"view_history","rt","trial_type","trial_index","time_elapsed","internal_node_id","stimulus","response","trial_part","word","question","answer","trial","accuracy"
"[{""page_index"":0,""viewing_time"":1413},{""page_index"":1,""viewing_time"":2592}]","4006","instructions","0","4006","0.0-0.0","","","","","","","",""
"","null","html-keyboard-response","1","5123","0.0-1.0-0.0-0.0","<span style= ""font-size:30px; font-family: monospace"">+</span>","null","fixation","","","","",""
"","4872","audio-keyboard-response","2","10279","0.0-1.0-1.0","../audio/prac-question-1-1.mp3"," ","","O","","","",""
"","22720","audio-keyboard-response","3","33270","0.0-1.0-1.1","../audio/prac-question-1-2.mp3"," ","","dia","","","",""
"","1491","audio-keyboard-response","4","35030","0.0-1.0-1.2","../audio/prac-question-1-3.mp3"," ","","estará","","","",""
"","1051","audio-keyboard-response","5","36342","0.0-1.0-1.3","../audio/prac-question-1-4.mp3"," ","","cheio","","","",""
"","891","audio-keyboard-response","6","37510","0.0-1.0-1.4","../audio/prac-question-1-5.mp3"," ","","de","","","",""
"","1040","audio-keyboard-response","7","38822","0.0-1.0-1.5","../audio/prac-question-1-6.mp3"," ","","nuvens","","","",""
"","909","audio-keyboard-response","8","40006","0.0-1.0-1.6","../audio/prac-question-1-7.mp3"," ","","hoje.","","","",""
"","null","html-keyboard-response","9","41273","0.0-1.0-0.7-0.7","<span style= ""font-size:30px; font-family: monospace"">+</span>","null","fixation","","","","",""
"","811","audio-keyboard-response","10","42374","0.0-1.0-1.7","../audio/prac-question-2-1.mp3"," ","","A","","","",""
"","1141","audio-keyboard-response","11","43781","0.0-1.0-1.8","../audio/prac-question-2-2.mp3"," ","","caneca","","","",""
"","1240","audio-keyboard-response","12","45302","0.0-1.0-1.9","../audio/prac-question-2-3.mp3"," ","","colorida","","","",""
"","880","audio-keyboard-response","13","46453","0.0-1.0-1.10","../audio/prac-question-2-4.mp3"," ","","caiu","","","",""
"","720","audio-keyboard-response","14","47445","0.0-1.0-1.11","../audio/prac-question-2-5.mp3"," ","","da","","","",""
"","960","audio-keyboard-response","15","48677","0.0-1.0-1.12","../audio/prac-question-2-6.mp3"," ","","mesa","","","",""
"","680","audio-keyboard-response","16","49622","0.0-1.0-1.13","../audio/prac-question-2-7.mp3"," ","","de","","","",""
"","1269","audio-keyboard-response","17","51174","0.0-1.0-1.14","../audio/prac-question-2-8.mp3"," ","","jantar.","","","",""
"","20804","html-keyboard-response","18","72229","0.0-1.0-2.14-0.14","<span style=""font-size:25px; font-family: monospace"">A caneca era colorida?</span>","s","","","A caneca era colorida?","null","prac-sent","false"
"[{""page_index"":0,""viewing_time"":3293}]","3293","instructions","19","76037","0.0-2.0","","","","","","","",""
"","null","html-keyboard-response","20","77164","0.0-3.0-0.0-0.0","<span style= ""font-size:30px; font-family: monospace"">+</span>","null","fixation","","","","",""
"","1091","audio-keyboard-response","21","78549","0.0-3.0-1.0","../audio/69-1-fem.mp3"," ","","A","","","",""
"","1229","audio-keyboard-response","22","80053","0.0-3.0-1.1","../audio/69-2-fem.mp3"," ","","loja","","","",""
"","1251","audio-keyboard-response","23","81573","0.0-3.0-1.2","../audio/69-3-fem.mp3"," ","","recebeu","","","",""
"","1632","audio-keyboard-response","24","83477","0.0-3.0-1.3","../audio/69-4-fem.mp3"," ","","uma","","","",""
"","1669","audio-keyboard-response","25","85413","0.0-3.0-1.4","../audio/69-5-fem.mp3"," ","","poltrona","","","",""
"","1040","audio-keyboard-response","26","86725","0.0-3.0-1.5","../audio/69-6-fem.mp3"," ","","de","","","",""
"","1040","audio-keyboard-response","27","88037","0.0-3.0-1.6","../audio/69-7-fem.mp3"," ","","couro","","","",""
"","1059","audio-keyboard-response","28","89365","0.0-3.0-1.7","../audio/69-8-fem.mp3"," ","","preto.","","","",""
"","null","html-keyboard-response","29","90632","0.0-3.0-0.8-0.8","<span style= ""font-size:30px; font-family: monospace"">+</span>","null","fixation","","","","",""
"","1259","audio-keyboard-response","30","92165","0.0-3.0-1.8","../audio/66-1-fem.mp3"," ","","Não","","","",""
"","1261","audio-keyboard-response","31","93701","0.0-3.0-1.9","../audio/66-2-fem.mp3"," ","","gosto","","","",""
"","1080","audio-keyboard-response","32","95045","0.0-3.0-1.10","../audio/66-3-fem.mp3"," ","","de","","","",""
"","1291","audio-keyboard-response","33","96613","0.0-3.0-1.11","../audio/66-4-fem.mp3"," ","","gente","","","",""
"","8101","audio-keyboard-response","34","104997","0.0-3.0-1.12","../audio/66-5-fem.mp3"," ","","egoísta","","","",""
"","1149","audio-keyboard-response","35","106421","0.0-3.0-1.13","../audio/66-6-fem.mp3"," ","","nem","","","",""
"","1480","audio-keyboard-response","36","108181","0.0-3.0-1.14","../audio/66-7-fem.mp3"," ","","chata.","","","",""
"","null","html-keyboard-response","37","109453","0.0-3.0-0.15-0.15","<span style= ""font-size:30px; font-family: monospace"">+</span>","null","fixation","","","","",""
"","51","audio-keyboard-response","38","109781","0.0-3.0-1.15","../audio/67-1-masc.mp3"," ","","Minha","","","",""
"","971","audio-keyboard-response","39","111013","0.0-3.0-1.16","../audio/67-2-masc.mp3"," ","","tia","","","",""
"","1051","audio-keyboard-response","40","112341","0.0-3.0-1.17","../audio/67-3-masc.mp3"," ","","comprou","","","",""
"","800","audio-keyboard-response","41","113413","0.0-3.0-1.18","../audio/67-4-masc.mp3"," ","","um","","","",""
"","992","audio-keyboard-response","42","114677","0.0-3.0-1.19","../audio/67-5-masc.mp3"," ","","cordão","","","",""
"","859","audio-keyboard-response","43","115813","0.0-3.0-1.20","../audio/67-6-masc.mp3"," ","","para","","","",""
"","832","audio-keyboard-response","44","116917","0.0-3.0-1.21","../audio/67-7-masc.mp3"," ","","o","","","",""
"","1368","audio-keyboard-response","45","118565","0.0-3.0-1.22","../audio/67-8-masc.mp3"," ","","varal.","","","",""
"","null","html-keyboard-response","46","119831","0.0-3.0-0.23-0.23","<span style= ""font-size:30px; font-family: monospace"">+</span>","null","fixation","","","","",""
"","851","audio-keyboard-response","47","120949","0.0-3.0-1.23","../audio/68-1-masc.mp3"," ","","Meu","","","",""
"","989","audio-keyboard-response","48","122213","0.0-3.0-1.24","../audio/68-2-masc.mp3"," ","","irmão","","","",""
"","952","audio-keyboard-response","49","123429","0.0-3.0-1.25","../audio/68-3-masc.mp3"," ","","teve","","","",""
"","1011","audio-keyboard-response","50","124709","0.0-3.0-1.26","../audio/68-4-masc.mp3"," ","","um","","","",""
"","1579","audio-keyboard-response","51","126565","0.0-3.0-1.27","../audio/68-5-masc.mp3"," ","","noivado","","","",""
"","920","audio-keyboard-response","52","127749","0.0-3.0-1.28","../audio/68-6-masc.mp3"," ","","longo","","","",""
"","731","audio-keyboard-response","53","128757","0.0-3.0-1.29","../audio/68-7-masc.mp3"," ","","e","","","",""
"","1560","audio-keyboard-response","54","130597","0.0-3.0-1.30","../audio/68-8-masc.mp3"," ","","maravilhoso.","","","",""
"","null","html-keyboard-response","55","131873","0.0-3.0-0.31-0.31","<span style= ""font-size:30px; font-family: monospace"">+</span>","null","fixation","","","","",""
"","909","audio-keyboard-response","56","133059","0.0-3.0-1.31","../audio/70-1-masc.mp3"," ","","O","","","",""
"","819","audio-keyboard-response","57","134163","0.0-3.0-1.32","../audio/70-2-masc.mp3"," ","","meu","","","",""
"","792","audio-keyboard-response","58","135236","0.0-3.0-1.33","../audio/70-3-masc.mp3"," ","","filho","","","",""
"","760","audio-keyboard-response","59","136259","0.0-3.0-1.34","../audio/70-4-masc.mp3"," ","","tem","","","",""
"","960","audio-keyboard-response","60","137491","0.0-3.0-1.35","../audio/70-5-masc.mp3"," ","","medo","","","",""
"","760","audio-keyboard-response","61","138531","0.0-3.0-1.36","../audio/70-6-masc.mp3"," ","","de","","","",""
"","1109","audio-keyboard-response","62","139923","0.0-3.0-1.37","../audio/70-7-masc.mp3"," ","","enguia","","","",""
"","971","audio-keyboard-response","63","141171","0.0-3.0-1.38","../audio/70-8-masc.mp3"," ","","e","","","",""
"","1832","audio-keyboard-response","64","143267","0.0-3.0-1.39","../audio/70-9-masc.mp3"," ","","beija-flor.","","","",""
"","6796","html-keyboard-response","65","150324","0.0-3.0-2.39-0.39","<span style=""font-size:25px; font-family: monospace"">O filho tem medo de tigre?</span>","s","","","O filho tem medo de tigre?","null","exp-sent","false"
"","null","html-keyboard-response","66","151839","0.0-3.0-0.40-0.40","<span style= ""font-size:30px; font-family: monospace"">+</span>","null","fixation","","","","",""
"","4520","audio-keyboard-response","67","156643","0.0-3.0-1.40","../audio/44-1-fem.mp3"," ","","Meus","","","",""
"","1400","audio-keyboard-response","68","158323","0.0-3.0-1.41","../audio/44-2-fem.mp3"," ","","irmãos","","","",""
"","1032","audio-keyboard-response","69","159635","0.0-3.0-1.42","../audio/44-3-fem.mp3"," ","","brigam","","","",""
"","8491","audio-keyboard-response","70","168388","0.0-3.0-1.43","../audio/44-4-fem.mp3"," ","","por","","","",""
"","1240","audio-keyboard-response","71","169907","0.0-3.0-1.44","../audio/44-5-fem.mp3"," ","","bobagem","","","",""
"","920","audio-keyboard-response","72","171108","0.0-3.0-1.45","../audio/44-6-fem.mp3"," ","","todos","","","",""
"","789","audio-keyboard-response","73","172163","0.0-3.0-1.46","../audio/44-7-fem.mp3"," ","","os","","","",""
"","840","audio-keyboard-response","74","173267","0.0-3.0-1.47","../audio/44-8-fem.mp3"," ","","dias.","","","",""
"","null","html-keyboard-response","75","174529","0.0-3.0-0.48-0.48","<span style= ""font-size:30px; font-family: monospace"">+</span>","null","fixation","","","","",""
"","320","audio-keyboard-response","76","175123","0.0-3.0-1.48","../audio/42-1-masc.mp3"," ","","Eu","","","",""
"","869","audio-keyboard-response","77","176259","0.0-3.0-1.49","../audio/42-2-masc.mp3"," ","","fui","","","",""
"","781","audio-keyboard-response","78","177315","0.0-3.0-1.50","../audio/42-3-masc.mp3"," ","","a","","","",""
"","859","audio-keyboard-response","79","178452","0.0-3.0-1.51","../audio/42-4-masc.mp3"," ","","uma","","","",""
"","981","audio-keyboard-response","80","179699","0.0-3.0-1.52","../audio/42-5-masc.mp3"," ","","loja","","","",""
"","781","audio-keyboard-response","81","180755","0.0-3.0-1.53","../audio/42-6-masc.mp3"," ","","de","","","",""
"","1149","audio-keyboard-response","82","182179","0.0-3.0-1.54","../audio/42-7-masc.mp3"," ","","móveis","","","",""
"","781","audio-keyboard-response","83","183235","0.0-3.0-1.55","../audio/42-8-masc.mp3"," ","","no","","","",""
"","1600","audio-keyboard-response","84","185108","0.0-3.0-1.56","../audio/42-9-masc.mp3"," ","","bairro.","","","",""
"","null","html-keyboard-response","85","186384","0.0-3.0-0.57-0.57","<span style= ""font-size:30px; font-family: monospace"">+</span>","null","fixation","","","","",""
"","771","audio-keyboard-response","86","187427","0.0-3.0-1.57","../audio/41-1-masc.mp3"," ","","A","","","",""
"","1120","audio-keyboard-response","87","188836","0.0-3.0-1.58","../audio/41-2-masc.mp3"," ","","novela","","","",""
"","939","audio-keyboard-response","88","190051","0.0-3.0-1.59","../audio/41-3-masc.mp3"," ","","falava","","","",""
"","741","audio-keyboard-response","89","191075","0.0-3.0-1.60","../audio/41-4-masc.mp3"," ","","de","","","",""
"","971","audio-keyboard-response","90","192307","0.0-3.0-1.61","../audio/41-5-masc.mp3"," ","","paixão","","","",""
"","709","audio-keyboard-response","91","193283","0.0-3.0-1.62","../audio/41-6-masc.mp3"," ","","e","","","",""
"","2560","audio-keyboard-response","92","196115","0.0-3.0-1.63","../audio/41-7-masc.mp3"," ","","comédia.","","","",""
"","null","html-keyboard-response","93","197382","0.0-3.0-0.64-0.64","<span style= ""font-size:30px; font-family: monospace"">+</span>","null","fixation","","","","",""
"","869","audio-keyboard-response","94","198531","0.0-3.0-1.64","../audio/43-1-masc.mp3"," ","","Eu","","","",""
"","891","audio-keyboard-response","95","199699","0.0-3.0-1.65","../audio/43-2-masc.mp3"," ","","achei","","","",""
"","739","audio-keyboard-response","96","200723","0.0-3.0-1.66","../audio/43-3-masc.mp3"," ","","um","","","",""
"","1131","audio-keyboard-response","97","202131","0.0-3.0-1.67","../audio/43-4-masc.mp3"," ","","colchão","","","",""
"","1120","audio-keyboard-response","98","203523","0.0-3.0-1.68","../audio/43-5-masc.mp3"," ","","velho","","","",""
"","840","audio-keyboard-response","99","204643","0.0-3.0-1.69","../audio/43-6-masc.mp3"," ","","e","","","",""
"","1088","audio-keyboard-response","100","206003","0.0-3.0-1.70","../audio/43-7-masc.mp3"," ","","imundo","","","",""
"","869","audio-keyboard-response","101","207139","0.0-3.0-1.71","../audio/43-8-masc.mp3"," ","","na","","","",""
"","1091","audio-keyboard-response","102","208499","0.0-3.0-1.72","../audio/43-9-masc.mp3"," ","","casa.","","","",""
"","null","html-keyboard-response","103","209751","0.0-3.0-0.73-0.73","<span style= ""font-size:30px; font-family: monospace"">+</span>","null","fixation","","","","",""
"","1040","audio-keyboard-response","104","211059","0.0-3.0-1.73","../audio/45-1-masc.mp3"," ","","O","","","",""
"","989","audio-keyboard-response","105","212323","0.0-3.0-1.74","../audio/45-2-masc.mp3"," ","","homem","","","",""
"","1000","audio-keyboard-response","106","213587","0.0-3.0-1.75","../audio/45-3-masc.mp3"," ","","pagou","","","",""
"","851","audio-keyboard-response","107","214707","0.0-3.0-1.76","../audio/45-4-masc.mp3"," ","","o","","","",""
"","939","audio-keyboard-response","108","215923","0.0-3.0-1.77","../audio/45-5-masc.mp3"," ","","aluguel","","","",""
"","749","audio-keyboard-response","109","216947","0.0-3.0-1.78","../audio/45-6-masc.mp3"," ","","com","","","",""
"","1091","audio-keyboard-response","110","218307","0.0-3.0-1.79","../audio/45-7-masc.mp3"," ","","atraso.","","","",""
"","16637","html-keyboard-response","111","235203","0.0-3.0-2.79-0.79","<span style=""font-size:25px; font-family: monospace"">O homem pagou o aluguel em dia?</span>","n","","","O homem pagou o aluguel em dia?","null","exp-sent","false"
"","null","html-keyboard-response","112","236726","0.0-3.0-0.80-0.80","<span style= ""font-size:30px; font-family: monospace"">+</span>","null","fixation","","","","",""
"","909","audio-keyboard-response","113","237923","0.0-3.0-1.80","../audio/57-1-fem.mp3"," ","","O","","","",""
"","17139","audio-keyboard-response","114","255330","0.0-3.0-1.81","../audio/57-2-fem.mp3"," ","","capitão","","","",""
"","931","audio-keyboard-response","115","256530","0.0-3.0-1.82","../audio/57-3-fem.mp3"," ","","deu","","","",""
"","851","audio-keyboard-response","116","257650","0.0-3.0-1.83","../audio/57-4-fem.mp3"," ","","uma","","","",""
"","1432","audio-keyboard-response","117","259346","0.0-3.0-1.84","../audio/57-5-fem.mp3"," ","","instrução","","","",""
"","891","audio-keyboard-response","118","260514","0.0-3.0-1.85","../audio/57-6-fem.mp3"," ","","para","","","",""
"","971","audio-keyboard-response","119","261746","0.0-3.0-1.86","../audio/57-7-fem.mp3"," ","","as","","","",""
"","1069","audio-keyboard-response","120","263090","0.0-3.0-1.87","../audio/57-8-fem.mp3"," ","","pessoas.","","","",""
"","null","html-keyboard-response","121","264357","0.0-3.0-0.88-0.88","<span style= ""font-size:30px; font-family: monospace"">+</span>","null","fixation","","","","",""
"","792","audio-keyboard-response","122","265427","0.0-3.0-1.88","../audio/56-1-masc.mp3"," ","","A","","","",""
"","909","audio-keyboard-response","123","266610","0.0-3.0-1.89","../audio/56-2-masc.mp3"," ","","moça","","","",""
"","781","audio-keyboard-response","124","267666","0.0-3.0-1.90","../audio/56-3-masc.mp3"," ","","foi","","","",""
"","771","audio-keyboard-response","125","268706","0.0-3.0-1.91","../audio/56-4-masc.mp3"," ","","à","","","",""
"","1171","audio-keyboard-response","126","270146","0.0-3.0-1.92","../audio/56-5-masc.mp3"," ","","agência","","","",""
"","1379","audio-keyboard-response","127","271810","0.0-3.0-1.93","../audio/56-6-masc.mp3"," ","","bancária","","","",""
"","992","audio-keyboard-response","128","273074","0.0-3.0-1.94","../audio/56-7-masc.mp3"," ","","ontem","","","",""
"","888","audio-keyboard-response","129","274242","0.0-3.0-1.95","../audio/56-8-masc.mp3"," ","","de","","","",""
"","15032","audio-keyboard-response","130","289554","0.0-3.0-1.96","../audio/56-9-masc.mp3"," ","","tarde.","","","",""
"","null","html-keyboard-response","131","290830","0.0-3.0-0.97-0.97","<span style= ""font-size:30px; font-family: monospace"">+</span>","null","fixation","","","","",""
"","872","audio-keyboard-response","132","291986","0.0-3.0-1.97","../audio/59-1-masc.mp3"," ","","O","","","",""
"","971","audio-keyboard-response","133","293234","0.0-3.0-1.98","../audio/59-2-masc.mp3"," ","","carteiro","","","",""
"","1019","audio-keyboard-response","134","294530","0.0-3.0-1.99","../audio/59-3-masc.mp3"," ","","fez","","","",""
"","792","audio-keyboard-response","135","295586","0.0-3.0-1.100","../audio/59-4-masc.mp3"," ","","uma","","","",""
"","1091","audio-keyboard-response","136","296947","0.0-3.0-1.101","../audio/59-5-masc.mp3"," ","","tentativa","","","",""
"","640","audio-keyboard-response","137","297858","0.0-3.0-1.102","../audio/59-6-masc.mp3"," ","","de","","","",""
"","1032","audio-keyboard-response","138","299154","0.0-3.0-1.103","../audio/59-7-masc.mp3"," ","","entrega.","","","",""
"","null","html-keyboard-response","139","300434","0.0-3.0-0.104-0.104","<span style= ""font-size:30px; font-family: monospace"">+</span>","null","fixation","","","","",""
"","971","audio-keyboard-response","140","301698","0.0-3.0-1.104","../audio/58-1-fem.mp3"," ","","Havia","","","",""
"","989","audio-keyboard-response","141","302962","0.0-3.0-1.105","../audio/58-2-fem.mp3"," ","","apenas","","","",""
"","688","audio-keyboard-response","142","303922","0.0-3.0-1.106","../audio/58-3-fem.mp3"," ","","um","","","",""
"","1112","audio-keyboard-response","143","305314","0.0-3.0-1.107","../audio/58-4-fem.mp3"," ","","último","","","",""
"","1160","audio-keyboard-response","144","306754","0.0-3.0-1.108","../audio/58-5-fem.mp3"," ","","herdeiro","","","",""
"","728","audio-keyboard-response","145","307762","0.0-3.0-1.109","../audio/58-6-fem.mp3"," ","","do","","","",""
"","1040","audio-keyboard-response","146","309074","0.0-3.0-1.110","../audio/58-7-fem.mp3"," ","","dinheiro.","","","",""
"","null","html-keyboard-response","147","310338","0.0-3.0-0.111-0.111","<span style= ""font-size:30px; font-family: monospace"">+</span>","null","fixation","","","","",""
"","1059","audio-keyboard-response","148","311682","0.0-3.0-1.111","../audio/60-1-fem.mp3"," ","","Ondas","","","",""
"","760","audio-keyboard-response","149","312722","0.0-3.0-1.112","../audio/60-2-fem.mp3"," ","","têm","","","",""
"","760","audio-keyboard-response","150","313746","0.0-3.0-1.113","../audio/60-3-fem.mp3"," ","","um","","","",""
"","1339","audio-keyboard-response","151","315362","0.0-3.0-1.114","../audio/60-4-fem.mp3"," ","","impacto","","","",""
"","1032","audio-keyboard-response","152","316674","0.0-3.0-1.115","../audio/60-5-fem.mp3"," ","","destrutivo","","","",""
"","840","audio-keyboard-response","153","317794","0.0-3.0-1.116","../audio/60-6-fem.mp3"," ","","no","","","",""
"","1360","audio-keyboard-response","154","319426","0.0-3.0-1.117","../audio/60-7-fem.mp3"," ","","litoral.","","","",""
"","7691","html-keyboard-response","155","327378","0.0-3.0-2.117-0.117","<span style=""font-size:25px; font-family: monospace"">Ondas têm um impacto destrutivo?</span>","s","","","Ondas têm um impacto destrutivo?","null","exp-sent","false"
"","null","html-keyboard-response","156","328888","0.0-3.0-0.118-0.118","<span style= ""font-size:30px; font-family: monospace"">+</span>","null","fixation","","","","",""
"","800","audio-keyboard-response","157","329970","0.0-3.0-1.118","../audio/36-1-fem.mp3"," ","","Meu","","","",""
"","901","audio-keyboard-response","158","331138","0.0-3.0-1.119","../audio/36-2-fem.mp3"," ","","tio","","","",""
"","1341","audio-keyboard-response","159","332754","0.0-3.0-1.120","../audio/36-3-fem.mp3"," ","","comprou","","","",""
"","4979","audio-keyboard-response","160","338002","0.0-3.0-1.121","../audio/36-4-fem.mp3"," ","","um","","","",""
"","1152","audio-keyboard-response","161","339426","0.0-3.0-1.122","../audio/36-5-fem.mp3"," ","","filtro","","","",""
"","829","audio-keyboard-response","162","340530","0.0-3.0-1.123","../audio/36-6-fem.mp3"," ","","de","","","",""
"","1152","audio-keyboard-response","163","341954","0.0-3.0-1.124","../audio/36-7-fem.mp3"," ","","água","","","",""
"","981","audio-keyboard-response","164","343218","0.0-3.0-1.125","../audio/36-8-fem.mp3"," ","","hoje","","","",""
"","2520","audio-keyboard-response","165","346018","0.0-3.0-1.126","../audio/36-9-fem.mp3"," ","","cedo.","","","",""
"","null","html-keyboard-response","166","347292","0.0-3.0-0.127-0.127","<span style= ""font-size:30px; font-family: monospace"">+</span>","null","fixation","","","","",""
"","829","audio-keyboard-response","167","348402","0.0-3.0-1.127","../audio/39-1-masc.mp3"," ","","O","","","",""
"","1149","audio-keyboard-response","168","349842","0.0-3.0-1.128","../audio/39-2-masc.mp3"," ","","conselho","","","",""
"","899","audio-keyboard-response","169","351010","0.0-3.0-1.129","../audio/39-3-masc.mp3"," ","","foi","","","",""
"","1061","audio-keyboard-response","170","352338","0.0-3.0-1.130","../audio/39-4-masc.mp3"," ","","muito","","","",""
"","949","audio-keyboard-response","171","353570","0.0-3.0-1.131","../audio/39-5-masc.mp3"," ","","útil","","","",""
"","901","audio-keyboard-response","172","354754","0.0-3.0-1.132","../audio/39-6-masc.mp3"," ","","para","","","",""
"","880","audio-keyboard-response","173","355906","0.0-3.0-1.133","../audio/39-7-masc.mp3"," ","","minha","","","",""
"","1051","audio-keyboard-response","174","357234","0.0-3.0-1.134","../audio/39-8-masc.mp3"," ","","tia.","","","",""
"","null","html-keyboard-response","175","358514","0.0-3.0-0.135-0.135","<span style= ""font-size:30px; font-family: monospace"">+</span>","null","fixation","","","","",""
"","872","audio-keyboard-response","176","359666","0.0-3.0-1.135","../audio/37-1-masc.mp3"," ","","Eu","","","",""
"","960","audio-keyboard-response","177","360898","0.0-3.0-1.136","../audio/37-2-masc.mp3"," ","","adoro","","","",""
"","832","audio-keyboard-response","178","361986","0.0-3.0-1.137","../audio/37-3-masc.mp3"," ","","suco","","","",""
"","749","audio-keyboard-response","179","363010","0.0-3.0-1.138","../audio/37-4-masc.mp3"," ","","de","","","",""
"","1032","audio-keyboard-response","180","364306","0.0-3.0-1.139","../audio/37-5-masc.mp3"," ","","manga","","","",""
"","731","audio-keyboard-response","181","365314","0.0-3.0-1.140","../audio/37-6-masc.mp3"," ","","com","","","",""
"","1179","audio-keyboard-response","182","366770","0.0-3.0-1.141","../audio/37-7-masc.mp3"," ","","hortelã.","","","",""
"","null","html-keyboard-response","183","368046","0.0-3.0-0.142-0.142","<span style= ""font-size:30px; font-family: monospace"">+</span>","null","fixation","","","","",""
"","149","audio-keyboard-response","184","368483","0.0-3.0-1.142","../audio/38-1-masc.mp3"," ","","A","","","",""
"","992","audio-keyboard-response","185","369746","0.0-3.0-1.143","../audio/38-2-masc.mp3"," ","","empresa","","","",""
"","851","audio-keyboard-response","186","370866","0.0-3.0-1.144","../audio/38-3-masc.mp3"," ","","criou","","","",""
"","709","audio-keyboard-response","187","371842","0.0-3.0-1.145","../audio/38-4-masc.mp3"," ","","a","","","",""
"","1051","audio-keyboard-response","188","373170","0.0-3.0-1.146","../audio/38-5-masc.mp3"," ","","patente","","","",""
"","752","audio-keyboard-response","189","374194","0.0-3.0-1.147","../audio/38-6-masc.mp3"," ","","da","","","",""
"","1480","audio-keyboard-response","190","375953","0.0-3.0-1.148","../audio/38-7-masc.mp3"," ","","frigideira.","","","",""
"","null","html-keyboard-response","191","377228","0.0-3.0-0.149-0.149","<span style= ""font-size:30px; font-family: monospace"">+</span>","null","fixation","","","","",""
"","880","audio-keyboard-response","192","378385","0.0-3.0-1.149","../audio/40-1-masc.mp3"," ","","O","","","",""
"","931","audio-keyboard-response","193","379585","0.0-3.0-1.150","../audio/40-2-masc.mp3"," ","","jogo","","","",""
"","971","audio-keyboard-response","194","380833","0.0-3.0-1.151","../audio/40-3-masc.mp3"," ","","falava","","","",""
"","920","audio-keyboard-response","195","382033","0.0-3.0-1.152","../audio/40-4-masc.mp3"," ","","de","","","",""
"","1208","audio-keyboard-response","196","383521","0.0-3.0-1.153","../audio/40-5-masc.mp3"," ","","fantasia","","","",""
"","749","audio-keyboard-response","197","384545","0.0-3.0-1.154","../audio/40-6-masc.mp3"," ","","e","","","",""
"","840","audio-keyboard-response","198","385665","0.0-3.0-1.155","../audio/40-7-masc.mp3"," ","","de","","","",""
"","1611","audio-keyboard-response","199","387537","0.0-3.0-1.156","../audio/40-8-masc.mp3"," ","","aventura.","","","",""
"","8261","html-keyboard-response","200","396049","0.0-3.0-2.156-0.156","<span style=""font-size:25px; font-family: monospace"">O jogo tinha fantasia e aventura?</span>","s","","","O jogo tinha fantasia e aventura?","null","exp-sent","false"
"","null","html-keyboard-response","201","397576","0.0-3.0-0.157-0.157","<span style= ""font-size:30px; font-family: monospace"">+</span>","null","fixation","","","","",""
"","2371","audio-keyboard-response","202","400225","0.0-3.0-1.157","../audio/33-1-fem.mp3"," ","","Eles","","","",""
"","1091","audio-keyboard-response","203","401586","0.0-3.0-1.158","../audio/33-2-fem.mp3"," ","","sabem","","","",""
"","741","audio-keyboard-response","204","402593","0.0-3.0-1.159","../audio/33-3-fem.mp3"," ","","do","","","",""
"","960","audio-keyboard-response","205","403825","0.0-3.0-1.160","../audio/33-4-fem.mp3"," ","","seu","","","",""
"","1259","audio-keyboard-response","206","405361","0.0-3.0-1.161","../audio/33-5-fem.mp3"," ","","privilégio","","","",""
"","899","audio-keyboard-response","207","406529","0.0-3.0-1.162","../audio/33-6-fem.mp3"," ","","nessa","","","",""
"","1381","audio-keyboard-response","208","408177","0.0-3.0-1.163","../audio/33-7-fem.mp3"," ","","confusão.","","","",""
"","null","html-keyboard-response","209","409445","0.0-3.0-0.164-0.164","<span style= ""font-size:30px; font-family: monospace"">+</span>","null","fixation","","","","",""
"","1429","audio-keyboard-response","210","411137","0.0-3.0-1.164","../audio/31-1-fem.mp3"," ","","O","","","",""
"","1019","audio-keyboard-response","211","412449","0.0-3.0-1.165","../audio/31-2-fem.mp3"," ","","padeiro","","","",""
"","992","audio-keyboard-response","212","413713","0.0-3.0-1.166","../audio/31-3-fem.mp3"," ","","usou","","","",""
"","829","audio-keyboard-response","213","414817","0.0-3.0-1.167","../audio/31-4-fem.mp3"," ","","a","","","",""
"","931","audio-keyboard-response","214","416017","0.0-3.0-1.168","../audio/31-5-fem.mp3"," ","","balança","","","",""
"","981","audio-keyboard-response","215","417266","0.0-3.0-1.169","../audio/31-6-fem.mp3"," ","","o","","","",""
"","989","audio-keyboard-response","216","418529","0.0-3.0-1.170","../audio/31-7-fem.mp3"," ","","dia","","","",""
"","1920","audio-keyboard-response","217","420721","0.0-3.0-1.171","../audio/31-8-fem.mp3"," ","","inteiro.","","","",""
"","null","html-keyboard-response","218","421990","0.0-3.0-0.172-0.172","<span style= ""font-size:30px; font-family: monospace"">+</span>","null","fixation","","","","",""
"","1280","audio-keyboard-response","219","423553","0.0-3.0-1.172","../audio/32-1-masc.mp3"," ","","A","","","",""
"","1819","audio-keyboard-response","220","425649","0.0-3.0-1.173","../audio/32-2-masc.mp3"," ","","tia","","","",""
"","1080","audio-keyboard-response","221","427009","0.0-3.0-1.174","../audio/32-3-masc.mp3"," ","","comprou","","","",""
"","3792","audio-keyboard-response","222","431073","0.0-3.0-1.175","../audio/32-4-masc.mp3"," ","","um","","","",""
"","960","audio-keyboard-response","223","432305","0.0-3.0-1.176","../audio/32-5-masc.mp3"," ","","pilão","","","",""
"","789","audio-keyboard-response","224","433361","0.0-3.0-1.177","../audio/32-6-masc.mp3"," ","","para","","","",""
"","1392","audio-keyboard-response","225","435025","0.0-3.0-1.178","../audio/32-7-masc.mp3"," ","","a","","","",""
"","1139","audio-keyboard-response","226","436449","0.0-3.0-1.179","../audio/32-8-masc.mp3"," ","","cozinha.","","","",""
"","null","html-keyboard-response","227","437722","0.0-3.0-0.180-0.180","<span style= ""font-size:30px; font-family: monospace"">+</span>","null","fixation","","","","",""
"","1000","audio-keyboard-response","228","438993","0.0-3.0-1.180","../audio/34-1-masc.mp3"," ","","Cobrança","","","",""
"","1069","audio-keyboard-response","229","440337","0.0-3.0-1.181","../audio/34-2-masc.mp3"," ","","excessiva","","","",""
"","691","audio-keyboard-response","230","441297","0.0-3.0-1.182","../audio/34-3-masc.mp3"," ","","é","","","",""
"","661","audio-keyboard-response","231","442225","0.0-3.0-1.183","../audio/34-4-masc.mp3"," ","","um","","","",""
"","1011","audio-keyboard-response","232","443505","0.0-3.0-1.184","../audio/34-5-masc.mp3"," ","","fardo","","","",""
"","771","audio-keyboard-response","233","444545","0.0-3.0-1.185","../audio/34-6-masc.mp3"," ","","para","","","",""
"","651","audio-keyboard-response","234","445473","0.0-3.0-1.186","../audio/34-7-masc.mp3"," ","","a","","","",""
"","1051","audio-keyboard-response","235","446785","0.0-3.0-1.187","../audio/34-8-masc.mp3"," ","","cabeça.","","","",""
"","null","html-keyboard-response","236","448063","0.0-3.0-0.188-0.188","<span style= ""font-size:30px; font-family: monospace"">+</span>","null","fixation","","","","",""
"","680","audio-keyboard-response","237","449025","0.0-3.0-1.188","../audio/35-1-masc.mp3"," ","","A","","","",""
"","1280","audio-keyboard-response","238","450577","0.0-3.0-1.189","../audio/35-2-masc.mp3"," ","","receita","","","",""
"","571","audio-keyboard-response","239","451425","0.0-3.0-1.190","../audio/35-3-masc.mp3"," ","","para","","","",""
"","699","audio-keyboard-response","240","452401","0.0-3.0-1.191","../audio/35-4-masc.mp3"," ","","a","","","",""
"","971","audio-keyboard-response","241","453649","0.0-3.0-1.192","../audio/35-5-masc.mp3"," ","","preparação","","","",""
"","560","audio-keyboard-response","242","454481","0.0-3.0-1.193","../audio/35-6-masc.mp3"," ","","do","","","",""
"","928","audio-keyboard-response","243","455681","0.0-3.0-1.194","../audio/35-7-masc.mp3"," ","","bolo","","","",""
"","760","audio-keyboard-response","244","456705","0.0-3.0-1.195","../audio/35-8-masc.mp3"," ","","é","","","",""
"","989","audio-keyboard-response","245","457969","0.0-3.0-1.196","../audio/35-9-masc.mp3"," ","","leve.","","","",""
"","7110","html-keyboard-response","246","465329","0.0-3.0-2.196-0.196","<span style=""font-size:25px; font-family: monospace"">A receita do bolo é pesada?</span>","n","","","A receita do bolo é pesada?","null","exp-sent","false"
"","null","html-keyboard-response","247","466848","0.0-3.0-0.197-0.197","<span style= ""font-size:30px; font-family: monospace"">+</span>","null","fixation","","","","",""
"","851","audio-keyboard-response","248","467985","0.0-3.0-1.197","../audio/12-1-masc.mp3"," ","","O","","","",""
"","800","audio-keyboard-response","249","469056","0.0-3.0-1.198","../audio/12-2-masc.mp3"," ","","dia","","","",""
"","1061","audio-keyboard-response","250","470385","0.0-3.0-1.199","../audio/12-3-masc.mp3"," ","","estava","","","",""
"","1251","audio-keyboard-response","251","471905","0.0-3.0-1.200","../audio/12-4-masc.mp3"," ","","quente,","","","",""
"","1229","audio-keyboard-response","252","473409","0.0-3.0-1.201","../audio/12-5-masc.mp3"," ","","tranquilo","","","",""
"","821","audio-keyboard-response","253","474497","0.0-3.0-1.202","../audio/12-6-masc.mp3"," ","","e","","","",""
"","1091","audio-keyboard-response","254","475857","0.0-3.0-1.203","../audio/12-7-masc.mp3"," ","","ensolarado.","","","",""
"","null","html-keyboard-response","255","477133","0.0-3.0-0.204-0.204","<span style= ""font-size:30px; font-family: monospace"">+</span>","null","fixation","","","","",""
"","680","audio-keyboard-response","256","478097","0.0-3.0-1.204","../audio/14-1-masc.mp3"," ","","O","","","",""
"","851","audio-keyboard-response","257","479217","0.0-3.0-1.205","../audio/14-2-masc.mp3"," ","","cachorro","","","",""
"","720","audio-keyboard-response","258","480209","0.0-3.0-1.206","../audio/14-3-masc.mp3"," ","","é","","","",""
"","691","audio-keyboard-response","259","481185","0.0-3.0-1.207","../audio/14-4-masc.mp3"," ","","muito","","","",""
"","829","audio-keyboard-response","260","482289","0.0-3.0-1.208","../audio/14-5-masc.mp3"," ","","fiel","","","",""
"","731","audio-keyboard-response","261","483297","0.0-3.0-1.209","../audio/14-6-masc.mp3"," ","","a","","","",""
"","981","audio-keyboard-response","262","484545","0.0-3.0-1.210","../audio/14-7-masc.mp3"," ","","seus","","","",""
"","48589","audio-keyboard-response","263","533408","0.0-3.0-1.211","../audio/14-8-masc.mp3"," ","","donos.","","","",""
"","null","html-keyboard-response","264","534660","0.0-3.0-0.212-0.212","<span style= ""font-size:30px; font-family: monospace"">+</span>","null","fixation","","","","",""
"","648","audio-keyboard-response","265","535680","0.0-3.0-1.212","../audio/11-1-masc.mp3"," ","","Elas","","","",""
"","880","audio-keyboard-response","266","536848","0.0-3.0-1.213","../audio/11-2-masc.mp3"," ","","gostam","","","",""
"","1179","audio-keyboard-response","267","538288","0.0-3.0-1.214","../audio/11-3-masc.mp3"," ","","muito","","","",""
"","771","audio-keyboard-response","268","539328","0.0-3.0-1.215","../audio/11-4-masc.mp3"," ","","de","","","",""
"","1731","audio-keyboard-response","269","541344","0.0-3.0-1.216","../audio/11-5-masc.mp3"," ","","aritmética","","","",""
"","789","audio-keyboard-response","270","542400","0.0-3.0-1.217","../audio/11-6-masc.mp3"," ","","e","","","",""
"","2291","audio-keyboard-response","271","544976","0.0-3.0-1.218","../audio/11-7-masc.mp3"," ","","de","","","",""
"","1341","audio-keyboard-response","272","546592","0.0-3.0-1.219","../audio/11-8-masc.mp3"," ","","leitura.","","","",""
"","null","html-keyboard-response","273","547855","0.0-3.0-0.220-0.220","<span style= ""font-size:30px; font-family: monospace"">+</span>","null","fixation","","","","",""
"","869","audio-keyboard-response","274","549008","0.0-3.0-1.220","../audio/13-1-masc.mp3"," ","","Para","","","",""
"","680","audio-keyboard-response","275","549952","0.0-3.0-1.221","../audio/13-2-masc.mp3"," ","","mim","","","",""
"","600","audio-keyboard-response","276","550832","0.0-3.0-1.222","../audio/13-3-masc.mp3"," ","","é","","","",""
"","669","audio-keyboard-response","277","551776","0.0-3.0-1.223","../audio/13-4-masc.mp3"," ","","muito","","","",""
"","952","audio-keyboard-response","278","552992","0.0-3.0-1.224","../audio/13-5-masc.mp3"," ","","difícil","","","",""
"","1139","audio-keyboard-response","279","554400","0.0-3.0-1.225","../audio/13-6-masc.mp3"," ","","acordar","","","",""
"","859","audio-keyboard-response","280","555520","0.0-3.0-1.226","../audio/13-7-masc.mp3"," ","","cedo.","","","",""
"","null","html-keyboard-response","281","556791","0.0-3.0-0.227-0.227","<span style= ""font-size:30px; font-family: monospace"">+</span>","null","fixation","","","","",""
"","749","audio-keyboard-response","282","557824","0.0-3.0-1.227","../audio/15-1-fem.mp3"," ","","Meu","","","",""
"","931","audio-keyboard-response","283","559024","0.0-3.0-1.228","../audio/15-2-fem.mp3"," ","","primo","","","",""
"","741","audio-keyboard-response","284","560032","0.0-3.0-1.229","../audio/15-3-fem.mp3"," ","","é","","","",""
"","771","audio-keyboard-response","285","561072","0.0-3.0-1.230","../audio/15-4-fem.mp3"," ","","um","","","",""
"","1000","audio-keyboard-response","286","562352","0.0-3.0-1.231","../audio/15-5-fem.mp3"," ","","grande","","","",""
"","1288","audio-keyboard-response","287","563920","0.0-3.0-1.232","../audio/15-6-fem.mp3"," ","","vendedor","","","",""
"","869","audio-keyboard-response","288","565056","0.0-3.0-1.233","../audio/15-7-fem.mp3"," ","","de","","","",""
"","1051","audio-keyboard-response","289","566368","0.0-3.0-1.234","../audio/15-8-fem.mp3"," ","","carros.","","","",""
"","6516","html-keyboard-response","290","573136","0.0-3.0-2.234-0.234","<span style=""font-size:25px; font-family: monospace"">O primo é um vendedor de carros?</span>","s","","","O primo é um vendedor de carros?","null","exp-sent","false"
"","null","html-keyboard-response","291","574665","0.0-3.0-0.235-0.235","<span style= ""font-size:30px; font-family: monospace"">+</span>","null","fixation","","","","",""
"","749","audio-keyboard-response","292","575696","0.0-3.0-1.235","../audio/79-1-fem.mp3"," ","","A","","","",""
"","920","audio-keyboard-response","293","576896","0.0-3.0-1.236","../audio/79-2-fem.mp3"," ","","médica","","","",""
"","1080","audio-keyboard-response","294","578256","0.0-3.0-1.237","../audio/79-3-fem.mp3"," ","","verificou","","","",""
"","621","audio-keyboard-response","295","579152","0.0-3.0-1.238","../audio/79-4-fem.mp3"," ","","a","","","",""
"","979","audio-keyboard-response","296","580400","0.0-3.0-1.239","../audio/79-5-fem.mp3"," ","","gengiva","","","",""
"","760","audio-keyboard-response","297","581440","0.0-3.0-1.240","../audio/79-6-fem.mp3"," ","","por","","","",""
"","1019","audio-keyboard-response","298","582736","0.0-3.0-1.241","../audio/79-7-fem.mp3"," ","","último.","","","",""
"","null","html-keyboard-response","299","584015","0.0-3.0-0.242-0.242","<span style= ""font-size:30px; font-family: monospace"">+</span>","null","fixation","","","","",""
"","651","audio-keyboard-response","300","584944","0.0-3.0-1.242","../audio/76-1-fem.mp3"," ","","O","","","",""
"","1269","audio-keyboard-response","301","586479","0.0-3.0-1.243","../audio/76-2-fem.mp3"," ","","bisavô","","","",""
"","1059","audio-keyboard-response","302","587808","0.0-3.0-1.244","../audio/76-3-fem.mp3"," ","","comprou","","","",""
"","672","audio-keyboard-response","303","588752","0.0-3.0-1.245","../audio/76-4-fem.mp3"," ","","um","","","",""
"","1171","audio-keyboard-response","304","590192","0.0-3.0-1.246","../audio/76-5-fem.mp3"," ","","ralador","","","",""
"","651","audio-keyboard-response","305","591104","0.0-3.0-1.247","../audio/76-6-fem.mp3"," ","","de","","","",""
"","1320","audio-keyboard-response","306","592688","0.0-3.0-1.248","../audio/76-7-fem.mp3"," ","","queijo.","","","",""
"","null","html-keyboard-response","307","593968","0.0-3.0-0.249-0.249","<span style= ""font-size:30px; font-family: monospace"">+</span>","null","fixation","","","","",""
"","760","audio-keyboard-response","308","595008","0.0-3.0-1.249","../audio/77-1-masc.mp3"," ","","A","","","",""
"","869","audio-keyboard-response","309","596143","0.0-3.0-1.250","../audio/77-2-masc.mp3"," ","","criança","","","",""
"","800","audio-keyboard-response","310","597216","0.0-3.0-1.251","../audio/77-3-masc.mp3"," ","","ficou","","","",""
"","880","audio-keyboard-response","311","598368","0.0-3.0-1.252","../audio/77-4-masc.mp3"," ","","muito","","","",""
"","880","audio-keyboard-response","312","599536","0.0-3.0-1.253","../audio/77-5-masc.mp3"," ","","feliz","","","",""
"","680","audio-keyboard-response","313","600496","0.0-3.0-1.254","../audio/77-6-masc.mp3"," ","","com","","","",""
"","701","audio-keyboard-response","314","601471","0.0-3.0-1.255","../audio/77-7-masc.mp3"," ","","o","","","",""
"","1048","audio-keyboard-response","315","602800","0.0-3.0-1.256","../audio/77-8-masc.mp3"," ","","brinquedo.","","","",""
"","null","html-keyboard-response","316","604070","0.0-3.0-0.257-0.257","<span style= ""font-size:30px; font-family: monospace"">+</span>","null","fixation","","","","",""
"","611","audio-keyboard-response","317","604976","0.0-3.0-1.257","../audio/78-1-fem.mp3"," ","","Eles","","","",""
"","891","audio-keyboard-response","318","606144","0.0-3.0-1.258","../audio/78-2-fem.mp3"," ","","trazem","","","",""
"","699","audio-keyboard-response","319","607120","0.0-3.0-1.259","../audio/78-3-fem.mp3"," ","","um","","","",""
"","1061","audio-keyboard-response","320","608464","0.0-3.0-1.260","../audio/78-4-fem.mp3"," ","","fato","","","",""
"","1461","audio-keyboard-response","321","610192","0.0-3.0-1.261","../audio/78-5-fem.mp3"," ","","urgente","","","",""
"","949","audio-keyboard-response","322","611408","0.0-3.0-1.262","../audio/78-6-fem.mp3"," ","","todos","","","",""
"","840","audio-keyboard-response","323","612512","0.0-3.0-1.263","../audio/78-7-fem.mp3"," ","","os","","","",""
"","899","audio-keyboard-response","324","613680","0.0-3.0-1.264","../audio/78-8-fem.mp3"," ","","dias.","","","",""
"","null","html-keyboard-response","325","614960","0.0-3.0-0.265-0.265","<span style= ""font-size:30px; font-family: monospace"">+</span>","null","fixation","","","","",""
"","800","audio-keyboard-response","326","616048","0.0-3.0-1.265","../audio/80-1-fem.mp3"," ","","Meu","","","",""
"","861","audio-keyboard-response","327","617184","0.0-3.0-1.266","../audio/80-2-fem.mp3"," ","","primo","","","",""
"","1240","audio-keyboard-response","328","618688","0.0-3.0-1.267","../audio/80-3-fem.mp3"," ","","conheceu","","","",""
"","800","audio-keyboard-response","329","619760","0.0-3.0-1.268","../audio/80-4-fem.mp3"," ","","um","","","",""
"","1160","audio-keyboard-response","330","621200","0.0-3.0-1.269","../audio/80-5-fem.mp3"," ","","jovem","","","",""
"","1272","audio-keyboard-response","331","622752","0.0-3.0-1.270","../audio/80-6-fem.mp3"," ","","amável","","","",""
"","720","audio-keyboard-response","332","623744","0.0-3.0-1.271","../audio/80-7-fem.mp3"," ","","e","","","",""
"","1400","audio-keyboard-response","333","625424","0.0-3.0-1.272","../audio/80-8-fem.mp3"," ","","confiante.","","","",""
"","3909","html-keyboard-response","334","629584","0.0-3.0-2.272-0.272","<span style=""font-size:25px; font-family: monospace"">O primo conheceu um jovem irritante?</span>","n","","","O primo conheceu um jovem irritante?","null","exp-sent","false"
"","null","html-keyboard-response","335","631116","0.0-3.0-0.273-0.273","<span style= ""font-size:30px; font-family: monospace"">+</span>","null","fixation","","","","",""
"","1131","audio-keyboard-response","336","632512","0.0-3.0-1.273","../audio/27-1-fem.mp3"," ","","O","","","",""
"","1099","audio-keyboard-response","337","633888","0.0-3.0-1.274","../audio/27-2-fem.mp3"," ","","dinheiro","","","",""
"","920","audio-keyboard-response","338","635088","0.0-3.0-1.275","../audio/27-3-fem.mp3"," ","","chegou","","","",""
"","592","audio-keyboard-response","339","635952","0.0-3.0-1.276","../audio/27-4-fem.mp3"," ","","à","","","",""
"","789","audio-keyboard-response","340","637007","0.0-3.0-1.277","../audio/27-5-fem.mp3"," ","","elite","","","",""
"","832","audio-keyboard-response","341","638111","0.0-3.0-1.278","../audio/27-6-fem.mp3"," ","","deste","","","",""
"","1600","audio-keyboard-response","342","639968","0.0-3.0-1.279","../audio/27-7-fem.mp3"," ","","país.","","","",""
"","null","html-keyboard-response","343","641242","0.0-3.0-0.280-0.280","<span style= ""font-size:30px; font-family: monospace"">+</span>","null","fixation","","","","",""
"","1139","audio-keyboard-response","344","642655","0.0-3.0-1.280","../audio/28-1-masc.mp3"," ","","O","","","",""
"","971","audio-keyboard-response","345","643887","0.0-3.0-1.281","../audio/28-2-masc.mp3"," ","","time","","","",""
"","851","audio-keyboard-response","346","645008","0.0-3.0-1.282","../audio/28-3-masc.mp3"," ","","quer","","","",""
"","731","audio-keyboard-response","347","646015","0.0-3.0-1.283","../audio/28-4-masc.mp3"," ","","a","","","",""
"","1069","audio-keyboard-response","348","647359","0.0-3.0-1.284","../audio/28-5-masc.mp3"," ","","vitória","","","",""
"","739","audio-keyboard-response","349","648367","0.0-3.0-1.285","../audio/28-6-masc.mp3"," ","","no","","","",""
"","992","audio-keyboard-response","350","649631","0.0-3.0-1.286","../audio/28-7-masc.mp3"," ","","jogo","","","",""
"","771","audio-keyboard-response","351","650672","0.0-3.0-1.287","../audio/28-8-masc.mp3"," ","","de","","","",""
"","1219","audio-keyboard-response","352","652175","0.0-3.0-1.288","../audio/28-9-masc.mp3"," ","","vôlei.","","","",""
"","null","html-keyboard-response","353","653444","0.0-3.0-0.289-0.289","<span style= ""font-size:30px; font-family: monospace"">+</span>","null","fixation","","","","",""
"","1120","audio-keyboard-response","354","654831","0.0-3.0-1.289","../audio/26-1-fem.mp3"," ","","Amanhã","","","",""
"","880","audio-keyboard-response","355","655983","0.0-3.0-1.290","../audio/26-2-fem.mp3"," ","","temos","","","",""
"","979","audio-keyboard-response","356","657247","0.0-3.0-1.291","../audio/26-3-fem.mp3"," ","","festa","","","",""
"","880","audio-keyboard-response","357","658399","0.0-3.0-1.292","../audio/26-4-fem.mp3"," ","","na","","","",""
"","1099","audio-keyboard-response","358","659775","0.0-3.0-1.293","../audio/26-5-fem.mp3"," ","","piscina","","","",""
"","851","audio-keyboard-response","359","660895","0.0-3.0-1.294","../audio/26-6-fem.mp3"," ","","o","","","",""
"","1040","audio-keyboard-response","360","662207","0.0-3.0-1.295","../audio/26-7-fem.mp3"," ","","dia","","","",""
"","2101","audio-keyboard-response","361","664591","0.0-3.0-1.296","../audio/26-8-fem.mp3"," ","","todo.","","","",""
"","null","html-keyboard-response","362","665861","0.0-3.0-0.297-0.297","<span style= ""font-size:30px; font-family: monospace"">+</span>","null","fixation","","","","",""
"","1080","audio-keyboard-response","363","667231","0.0-3.0-1.297","../audio/29-1-masc.mp3"," ","","Hoje","","","",""
"","979","audio-keyboard-response","364","668495","0.0-3.0-1.298","../audio/29-2-masc.mp3"," ","","vamos","","","",""
"","909","audio-keyboard-response","365","669679","0.0-3.0-1.299","../audio/29-3-masc.mp3"," ","","fazer","","","",""
"","792","audio-keyboard-response","366","670751","0.0-3.0-1.300","../audio/29-4-masc.mp3"," ","","uma","","","",""
"","1349","audio-keyboard-response","367","672383","0.0-3.0-1.301","../audio/29-5-masc.mp3"," ","","atividade","","","",""
"","949","audio-keyboard-response","368","673615","0.0-3.0-1.302","../audio/29-6-masc.mp3"," ","","sobre","","","",""
"","971","audio-keyboard-response","369","674863","0.0-3.0-1.303","../audio/29-7-masc.mp3"," ","","fauna","","","",""
"","1211","audio-keyboard-response","370","676351","0.0-3.0-1.304","../audio/29-8-masc.mp3"," ","","marinha.","","","",""
"","null","html-keyboard-response","371","677617","0.0-3.0-0.305-0.305","<span style= ""font-size:30px; font-family: monospace"">+</span>","null","fixation","","","","",""
"","1352","audio-keyboard-response","372","679231","0.0-3.0-1.305","../audio/30-1-masc.mp3"," ","","O","","","",""
"","1189","audio-keyboard-response","373","680703","0.0-3.0-1.306","../audio/30-2-masc.mp3"," ","","funcionário","","","",""
"","1109","audio-keyboard-response","374","682079","0.0-3.0-1.307","../audio/30-3-masc.mp3"," ","","entregou","","","",""
"","779","audio-keyboard-response","375","683119","0.0-3.0-1.308","../audio/30-4-masc.mp3"," ","","o","","","",""
"","1120","audio-keyboard-response","376","684511","0.0-3.0-1.309","../audio/30-5-masc.mp3"," ","","restante","","","",""
"","749","audio-keyboard-response","377","685535","0.0-3.0-1.310","../audio/30-6-masc.mp3"," ","","do","","","",""
"","971","audio-keyboard-response","378","686783","0.0-3.0-1.311","../audio/30-7-masc.mp3"," ","","dinheiro.","","","",""
"","4702","html-keyboard-response","379","691743","0.0-3.0-2.311-0.311","<span style=""font-size:25px; font-family: monospace"">O funcionário entregou o contrato?</span>","n","","","O funcionário entregou o contrato?","null","exp-sent","false"
"","null","html-keyboard-response","380","693266","0.0-3.0-0.312-0.312","<span style= ""font-size:30px; font-family: monospace"">+</span>","null","fixation","","","","",""
"","48","audio-keyboard-response","381","693599","0.0-3.0-1.312","../audio/19-1-fem.mp3"," ","","O","","","",""
"","1168","audio-keyboard-response","382","695039","0.0-3.0-1.313","../audio/19-2-fem.mp3"," ","","menino","","","",""
"","859","audio-keyboard-response","383","696175","0.0-3.0-1.314","../audio/19-3-fem.mp3"," ","","ganhou","","","",""
"","800","audio-keyboard-response","384","697247","0.0-3.0-1.315","../audio/19-4-fem.mp3"," ","","uma","","","",""
"","752","audio-keyboard-response","385","698271","0.0-3.0-1.316","../audio/19-5-fem.mp3"," ","","bala","","","",""
"","1040","audio-keyboard-response","386","699583","0.0-3.0-1.317","../audio/19-6-fem.mp3"," ","","depois","","","",""
"","720","audio-keyboard-response","387","700591","0.0-3.0-1.318","../audio/19-7-fem.mp3"," ","","do","","","",""
"","1208","audio-keyboard-response","388","702079","0.0-3.0-1.319","../audio/19-8-fem.mp3"," ","","almoço.","","","",""
"","null","html-keyboard-response","389","703350","0.0-3.0-0.320-0.320","<span style= ""font-size:30px; font-family: monospace"">+</span>","null","fixation","","","","",""
"","632","audio-keyboard-response","390","704271","0.0-3.0-1.320","../audio/18-1-masc.mp3"," ","","O","","","",""
"","709","audio-keyboard-response","391","705263","0.0-3.0-1.321","../audio/18-2-masc.mp3"," ","","enredo","","","",""
"","720","audio-keyboard-response","392","706255","0.0-3.0-1.322","../audio/18-3-masc.mp3"," ","","traz","","","",""
"","669","audio-keyboard-response","393","707199","0.0-3.0-1.323","../audio/18-4-masc.mp3"," ","","um","","","",""
"","888","audio-keyboard-response","394","708367","0.0-3.0-1.324","../audio/18-5-masc.mp3"," ","","dragão","","","",""
"","771","audio-keyboard-response","395","709407","0.0-3.0-1.325","../audio/18-6-masc.mp3"," ","","forte","","","",""
"","808","audio-keyboard-response","396","710479","0.0-3.0-1.326","../audio/18-7-masc.mp3"," ","","e","","","",""
"","1171","audio-keyboard-response","397","711935","0.0-3.0-1.327","../audio/18-8-masc.mp3"," ","","solitário.","","","",""
"","null","html-keyboard-response","398","713205","0.0-3.0-0.328-0.328","<span style= ""font-size:30px; font-family: monospace"">+</span>","null","fixation","","","","",""
"","701","audio-keyboard-response","399","714191","0.0-3.0-1.328","../audio/17-1-masc.mp3"," ","","Falaram","","","",""
"","659","audio-keyboard-response","400","715135","0.0-3.0-1.329","../audio/17-2-masc.mp3"," ","","da","","","",""
"","781","audio-keyboard-response","401","716191","0.0-3.0-1.330","../audio/17-3-masc.mp3"," ","","lei","","","",""
"","688","audio-keyboard-response","402","717167","0.0-3.0-1.331","../audio/17-4-masc.mp3"," ","","no","","","",""
"","1040","audio-keyboard-response","403","718479","0.0-3.0-1.332","../audio/17-5-masc.mp3"," ","","ministério","","","",""
"","891","audio-keyboard-response","404","719647","0.0-3.0-1.333","../audio/17-6-masc.mp3"," ","","diversas","","","",""
"","1021","audio-keyboard-response","405","720943","0.0-3.0-1.334","../audio/17-7-masc.mp3"," ","","vezes.","","","",""
"","null","html-keyboard-response","406","722207","0.0-3.0-0.335-0.335","<span style= ""font-size:30px; font-family: monospace"">+</span>","null","fixation","","","","",""
"","640","audio-keyboard-response","407","723119","0.0-3.0-1.335","../audio/16-1-masc.mp3"," ","","Eu","","","",""
"","880","audio-keyboard-response","408","724270","0.0-3.0-1.336","../audio/16-2-masc.mp3"," ","","nunca","","","",""
"","909","audio-keyboard-response","409","725455","0.0-3.0-1.337","../audio/16-3-masc.mp3"," ","","conheci","","","",""
"","669","audio-keyboard-response","410","726398","0.0-3.0-1.338","../audio/16-4-masc.mp3"," ","","um","","","",""
"","931","audio-keyboard-response","411","727615","0.0-3.0-1.339","../audio/16-5-masc.mp3"," ","","general","","","",""
"","691","audio-keyboard-response","412","728574","0.0-3.0-1.340","../audio/16-6-masc.mp3"," ","","do","","","",""
"","1280","audio-keyboard-response","413","730126","0.0-3.0-1.341","../audio/16-7-masc.mp3"," ","","exército.","","","",""
"","null","html-keyboard-response","414","731391","0.0-3.0-0.342-0.342","<span style= ""font-size:30px; font-family: monospace"">+</span>","null","fixation","","","","",""
"","579","audio-keyboard-response","415","732238","0.0-3.0-1.342","../audio/20-1-masc.mp3"," ","","O","","","",""
"","840","audio-keyboard-response","416","733359","0.0-3.0-1.343","../audio/20-2-masc.mp3"," ","","colega","","","",""
"","909","audio-keyboard-response","417","734543","0.0-3.0-1.344","../audio/20-3-masc.mp3"," ","","parecia","","","",""
"","691","audio-keyboard-response","418","735503","0.0-3.0-1.345","../audio/20-4-masc.mp3"," ","","muito","","","",""
"","1069","audio-keyboard-response","419","736847","0.0-3.0-1.346","../audio/20-5-masc.mp3"," ","","gripado","","","",""
"","811","audio-keyboard-response","420","737934","0.0-3.0-1.347","../audio/20-6-masc.mp3"," ","","no","","","",""
"","741","audio-keyboard-response","421","738943","0.0-3.0-1.348","../audio/20-7-masc.mp3"," ","","dia","","","",""
"","1221","audio-keyboard-response","422","740431","0.0-3.0-1.349","../audio/20-8-masc.mp3"," ","","anterior.","","","",""
"","5878","html-keyboard-response","423","746559","0.0-3.0-2.349-0.349","<span style=""font-size:25px; font-family: monospace"">O colega parecia muito gripado?</span>","s","","","O colega parecia muito gripado?","null","exp-sent","false"
"","null","html-keyboard-response","424","748085","0.0-3.0-0.350-0.350","<span style= ""font-size:30px; font-family: monospace"">+</span>","null","fixation","","","","",""
"","1069","audio-keyboard-response","425","749439","0.0-3.0-1.350","../audio/74-1-fem.mp3"," ","","Este","","","",""
"","1229","audio-keyboard-response","426","750943","0.0-3.0-1.351","../audio/74-2-fem.mp3"," ","","emprego","","","",""
"","749","audio-keyboard-response","427","751967","0.0-3.0-1.352","../audio/74-3-fem.mp3"," ","","é","","","",""
"","992","audio-keyboard-response","428","753231","0.0-3.0-1.353","../audio/74-4-fem.mp3"," ","","muito","","","",""
"","909","audio-keyboard-response","429","754415","0.0-3.0-1.354","../audio/74-5-fem.mp3"," ","","cansativo","","","",""
"","720","audio-keyboard-response","430","755423","0.0-3.0-1.355","../audio/74-6-fem.mp3"," ","","a","","","",""
"","829","audio-keyboard-response","431","756526","0.0-3.0-1.356","../audio/74-7-fem.mp3"," ","","longo","","","",""
"","960","audio-keyboard-response","432","757758","0.0-3.0-1.357","../audio/74-8-fem.mp3"," ","","prazo.","","","",""
"","null","html-keyboard-response","433","759025","0.0-3.0-0.358-0.358","<span style= ""font-size:30px; font-family: monospace"">+</span>","null","fixation","","","","",""
"","848","audio-keyboard-response","434","760158","0.0-3.0-1.358","../audio/72-1-masc.mp3"," ","","A","","","",""
"","1069","audio-keyboard-response","435","761502","0.0-3.0-1.359","../audio/72-2-masc.mp3"," ","","vencedora","","","",""
"","909","audio-keyboard-response","436","762686","0.0-3.0-1.360","../audio/72-3-masc.mp3"," ","","recebeu","","","",""
"","640","audio-keyboard-response","437","763598","0.0-3.0-1.361","../audio/72-4-masc.mp3"," ","","um","","","",""
"","779","audio-keyboard-response","438","764654","0.0-3.0-1.362","../audio/72-5-masc.mp3"," ","","prêmio","","","",""
"","760","audio-keyboard-response","439","765677","0.0-3.0-1.363","../audio/72-6-masc.mp3"," ","","em","","","",""
"","1189","audio-keyboard-response","440","767133","0.0-3.0-1.364","../audio/72-7-masc.mp3"," ","","dinheiro.","","","",""
"","null","html-keyboard-response","441","768407","0.0-3.0-0.365-0.365","<span style= ""font-size:30px; font-family: monospace"">+</span>","null","fixation","","","","",""
"","989","audio-keyboard-response","442","769678","0.0-3.0-1.365","../audio/71-1-masc.mp3"," ","","Minhas","","","",""
"","899","audio-keyboard-response","443","770846","0.0-3.0-1.366","../audio/71-2-masc.mp3"," ","","comidas","","","",""
"","931","audio-keyboard-response","444","772046","0.0-3.0-1.367","../audio/71-3-masc.mp3"," ","","favoritas","","","",""
"","720","audio-keyboard-response","445","773038","0.0-3.0-1.368","../audio/71-4-masc.mp3"," ","","são","","","",""
"","931","audio-keyboard-response","446","774254","0.0-3.0-1.369","../audio/71-5-masc.mp3"," ","","morango","","","",""
"","731","audio-keyboard-response","447","775262","0.0-3.0-1.370","../audio/71-6-masc.mp3"," ","","e","","","",""
"","821","audio-keyboard-response","448","776350","0.0-3.0-1.371","../audio/71-7-masc.mp3"," ","","uva.","","","",""
"","null","html-keyboard-response","449","777608","0.0-3.0-0.372-0.372","<span style= ""font-size:30px; font-family: monospace"">+</span>","null","fixation","","","","",""
"","720","audio-keyboard-response","450","778606","0.0-3.0-1.372","../audio/73-1-masc.mp3"," ","","O","","","",""
"","811","audio-keyboard-response","451","779694","0.0-3.0-1.373","../audio/73-2-masc.mp3"," ","","cliente","","","",""
"","661","audio-keyboard-response","452","780622","0.0-3.0-1.374","../audio/73-3-masc.mp3"," ","","era","","","",""
"","699","audio-keyboard-response","453","781598","0.0-3.0-1.375","../audio/73-4-masc.mp3"," ","","um","","","",""
"","840","audio-keyboard-response","454","782702","0.0-3.0-1.376","../audio/73-5-masc.mp3"," ","","homem","","","",""
"","1109","audio-keyboard-response","455","784078","0.0-3.0-1.377","../audio/73-6-masc.mp3"," ","","muito","","","",""
"","1389","audio-keyboard-response","456","785741","0.0-3.0-1.378","../audio/73-7-masc.mp3"," ","","educado.","","","",""
"","null","html-keyboard-response","457","787008","0.0-3.0-0.379-0.379","<span style= ""font-size:30px; font-family: monospace"">+</span>","null","fixation","","","","",""
"","261","audio-keyboard-response","458","787549","0.0-3.0-1.379","../audio/75-1-masc.mp3"," ","","Só","","","",""
"","989","audio-keyboard-response","459","788814","0.0-3.0-1.380","../audio/75-2-masc.mp3"," ","","existe","","","",""
"","760","audio-keyboard-response","460","789838","0.0-3.0-1.381","../audio/75-3-masc.mp3"," ","","uma","","","",""
"","960","audio-keyboard-response","461","791069","0.0-3.0-1.382","../audio/75-4-masc.mp3"," ","","pessoa","","","",""
"","979","audio-keyboard-response","462","792334","0.0-3.0-1.383","../audio/75-5-masc.mp3"," ","","canhota","","","",""
"","952","audio-keyboard-response","463","793549","0.0-3.0-1.384","../audio/75-6-masc.mp3"," ","","nesta","","","",""
"","1149","audio-keyboard-response","464","794973","0.0-3.0-1.385","../audio/75-7-masc.mp3"," ","","cidade.","","","",""
"","6375","html-keyboard-response","465","801614","0.0-3.0-2.385-0.385","<span style=""font-size:25px; font-family: monospace"">Só existe uma pessoa canhota na cidade?</span>","s","","","Só existe uma pessoa canhota na cidade?","null","exp-sent","false"
"","null","html-keyboard-response","466","803119","0.0-3.0-0.386-0.386","<span style= ""font-size:30px; font-family: monospace"">+</span>","null","fixation","","","","",""
"","749","audio-keyboard-response","467","804158","0.0-3.0-1.386","../audio/46-1-masc.mp3"," ","","Meu","","","",""
"","720","audio-keyboard-response","468","805150","0.0-3.0-1.387","../audio/46-2-masc.mp3"," ","","primo","","","",""
"","691","audio-keyboard-response","469","806110","0.0-3.0-1.388","../audio/46-3-masc.mp3"," ","","estava","","","",""
"","808","audio-keyboard-response","470","807198","0.0-3.0-1.389","../audio/46-4-masc.mp3"," ","","muito","","","",""
"","1171","audio-keyboard-response","471","808653","0.0-3.0-1.390","../audio/46-5-masc.mp3"," ","","deprimido","","","",""
"","709","audio-keyboard-response","472","809646","0.0-3.0-1.391","../audio/46-6-masc.mp3"," ","","no","","","",""
"","1208","audio-keyboard-response","473","811118","0.0-3.0-1.392","../audio/46-7-masc.mp3"," ","","inverno.","","","",""
"","null","html-keyboard-response","474","812397","0.0-3.0-0.393-0.393","<span style= ""font-size:30px; font-family: monospace"">+</span>","null","fixation","","","","",""
"","472","audio-keyboard-response","475","813150","0.0-3.0-1.393","../audio/48-1-masc.mp3"," ","","Ela","","","",""
"","669","audio-keyboard-response","476","814094","0.0-3.0-1.394","../audio/48-2-masc.mp3"," ","","come","","","",""
"","611","audio-keyboard-response","477","814974","0.0-3.0-1.395","../audio/48-3-masc.mp3"," ","","feijão","","","",""
"","861","audio-keyboard-response","478","816110","0.0-3.0-1.396","../audio/48-4-masc.mp3"," ","","com","","","",""
"","920","audio-keyboard-response","479","817309","0.0-3.0-1.397","../audio/48-5-masc.mp3"," ","","arroz","","","",""
"","749","audio-keyboard-response","480","818333","0.0-3.0-1.398","../audio/48-6-masc.mp3"," ","","todos","","","",""
"","731","audio-keyboard-response","481","819325","0.0-3.0-1.399","../audio/48-7-masc.mp3"," ","","os","","","",""
"","1040","audio-keyboard-response","482","820653","0.0-3.0-1.400","../audio/48-8-masc.mp3"," ","","dias.","","","",""
"","null","html-keyboard-response","483","821920","0.0-3.0-0.401-0.401","<span style= ""font-size:30px; font-family: monospace"">+</span>","null","fixation","","","","",""
"","872","audio-keyboard-response","484","823069","0.0-3.0-1.401","../audio/49-1-fem.mp3"," ","","Eu","","","",""
"","880","audio-keyboard-response","485","824221","0.0-3.0-1.402","../audio/49-2-fem.mp3"," ","","quero","","","",""
"","731","audio-keyboard-response","486","825229","0.0-3.0-1.403","../audio/49-3-fem.mp3"," ","","um","","","",""
"","859","audio-keyboard-response","487","826365","0.0-3.0-1.404","../audio/49-4-fem.mp3"," ","","lanche","","","",""
"","1171","audio-keyboard-response","488","827805","0.0-3.0-1.405","../audio/49-5-fem.mp3"," ","","duplo","","","",""
"","720","audio-keyboard-response","489","828797","0.0-3.0-1.406","../audio/49-6-fem.mp3"," ","","e","","","",""
"","768","audio-keyboard-response","490","829837","0.0-3.0-1.407","../audio/49-7-fem.mp3"," ","","um","","","",""
"","1149","audio-keyboard-response","491","831261","0.0-3.0-1.408","../audio/49-8-fem.mp3"," ","","suco.","","","",""
"","null","html-keyboard-response","492","832527","0.0-3.0-0.409-0.409","<span style= ""font-size:30px; font-family: monospace"">+</span>","null","fixation","","","","",""
"","731","audio-keyboard-response","493","833533","0.0-3.0-1.409","../audio/47-1-masc.mp3"," ","","O","","","",""
"","781","audio-keyboard-response","494","834589","0.0-3.0-1.410","../audio/47-2-masc.mp3"," ","","tio","","","",""
"","1120","audio-keyboard-response","495","835981","0.0-3.0-1.411","../audio/47-3-masc.mp3"," ","","recusou","","","",""
"","709","audio-keyboard-response","496","836957","0.0-3.0-1.412","../audio/47-4-masc.mp3"," ","","a","","","",""
"","1112","audio-keyboard-response","497","838349","0.0-3.0-1.413","../audio/47-5-masc.mp3"," ","","sobremesa","","","",""
"","739","audio-keyboard-response","498","839357","0.0-3.0-1.414","../audio/47-6-masc.mp3"," ","","no","","","",""
"","1131","audio-keyboard-response","499","840765","0.0-3.0-1.415","../audio/47-7-masc.mp3"," ","","almoço.","","","",""
"","null","html-keyboard-response","500","842038","0.0-3.0-0.416-0.416","<span style= ""font-size:30px; font-family: monospace"">+</span>","null","fixation","","","","",""
"","200","audio-keyboard-response","501","842525","0.0-3.0-1.416","../audio/50-1-masc.mp3"," ","","O","","","",""
"","869","audio-keyboard-response","502","843677","0.0-3.0-1.417","../audio/50-2-masc.mp3"," ","","pássaro","","","",""
"","851","audio-keyboard-response","503","844813","0.0-3.0-1.418","../audio/50-3-masc.mp3"," ","","fugiu","","","",""
"","712","audio-keyboard-response","504","845789","0.0-3.0-1.419","../audio/50-4-masc.mp3"," ","","da","","","",""
"","1040","audio-keyboard-response","505","847101","0.0-3.0-1.420","../audio/50-5-masc.mp3"," ","","gaiola","","","",""
"","709","audio-keyboard-response","506","848077","0.0-3.0-1.421","../audio/50-6-masc.mp3"," ","","pela","","","",""
"","1301","audio-keyboard-response","507","849661","0.0-3.0-1.422","../audio/50-7-masc.mp3"," ","","portinhola.","","","",""
"","3243","html-keyboard-response","508","853166","0.0-3.0-2.422-0.422","<span style=""font-size:25px; font-family: monospace"">O pássaro fugiu da gaiola?</span>","s","","","O pássaro fugiu da gaiola?","null","exp-sent","false"
"","null","html-keyboard-response","509","854677","0.0-3.0-0.423-0.423","<span style= ""font-size:30px; font-family: monospace"">+</span>","null","fixation","","","","",""
"","141","audio-keyboard-response","510","855101","0.0-3.0-1.423","../audio/08-1-masc.mp3"," ","","A","","","",""
"","1131","audio-keyboard-response","511","856509","0.0-3.0-1.424","../audio/08-2-masc.mp3"," ","","receita","","","",""
"","819","audio-keyboard-response","512","857613","0.0-3.0-1.425","../audio/08-3-masc.mp3"," ","","pede","","","",""
"","720","audio-keyboard-response","513","858605","0.0-3.0-1.426","../audio/08-4-masc.mp3"," ","","um","","","",""
"","920","audio-keyboard-response","514","859805","0.0-3.0-1.427","../audio/08-5-masc.mp3"," ","","litro","","","",""
"","672","audio-keyboard-response","515","860749","0.0-3.0-1.428","../audio/08-6-masc.mp3"," ","","de","","","",""
"","888","audio-keyboard-response","516","861917","0.0-3.0-1.429","../audio/08-7-masc.mp3"," ","","leite","","","",""
"","1691","audio-keyboard-response","517","863886","0.0-3.0-1.430","../audio/08-8-masc.mp3"," ","","integral.","","","",""
"","null","html-keyboard-response","518","865152","0.0-3.0-0.431-0.431","<span style= ""font-size:30px; font-family: monospace"">+</span>","null","fixation","","","","",""
"","680","audio-keyboard-response","519","866109","0.0-3.0-1.431","../audio/09-1-masc.mp3"," ","","O","","","",""
"","840","audio-keyboard-response","520","867229","0.0-3.0-1.432","../audio/09-2-masc.mp3"," ","","rapaz","","","",""
"","709","audio-keyboard-response","521","868205","0.0-3.0-1.433","../audio/09-3-masc.mp3"," ","","limpou","","","",""
"","771","audio-keyboard-response","522","869261","0.0-3.0-1.434","../audio/09-4-masc.mp3"," ","","o","","","",""
"","869","audio-keyboard-response","523","870413","0.0-3.0-1.435","../audio/09-5-masc.mp3"," ","","terreno","","","",""
"","731","audio-keyboard-response","524","871405","0.0-3.0-1.436","../audio/09-6-masc.mp3"," ","","com","","","",""
"","760","audio-keyboard-response","525","872445","0.0-3.0-1.437","../audio/09-7-masc.mp3"," ","","uma","","","",""
"","901","audio-keyboard-response","526","873629","0.0-3.0-1.438","../audio/09-8-masc.mp3"," ","","pá.","","","",""
"","null","html-keyboard-response","527","874908","0.0-3.0-0.439-0.439","<span style= ""font-size:30px; font-family: monospace"">+</span>","null","fixation","","","","",""
"","771","audio-keyboard-response","528","875965","0.0-3.0-1.439","../audio/07-1-fem.mp3"," ","","Meu","","","",""
"","760","audio-keyboard-response","529","876989","0.0-3.0-1.440","../audio/07-2-fem.mp3"," ","","filho","","","",""
"","688","audio-keyboard-response","530","877965","0.0-3.0-1.441","../audio/07-3-fem.mp3"," ","","é","","","",""
"","1000","audio-keyboard-response","531","879245","0.0-3.0-1.442","../audio/07-4-fem.mp3"," ","","muito","","","",""
"","1549","audio-keyboard-response","532","881085","0.0-3.0-1.443","../audio/07-5-fem.mp3"," ","","responsável","","","",""
"","781","audio-keyboard-response","533","882141","0.0-3.0-1.444","../audio/07-6-fem.mp3"," ","","nos","","","",""
"","1189","audio-keyboard-response","534","883597","0.0-3.0-1.445","../audio/07-7-fem.mp3"," ","","estudos.","","","",""
"","null","html-keyboard-response","535","884856","0.0-3.0-0.446-0.446","<span style= ""font-size:30px; font-family: monospace"">+</span>","null","fixation","","","","",""
"","811","audio-keyboard-response","536","885949","0.0-3.0-1.446","../audio/06-1-fem.mp3"," ","","Ouvimos","","","",""
"","739","audio-keyboard-response","537","886957","0.0-3.0-1.447","../audio/06-2-fem.mp3"," ","","a","","","",""
"","749","audio-keyboard-response","538","887981","0.0-3.0-1.448","../audio/06-3-fem.mp3"," ","","fala","","","",""
"","589","audio-keyboard-response","539","888845","0.0-3.0-1.449","../audio/06-4-fem.mp3"," ","","do","","","",""
"","1200","audio-keyboard-response","540","890317","0.0-3.0-1.450","../audio/06-5-fem.mp3"," ","","profeta","","","",""
"","800","audio-keyboard-response","541","891389","0.0-3.0-1.451","../audio/06-6-fem.mp3"," ","","no","","","",""
"","1069","audio-keyboard-response","542","892733","0.0-3.0-1.452","../audio/06-7-fem.mp3"," ","","púlpito","","","",""
"","760","audio-keyboard-response","543","893773","0.0-3.0-1.453","../audio/06-8-fem.mp3"," ","","da","","","",""
"","1149","audio-keyboard-response","544","895213","0.0-3.0-1.454","../audio/06-9-fem.mp3"," ","","igreja.","","","",""
"","null","html-keyboard-response","545","896484","0.0-3.0-0.455-0.455","<span style= ""font-size:30px; font-family: monospace"">+</span>","null","fixation","","","","",""
"","720","audio-keyboard-response","546","897485","0.0-3.0-1.455","../audio/10-1-masc.mp3"," ","","O","","","",""
"","800","audio-keyboard-response","547","898573","0.0-3.0-1.456","../audio/10-2-masc.mp3"," ","","pássaro","","","",""
"","891","audio-keyboard-response","548","899741","0.0-3.0-1.457","../audio/10-3-masc.mp3"," ","","azul","","","",""
"","1011","audio-keyboard-response","549","901021","0.0-3.0-1.458","../audio/10-4-masc.mp3"," ","","estava","","","",""
"","909","audio-keyboard-response","550","902205","0.0-3.0-1.459","../audio/10-5-masc.mp3"," ","","vivo","","","",""
"","789","audio-keyboard-response","551","903261","0.0-3.0-1.460","../audio/10-6-masc.mp3"," ","","e","","","",""
"","920","audio-keyboard-response","552","904461","0.0-3.0-1.461","../audio/10-7-masc.mp3"," ","","em","","","",""
"","1389","audio-keyboard-response","553","906141","0.0-3.0-1.462","../audio/10-8-masc.mp3"," ","","segurança.","","","",""
"","9124","html-keyboard-response","554","915517","0.0-3.0-2.462-0.462","<span style=""font-size:25px; font-family: monospace"">O pássaro vermelho estava em segurança?</span>","n","","","O pássaro vermelho estava em segurança?","null","exp-sent","false"
"","null","html-keyboard-response","555","917042","0.0-3.0-0.463-0.463","<span style= ""font-size:30px; font-family: monospace"">+</span>","null","fixation","","","","",""
"","541","audio-keyboard-response","556","917869","0.0-3.0-1.463","../audio/01-1-fem.mp3"," ","","O","","","",""
"","789","audio-keyboard-response","557","918941","0.0-3.0-1.464","../audio/01-2-fem.mp3"," ","","menino","","","",""
"","840","audio-keyboard-response","558","920061","0.0-3.0-1.465","../audio/01-3-fem.mp3"," ","","derrubou","","","",""
"","651","audio-keyboard-response","559","920989","0.0-3.0-1.466","../audio/01-4-fem.mp3"," ","","a","","","",""
"","931","audio-keyboard-response","560","922189","0.0-3.0-1.467","../audio/01-5-fem.mp3"," ","","guitarra","","","",""
"","749","audio-keyboard-response","561","923213","0.0-3.0-1.468","../audio/01-6-fem.mp3"," ","","no","","","",""
"","1091","audio-keyboard-response","562","924573","0.0-3.0-1.469","../audio/01-7-fem.mp3"," ","","chão.","","","",""
"","null","html-keyboard-response","563","925840","0.0-3.0-0.470-0.470","<span style= ""font-size:30px; font-family: monospace"">+</span>","null","fixation","","","","",""
"","640","audio-keyboard-response","564","926765","0.0-3.0-1.470","../audio/03-1-masc.mp3"," ","","O","","","",""
"","701","audio-keyboard-response","565","927741","0.0-3.0-1.471","../audio/03-2-masc.mp3"," ","","coelho","","","",""
"","669","audio-keyboard-response","566","928684","0.0-3.0-1.472","../audio/03-3-masc.mp3"," ","","foi","","","",""
"","971","audio-keyboard-response","567","929933","0.0-3.0-1.473","../audio/03-4-masc.mp3"," ","","bastante","","","",""
"","840","audio-keyboard-response","568","931053","0.0-3.0-1.474","../audio/03-5-masc.mp3"," ","","dócil","","","",""
"","680","audio-keyboard-response","569","932013","0.0-3.0-1.475","../audio/03-6-masc.mp3"," ","","com","","","",""
"","760","audio-keyboard-response","570","933037","0.0-3.0-1.476","../audio/03-7-masc.mp3"," ","","as","","","",""
"","1131","audio-keyboard-response","571","934445","0.0-3.0-1.477","../audio/03-8-masc.mp3"," ","","crianças.","","","",""
"","null","html-keyboard-response","572","935725","0.0-3.0-0.478-0.478","<span style= ""font-size:30px; font-family: monospace"">+</span>","null","fixation","","","","",""
"","1120","audio-keyboard-response","573","937133","0.0-3.0-1.478","../audio/04-1-fem.mp3"," ","","Duzentos","","","",""
"","760","audio-keyboard-response","574","938172","0.0-3.0-1.479","../audio/04-2-fem.mp3"," ","","carros","","","",""
"","1091","audio-keyboard-response","575","939533","0.0-3.0-1.480","../audio/04-3-fem.mp3"," ","","passaram","","","",""
"","720","audio-keyboard-response","576","940540","0.0-3.0-1.481","../audio/04-4-fem.mp3"," ","","pela","","","",""
"","899","audio-keyboard-response","577","941724","0.0-3.0-1.482","../audio/04-5-fem.mp3"," ","","ponte","","","",""
"","880","audio-keyboard-response","578","942892","0.0-3.0-1.483","../audio/04-6-fem.mp3"," ","","hoje","","","",""
"","680","audio-keyboard-response","579","943837","0.0-3.0-1.484","../audio/04-7-fem.mp3"," ","","de","","","",""
"","1019","audio-keyboard-response","580","945132","0.0-3.0-1.485","../audio/04-8-fem.mp3"," ","","tarde.","","","",""
"","null","html-keyboard-response","581","946390","0.0-3.0-0.486-0.486","<span style= ""font-size:30px; font-family: monospace"">+</span>","null","fixation","","","","",""
"","139","audio-keyboard-response","582","946813","0.0-3.0-1.486","../audio/02-2-fem.mp3"," ","","Havia","","","",""
"","632","audio-keyboard-response","583","947708","0.0-3.0-1.487","../audio/02-2-fem.mp3"," ","","um","","","",""
"","771","audio-keyboard-response","584","948749","0.0-3.0-1.488","../audio/02-3-fem.mp3"," ","","cheiro","","","",""
"","579","audio-keyboard-response","585","949596","0.0-3.0-1.489","../audio/02-4-fem.mp3"," ","","de","","","",""
"","771","audio-keyboard-response","586","950653","0.0-3.0-1.490","../audio/02-5-fem.mp3"," ","","gasolina","","","",""
"","840","audio-keyboard-response","587","951756","0.0-3.0-1.491","../audio/02-6-fem.mp3"," ","","na","","","",""
"","1320","audio-keyboard-response","588","953356","0.0-3.0-1.492","../audio/02-7-fem.mp3"," ","","garagem.","","","",""
"","null","html-keyboard-response","589","954625","0.0-3.0-0.493-0.493","<span style= ""font-size:30px; font-family: monospace"">+</span>","null","fixation","","","","",""
"","211","audio-keyboard-response","590","955132","0.0-3.0-1.493","../audio/05-1-masc.mp3"," ","","A","","","",""
"","1331","audio-keyboard-response","591","956748","0.0-3.0-1.494","../audio/05-2-masc.mp3"," ","","vendedora","","","",""
"","1331","audio-keyboard-response","592","958349","0.0-3.0-1.495","../audio/05-3-masc.mp3"," ","","ajudou","","","",""
"","771","audio-keyboard-response","593","959388","0.0-3.0-1.496","../audio/05-4-masc.mp3"," ","","um","","","",""
"","848","audio-keyboard-response","594","960525","0.0-3.0-1.497","../audio/05-5-masc.mp3"," ","","turista","","","",""
"","629","audio-keyboard-response","595","961421","0.0-3.0-1.498","../audio/05-6-masc.mp3"," ","","na","","","",""
"","931","audio-keyboard-response","596","962621","0.0-3.0-1.499","../audio/05-7-masc.mp3"," ","","loja.","","","",""
"","3372","html-keyboard-response","597","966252","0.0-3.0-2.499-0.499","<span style=""font-size:25px; font-family: monospace"">A vendedora ajudou um turista?</span>","s","","","A vendedora ajudou um turista?","null","exp-sent","false"
"","null","html-keyboard-response","598","967780","0.0-3.0-0.500-0.500","<span style= ""font-size:30px; font-family: monospace"">+</span>","null","fixation","","","","",""
"","899","audio-keyboard-response","599","968957","0.0-3.0-1.500","../audio/62-1-fem.mp3"," ","","As","","","",""
"","1211","audio-keyboard-response","600","970444","0.0-3.0-1.501","../audio/62-2-fem.mp3"," ","","artesãs","","","",""
"","859","audio-keyboard-response","601","971565","0.0-3.0-1.502","../audio/62-3-fem.mp3"," ","","gostam","","","",""
"","680","audio-keyboard-response","602","972508","0.0-3.0-1.503","../audio/62-4-fem.mp3"," ","","de","","","",""
"","1139","audio-keyboard-response","603","973932","0.0-3.0-1.504","../audio/62-5-fem.mp3"," ","","maquiagem","","","",""
"","680","audio-keyboard-response","604","974876","0.0-3.0-1.505","../audio/62-6-fem.mp3"," ","","e","","","",""
"","720","audio-keyboard-response","605","975869","0.0-3.0-1.506","../audio/62-7-fem.mp3"," ","","de","","","",""
"","1139","audio-keyboard-response","606","977276","0.0-3.0-1.507","../audio/62-8-fem.mp3"," ","","crochê.","","","",""
"","null","html-keyboard-response","607","978542","0.0-3.0-0.508-0.508","<span style= ""font-size:30px; font-family: monospace"">+</span>","null","fixation","","","","",""
"","1221","audio-keyboard-response","608","980029","0.0-3.0-1.508","../audio/61-1-fem.mp3"," ","","Aquele","","","",""
"","1048","audio-keyboard-response","609","981356","0.0-3.0-1.509","../audio/61-2-fem.mp3"," ","","senhor","","","",""
"","619","audio-keyboard-response","610","982253","0.0-3.0-1.510","../audio/61-3-fem.mp3"," ","","é","","","",""
"","1069","audio-keyboard-response","611","983596","0.0-3.0-1.511","../audio/61-4-fem.mp3"," ","","muito","","","",""
"","1389","audio-keyboard-response","612","985260","0.0-3.0-1.512","../audio/61-5-fem.mp3"," ","","sovina","","","",""
"","851","audio-keyboard-response","613","986380","0.0-3.0-1.513","../audio/61-6-fem.mp3"," ","","e","","","",""
"","1819","audio-keyboard-response","614","988476","0.0-3.0-1.514","../audio/61-7-fem.mp3"," ","","inflexível.","","","",""
"","null","html-keyboard-response","615","989745","0.0-3.0-0.515-0.515","<span style= ""font-size:30px; font-family: monospace"">+</span>","null","fixation","","","","",""
"","688","audio-keyboard-response","616","990717","0.0-3.0-1.515","../audio/64-1-masc.mp3"," ","","O","","","",""
"","880","audio-keyboard-response","617","991868","0.0-3.0-1.516","../audio/64-2-masc.mp3"," ","","dia","","","",""
"","16880","audio-keyboard-response","618","1009020","0.0-3.0-1.517","../audio/64-3-masc.mp3"," ","","começou","","","",""
"","851","audio-keyboard-response","619","1010140","0.0-3.0-1.518","../audio/64-4-masc.mp3"," ","","com","","","",""
"","1040","audio-keyboard-response","620","1011452","0.0-3.0-1.519","../audio/64-5-masc.mp3"," ","","garoa","","","",""
"","1091","audio-keyboard-response","621","1012828","0.0-3.0-1.520","../audio/64-6-masc.mp3"," ","","gelada","","","",""
"","728","audio-keyboard-response","622","1013836","0.0-3.0-1.521","../audio/64-7-masc.mp3"," ","","e","","","",""
"","1008","audio-keyboard-response","623","1015116","0.0-3.0-1.522","../audio/64-8-masc.mp3"," ","","leve.","","","",""
"","null","html-keyboard-response","624","1016396","0.0-3.0-0.523-0.523","<span style= ""font-size:30px; font-family: monospace"">+</span>","null","fixation","","","","",""
"","211","audio-keyboard-response","625","1016892","0.0-3.0-1.523","../audio/63-1-fem.mp3"," ","","A","","","",""
"","1032","audio-keyboard-response","626","1018188","0.0-3.0-1.524","../audio/63-2-fem.mp3"," ","","chuva","","","",""
"","1189","audio-keyboard-response","627","1019644","0.0-3.0-1.525","../audio/63-3-fem.mp3"," ","","entrou","","","",""
"","819","audio-keyboard-response","628","1020732","0.0-3.0-1.526","../audio/63-4-fem.mp3"," ","","pela","","","",""
"","1229","audio-keyboard-response","629","1022236","0.0-3.0-1.527","../audio/63-5-fem.mp3"," ","","abertura","","","",""
"","699","audio-keyboard-response","630","1023211","0.0-3.0-1.528","../audio/63-6-fem.mp3"," ","","na","","","",""
"","1091","audio-keyboard-response","631","1024588","0.0-3.0-1.529","../audio/63-7-fem.mp3"," ","","janela.","","","",""
"","null","html-keyboard-response","632","1025845","0.0-3.0-0.530-0.530","<span style= ""font-size:30px; font-family: monospace"">+</span>","null","fixation","","","","",""
"","789","audio-keyboard-response","633","1026924","0.0-3.0-1.530","../audio/65-1-fem.mp3"," ","","O","","","",""
"","1261","audio-keyboard-response","634","1028460","0.0-3.0-1.531","../audio/65-2-fem.mp3"," ","","fantasma","","","",""
"","931","audio-keyboard-response","635","1029660","0.0-3.0-1.532","../audio/65-3-fem.mp3"," ","","veio","","","",""
"","699","audio-keyboard-response","636","1030636","0.0-3.0-1.533","../audio/65-4-fem.mp3"," ","","da","","","",""
"","1520","audio-keyboard-response","637","1032444","0.0-3.0-1.534","../audio/65-5-fem.mp3"," ","","escuridão","","","",""
"","760","audio-keyboard-response","638","1033468","0.0-3.0-1.535","../audio/65-6-fem.mp3"," ","","do","","","",""
"","1320","audio-keyboard-response","639","1035068","0.0-3.0-1.536","../audio/65-7-fem.mp3"," ","","armário.","","","",""
"","5489","html-keyboard-response","640","1040812","0.0-3.0-2.536-0.536","<span style=""font-size:25px; font-family: monospace"">O fantasma veio da escuridão do armário?</span>","s","","","O fantasma veio da escuridão do armário?","null","exp-sent","false"
"","null","html-keyboard-response","641","1042332","0.0-3.0-0.537-0.537","<span style= ""font-size:30px; font-family: monospace"">+</span>","null","fixation","","","","",""
"","829","audio-keyboard-response","642","1043452","0.0-3.0-1.537","../audio/21-1-fem.mp3"," ","","Precisamos","","","",""
"","680","audio-keyboard-response","643","1044396","0.0-3.0-1.538","../audio/21-2-fem.mp3"," ","","de","","","",""
"","1171","audio-keyboard-response","644","1045852","0.0-3.0-1.539","../audio/21-3-fem.mp3"," ","","paciência","","","",""
"","731","audio-keyboard-response","645","1046844","0.0-3.0-1.540","../audio/21-4-fem.mp3"," ","","e","","","",""
"","1072","audio-keyboard-response","646","1048188","0.0-3.0-1.541","../audio/21-5-fem.mp3"," ","","bondade","","","",""
"","800","audio-keyboard-response","647","1049260","0.0-3.0-1.542","../audio/21-6-fem.mp3"," ","","para","","","",""
"","720","audio-keyboard-response","648","1050252","0.0-3.0-1.543","../audio/21-7-fem.mp3"," ","","um","","","",""
"","749","audio-keyboard-response","649","1051276","0.0-3.0-1.544","../audio/21-8-fem.mp3"," ","","mundo","","","",""
"","1120","audio-keyboard-response","650","1052668","0.0-3.0-1.545","../audio/21-9-fem.mp3"," ","","melhor.","","","",""
"","null","html-keyboard-response","651","1053943","0.0-3.0-0.546-0.546","<span style= ""font-size:30px; font-family: monospace"">+</span>","null","fixation","","","","",""
"","1189","audio-keyboard-response","652","1055404","0.0-3.0-1.546","../audio/22-1-fem.mp3"," ","","Eu","","","",""
"","1341","audio-keyboard-response","653","1057020","0.0-3.0-1.547","../audio/22-2-fem.mp3"," ","","detesto","","","",""
"","1051","audio-keyboard-response","654","1058348","0.0-3.0-1.548","../audio/22-3-fem.mp3"," ","","fumaça","","","",""
"","600","audio-keyboard-response","655","1059228","0.0-3.0-1.549","../audio/22-4-fem.mp3"," ","","de","","","",""
"","1099","audio-keyboard-response","656","1060604","0.0-3.0-1.550","../audio/22-5-fem.mp3"," ","","cachimbo","","","",""
"","651","audio-keyboard-response","657","1061532","0.0-3.0-1.551","../audio/22-6-fem.mp3"," ","","e","","","",""
"","749","audio-keyboard-response","658","1062556","0.0-3.0-1.552","../audio/22-7-fem.mp3"," ","","de","","","",""
"","1469","audio-keyboard-response","659","1064300","0.0-3.0-1.553","../audio/22-8-fem.mp3"," ","","cigarro.","","","",""
"","null","html-keyboard-response","660","1065568","0.0-3.0-0.554-0.554","<span style= ""font-size:30px; font-family: monospace"">+</span>","null","fixation","","","","",""
"","1189","audio-keyboard-response","661","1067036","0.0-3.0-1.554","../audio/23-1-fem.mp3"," ","","Português","","","",""
"","659","audio-keyboard-response","662","1067964","0.0-3.0-1.555","../audio/23-2-fem.mp3"," ","","é","","","",""
"","1261","audio-keyboard-response","663","1069499","0.0-3.0-1.556","../audio/23-3-fem.mp3"," ","","um","","","",""
"","1269","audio-keyboard-response","664","1071035","0.0-3.0-1.557","../audio/23-4-fem.mp3"," ","","assunto","","","",""
"","1531","audio-keyboard-response","665","1072843","0.0-3.0-1.558","../audio/23-5-fem.mp3"," ","","elementar","","","",""
"","832","audio-keyboard-response","666","1073947","0.0-3.0-1.559","../audio/23-6-fem.mp3"," ","","para","","","",""
"","891","audio-keyboard-response","667","1075099","0.0-3.0-1.560","../audio/23-7-fem.mp3"," ","","os","","","",""
"","1280","audio-keyboard-response","668","1076651","0.0-3.0-1.561","../audio/23-8-fem.mp3"," ","","alunos.","","","",""
"","null","html-keyboard-response","669","1077913","0.0-3.0-0.562-0.562","<span style= ""font-size:30px; font-family: monospace"">+</span>","null","fixation","","","","",""
"","741","audio-keyboard-response","670","1078939","0.0-3.0-1.562","../audio/24-1-fem.mp3"," ","","As","","","",""
"","1051","audio-keyboard-response","671","1080267","0.0-3.0-1.563","../audio/24-2-fem.mp3"," ","","crianças","","","",""
"","779","audio-keyboard-response","672","1081323","0.0-3.0-1.564","../audio/24-3-fem.mp3"," ","","vão","","","",""
"","752","audio-keyboard-response","673","1082347","0.0-3.0-1.565","../audio/24-4-fem.mp3"," ","","ao","","","",""
"","1288","audio-keyboard-response","674","1083915","0.0-3.0-1.566","../audio/24-5-fem.mp3"," ","","cinema","","","",""
"","1019","audio-keyboard-response","675","1085211","0.0-3.0-1.567","../audio/24-6-fem.mp3"," ","","mais","","","",""
"","960","audio-keyboard-response","676","1086443","0.0-3.0-1.568","../audio/24-7-fem.mp3"," ","","tarde.","","","",""
"","null","html-keyboard-response","677","1087705","0.0-3.0-0.569-0.569","<span style= ""font-size:30px; font-family: monospace"">+</span>","null","fixation","","","","",""
"","200","audio-keyboard-response","678","1088187","0.0-3.0-1.569","../audio/25-1-masc.mp3"," ","","Ela","","","",""
"","1088","audio-keyboard-response","679","1089563","0.0-3.0-1.570","../audio/25-2-masc.mp3"," ","","faz","","","",""
"","971","audio-keyboard-response","680","1090811","0.0-3.0-1.571","../audio/25-3-masc.mp3"," ","","tanto","","","",""
"","960","audio-keyboard-response","681","1092043","0.0-3.0-1.572","../audio/25-4-masc.mp3"," ","","cabelo","","","",""
"","880","audio-keyboard-response","682","1093195","0.0-3.0-1.573","../audio/25-5-masc.mp3"," ","","liso","","","",""
"","960","audio-keyboard-response","683","1094427","0.0-3.0-1.574","../audio/25-6-masc.mp3"," ","","quanto","","","",""
"","1640","audio-keyboard-response","684","1096347","0.0-3.0-1.575","../audio/25-7-masc.mp3"," ","","cacheado.","","","",""
"","9695","html-keyboard-response","685","1106299","0.0-3.0-2.575-0.575","<span style=""font-size:25px; font-family: monospace"">Ela só faz cabelo cacheado?</span>","s","","","Ela só faz cabelo cacheado?","null","exp-sent","false"
"","null","html-keyboard-response","686","1107816","0.0-3.0-0.576-0.576","<span style= ""font-size:30px; font-family: monospace"">+</span>","null","fixation","","","","",""
"","859","audio-keyboard-response","687","1108955","0.0-3.0-1.576","../audio/54-1-masc.mp3"," ","","Estou","","","",""
"","712","audio-keyboard-response","688","1109947","0.0-3.0-1.577","../audio/54-2-masc.mp3"," ","","com","","","",""
"","869","audio-keyboard-response","689","1111083","0.0-3.0-1.578","../audio/54-3-masc.mp3"," ","","medo","","","",""
"","621","audio-keyboard-response","690","1111979","0.0-3.0-1.579","../audio/54-4-masc.mp3"," ","","da","","","",""
"","949","audio-keyboard-response","691","1113195","0.0-3.0-1.580","../audio/54-5-masc.mp3"," ","","atual","","","",""
"","1408","audio-keyboard-response","692","1114875","0.0-3.0-1.581","../audio/54-6-masc.mp3"," ","","organização","","","",""
"","648","audio-keyboard-response","693","1115803","0.0-3.0-1.582","../audio/54-7-masc.mp3"," ","","do","","","",""
"","920","audio-keyboard-response","694","1117003","0.0-3.0-1.583","../audio/54-8-masc.mp3"," ","","país.","","","",""
"","null","html-keyboard-response","695","1118266","0.0-3.0-0.584-0.584","<span style= ""font-size:30px; font-family: monospace"">+</span>","null","fixation","","","","",""
"","1101","audio-keyboard-response","696","1119659","0.0-3.0-1.584","../audio/51-1-fem.mp3"," ","","Suco","","","",""
"","611","audio-keyboard-response","697","1120539","0.0-3.0-1.585","../audio/51-2-fem.mp3"," ","","de","","","",""
"","1000","audio-keyboard-response","698","1121803","0.0-3.0-1.586","../audio/51-3-fem.mp3"," ","","acerola","","","",""
"","659","audio-keyboard-response","699","1122731","0.0-3.0-1.587","../audio/51-4-fem.mp3"," ","","é","","","",""
"","1149","audio-keyboard-response","700","1124155","0.0-3.0-1.588","../audio/51-5-fem.mp3"," ","","azedo","","","",""
"","720","audio-keyboard-response","701","1125147","0.0-3.0-1.589","../audio/51-6-fem.mp3"," ","","e","","","",""
"","960","audio-keyboard-response","702","1126379","0.0-3.0-1.590","../audio/51-7-fem.mp3"," ","","até","","","",""
"","1160","audio-keyboard-response","703","1127803","0.0-3.0-1.591","../audio/51-8-fem.mp3"," ","","barato.","","","",""
"","null","html-keyboard-response","704","1129055","0.0-3.0-0.592-0.592","<span style= ""font-size:30px; font-family: monospace"">+</span>","null","fixation","","","","",""
"","709","audio-keyboard-response","705","1130043","0.0-3.0-1.592","../audio/53-1-masc.mp3"," ","","O","","","",""
"","971","audio-keyboard-response","706","1131290","0.0-3.0-1.593","../audio/53-2-masc.mp3"," ","","médico","","","",""
"","680","audio-keyboard-response","707","1132250","0.0-3.0-1.594","../audio/53-3-masc.mp3"," ","","foi","","","",""
"","1032","audio-keyboard-response","708","1133546","0.0-3.0-1.595","../audio/53-4-masc.mp3"," ","","bastante","","","",""
"","992","audio-keyboard-response","709","1134826","0.0-3.0-1.596","../audio/53-5-masc.mp3"," ","","preciso","","","",""
"","979","audio-keyboard-response","710","1136074","0.0-3.0-1.597","../audio/53-6-masc.mp3"," ","","durante","","","",""
"","699","audio-keyboard-response","711","1137050","0.0-3.0-1.598","../audio/53-7-masc.mp3"," ","","a","","","",""
"","1240","audio-keyboard-response","712","1138554","0.0-3.0-1.599","../audio/53-8-masc.mp3"," ","","cirurgia.","","","",""
"","null","html-keyboard-response","713","1139824","0.0-3.0-0.600-0.600","<span style= ""font-size:30px; font-family: monospace"">+</span>","null","fixation","","","","",""
"","168","audio-keyboard-response","714","1140282","0.0-3.0-1.600","../audio/52-1-fem.mp3"," ","","Às","","","",""
"","941","audio-keyboard-response","715","1141498","0.0-3.0-1.601","../audio/52-2-fem.mp3"," ","","vezes","","","",""
"","931","audio-keyboard-response","716","1142698","0.0-3.0-1.602","../audio/52-3-fem.mp3"," ","","eu","","","",""
"","640","audio-keyboard-response","717","1143610","0.0-3.0-1.603","../audio/52-4-fem.mp3"," ","","tenho","","","",""
"","1061","audio-keyboard-response","718","1144938","0.0-3.0-1.604","../audio/52-5-fem.mp3"," ","","azia","","","",""
"","1029","audio-keyboard-response","719","1146234","0.0-3.0-1.605","../audio/52-6-fem.mp3"," ","","depois","","","",""
"","699","audio-keyboard-response","720","1147194","0.0-3.0-1.606","../audio/52-7-fem.mp3"," ","","da","","","",""
"","1680","audio-keyboard-response","721","1149147","0.0-3.0-1.607","../audio/52-8-fem.mp3"," ","","janta.","","","",""
"","null","html-keyboard-response","722","1150417","0.0-3.0-0.608-0.608","<span style= ""font-size:30px; font-family: monospace"">+</span>","null","fixation","","","","",""
"","720","audio-keyboard-response","723","1151418","0.0-3.0-1.608","../audio/55-1-fem.mp3"," ","","O","","","",""
"","1019","audio-keyboard-response","724","1152714","0.0-3.0-1.609","../audio/55-2-fem.mp3"," ","","insulto","","","",""
"","1160","audio-keyboard-response","725","1154154","0.0-3.0-1.610","../audio/55-3-fem.mp3"," ","","recente","","","",""
"","1040","audio-keyboard-response","726","1155466","0.0-3.0-1.611","../audio/55-4-fem.mp3"," ","","causou","","","",""
"","1491","audio-keyboard-response","727","1157226","0.0-3.0-1.612","../audio/55-5-fem.mp3"," ","","indignação","","","",""
"","779","audio-keyboard-response","728","1158283","0.0-3.0-1.613","../audio/55-6-fem.mp3"," ","","em","","","",""
"","1160","audio-keyboard-response","729","1159707","0.0-3.0-1.614","../audio/55-7-fem.mp3"," ","","todos.","","","",""
"","7545","html-keyboard-response","730","1167514","0.0-3.0-2.614-0.614","<span style=""font-size:25px; font-family: monospace"">O insulto causou calmaria?</span>","n","","","O insulto causou calmaria?","null","exp-sent","false"
"[{""page_index"":0,""viewing_time"":8937}]","8937","instructions","731","1176963","0.0-4.0","","","","","","","",""
