"view_history","rt","trial_type","trial_index","time_elapsed","internal_node_id","response","question_order"
"[{""page_index"":0,""viewing_time"":4646}]","4646","instructions","0","4647","0.0-0.0","",""
"","14654","survey-text","1","19416","0.0-1.0","{""age"":""33 ANOS""}",""
"","5571","survey-multi-choice","2","25103","0.0-2.0","{""sex"":""Masculino""}","[0]"
"","8340","survey-multi-choice","3","33552","0.0-3.0","{""own_schooling"":""Ensino Médio completo""}","[0]"
"","9353","survey-multi-choice","4","43007","0.0-4.0","{""mother_schooling"":""Ensino Fundamental""}","[0]"
"","9658","survey-multi-choice","5","52767","0.0-5.0","{""father_schooling"":""Ensino Médio completo""}","[0]"
"","560219","survey-html-form","6","613085","0.0-6.0","{""language_0"":""KREYOL"",""listening_0"":""1 ANO"",""speaking_0"":""2 ANOS"",""reading_0"":""3 ANOS"",""writing_0"":""4 ANO"",""language_1"":""FRANCÊS"",""listening_1"":""1 ANO"",""speaking_1"":""2ANO"",""reading_1"":""3 ANO"",""writing_1"":""4 ANO"",""language_2"":""iNGLES"",""listening_2"":""13"",""speaking_2"":""14"",""reading_2"":""14"",""writing_2"":""15"",""language_3"":""PORTUGES"",""listening_3"":""24"",""speaking_3"":""24"",""reading_3"":""25"",""writing_3"":""25""}",""
"","200681","survey-html-form","7","813867","0.0-7.0","{""language_3"":""PORTUGES"",""listening_3"":""2"",""speaking_3"":""2"",""reading_3"":""2"",""writing_3"":""2"",""language_1"":""FRANCES"",""listening_1"":""1"",""speaking_1"":""1"",""reading_1"":""3"",""writing_1"":""5"",""language_2"":""INGLES"",""listening_2"":""2"",""speaking_2"":""2"",""reading_2"":""2"",""writing_2"":""2""}",""
"","6257","survey-text","8","820227","0.0-8.0","{""country_of_origin"":""HAITI""}",""
"","8482","survey-text","9","828811","0.0-9.0","{""country_of_residence"":""BRESIL""}",""
"","152633","survey-html-form","10","981546","0.0-10.0","{""country_0"":""BRESIL"",""duration_0"":""1 "",""language_0"":""PORTUGUES"",""frequency_0"":"""",""country_1"":"""",""duration_1"":"""",""language_1"":"""",""frequency_1"":"""",""country_2"":"""",""duration_2"":"""",""language_2"":"""",""frequency_2"":"""",""country_3"":"""",""duration_3"":"""",""language_3"":"""",""frequency_3"":""""}",""
"","161234","survey-html-form","11","1142881","0.0-11.0","{""language_0"":""KREYOL"",""context_0"":""1"",""language_1"":""FRANCES"",""context_1"":""2"",""language_2"":""ANGLAIS"",""context_2"":""2"",""language_3"":""PORTUGUES"",""context_3"":""1""}",""
"","222550","survey-html-form","12","1365537","0.0-12.0","{""language_0"":""KREYOL"",""home_0"":""1 "",""friends_0"":""2"",""school_0"":""3"",""work_0"":""18"",""computer_0"":""17"",""games_0"":""18"",""language_1"":""FRANCES"",""home_1"":""1"",""friends_1"":""2"",""school_1"":""3"",""work_1"":""18"",""computer_1"":""17"",""games_1"":""18"",""language_2"":""INGLES"",""home_2"":""12"",""friends_2"":""13"",""school_2"":""13"",""work_2"":""20"",""computer_2"":""17"",""games_2"":""17"",""language_3"":""PORTUGUES"",""home_3"":""24"",""friends_3"":""24"",""school_3"":""26"",""work_3"":""24"",""computer_3"":""17"",""games_3"":""17""}",""
"","18600","survey-likert","13","1384240","0.0-13.0","{""new_languages"":4}","[0]"
"","147499","survey-html-form","14","1531840","0.0-14.0","{""language_0"":""KREYOL"",""listen_0"":""7"",""talk_0"":""7"",""read_0"":""7"",""write_0"":""7"",""language_1"":""FRANCES"",""listen_1"":""5"",""talk_1"":""5"",""read_1"":""5"",""write_1"":""5"",""language_2"":""INGLES"",""listen_2"":""3"",""talk_2"":""3"",""read_2"":""3"",""write_2"":""3"",""language_3"":""PORTUGUES"",""listen_3"":""4"",""talk_3"":""4"",""read_3"":""4"",""write_3"":""4""}",""
"","270762","survey-html-form","15","1802702","0.0-15.0","{""language_0"":""KREYOL"",""tv_0"":""1HRS"",""radio_0"":""1"",""read_fun_0"":""1"",""read_work_0"":""1"",""write_0"":""1"",""social_nets_0"":""1"",""language_1"":""FRANCES"",""tv_1"":""2HRS"",""radio_1"":""2"",""read_fun_1"":""3O MN"",""read_work_1"":""1"",""write_1"":""2"",""social_nets_1"":""2"",""language_2"":""INGLES"",""tv_2"":""30 MN"",""radio_2"":""30 MN"",""read_fun_2"":""30 MN"",""read_work_2"":""30 MN"",""write_2"":""30 MN"",""social_nets_2"":""30MN "",""language_3"":""PORTUGUES"",""tv_3"":""2HRS"",""radio_3"":""2"",""read_fun_3"":""30 MN"",""read_work_3"":""2"",""write_3"":""1"",""social_nets_3"":""1""}",""
"","129649","survey-html-form","16","1932454","0.0-16.0","{""language_0"":""KREYOL"",""family_0"":""1"",""friends_0"":""1"",""work_0"":""1"",""school_0"":""1"",""language_1"":""FRANCES"",""family_1"":""30MN"",""friends_1"":""10 MN"",""work_1"":""5 MN"",""school_1"":""1"",""language_2"":""INGLES"",""family_2"":""10 MN"",""friends_2"":""5 MN"",""work_2"":""3MN"",""school_2"":""30 MN"",""language_3"":""PORTUGUES"",""family_3"":""5 MN"",""friends_3"":""10 MN"",""work_3"":""3 MN"",""school_3"":""15 MN""}",""
"","155354","survey-html-form","17","2087909","0.0-17.0","{""language_0_0"":""KREYOL"",""language_0_1"":""KREYOL"",""language_0_2"":""FRANCES"",""language_0_3"":""KREYOL"",""language_1_0"":""KREYOL"",""language_1_1"":""PORTUGUES"",""language_1_2"":""KREYOL"",""language_1_3"":""KREYOL"",""language_2_0"":""PORTUGUES"",""language_2_1"":""PORTUGUES"",""language_2_2"":""PORTUGUES"",""language_2_3"":""PORTUGUES"",""language_3_0"":""PORTUGUES"",""language_3_1"":""PORTUGUES"",""language_3_2"":""PORTUGUES"",""language_3_3"":""PORTUGUES""}",""
"","212123","survey-html-form","18","2300133","0.0-18.0","{""language_2"":""INGLES"",""think_2"":""2"",""selftalk_2"":""3"",""emotions_2"":""2"",""dream_2"":""2"",""math_2"":""3"",""remember_2"":""2"",""pray_2"":""4"",""language_1"":""FRANCES"",""think_1"":""2"",""selftalk_1"":""4"",""emotions_1"":""3"",""dream_1"":""3"",""math_1"":""3"",""remember_1"":""3"",""pray_1"":""3"",""language_3"":""PORTUGUES"",""think_3"":""2"",""selftalk_3"":""3"",""emotions_3"":""4"",""dream_3"":""2"",""math_3"":""6"",""remember_3"":""3"",""pray_3"":""2""}",""
"","6120","survey-multi-choice","19","2306355","0.0-19.0","{""dificuldade_visao_ou_audicao"":""Não""}","[0]"
"","10183","survey-text","20","2316643","0.0-20.0","{""detalhes_dificuldades_audicao_ou_visao"":""NAO""}",""
"","9634","survey-text","21","2326379","0.0-21.0","{""additional_info"":""""}",""
