[
	{
		"view_history": [
			{
				"page_index": 0,
				"viewing_time": 1413
			},
			{
				"page_index": 1,
				"viewing_time": 2592
			}
		],
		"rt": 4006,
		"trial_type": "instructions",
		"trial_index": 0,
		"time_elapsed": 4006,
		"internal_node_id": "0.0-0.0"
	},
	{
		"rt": null,
		"stimulus": "<span style= \"font-size:30px; font-family: monospace\">+</span>",
		"response": null,
		"trial_part": "fixation",
		"trial_type": "html-keyboard-response",
		"trial_index": 1,
		"time_elapsed": 5123,
		"internal_node_id": "0.0-1.0-0.0-0.0"
	},
	{
		"rt": 4872,
		"stimulus": "../audio/prac-question-1-1.mp3",
		"response": " ",
		"word": "O",
		"trial_type": "audio-keyboard-response",
		"trial_index": 2,
		"time_elapsed": 10279,
		"internal_node_id": "0.0-1.0-1.0"
	},
	{
		"rt": 22720,
		"stimulus": "../audio/prac-question-1-2.mp3",
		"response": " ",
		"word": "dia",
		"trial_type": "audio-keyboard-response",
		"trial_index": 3,
		"time_elapsed": 33270,
		"internal_node_id": "0.0-1.0-1.1"
	},
	{
		"rt": 1491,
		"stimulus": "../audio/prac-question-1-3.mp3",
		"response": " ",
		"word": "estará",
		"trial_type": "audio-keyboard-response",
		"trial_index": 4,
		"time_elapsed": 35030,
		"internal_node_id": "0.0-1.0-1.2"
	},
	{
		"rt": 1051,
		"stimulus": "../audio/prac-question-1-4.mp3",
		"response": " ",
		"word": "cheio",
		"trial_type": "audio-keyboard-response",
		"trial_index": 5,
		"time_elapsed": 36342,
		"internal_node_id": "0.0-1.0-1.3"
	},
	{
		"rt": 891,
		"stimulus": "../audio/prac-question-1-5.mp3",
		"response": " ",
		"word": "de",
		"trial_type": "audio-keyboard-response",
		"trial_index": 6,
		"time_elapsed": 37510,
		"internal_node_id": "0.0-1.0-1.4"
	},
	{
		"rt": 1040,
		"stimulus": "../audio/prac-question-1-6.mp3",
		"response": " ",
		"word": "nuvens",
		"trial_type": "audio-keyboard-response",
		"trial_index": 7,
		"time_elapsed": 38822,
		"internal_node_id": "0.0-1.0-1.5"
	},
	{
		"rt": 909,
		"stimulus": "../audio/prac-question-1-7.mp3",
		"response": " ",
		"word": "hoje.",
		"trial_type": "audio-keyboard-response",
		"trial_index": 8,
		"time_elapsed": 40006,
		"internal_node_id": "0.0-1.0-1.6"
	},
	{
		"rt": null,
		"stimulus": "<span style= \"font-size:30px; font-family: monospace\">+</span>",
		"response": null,
		"trial_part": "fixation",
		"trial_type": "html-keyboard-response",
		"trial_index": 9,
		"time_elapsed": 41273,
		"internal_node_id": "0.0-1.0-0.7-0.7"
	},
	{
		"rt": 811,
		"stimulus": "../audio/prac-question-2-1.mp3",
		"response": " ",
		"word": "A",
		"trial_type": "audio-keyboard-response",
		"trial_index": 10,
		"time_elapsed": 42374,
		"internal_node_id": "0.0-1.0-1.7"
	},
	{
		"rt": 1141,
		"stimulus": "../audio/prac-question-2-2.mp3",
		"response": " ",
		"word": "caneca",
		"trial_type": "audio-keyboard-response",
		"trial_index": 11,
		"time_elapsed": 43781,
		"internal_node_id": "0.0-1.0-1.8"
	},
	{
		"rt": 1240,
		"stimulus": "../audio/prac-question-2-3.mp3",
		"response": " ",
		"word": "colorida",
		"trial_type": "audio-keyboard-response",
		"trial_index": 12,
		"time_elapsed": 45302,
		"internal_node_id": "0.0-1.0-1.9"
	},
	{
		"rt": 880,
		"stimulus": "../audio/prac-question-2-4.mp3",
		"response": " ",
		"word": "caiu",
		"trial_type": "audio-keyboard-response",
		"trial_index": 13,
		"time_elapsed": 46453,
		"internal_node_id": "0.0-1.0-1.10"
	},
	{
		"rt": 720,
		"stimulus": "../audio/prac-question-2-5.mp3",
		"response": " ",
		"word": "da",
		"trial_type": "audio-keyboard-response",
		"trial_index": 14,
		"time_elapsed": 47445,
		"internal_node_id": "0.0-1.0-1.11"
	},
	{
		"rt": 960,
		"stimulus": "../audio/prac-question-2-6.mp3",
		"response": " ",
		"word": "mesa",
		"trial_type": "audio-keyboard-response",
		"trial_index": 15,
		"time_elapsed": 48677,
		"internal_node_id": "0.0-1.0-1.12"
	},
	{
		"rt": 680,
		"stimulus": "../audio/prac-question-2-7.mp3",
		"response": " ",
		"word": "de",
		"trial_type": "audio-keyboard-response",
		"trial_index": 16,
		"time_elapsed": 49622,
		"internal_node_id": "0.0-1.0-1.13"
	},
	{
		"rt": 1269,
		"stimulus": "../audio/prac-question-2-8.mp3",
		"response": " ",
		"word": "jantar.",
		"trial_type": "audio-keyboard-response",
		"trial_index": 17,
		"time_elapsed": 51174,
		"internal_node_id": "0.0-1.0-1.14"
	},
	{
		"rt": 20804,
		"stimulus": "<span style=\"font-size:25px; font-family: monospace\">A caneca era colorida?</span>",
		"response": "s",
		"question": "A caneca era colorida?",
		"answer": "null",
		"trial": "prac-sent",
		"trial_type": "html-keyboard-response",
		"trial_index": 18,
		"time_elapsed": 72229,
		"internal_node_id": "0.0-1.0-2.14-0.14",
		"accuracy": false
	},
	{
		"view_history": [
			{
				"page_index": 0,
				"viewing_time": 3293
			}
		],
		"rt": 3293,
		"trial_type": "instructions",
		"trial_index": 19,
		"time_elapsed": 76037,
		"internal_node_id": "0.0-2.0"
	},
	{
		"rt": null,
		"stimulus": "<span style= \"font-size:30px; font-family: monospace\">+</span>",
		"response": null,
		"trial_part": "fixation",
		"trial_type": "html-keyboard-response",
		"trial_index": 20,
		"time_elapsed": 77164,
		"internal_node_id": "0.0-3.0-0.0-0.0"
	},
	{
		"rt": 1091,
		"stimulus": "../audio/69-1-fem.mp3",
		"response": " ",
		"word": "A",
		"trial_type": "audio-keyboard-response",
		"trial_index": 21,
		"time_elapsed": 78549,
		"internal_node_id": "0.0-3.0-1.0"
	},
	{
		"rt": 1229,
		"stimulus": "../audio/69-2-fem.mp3",
		"response": " ",
		"word": "loja",
		"trial_type": "audio-keyboard-response",
		"trial_index": 22,
		"time_elapsed": 80053,
		"internal_node_id": "0.0-3.0-1.1"
	},
	{
		"rt": 1251,
		"stimulus": "../audio/69-3-fem.mp3",
		"response": " ",
		"word": "recebeu",
		"trial_type": "audio-keyboard-response",
		"trial_index": 23,
		"time_elapsed": 81573,
		"internal_node_id": "0.0-3.0-1.2"
	},
	{
		"rt": 1632,
		"stimulus": "../audio/69-4-fem.mp3",
		"response": " ",
		"word": "uma",
		"trial_type": "audio-keyboard-response",
		"trial_index": 24,
		"time_elapsed": 83477,
		"internal_node_id": "0.0-3.0-1.3"
	},
	{
		"rt": 1669,
		"stimulus": "../audio/69-5-fem.mp3",
		"response": " ",
		"word": "poltrona",
		"trial_type": "audio-keyboard-response",
		"trial_index": 25,
		"time_elapsed": 85413,
		"internal_node_id": "0.0-3.0-1.4"
	},
	{
		"rt": 1040,
		"stimulus": "../audio/69-6-fem.mp3",
		"response": " ",
		"word": "de",
		"trial_type": "audio-keyboard-response",
		"trial_index": 26,
		"time_elapsed": 86725,
		"internal_node_id": "0.0-3.0-1.5"
	},
	{
		"rt": 1040,
		"stimulus": "../audio/69-7-fem.mp3",
		"response": " ",
		"word": "couro",
		"trial_type": "audio-keyboard-response",
		"trial_index": 27,
		"time_elapsed": 88037,
		"internal_node_id": "0.0-3.0-1.6"
	},
	{
		"rt": 1059,
		"stimulus": "../audio/69-8-fem.mp3",
		"response": " ",
		"word": "preto.",
		"trial_type": "audio-keyboard-response",
		"trial_index": 28,
		"time_elapsed": 89365,
		"internal_node_id": "0.0-3.0-1.7"
	},
	{
		"rt": null,
		"stimulus": "<span style= \"font-size:30px; font-family: monospace\">+</span>",
		"response": null,
		"trial_part": "fixation",
		"trial_type": "html-keyboard-response",
		"trial_index": 29,
		"time_elapsed": 90632,
		"internal_node_id": "0.0-3.0-0.8-0.8"
	},
	{
		"rt": 1259,
		"stimulus": "../audio/66-1-fem.mp3",
		"response": " ",
		"word": "Não",
		"trial_type": "audio-keyboard-response",
		"trial_index": 30,
		"time_elapsed": 92165,
		"internal_node_id": "0.0-3.0-1.8"
	},
	{
		"rt": 1261,
		"stimulus": "../audio/66-2-fem.mp3",
		"response": " ",
		"word": "gosto",
		"trial_type": "audio-keyboard-response",
		"trial_index": 31,
		"time_elapsed": 93701,
		"internal_node_id": "0.0-3.0-1.9"
	},
	{
		"rt": 1080,
		"stimulus": "../audio/66-3-fem.mp3",
		"response": " ",
		"word": "de",
		"trial_type": "audio-keyboard-response",
		"trial_index": 32,
		"time_elapsed": 95045,
		"internal_node_id": "0.0-3.0-1.10"
	},
	{
		"rt": 1291,
		"stimulus": "../audio/66-4-fem.mp3",
		"response": " ",
		"word": "gente",
		"trial_type": "audio-keyboard-response",
		"trial_index": 33,
		"time_elapsed": 96613,
		"internal_node_id": "0.0-3.0-1.11"
	},
	{
		"rt": 8101,
		"stimulus": "../audio/66-5-fem.mp3",
		"response": " ",
		"word": "egoísta",
		"trial_type": "audio-keyboard-response",
		"trial_index": 34,
		"time_elapsed": 104997,
		"internal_node_id": "0.0-3.0-1.12"
	},
	{
		"rt": 1149,
		"stimulus": "../audio/66-6-fem.mp3",
		"response": " ",
		"word": "nem",
		"trial_type": "audio-keyboard-response",
		"trial_index": 35,
		"time_elapsed": 106421,
		"internal_node_id": "0.0-3.0-1.13"
	},
	{
		"rt": 1480,
		"stimulus": "../audio/66-7-fem.mp3",
		"response": " ",
		"word": "chata.",
		"trial_type": "audio-keyboard-response",
		"trial_index": 36,
		"time_elapsed": 108181,
		"internal_node_id": "0.0-3.0-1.14"
	},
	{
		"rt": null,
		"stimulus": "<span style= \"font-size:30px; font-family: monospace\">+</span>",
		"response": null,
		"trial_part": "fixation",
		"trial_type": "html-keyboard-response",
		"trial_index": 37,
		"time_elapsed": 109453,
		"internal_node_id": "0.0-3.0-0.15-0.15"
	},
	{
		"rt": 51,
		"stimulus": "../audio/67-1-masc.mp3",
		"response": " ",
		"word": "Minha",
		"trial_type": "audio-keyboard-response",
		"trial_index": 38,
		"time_elapsed": 109781,
		"internal_node_id": "0.0-3.0-1.15"
	},
	{
		"rt": 971,
		"stimulus": "../audio/67-2-masc.mp3",
		"response": " ",
		"word": "tia",
		"trial_type": "audio-keyboard-response",
		"trial_index": 39,
		"time_elapsed": 111013,
		"internal_node_id": "0.0-3.0-1.16"
	},
	{
		"rt": 1051,
		"stimulus": "../audio/67-3-masc.mp3",
		"response": " ",
		"word": "comprou",
		"trial_type": "audio-keyboard-response",
		"trial_index": 40,
		"time_elapsed": 112341,
		"internal_node_id": "0.0-3.0-1.17"
	},
	{
		"rt": 800,
		"stimulus": "../audio/67-4-masc.mp3",
		"response": " ",
		"word": "um",
		"trial_type": "audio-keyboard-response",
		"trial_index": 41,
		"time_elapsed": 113413,
		"internal_node_id": "0.0-3.0-1.18"
	},
	{
		"rt": 992,
		"stimulus": "../audio/67-5-masc.mp3",
		"response": " ",
		"word": "cordão",
		"trial_type": "audio-keyboard-response",
		"trial_index": 42,
		"time_elapsed": 114677,
		"internal_node_id": "0.0-3.0-1.19"
	},
	{
		"rt": 859,
		"stimulus": "../audio/67-6-masc.mp3",
		"response": " ",
		"word": "para",
		"trial_type": "audio-keyboard-response",
		"trial_index": 43,
		"time_elapsed": 115813,
		"internal_node_id": "0.0-3.0-1.20"
	},
	{
		"rt": 832,
		"stimulus": "../audio/67-7-masc.mp3",
		"response": " ",
		"word": "o",
		"trial_type": "audio-keyboard-response",
		"trial_index": 44,
		"time_elapsed": 116917,
		"internal_node_id": "0.0-3.0-1.21"
	},
	{
		"rt": 1368,
		"stimulus": "../audio/67-8-masc.mp3",
		"response": " ",
		"word": "varal.",
		"trial_type": "audio-keyboard-response",
		"trial_index": 45,
		"time_elapsed": 118565,
		"internal_node_id": "0.0-3.0-1.22"
	},
	{
		"rt": null,
		"stimulus": "<span style= \"font-size:30px; font-family: monospace\">+</span>",
		"response": null,
		"trial_part": "fixation",
		"trial_type": "html-keyboard-response",
		"trial_index": 46,
		"time_elapsed": 119831,
		"internal_node_id": "0.0-3.0-0.23-0.23"
	},
	{
		"rt": 851,
		"stimulus": "../audio/68-1-masc.mp3",
		"response": " ",
		"word": "Meu",
		"trial_type": "audio-keyboard-response",
		"trial_index": 47,
		"time_elapsed": 120949,
		"internal_node_id": "0.0-3.0-1.23"
	},
	{
		"rt": 989,
		"stimulus": "../audio/68-2-masc.mp3",
		"response": " ",
		"word": "irmão",
		"trial_type": "audio-keyboard-response",
		"trial_index": 48,
		"time_elapsed": 122213,
		"internal_node_id": "0.0-3.0-1.24"
	},
	{
		"rt": 952,
		"stimulus": "../audio/68-3-masc.mp3",
		"response": " ",
		"word": "teve",
		"trial_type": "audio-keyboard-response",
		"trial_index": 49,
		"time_elapsed": 123429,
		"internal_node_id": "0.0-3.0-1.25"
	},
	{
		"rt": 1011,
		"stimulus": "../audio/68-4-masc.mp3",
		"response": " ",
		"word": "um",
		"trial_type": "audio-keyboard-response",
		"trial_index": 50,
		"time_elapsed": 124709,
		"internal_node_id": "0.0-3.0-1.26"
	},
	{
		"rt": 1579,
		"stimulus": "../audio/68-5-masc.mp3",
		"response": " ",
		"word": "noivado",
		"trial_type": "audio-keyboard-response",
		"trial_index": 51,
		"time_elapsed": 126565,
		"internal_node_id": "0.0-3.0-1.27"
	},
	{
		"rt": 920,
		"stimulus": "../audio/68-6-masc.mp3",
		"response": " ",
		"word": "longo",
		"trial_type": "audio-keyboard-response",
		"trial_index": 52,
		"time_elapsed": 127749,
		"internal_node_id": "0.0-3.0-1.28"
	},
	{
		"rt": 731,
		"stimulus": "../audio/68-7-masc.mp3",
		"response": " ",
		"word": "e",
		"trial_type": "audio-keyboard-response",
		"trial_index": 53,
		"time_elapsed": 128757,
		"internal_node_id": "0.0-3.0-1.29"
	},
	{
		"rt": 1560,
		"stimulus": "../audio/68-8-masc.mp3",
		"response": " ",
		"word": "maravilhoso.",
		"trial_type": "audio-keyboard-response",
		"trial_index": 54,
		"time_elapsed": 130597,
		"internal_node_id": "0.0-3.0-1.30"
	},
	{
		"rt": null,
		"stimulus": "<span style= \"font-size:30px; font-family: monospace\">+</span>",
		"response": null,
		"trial_part": "fixation",
		"trial_type": "html-keyboard-response",
		"trial_index": 55,
		"time_elapsed": 131873,
		"internal_node_id": "0.0-3.0-0.31-0.31"
	},
	{
		"rt": 909,
		"stimulus": "../audio/70-1-masc.mp3",
		"response": " ",
		"word": "O",
		"trial_type": "audio-keyboard-response",
		"trial_index": 56,
		"time_elapsed": 133059,
		"internal_node_id": "0.0-3.0-1.31"
	},
	{
		"rt": 819,
		"stimulus": "../audio/70-2-masc.mp3",
		"response": " ",
		"word": "meu",
		"trial_type": "audio-keyboard-response",
		"trial_index": 57,
		"time_elapsed": 134163,
		"internal_node_id": "0.0-3.0-1.32"
	},
	{
		"rt": 792,
		"stimulus": "../audio/70-3-masc.mp3",
		"response": " ",
		"word": "filho",
		"trial_type": "audio-keyboard-response",
		"trial_index": 58,
		"time_elapsed": 135236,
		"internal_node_id": "0.0-3.0-1.33"
	},
	{
		"rt": 760,
		"stimulus": "../audio/70-4-masc.mp3",
		"response": " ",
		"word": "tem",
		"trial_type": "audio-keyboard-response",
		"trial_index": 59,
		"time_elapsed": 136259,
		"internal_node_id": "0.0-3.0-1.34"
	},
	{
		"rt": 960,
		"stimulus": "../audio/70-5-masc.mp3",
		"response": " ",
		"word": "medo",
		"trial_type": "audio-keyboard-response",
		"trial_index": 60,
		"time_elapsed": 137491,
		"internal_node_id": "0.0-3.0-1.35"
	},
	{
		"rt": 760,
		"stimulus": "../audio/70-6-masc.mp3",
		"response": " ",
		"word": "de",
		"trial_type": "audio-keyboard-response",
		"trial_index": 61,
		"time_elapsed": 138531,
		"internal_node_id": "0.0-3.0-1.36"
	},
	{
		"rt": 1109,
		"stimulus": "../audio/70-7-masc.mp3",
		"response": " ",
		"word": "enguia",
		"trial_type": "audio-keyboard-response",
		"trial_index": 62,
		"time_elapsed": 139923,
		"internal_node_id": "0.0-3.0-1.37"
	},
	{
		"rt": 971,
		"stimulus": "../audio/70-8-masc.mp3",
		"response": " ",
		"word": "e",
		"trial_type": "audio-keyboard-response",
		"trial_index": 63,
		"time_elapsed": 141171,
		"internal_node_id": "0.0-3.0-1.38"
	},
	{
		"rt": 1832,
		"stimulus": "../audio/70-9-masc.mp3",
		"response": " ",
		"word": "beija-flor.",
		"trial_type": "audio-keyboard-response",
		"trial_index": 64,
		"time_elapsed": 143267,
		"internal_node_id": "0.0-3.0-1.39"
	},
	{
		"rt": 6796,
		"stimulus": "<span style=\"font-size:25px; font-family: monospace\">O filho tem medo de tigre?</span>",
		"response": "s",
		"question": "O filho tem medo de tigre?",
		"answer": "null",
		"trial": "exp-sent",
		"trial_type": "html-keyboard-response",
		"trial_index": 65,
		"time_elapsed": 150324,
		"internal_node_id": "0.0-3.0-2.39-0.39",
		"accuracy": false
	},
	{
		"rt": null,
		"stimulus": "<span style= \"font-size:30px; font-family: monospace\">+</span>",
		"response": null,
		"trial_part": "fixation",
		"trial_type": "html-keyboard-response",
		"trial_index": 66,
		"time_elapsed": 151839,
		"internal_node_id": "0.0-3.0-0.40-0.40"
	},
	{
		"rt": 4520,
		"stimulus": "../audio/44-1-fem.mp3",
		"response": " ",
		"word": "Meus",
		"trial_type": "audio-keyboard-response",
		"trial_index": 67,
		"time_elapsed": 156643,
		"internal_node_id": "0.0-3.0-1.40"
	},
	{
		"rt": 1400,
		"stimulus": "../audio/44-2-fem.mp3",
		"response": " ",
		"word": "irmãos",
		"trial_type": "audio-keyboard-response",
		"trial_index": 68,
		"time_elapsed": 158323,
		"internal_node_id": "0.0-3.0-1.41"
	},
	{
		"rt": 1032,
		"stimulus": "../audio/44-3-fem.mp3",
		"response": " ",
		"word": "brigam",
		"trial_type": "audio-keyboard-response",
		"trial_index": 69,
		"time_elapsed": 159635,
		"internal_node_id": "0.0-3.0-1.42"
	},
	{
		"rt": 8491,
		"stimulus": "../audio/44-4-fem.mp3",
		"response": " ",
		"word": "por",
		"trial_type": "audio-keyboard-response",
		"trial_index": 70,
		"time_elapsed": 168388,
		"internal_node_id": "0.0-3.0-1.43"
	},
	{
		"rt": 1240,
		"stimulus": "../audio/44-5-fem.mp3",
		"response": " ",
		"word": "bobagem",
		"trial_type": "audio-keyboard-response",
		"trial_index": 71,
		"time_elapsed": 169907,
		"internal_node_id": "0.0-3.0-1.44"
	},
	{
		"rt": 920,
		"stimulus": "../audio/44-6-fem.mp3",
		"response": " ",
		"word": "todos",
		"trial_type": "audio-keyboard-response",
		"trial_index": 72,
		"time_elapsed": 171108,
		"internal_node_id": "0.0-3.0-1.45"
	},
	{
		"rt": 789,
		"stimulus": "../audio/44-7-fem.mp3",
		"response": " ",
		"word": "os",
		"trial_type": "audio-keyboard-response",
		"trial_index": 73,
		"time_elapsed": 172163,
		"internal_node_id": "0.0-3.0-1.46"
	},
	{
		"rt": 840,
		"stimulus": "../audio/44-8-fem.mp3",
		"response": " ",
		"word": "dias.",
		"trial_type": "audio-keyboard-response",
		"trial_index": 74,
		"time_elapsed": 173267,
		"internal_node_id": "0.0-3.0-1.47"
	},
	{
		"rt": null,
		"stimulus": "<span style= \"font-size:30px; font-family: monospace\">+</span>",
		"response": null,
		"trial_part": "fixation",
		"trial_type": "html-keyboard-response",
		"trial_index": 75,
		"time_elapsed": 174529,
		"internal_node_id": "0.0-3.0-0.48-0.48"
	},
	{
		"rt": 320,
		"stimulus": "../audio/42-1-masc.mp3",
		"response": " ",
		"word": "Eu",
		"trial_type": "audio-keyboard-response",
		"trial_index": 76,
		"time_elapsed": 175123,
		"internal_node_id": "0.0-3.0-1.48"
	},
	{
		"rt": 869,
		"stimulus": "../audio/42-2-masc.mp3",
		"response": " ",
		"word": "fui",
		"trial_type": "audio-keyboard-response",
		"trial_index": 77,
		"time_elapsed": 176259,
		"internal_node_id": "0.0-3.0-1.49"
	},
	{
		"rt": 781,
		"stimulus": "../audio/42-3-masc.mp3",
		"response": " ",
		"word": "a",
		"trial_type": "audio-keyboard-response",
		"trial_index": 78,
		"time_elapsed": 177315,
		"internal_node_id": "0.0-3.0-1.50"
	},
	{
		"rt": 859,
		"stimulus": "../audio/42-4-masc.mp3",
		"response": " ",
		"word": "uma",
		"trial_type": "audio-keyboard-response",
		"trial_index": 79,
		"time_elapsed": 178452,
		"internal_node_id": "0.0-3.0-1.51"
	},
	{
		"rt": 981,
		"stimulus": "../audio/42-5-masc.mp3",
		"response": " ",
		"word": "loja",
		"trial_type": "audio-keyboard-response",
		"trial_index": 80,
		"time_elapsed": 179699,
		"internal_node_id": "0.0-3.0-1.52"
	},
	{
		"rt": 781,
		"stimulus": "../audio/42-6-masc.mp3",
		"response": " ",
		"word": "de",
		"trial_type": "audio-keyboard-response",
		"trial_index": 81,
		"time_elapsed": 180755,
		"internal_node_id": "0.0-3.0-1.53"
	},
	{
		"rt": 1149,
		"stimulus": "../audio/42-7-masc.mp3",
		"response": " ",
		"word": "móveis",
		"trial_type": "audio-keyboard-response",
		"trial_index": 82,
		"time_elapsed": 182179,
		"internal_node_id": "0.0-3.0-1.54"
	},
	{
		"rt": 781,
		"stimulus": "../audio/42-8-masc.mp3",
		"response": " ",
		"word": "no",
		"trial_type": "audio-keyboard-response",
		"trial_index": 83,
		"time_elapsed": 183235,
		"internal_node_id": "0.0-3.0-1.55"
	},
	{
		"rt": 1600,
		"stimulus": "../audio/42-9-masc.mp3",
		"response": " ",
		"word": "bairro.",
		"trial_type": "audio-keyboard-response",
		"trial_index": 84,
		"time_elapsed": 185108,
		"internal_node_id": "0.0-3.0-1.56"
	},
	{
		"rt": null,
		"stimulus": "<span style= \"font-size:30px; font-family: monospace\">+</span>",
		"response": null,
		"trial_part": "fixation",
		"trial_type": "html-keyboard-response",
		"trial_index": 85,
		"time_elapsed": 186384,
		"internal_node_id": "0.0-3.0-0.57-0.57"
	},
	{
		"rt": 771,
		"stimulus": "../audio/41-1-masc.mp3",
		"response": " ",
		"word": "A",
		"trial_type": "audio-keyboard-response",
		"trial_index": 86,
		"time_elapsed": 187427,
		"internal_node_id": "0.0-3.0-1.57"
	},
	{
		"rt": 1120,
		"stimulus": "../audio/41-2-masc.mp3",
		"response": " ",
		"word": "novela",
		"trial_type": "audio-keyboard-response",
		"trial_index": 87,
		"time_elapsed": 188836,
		"internal_node_id": "0.0-3.0-1.58"
	},
	{
		"rt": 939,
		"stimulus": "../audio/41-3-masc.mp3",
		"response": " ",
		"word": "falava",
		"trial_type": "audio-keyboard-response",
		"trial_index": 88,
		"time_elapsed": 190051,
		"internal_node_id": "0.0-3.0-1.59"
	},
	{
		"rt": 741,
		"stimulus": "../audio/41-4-masc.mp3",
		"response": " ",
		"word": "de",
		"trial_type": "audio-keyboard-response",
		"trial_index": 89,
		"time_elapsed": 191075,
		"internal_node_id": "0.0-3.0-1.60"
	},
	{
		"rt": 971,
		"stimulus": "../audio/41-5-masc.mp3",
		"response": " ",
		"word": "paixão",
		"trial_type": "audio-keyboard-response",
		"trial_index": 90,
		"time_elapsed": 192307,
		"internal_node_id": "0.0-3.0-1.61"
	},
	{
		"rt": 709,
		"stimulus": "../audio/41-6-masc.mp3",
		"response": " ",
		"word": "e",
		"trial_type": "audio-keyboard-response",
		"trial_index": 91,
		"time_elapsed": 193283,
		"internal_node_id": "0.0-3.0-1.62"
	},
	{
		"rt": 2560,
		"stimulus": "../audio/41-7-masc.mp3",
		"response": " ",
		"word": "comédia.",
		"trial_type": "audio-keyboard-response",
		"trial_index": 92,
		"time_elapsed": 196115,
		"internal_node_id": "0.0-3.0-1.63"
	},
	{
		"rt": null,
		"stimulus": "<span style= \"font-size:30px; font-family: monospace\">+</span>",
		"response": null,
		"trial_part": "fixation",
		"trial_type": "html-keyboard-response",
		"trial_index": 93,
		"time_elapsed": 197382,
		"internal_node_id": "0.0-3.0-0.64-0.64"
	},
	{
		"rt": 869,
		"stimulus": "../audio/43-1-masc.mp3",
		"response": " ",
		"word": "Eu",
		"trial_type": "audio-keyboard-response",
		"trial_index": 94,
		"time_elapsed": 198531,
		"internal_node_id": "0.0-3.0-1.64"
	},
	{
		"rt": 891,
		"stimulus": "../audio/43-2-masc.mp3",
		"response": " ",
		"word": "achei",
		"trial_type": "audio-keyboard-response",
		"trial_index": 95,
		"time_elapsed": 199699,
		"internal_node_id": "0.0-3.0-1.65"
	},
	{
		"rt": 739,
		"stimulus": "../audio/43-3-masc.mp3",
		"response": " ",
		"word": "um",
		"trial_type": "audio-keyboard-response",
		"trial_index": 96,
		"time_elapsed": 200723,
		"internal_node_id": "0.0-3.0-1.66"
	},
	{
		"rt": 1131,
		"stimulus": "../audio/43-4-masc.mp3",
		"response": " ",
		"word": "colchão",
		"trial_type": "audio-keyboard-response",
		"trial_index": 97,
		"time_elapsed": 202131,
		"internal_node_id": "0.0-3.0-1.67"
	},
	{
		"rt": 1120,
		"stimulus": "../audio/43-5-masc.mp3",
		"response": " ",
		"word": "velho",
		"trial_type": "audio-keyboard-response",
		"trial_index": 98,
		"time_elapsed": 203523,
		"internal_node_id": "0.0-3.0-1.68"
	},
	{
		"rt": 840,
		"stimulus": "../audio/43-6-masc.mp3",
		"response": " ",
		"word": "e",
		"trial_type": "audio-keyboard-response",
		"trial_index": 99,
		"time_elapsed": 204643,
		"internal_node_id": "0.0-3.0-1.69"
	},
	{
		"rt": 1088,
		"stimulus": "../audio/43-7-masc.mp3",
		"response": " ",
		"word": "imundo",
		"trial_type": "audio-keyboard-response",
		"trial_index": 100,
		"time_elapsed": 206003,
		"internal_node_id": "0.0-3.0-1.70"
	},
	{
		"rt": 869,
		"stimulus": "../audio/43-8-masc.mp3",
		"response": " ",
		"word": "na",
		"trial_type": "audio-keyboard-response",
		"trial_index": 101,
		"time_elapsed": 207139,
		"internal_node_id": "0.0-3.0-1.71"
	},
	{
		"rt": 1091,
		"stimulus": "../audio/43-9-masc.mp3",
		"response": " ",
		"word": "casa.",
		"trial_type": "audio-keyboard-response",
		"trial_index": 102,
		"time_elapsed": 208499,
		"internal_node_id": "0.0-3.0-1.72"
	},
	{
		"rt": null,
		"stimulus": "<span style= \"font-size:30px; font-family: monospace\">+</span>",
		"response": null,
		"trial_part": "fixation",
		"trial_type": "html-keyboard-response",
		"trial_index": 103,
		"time_elapsed": 209751,
		"internal_node_id": "0.0-3.0-0.73-0.73"
	},
	{
		"rt": 1040,
		"stimulus": "../audio/45-1-masc.mp3",
		"response": " ",
		"word": "O",
		"trial_type": "audio-keyboard-response",
		"trial_index": 104,
		"time_elapsed": 211059,
		"internal_node_id": "0.0-3.0-1.73"
	},
	{
		"rt": 989,
		"stimulus": "../audio/45-2-masc.mp3",
		"response": " ",
		"word": "homem",
		"trial_type": "audio-keyboard-response",
		"trial_index": 105,
		"time_elapsed": 212323,
		"internal_node_id": "0.0-3.0-1.74"
	},
	{
		"rt": 1000,
		"stimulus": "../audio/45-3-masc.mp3",
		"response": " ",
		"word": "pagou",
		"trial_type": "audio-keyboard-response",
		"trial_index": 106,
		"time_elapsed": 213587,
		"internal_node_id": "0.0-3.0-1.75"
	},
	{
		"rt": 851,
		"stimulus": "../audio/45-4-masc.mp3",
		"response": " ",
		"word": "o",
		"trial_type": "audio-keyboard-response",
		"trial_index": 107,
		"time_elapsed": 214707,
		"internal_node_id": "0.0-3.0-1.76"
	},
	{
		"rt": 939,
		"stimulus": "../audio/45-5-masc.mp3",
		"response": " ",
		"word": "aluguel",
		"trial_type": "audio-keyboard-response",
		"trial_index": 108,
		"time_elapsed": 215923,
		"internal_node_id": "0.0-3.0-1.77"
	},
	{
		"rt": 749,
		"stimulus": "../audio/45-6-masc.mp3",
		"response": " ",
		"word": "com",
		"trial_type": "audio-keyboard-response",
		"trial_index": 109,
		"time_elapsed": 216947,
		"internal_node_id": "0.0-3.0-1.78"
	},
	{
		"rt": 1091,
		"stimulus": "../audio/45-7-masc.mp3",
		"response": " ",
		"word": "atraso.",
		"trial_type": "audio-keyboard-response",
		"trial_index": 110,
		"time_elapsed": 218307,
		"internal_node_id": "0.0-3.0-1.79"
	},
	{
		"rt": 16637,
		"stimulus": "<span style=\"font-size:25px; font-family: monospace\">O homem pagou o aluguel em dia?</span>",
		"response": "n",
		"question": "O homem pagou o aluguel em dia?",
		"answer": "null",
		"trial": "exp-sent",
		"trial_type": "html-keyboard-response",
		"trial_index": 111,
		"time_elapsed": 235203,
		"internal_node_id": "0.0-3.0-2.79-0.79",
		"accuracy": false
	},
	{
		"rt": null,
		"stimulus": "<span style= \"font-size:30px; font-family: monospace\">+</span>",
		"response": null,
		"trial_part": "fixation",
		"trial_type": "html-keyboard-response",
		"trial_index": 112,
		"time_elapsed": 236726,
		"internal_node_id": "0.0-3.0-0.80-0.80"
	},
	{
		"rt": 909,
		"stimulus": "../audio/57-1-fem.mp3",
		"response": " ",
		"word": "O",
		"trial_type": "audio-keyboard-response",
		"trial_index": 113,
		"time_elapsed": 237923,
		"internal_node_id": "0.0-3.0-1.80"
	},
	{
		"rt": 17139,
		"stimulus": "../audio/57-2-fem.mp3",
		"response": " ",
		"word": "capitão",
		"trial_type": "audio-keyboard-response",
		"trial_index": 114,
		"time_elapsed": 255330,
		"internal_node_id": "0.0-3.0-1.81"
	},
	{
		"rt": 931,
		"stimulus": "../audio/57-3-fem.mp3",
		"response": " ",
		"word": "deu",
		"trial_type": "audio-keyboard-response",
		"trial_index": 115,
		"time_elapsed": 256530,
		"internal_node_id": "0.0-3.0-1.82"
	},
	{
		"rt": 851,
		"stimulus": "../audio/57-4-fem.mp3",
		"response": " ",
		"word": "uma",
		"trial_type": "audio-keyboard-response",
		"trial_index": 116,
		"time_elapsed": 257650,
		"internal_node_id": "0.0-3.0-1.83"
	},
	{
		"rt": 1432,
		"stimulus": "../audio/57-5-fem.mp3",
		"response": " ",
		"word": "instrução",
		"trial_type": "audio-keyboard-response",
		"trial_index": 117,
		"time_elapsed": 259346,
		"internal_node_id": "0.0-3.0-1.84"
	},
	{
		"rt": 891,
		"stimulus": "../audio/57-6-fem.mp3",
		"response": " ",
		"word": "para",
		"trial_type": "audio-keyboard-response",
		"trial_index": 118,
		"time_elapsed": 260514,
		"internal_node_id": "0.0-3.0-1.85"
	},
	{
		"rt": 971,
		"stimulus": "../audio/57-7-fem.mp3",
		"response": " ",
		"word": "as",
		"trial_type": "audio-keyboard-response",
		"trial_index": 119,
		"time_elapsed": 261746,
		"internal_node_id": "0.0-3.0-1.86"
	},
	{
		"rt": 1069,
		"stimulus": "../audio/57-8-fem.mp3",
		"response": " ",
		"word": "pessoas.",
		"trial_type": "audio-keyboard-response",
		"trial_index": 120,
		"time_elapsed": 263090,
		"internal_node_id": "0.0-3.0-1.87"
	},
	{
		"rt": null,
		"stimulus": "<span style= \"font-size:30px; font-family: monospace\">+</span>",
		"response": null,
		"trial_part": "fixation",
		"trial_type": "html-keyboard-response",
		"trial_index": 121,
		"time_elapsed": 264357,
		"internal_node_id": "0.0-3.0-0.88-0.88"
	},
	{
		"rt": 792,
		"stimulus": "../audio/56-1-masc.mp3",
		"response": " ",
		"word": "A",
		"trial_type": "audio-keyboard-response",
		"trial_index": 122,
		"time_elapsed": 265427,
		"internal_node_id": "0.0-3.0-1.88"
	},
	{
		"rt": 909,
		"stimulus": "../audio/56-2-masc.mp3",
		"response": " ",
		"word": "moça",
		"trial_type": "audio-keyboard-response",
		"trial_index": 123,
		"time_elapsed": 266610,
		"internal_node_id": "0.0-3.0-1.89"
	},
	{
		"rt": 781,
		"stimulus": "../audio/56-3-masc.mp3",
		"response": " ",
		"word": "foi",
		"trial_type": "audio-keyboard-response",
		"trial_index": 124,
		"time_elapsed": 267666,
		"internal_node_id": "0.0-3.0-1.90"
	},
	{
		"rt": 771,
		"stimulus": "../audio/56-4-masc.mp3",
		"response": " ",
		"word": "à",
		"trial_type": "audio-keyboard-response",
		"trial_index": 125,
		"time_elapsed": 268706,
		"internal_node_id": "0.0-3.0-1.91"
	},
	{
		"rt": 1171,
		"stimulus": "../audio/56-5-masc.mp3",
		"response": " ",
		"word": "agência",
		"trial_type": "audio-keyboard-response",
		"trial_index": 126,
		"time_elapsed": 270146,
		"internal_node_id": "0.0-3.0-1.92"
	},
	{
		"rt": 1379,
		"stimulus": "../audio/56-6-masc.mp3",
		"response": " ",
		"word": "bancária",
		"trial_type": "audio-keyboard-response",
		"trial_index": 127,
		"time_elapsed": 271810,
		"internal_node_id": "0.0-3.0-1.93"
	},
	{
		"rt": 992,
		"stimulus": "../audio/56-7-masc.mp3",
		"response": " ",
		"word": "ontem",
		"trial_type": "audio-keyboard-response",
		"trial_index": 128,
		"time_elapsed": 273074,
		"internal_node_id": "0.0-3.0-1.94"
	},
	{
		"rt": 888,
		"stimulus": "../audio/56-8-masc.mp3",
		"response": " ",
		"word": "de",
		"trial_type": "audio-keyboard-response",
		"trial_index": 129,
		"time_elapsed": 274242,
		"internal_node_id": "0.0-3.0-1.95"
	},
	{
		"rt": 15032,
		"stimulus": "../audio/56-9-masc.mp3",
		"response": " ",
		"word": "tarde.",
		"trial_type": "audio-keyboard-response",
		"trial_index": 130,
		"time_elapsed": 289554,
		"internal_node_id": "0.0-3.0-1.96"
	},
	{
		"rt": null,
		"stimulus": "<span style= \"font-size:30px; font-family: monospace\">+</span>",
		"response": null,
		"trial_part": "fixation",
		"trial_type": "html-keyboard-response",
		"trial_index": 131,
		"time_elapsed": 290830,
		"internal_node_id": "0.0-3.0-0.97-0.97"
	},
	{
		"rt": 872,
		"stimulus": "../audio/59-1-masc.mp3",
		"response": " ",
		"word": "O",
		"trial_type": "audio-keyboard-response",
		"trial_index": 132,
		"time_elapsed": 291986,
		"internal_node_id": "0.0-3.0-1.97"
	},
	{
		"rt": 971,
		"stimulus": "../audio/59-2-masc.mp3",
		"response": " ",
		"word": "carteiro",
		"trial_type": "audio-keyboard-response",
		"trial_index": 133,
		"time_elapsed": 293234,
		"internal_node_id": "0.0-3.0-1.98"
	},
	{
		"rt": 1019,
		"stimulus": "../audio/59-3-masc.mp3",
		"response": " ",
		"word": "fez",
		"trial_type": "audio-keyboard-response",
		"trial_index": 134,
		"time_elapsed": 294530,
		"internal_node_id": "0.0-3.0-1.99"
	},
	{
		"rt": 792,
		"stimulus": "../audio/59-4-masc.mp3",
		"response": " ",
		"word": "uma",
		"trial_type": "audio-keyboard-response",
		"trial_index": 135,
		"time_elapsed": 295586,
		"internal_node_id": "0.0-3.0-1.100"
	},
	{
		"rt": 1091,
		"stimulus": "../audio/59-5-masc.mp3",
		"response": " ",
		"word": "tentativa",
		"trial_type": "audio-keyboard-response",
		"trial_index": 136,
		"time_elapsed": 296947,
		"internal_node_id": "0.0-3.0-1.101"
	},
	{
		"rt": 640,
		"stimulus": "../audio/59-6-masc.mp3",
		"response": " ",
		"word": "de",
		"trial_type": "audio-keyboard-response",
		"trial_index": 137,
		"time_elapsed": 297858,
		"internal_node_id": "0.0-3.0-1.102"
	},
	{
		"rt": 1032,
		"stimulus": "../audio/59-7-masc.mp3",
		"response": " ",
		"word": "entrega.",
		"trial_type": "audio-keyboard-response",
		"trial_index": 138,
		"time_elapsed": 299154,
		"internal_node_id": "0.0-3.0-1.103"
	},
	{
		"rt": null,
		"stimulus": "<span style= \"font-size:30px; font-family: monospace\">+</span>",
		"response": null,
		"trial_part": "fixation",
		"trial_type": "html-keyboard-response",
		"trial_index": 139,
		"time_elapsed": 300434,
		"internal_node_id": "0.0-3.0-0.104-0.104"
	},
	{
		"rt": 971,
		"stimulus": "../audio/58-1-fem.mp3",
		"response": " ",
		"word": "Havia",
		"trial_type": "audio-keyboard-response",
		"trial_index": 140,
		"time_elapsed": 301698,
		"internal_node_id": "0.0-3.0-1.104"
	},
	{
		"rt": 989,
		"stimulus": "../audio/58-2-fem.mp3",
		"response": " ",
		"word": "apenas",
		"trial_type": "audio-keyboard-response",
		"trial_index": 141,
		"time_elapsed": 302962,
		"internal_node_id": "0.0-3.0-1.105"
	},
	{
		"rt": 688,
		"stimulus": "../audio/58-3-fem.mp3",
		"response": " ",
		"word": "um",
		"trial_type": "audio-keyboard-response",
		"trial_index": 142,
		"time_elapsed": 303922,
		"internal_node_id": "0.0-3.0-1.106"
	},
	{
		"rt": 1112,
		"stimulus": "../audio/58-4-fem.mp3",
		"response": " ",
		"word": "último",
		"trial_type": "audio-keyboard-response",
		"trial_index": 143,
		"time_elapsed": 305314,
		"internal_node_id": "0.0-3.0-1.107"
	},
	{
		"rt": 1160,
		"stimulus": "../audio/58-5-fem.mp3",
		"response": " ",
		"word": "herdeiro",
		"trial_type": "audio-keyboard-response",
		"trial_index": 144,
		"time_elapsed": 306754,
		"internal_node_id": "0.0-3.0-1.108"
	},
	{
		"rt": 728,
		"stimulus": "../audio/58-6-fem.mp3",
		"response": " ",
		"word": "do",
		"trial_type": "audio-keyboard-response",
		"trial_index": 145,
		"time_elapsed": 307762,
		"internal_node_id": "0.0-3.0-1.109"
	},
	{
		"rt": 1040,
		"stimulus": "../audio/58-7-fem.mp3",
		"response": " ",
		"word": "dinheiro.",
		"trial_type": "audio-keyboard-response",
		"trial_index": 146,
		"time_elapsed": 309074,
		"internal_node_id": "0.0-3.0-1.110"
	},
	{
		"rt": null,
		"stimulus": "<span style= \"font-size:30px; font-family: monospace\">+</span>",
		"response": null,
		"trial_part": "fixation",
		"trial_type": "html-keyboard-response",
		"trial_index": 147,
		"time_elapsed": 310338,
		"internal_node_id": "0.0-3.0-0.111-0.111"
	},
	{
		"rt": 1059,
		"stimulus": "../audio/60-1-fem.mp3",
		"response": " ",
		"word": "Ondas",
		"trial_type": "audio-keyboard-response",
		"trial_index": 148,
		"time_elapsed": 311682,
		"internal_node_id": "0.0-3.0-1.111"
	},
	{
		"rt": 760,
		"stimulus": "../audio/60-2-fem.mp3",
		"response": " ",
		"word": "têm",
		"trial_type": "audio-keyboard-response",
		"trial_index": 149,
		"time_elapsed": 312722,
		"internal_node_id": "0.0-3.0-1.112"
	},
	{
		"rt": 760,
		"stimulus": "../audio/60-3-fem.mp3",
		"response": " ",
		"word": "um",
		"trial_type": "audio-keyboard-response",
		"trial_index": 150,
		"time_elapsed": 313746,
		"internal_node_id": "0.0-3.0-1.113"
	},
	{
		"rt": 1339,
		"stimulus": "../audio/60-4-fem.mp3",
		"response": " ",
		"word": "impacto",
		"trial_type": "audio-keyboard-response",
		"trial_index": 151,
		"time_elapsed": 315362,
		"internal_node_id": "0.0-3.0-1.114"
	},
	{
		"rt": 1032,
		"stimulus": "../audio/60-5-fem.mp3",
		"response": " ",
		"word": "destrutivo",
		"trial_type": "audio-keyboard-response",
		"trial_index": 152,
		"time_elapsed": 316674,
		"internal_node_id": "0.0-3.0-1.115"
	},
	{
		"rt": 840,
		"stimulus": "../audio/60-6-fem.mp3",
		"response": " ",
		"word": "no",
		"trial_type": "audio-keyboard-response",
		"trial_index": 153,
		"time_elapsed": 317794,
		"internal_node_id": "0.0-3.0-1.116"
	},
	{
		"rt": 1360,
		"stimulus": "../audio/60-7-fem.mp3",
		"response": " ",
		"word": "litoral.",
		"trial_type": "audio-keyboard-response",
		"trial_index": 154,
		"time_elapsed": 319426,
		"internal_node_id": "0.0-3.0-1.117"
	},
	{
		"rt": 7691,
		"stimulus": "<span style=\"font-size:25px; font-family: monospace\">Ondas têm um impacto destrutivo?</span>",
		"response": "s",
		"question": "Ondas têm um impacto destrutivo?",
		"answer": "null",
		"trial": "exp-sent",
		"trial_type": "html-keyboard-response",
		"trial_index": 155,
		"time_elapsed": 327378,
		"internal_node_id": "0.0-3.0-2.117-0.117",
		"accuracy": false
	},
	{
		"rt": null,
		"stimulus": "<span style= \"font-size:30px; font-family: monospace\">+</span>",
		"response": null,
		"trial_part": "fixation",
		"trial_type": "html-keyboard-response",
		"trial_index": 156,
		"time_elapsed": 328888,
		"internal_node_id": "0.0-3.0-0.118-0.118"
	},
	{
		"rt": 800,
		"stimulus": "../audio/36-1-fem.mp3",
		"response": " ",
		"word": "Meu",
		"trial_type": "audio-keyboard-response",
		"trial_index": 157,
		"time_elapsed": 329970,
		"internal_node_id": "0.0-3.0-1.118"
	},
	{
		"rt": 901,
		"stimulus": "../audio/36-2-fem.mp3",
		"response": " ",
		"word": "tio",
		"trial_type": "audio-keyboard-response",
		"trial_index": 158,
		"time_elapsed": 331138,
		"internal_node_id": "0.0-3.0-1.119"
	},
	{
		"rt": 1341,
		"stimulus": "../audio/36-3-fem.mp3",
		"response": " ",
		"word": "comprou",
		"trial_type": "audio-keyboard-response",
		"trial_index": 159,
		"time_elapsed": 332754,
		"internal_node_id": "0.0-3.0-1.120"
	},
	{
		"rt": 4979,
		"stimulus": "../audio/36-4-fem.mp3",
		"response": " ",
		"word": "um",
		"trial_type": "audio-keyboard-response",
		"trial_index": 160,
		"time_elapsed": 338002,
		"internal_node_id": "0.0-3.0-1.121"
	},
	{
		"rt": 1152,
		"stimulus": "../audio/36-5-fem.mp3",
		"response": " ",
		"word": "filtro",
		"trial_type": "audio-keyboard-response",
		"trial_index": 161,
		"time_elapsed": 339426,
		"internal_node_id": "0.0-3.0-1.122"
	},
	{
		"rt": 829,
		"stimulus": "../audio/36-6-fem.mp3",
		"response": " ",
		"word": "de",
		"trial_type": "audio-keyboard-response",
		"trial_index": 162,
		"time_elapsed": 340530,
		"internal_node_id": "0.0-3.0-1.123"
	},
	{
		"rt": 1152,
		"stimulus": "../audio/36-7-fem.mp3",
		"response": " ",
		"word": "água",
		"trial_type": "audio-keyboard-response",
		"trial_index": 163,
		"time_elapsed": 341954,
		"internal_node_id": "0.0-3.0-1.124"
	},
	{
		"rt": 981,
		"stimulus": "../audio/36-8-fem.mp3",
		"response": " ",
		"word": "hoje",
		"trial_type": "audio-keyboard-response",
		"trial_index": 164,
		"time_elapsed": 343218,
		"internal_node_id": "0.0-3.0-1.125"
	},
	{
		"rt": 2520,
		"stimulus": "../audio/36-9-fem.mp3",
		"response": " ",
		"word": "cedo.",
		"trial_type": "audio-keyboard-response",
		"trial_index": 165,
		"time_elapsed": 346018,
		"internal_node_id": "0.0-3.0-1.126"
	},
	{
		"rt": null,
		"stimulus": "<span style= \"font-size:30px; font-family: monospace\">+</span>",
		"response": null,
		"trial_part": "fixation",
		"trial_type": "html-keyboard-response",
		"trial_index": 166,
		"time_elapsed": 347292,
		"internal_node_id": "0.0-3.0-0.127-0.127"
	},
	{
		"rt": 829,
		"stimulus": "../audio/39-1-masc.mp3",
		"response": " ",
		"word": "O",
		"trial_type": "audio-keyboard-response",
		"trial_index": 167,
		"time_elapsed": 348402,
		"internal_node_id": "0.0-3.0-1.127"
	},
	{
		"rt": 1149,
		"stimulus": "../audio/39-2-masc.mp3",
		"response": " ",
		"word": "conselho",
		"trial_type": "audio-keyboard-response",
		"trial_index": 168,
		"time_elapsed": 349842,
		"internal_node_id": "0.0-3.0-1.128"
	},
	{
		"rt": 899,
		"stimulus": "../audio/39-3-masc.mp3",
		"response": " ",
		"word": "foi",
		"trial_type": "audio-keyboard-response",
		"trial_index": 169,
		"time_elapsed": 351010,
		"internal_node_id": "0.0-3.0-1.129"
	},
	{
		"rt": 1061,
		"stimulus": "../audio/39-4-masc.mp3",
		"response": " ",
		"word": "muito",
		"trial_type": "audio-keyboard-response",
		"trial_index": 170,
		"time_elapsed": 352338,
		"internal_node_id": "0.0-3.0-1.130"
	},
	{
		"rt": 949,
		"stimulus": "../audio/39-5-masc.mp3",
		"response": " ",
		"word": "útil",
		"trial_type": "audio-keyboard-response",
		"trial_index": 171,
		"time_elapsed": 353570,
		"internal_node_id": "0.0-3.0-1.131"
	},
	{
		"rt": 901,
		"stimulus": "../audio/39-6-masc.mp3",
		"response": " ",
		"word": "para",
		"trial_type": "audio-keyboard-response",
		"trial_index": 172,
		"time_elapsed": 354754,
		"internal_node_id": "0.0-3.0-1.132"
	},
	{
		"rt": 880,
		"stimulus": "../audio/39-7-masc.mp3",
		"response": " ",
		"word": "minha",
		"trial_type": "audio-keyboard-response",
		"trial_index": 173,
		"time_elapsed": 355906,
		"internal_node_id": "0.0-3.0-1.133"
	},
	{
		"rt": 1051,
		"stimulus": "../audio/39-8-masc.mp3",
		"response": " ",
		"word": "tia.",
		"trial_type": "audio-keyboard-response",
		"trial_index": 174,
		"time_elapsed": 357234,
		"internal_node_id": "0.0-3.0-1.134"
	},
	{
		"rt": null,
		"stimulus": "<span style= \"font-size:30px; font-family: monospace\">+</span>",
		"response": null,
		"trial_part": "fixation",
		"trial_type": "html-keyboard-response",
		"trial_index": 175,
		"time_elapsed": 358514,
		"internal_node_id": "0.0-3.0-0.135-0.135"
	},
	{
		"rt": 872,
		"stimulus": "../audio/37-1-masc.mp3",
		"response": " ",
		"word": "Eu",
		"trial_type": "audio-keyboard-response",
		"trial_index": 176,
		"time_elapsed": 359666,
		"internal_node_id": "0.0-3.0-1.135"
	},
	{
		"rt": 960,
		"stimulus": "../audio/37-2-masc.mp3",
		"response": " ",
		"word": "adoro",
		"trial_type": "audio-keyboard-response",
		"trial_index": 177,
		"time_elapsed": 360898,
		"internal_node_id": "0.0-3.0-1.136"
	},
	{
		"rt": 832,
		"stimulus": "../audio/37-3-masc.mp3",
		"response": " ",
		"word": "suco",
		"trial_type": "audio-keyboard-response",
		"trial_index": 178,
		"time_elapsed": 361986,
		"internal_node_id": "0.0-3.0-1.137"
	},
	{
		"rt": 749,
		"stimulus": "../audio/37-4-masc.mp3",
		"response": " ",
		"word": "de",
		"trial_type": "audio-keyboard-response",
		"trial_index": 179,
		"time_elapsed": 363010,
		"internal_node_id": "0.0-3.0-1.138"
	},
	{
		"rt": 1032,
		"stimulus": "../audio/37-5-masc.mp3",
		"response": " ",
		"word": "manga",
		"trial_type": "audio-keyboard-response",
		"trial_index": 180,
		"time_elapsed": 364306,
		"internal_node_id": "0.0-3.0-1.139"
	},
	{
		"rt": 731,
		"stimulus": "../audio/37-6-masc.mp3",
		"response": " ",
		"word": "com",
		"trial_type": "audio-keyboard-response",
		"trial_index": 181,
		"time_elapsed": 365314,
		"internal_node_id": "0.0-3.0-1.140"
	},
	{
		"rt": 1179,
		"stimulus": "../audio/37-7-masc.mp3",
		"response": " ",
		"word": "hortelã.",
		"trial_type": "audio-keyboard-response",
		"trial_index": 182,
		"time_elapsed": 366770,
		"internal_node_id": "0.0-3.0-1.141"
	},
	{
		"rt": null,
		"stimulus": "<span style= \"font-size:30px; font-family: monospace\">+</span>",
		"response": null,
		"trial_part": "fixation",
		"trial_type": "html-keyboard-response",
		"trial_index": 183,
		"time_elapsed": 368046,
		"internal_node_id": "0.0-3.0-0.142-0.142"
	},
	{
		"rt": 149,
		"stimulus": "../audio/38-1-masc.mp3",
		"response": " ",
		"word": "A",
		"trial_type": "audio-keyboard-response",
		"trial_index": 184,
		"time_elapsed": 368483,
		"internal_node_id": "0.0-3.0-1.142"
	},
	{
		"rt": 992,
		"stimulus": "../audio/38-2-masc.mp3",
		"response": " ",
		"word": "empresa",
		"trial_type": "audio-keyboard-response",
		"trial_index": 185,
		"time_elapsed": 369746,
		"internal_node_id": "0.0-3.0-1.143"
	},
	{
		"rt": 851,
		"stimulus": "../audio/38-3-masc.mp3",
		"response": " ",
		"word": "criou",
		"trial_type": "audio-keyboard-response",
		"trial_index": 186,
		"time_elapsed": 370866,
		"internal_node_id": "0.0-3.0-1.144"
	},
	{
		"rt": 709,
		"stimulus": "../audio/38-4-masc.mp3",
		"response": " ",
		"word": "a",
		"trial_type": "audio-keyboard-response",
		"trial_index": 187,
		"time_elapsed": 371842,
		"internal_node_id": "0.0-3.0-1.145"
	},
	{
		"rt": 1051,
		"stimulus": "../audio/38-5-masc.mp3",
		"response": " ",
		"word": "patente",
		"trial_type": "audio-keyboard-response",
		"trial_index": 188,
		"time_elapsed": 373170,
		"internal_node_id": "0.0-3.0-1.146"
	},
	{
		"rt": 752,
		"stimulus": "../audio/38-6-masc.mp3",
		"response": " ",
		"word": "da",
		"trial_type": "audio-keyboard-response",
		"trial_index": 189,
		"time_elapsed": 374194,
		"internal_node_id": "0.0-3.0-1.147"
	},
	{
		"rt": 1480,
		"stimulus": "../audio/38-7-masc.mp3",
		"response": " ",
		"word": "frigideira.",
		"trial_type": "audio-keyboard-response",
		"trial_index": 190,
		"time_elapsed": 375953,
		"internal_node_id": "0.0-3.0-1.148"
	},
	{
		"rt": null,
		"stimulus": "<span style= \"font-size:30px; font-family: monospace\">+</span>",
		"response": null,
		"trial_part": "fixation",
		"trial_type": "html-keyboard-response",
		"trial_index": 191,
		"time_elapsed": 377228,
		"internal_node_id": "0.0-3.0-0.149-0.149"
	},
	{
		"rt": 880,
		"stimulus": "../audio/40-1-masc.mp3",
		"response": " ",
		"word": "O",
		"trial_type": "audio-keyboard-response",
		"trial_index": 192,
		"time_elapsed": 378385,
		"internal_node_id": "0.0-3.0-1.149"
	},
	{
		"rt": 931,
		"stimulus": "../audio/40-2-masc.mp3",
		"response": " ",
		"word": "jogo",
		"trial_type": "audio-keyboard-response",
		"trial_index": 193,
		"time_elapsed": 379585,
		"internal_node_id": "0.0-3.0-1.150"
	},
	{
		"rt": 971,
		"stimulus": "../audio/40-3-masc.mp3",
		"response": " ",
		"word": "falava",
		"trial_type": "audio-keyboard-response",
		"trial_index": 194,
		"time_elapsed": 380833,
		"internal_node_id": "0.0-3.0-1.151"
	},
	{
		"rt": 920,
		"stimulus": "../audio/40-4-masc.mp3",
		"response": " ",
		"word": "de",
		"trial_type": "audio-keyboard-response",
		"trial_index": 195,
		"time_elapsed": 382033,
		"internal_node_id": "0.0-3.0-1.152"
	},
	{
		"rt": 1208,
		"stimulus": "../audio/40-5-masc.mp3",
		"response": " ",
		"word": "fantasia",
		"trial_type": "audio-keyboard-response",
		"trial_index": 196,
		"time_elapsed": 383521,
		"internal_node_id": "0.0-3.0-1.153"
	},
	{
		"rt": 749,
		"stimulus": "../audio/40-6-masc.mp3",
		"response": " ",
		"word": "e",
		"trial_type": "audio-keyboard-response",
		"trial_index": 197,
		"time_elapsed": 384545,
		"internal_node_id": "0.0-3.0-1.154"
	},
	{
		"rt": 840,
		"stimulus": "../audio/40-7-masc.mp3",
		"response": " ",
		"word": "de",
		"trial_type": "audio-keyboard-response",
		"trial_index": 198,
		"time_elapsed": 385665,
		"internal_node_id": "0.0-3.0-1.155"
	},
	{
		"rt": 1611,
		"stimulus": "../audio/40-8-masc.mp3",
		"response": " ",
		"word": "aventura.",
		"trial_type": "audio-keyboard-response",
		"trial_index": 199,
		"time_elapsed": 387537,
		"internal_node_id": "0.0-3.0-1.156"
	},
	{
		"rt": 8261,
		"stimulus": "<span style=\"font-size:25px; font-family: monospace\">O jogo tinha fantasia e aventura?</span>",
		"response": "s",
		"question": "O jogo tinha fantasia e aventura?",
		"answer": "null",
		"trial": "exp-sent",
		"trial_type": "html-keyboard-response",
		"trial_index": 200,
		"time_elapsed": 396049,
		"internal_node_id": "0.0-3.0-2.156-0.156",
		"accuracy": false
	},
	{
		"rt": null,
		"stimulus": "<span style= \"font-size:30px; font-family: monospace\">+</span>",
		"response": null,
		"trial_part": "fixation",
		"trial_type": "html-keyboard-response",
		"trial_index": 201,
		"time_elapsed": 397576,
		"internal_node_id": "0.0-3.0-0.157-0.157"
	},
	{
		"rt": 2371,
		"stimulus": "../audio/33-1-fem.mp3",
		"response": " ",
		"word": "Eles",
		"trial_type": "audio-keyboard-response",
		"trial_index": 202,
		"time_elapsed": 400225,
		"internal_node_id": "0.0-3.0-1.157"
	},
	{
		"rt": 1091,
		"stimulus": "../audio/33-2-fem.mp3",
		"response": " ",
		"word": "sabem",
		"trial_type": "audio-keyboard-response",
		"trial_index": 203,
		"time_elapsed": 401586,
		"internal_node_id": "0.0-3.0-1.158"
	},
	{
		"rt": 741,
		"stimulus": "../audio/33-3-fem.mp3",
		"response": " ",
		"word": "do",
		"trial_type": "audio-keyboard-response",
		"trial_index": 204,
		"time_elapsed": 402593,
		"internal_node_id": "0.0-3.0-1.159"
	},
	{
		"rt": 960,
		"stimulus": "../audio/33-4-fem.mp3",
		"response": " ",
		"word": "seu",
		"trial_type": "audio-keyboard-response",
		"trial_index": 205,
		"time_elapsed": 403825,
		"internal_node_id": "0.0-3.0-1.160"
	},
	{
		"rt": 1259,
		"stimulus": "../audio/33-5-fem.mp3",
		"response": " ",
		"word": "privilégio",
		"trial_type": "audio-keyboard-response",
		"trial_index": 206,
		"time_elapsed": 405361,
		"internal_node_id": "0.0-3.0-1.161"
	},
	{
		"rt": 899,
		"stimulus": "../audio/33-6-fem.mp3",
		"response": " ",
		"word": "nessa",
		"trial_type": "audio-keyboard-response",
		"trial_index": 207,
		"time_elapsed": 406529,
		"internal_node_id": "0.0-3.0-1.162"
	},
	{
		"rt": 1381,
		"stimulus": "../audio/33-7-fem.mp3",
		"response": " ",
		"word": "confusão.",
		"trial_type": "audio-keyboard-response",
		"trial_index": 208,
		"time_elapsed": 408177,
		"internal_node_id": "0.0-3.0-1.163"
	},
	{
		"rt": null,
		"stimulus": "<span style= \"font-size:30px; font-family: monospace\">+</span>",
		"response": null,
		"trial_part": "fixation",
		"trial_type": "html-keyboard-response",
		"trial_index": 209,
		"time_elapsed": 409445,
		"internal_node_id": "0.0-3.0-0.164-0.164"
	},
	{
		"rt": 1429,
		"stimulus": "../audio/31-1-fem.mp3",
		"response": " ",
		"word": "O",
		"trial_type": "audio-keyboard-response",
		"trial_index": 210,
		"time_elapsed": 411137,
		"internal_node_id": "0.0-3.0-1.164"
	},
	{
		"rt": 1019,
		"stimulus": "../audio/31-2-fem.mp3",
		"response": " ",
		"word": "padeiro",
		"trial_type": "audio-keyboard-response",
		"trial_index": 211,
		"time_elapsed": 412449,
		"internal_node_id": "0.0-3.0-1.165"
	},
	{
		"rt": 992,
		"stimulus": "../audio/31-3-fem.mp3",
		"response": " ",
		"word": "usou",
		"trial_type": "audio-keyboard-response",
		"trial_index": 212,
		"time_elapsed": 413713,
		"internal_node_id": "0.0-3.0-1.166"
	},
	{
		"rt": 829,
		"stimulus": "../audio/31-4-fem.mp3",
		"response": " ",
		"word": "a",
		"trial_type": "audio-keyboard-response",
		"trial_index": 213,
		"time_elapsed": 414817,
		"internal_node_id": "0.0-3.0-1.167"
	},
	{
		"rt": 931,
		"stimulus": "../audio/31-5-fem.mp3",
		"response": " ",
		"word": "balança",
		"trial_type": "audio-keyboard-response",
		"trial_index": 214,
		"time_elapsed": 416017,
		"internal_node_id": "0.0-3.0-1.168"
	},
	{
		"rt": 981,
		"stimulus": "../audio/31-6-fem.mp3",
		"response": " ",
		"word": "o",
		"trial_type": "audio-keyboard-response",
		"trial_index": 215,
		"time_elapsed": 417266,
		"internal_node_id": "0.0-3.0-1.169"
	},
	{
		"rt": 989,
		"stimulus": "../audio/31-7-fem.mp3",
		"response": " ",
		"word": "dia",
		"trial_type": "audio-keyboard-response",
		"trial_index": 216,
		"time_elapsed": 418529,
		"internal_node_id": "0.0-3.0-1.170"
	},
	{
		"rt": 1920,
		"stimulus": "../audio/31-8-fem.mp3",
		"response": " ",
		"word": "inteiro.",
		"trial_type": "audio-keyboard-response",
		"trial_index": 217,
		"time_elapsed": 420721,
		"internal_node_id": "0.0-3.0-1.171"
	},
	{
		"rt": null,
		"stimulus": "<span style= \"font-size:30px; font-family: monospace\">+</span>",
		"response": null,
		"trial_part": "fixation",
		"trial_type": "html-keyboard-response",
		"trial_index": 218,
		"time_elapsed": 421990,
		"internal_node_id": "0.0-3.0-0.172-0.172"
	},
	{
		"rt": 1280,
		"stimulus": "../audio/32-1-masc.mp3",
		"response": " ",
		"word": "A",
		"trial_type": "audio-keyboard-response",
		"trial_index": 219,
		"time_elapsed": 423553,
		"internal_node_id": "0.0-3.0-1.172"
	},
	{
		"rt": 1819,
		"stimulus": "../audio/32-2-masc.mp3",
		"response": " ",
		"word": "tia",
		"trial_type": "audio-keyboard-response",
		"trial_index": 220,
		"time_elapsed": 425649,
		"internal_node_id": "0.0-3.0-1.173"
	},
	{
		"rt": 1080,
		"stimulus": "../audio/32-3-masc.mp3",
		"response": " ",
		"word": "comprou",
		"trial_type": "audio-keyboard-response",
		"trial_index": 221,
		"time_elapsed": 427009,
		"internal_node_id": "0.0-3.0-1.174"
	},
	{
		"rt": 3792,
		"stimulus": "../audio/32-4-masc.mp3",
		"response": " ",
		"word": "um",
		"trial_type": "audio-keyboard-response",
		"trial_index": 222,
		"time_elapsed": 431073,
		"internal_node_id": "0.0-3.0-1.175"
	},
	{
		"rt": 960,
		"stimulus": "../audio/32-5-masc.mp3",
		"response": " ",
		"word": "pilão",
		"trial_type": "audio-keyboard-response",
		"trial_index": 223,
		"time_elapsed": 432305,
		"internal_node_id": "0.0-3.0-1.176"
	},
	{
		"rt": 789,
		"stimulus": "../audio/32-6-masc.mp3",
		"response": " ",
		"word": "para",
		"trial_type": "audio-keyboard-response",
		"trial_index": 224,
		"time_elapsed": 433361,
		"internal_node_id": "0.0-3.0-1.177"
	},
	{
		"rt": 1392,
		"stimulus": "../audio/32-7-masc.mp3",
		"response": " ",
		"word": "a",
		"trial_type": "audio-keyboard-response",
		"trial_index": 225,
		"time_elapsed": 435025,
		"internal_node_id": "0.0-3.0-1.178"
	},
	{
		"rt": 1139,
		"stimulus": "../audio/32-8-masc.mp3",
		"response": " ",
		"word": "cozinha.",
		"trial_type": "audio-keyboard-response",
		"trial_index": 226,
		"time_elapsed": 436449,
		"internal_node_id": "0.0-3.0-1.179"
	},
	{
		"rt": null,
		"stimulus": "<span style= \"font-size:30px; font-family: monospace\">+</span>",
		"response": null,
		"trial_part": "fixation",
		"trial_type": "html-keyboard-response",
		"trial_index": 227,
		"time_elapsed": 437722,
		"internal_node_id": "0.0-3.0-0.180-0.180"
	},
	{
		"rt": 1000,
		"stimulus": "../audio/34-1-masc.mp3",
		"response": " ",
		"word": "Cobrança",
		"trial_type": "audio-keyboard-response",
		"trial_index": 228,
		"time_elapsed": 438993,
		"internal_node_id": "0.0-3.0-1.180"
	},
	{
		"rt": 1069,
		"stimulus": "../audio/34-2-masc.mp3",
		"response": " ",
		"word": "excessiva",
		"trial_type": "audio-keyboard-response",
		"trial_index": 229,
		"time_elapsed": 440337,
		"internal_node_id": "0.0-3.0-1.181"
	},
	{
		"rt": 691,
		"stimulus": "../audio/34-3-masc.mp3",
		"response": " ",
		"word": "é",
		"trial_type": "audio-keyboard-response",
		"trial_index": 230,
		"time_elapsed": 441297,
		"internal_node_id": "0.0-3.0-1.182"
	},
	{
		"rt": 661,
		"stimulus": "../audio/34-4-masc.mp3",
		"response": " ",
		"word": "um",
		"trial_type": "audio-keyboard-response",
		"trial_index": 231,
		"time_elapsed": 442225,
		"internal_node_id": "0.0-3.0-1.183"
	},
	{
		"rt": 1011,
		"stimulus": "../audio/34-5-masc.mp3",
		"response": " ",
		"word": "fardo",
		"trial_type": "audio-keyboard-response",
		"trial_index": 232,
		"time_elapsed": 443505,
		"internal_node_id": "0.0-3.0-1.184"
	},
	{
		"rt": 771,
		"stimulus": "../audio/34-6-masc.mp3",
		"response": " ",
		"word": "para",
		"trial_type": "audio-keyboard-response",
		"trial_index": 233,
		"time_elapsed": 444545,
		"internal_node_id": "0.0-3.0-1.185"
	},
	{
		"rt": 651,
		"stimulus": "../audio/34-7-masc.mp3",
		"response": " ",
		"word": "a",
		"trial_type": "audio-keyboard-response",
		"trial_index": 234,
		"time_elapsed": 445473,
		"internal_node_id": "0.0-3.0-1.186"
	},
	{
		"rt": 1051,
		"stimulus": "../audio/34-8-masc.mp3",
		"response": " ",
		"word": "cabeça.",
		"trial_type": "audio-keyboard-response",
		"trial_index": 235,
		"time_elapsed": 446785,
		"internal_node_id": "0.0-3.0-1.187"
	},
	{
		"rt": null,
		"stimulus": "<span style= \"font-size:30px; font-family: monospace\">+</span>",
		"response": null,
		"trial_part": "fixation",
		"trial_type": "html-keyboard-response",
		"trial_index": 236,
		"time_elapsed": 448063,
		"internal_node_id": "0.0-3.0-0.188-0.188"
	},
	{
		"rt": 680,
		"stimulus": "../audio/35-1-masc.mp3",
		"response": " ",
		"word": "A",
		"trial_type": "audio-keyboard-response",
		"trial_index": 237,
		"time_elapsed": 449025,
		"internal_node_id": "0.0-3.0-1.188"
	},
	{
		"rt": 1280,
		"stimulus": "../audio/35-2-masc.mp3",
		"response": " ",
		"word": "receita",
		"trial_type": "audio-keyboard-response",
		"trial_index": 238,
		"time_elapsed": 450577,
		"internal_node_id": "0.0-3.0-1.189"
	},
	{
		"rt": 571,
		"stimulus": "../audio/35-3-masc.mp3",
		"response": " ",
		"word": "para",
		"trial_type": "audio-keyboard-response",
		"trial_index": 239,
		"time_elapsed": 451425,
		"internal_node_id": "0.0-3.0-1.190"
	},
	{
		"rt": 699,
		"stimulus": "../audio/35-4-masc.mp3",
		"response": " ",
		"word": "a",
		"trial_type": "audio-keyboard-response",
		"trial_index": 240,
		"time_elapsed": 452401,
		"internal_node_id": "0.0-3.0-1.191"
	},
	{
		"rt": 971,
		"stimulus": "../audio/35-5-masc.mp3",
		"response": " ",
		"word": "preparação",
		"trial_type": "audio-keyboard-response",
		"trial_index": 241,
		"time_elapsed": 453649,
		"internal_node_id": "0.0-3.0-1.192"
	},
	{
		"rt": 560,
		"stimulus": "../audio/35-6-masc.mp3",
		"response": " ",
		"word": "do",
		"trial_type": "audio-keyboard-response",
		"trial_index": 242,
		"time_elapsed": 454481,
		"internal_node_id": "0.0-3.0-1.193"
	},
	{
		"rt": 928,
		"stimulus": "../audio/35-7-masc.mp3",
		"response": " ",
		"word": "bolo",
		"trial_type": "audio-keyboard-response",
		"trial_index": 243,
		"time_elapsed": 455681,
		"internal_node_id": "0.0-3.0-1.194"
	},
	{
		"rt": 760,
		"stimulus": "../audio/35-8-masc.mp3",
		"response": " ",
		"word": "é",
		"trial_type": "audio-keyboard-response",
		"trial_index": 244,
		"time_elapsed": 456705,
		"internal_node_id": "0.0-3.0-1.195"
	},
	{
		"rt": 989,
		"stimulus": "../audio/35-9-masc.mp3",
		"response": " ",
		"word": "leve.",
		"trial_type": "audio-keyboard-response",
		"trial_index": 245,
		"time_elapsed": 457969,
		"internal_node_id": "0.0-3.0-1.196"
	},
	{
		"rt": 7110,
		"stimulus": "<span style=\"font-size:25px; font-family: monospace\">A receita do bolo é pesada?</span>",
		"response": "n",
		"question": "A receita do bolo é pesada?",
		"answer": "null",
		"trial": "exp-sent",
		"trial_type": "html-keyboard-response",
		"trial_index": 246,
		"time_elapsed": 465329,
		"internal_node_id": "0.0-3.0-2.196-0.196",
		"accuracy": false
	},
	{
		"rt": null,
		"stimulus": "<span style= \"font-size:30px; font-family: monospace\">+</span>",
		"response": null,
		"trial_part": "fixation",
		"trial_type": "html-keyboard-response",
		"trial_index": 247,
		"time_elapsed": 466848,
		"internal_node_id": "0.0-3.0-0.197-0.197"
	},
	{
		"rt": 851,
		"stimulus": "../audio/12-1-masc.mp3",
		"response": " ",
		"word": "O",
		"trial_type": "audio-keyboard-response",
		"trial_index": 248,
		"time_elapsed": 467985,
		"internal_node_id": "0.0-3.0-1.197"
	},
	{
		"rt": 800,
		"stimulus": "../audio/12-2-masc.mp3",
		"response": " ",
		"word": "dia",
		"trial_type": "audio-keyboard-response",
		"trial_index": 249,
		"time_elapsed": 469056,
		"internal_node_id": "0.0-3.0-1.198"
	},
	{
		"rt": 1061,
		"stimulus": "../audio/12-3-masc.mp3",
		"response": " ",
		"word": "estava",
		"trial_type": "audio-keyboard-response",
		"trial_index": 250,
		"time_elapsed": 470385,
		"internal_node_id": "0.0-3.0-1.199"
	},
	{
		"rt": 1251,
		"stimulus": "../audio/12-4-masc.mp3",
		"response": " ",
		"word": "quente,",
		"trial_type": "audio-keyboard-response",
		"trial_index": 251,
		"time_elapsed": 471905,
		"internal_node_id": "0.0-3.0-1.200"
	},
	{
		"rt": 1229,
		"stimulus": "../audio/12-5-masc.mp3",
		"response": " ",
		"word": "tranquilo",
		"trial_type": "audio-keyboard-response",
		"trial_index": 252,
		"time_elapsed": 473409,
		"internal_node_id": "0.0-3.0-1.201"
	},
	{
		"rt": 821,
		"stimulus": "../audio/12-6-masc.mp3",
		"response": " ",
		"word": "e",
		"trial_type": "audio-keyboard-response",
		"trial_index": 253,
		"time_elapsed": 474497,
		"internal_node_id": "0.0-3.0-1.202"
	},
	{
		"rt": 1091,
		"stimulus": "../audio/12-7-masc.mp3",
		"response": " ",
		"word": "ensolarado.",
		"trial_type": "audio-keyboard-response",
		"trial_index": 254,
		"time_elapsed": 475857,
		"internal_node_id": "0.0-3.0-1.203"
	},
	{
		"rt": null,
		"stimulus": "<span style= \"font-size:30px; font-family: monospace\">+</span>",
		"response": null,
		"trial_part": "fixation",
		"trial_type": "html-keyboard-response",
		"trial_index": 255,
		"time_elapsed": 477133,
		"internal_node_id": "0.0-3.0-0.204-0.204"
	},
	{
		"rt": 680,
		"stimulus": "../audio/14-1-masc.mp3",
		"response": " ",
		"word": "O",
		"trial_type": "audio-keyboard-response",
		"trial_index": 256,
		"time_elapsed": 478097,
		"internal_node_id": "0.0-3.0-1.204"
	},
	{
		"rt": 851,
		"stimulus": "../audio/14-2-masc.mp3",
		"response": " ",
		"word": "cachorro",
		"trial_type": "audio-keyboard-response",
		"trial_index": 257,
		"time_elapsed": 479217,
		"internal_node_id": "0.0-3.0-1.205"
	},
	{
		"rt": 720,
		"stimulus": "../audio/14-3-masc.mp3",
		"response": " ",
		"word": "é",
		"trial_type": "audio-keyboard-response",
		"trial_index": 258,
		"time_elapsed": 480209,
		"internal_node_id": "0.0-3.0-1.206"
	},
	{
		"rt": 691,
		"stimulus": "../audio/14-4-masc.mp3",
		"response": " ",
		"word": "muito",
		"trial_type": "audio-keyboard-response",
		"trial_index": 259,
		"time_elapsed": 481185,
		"internal_node_id": "0.0-3.0-1.207"
	},
	{
		"rt": 829,
		"stimulus": "../audio/14-5-masc.mp3",
		"response": " ",
		"word": "fiel",
		"trial_type": "audio-keyboard-response",
		"trial_index": 260,
		"time_elapsed": 482289,
		"internal_node_id": "0.0-3.0-1.208"
	},
	{
		"rt": 731,
		"stimulus": "../audio/14-6-masc.mp3",
		"response": " ",
		"word": "a",
		"trial_type": "audio-keyboard-response",
		"trial_index": 261,
		"time_elapsed": 483297,
		"internal_node_id": "0.0-3.0-1.209"
	},
	{
		"rt": 981,
		"stimulus": "../audio/14-7-masc.mp3",
		"response": " ",
		"word": "seus",
		"trial_type": "audio-keyboard-response",
		"trial_index": 262,
		"time_elapsed": 484545,
		"internal_node_id": "0.0-3.0-1.210"
	},
	{
		"rt": 48589,
		"stimulus": "../audio/14-8-masc.mp3",
		"response": " ",
		"word": "donos.",
		"trial_type": "audio-keyboard-response",
		"trial_index": 263,
		"time_elapsed": 533408,
		"internal_node_id": "0.0-3.0-1.211"
	},
	{
		"rt": null,
		"stimulus": "<span style= \"font-size:30px; font-family: monospace\">+</span>",
		"response": null,
		"trial_part": "fixation",
		"trial_type": "html-keyboard-response",
		"trial_index": 264,
		"time_elapsed": 534660,
		"internal_node_id": "0.0-3.0-0.212-0.212"
	},
	{
		"rt": 648,
		"stimulus": "../audio/11-1-masc.mp3",
		"response": " ",
		"word": "Elas",
		"trial_type": "audio-keyboard-response",
		"trial_index": 265,
		"time_elapsed": 535680,
		"internal_node_id": "0.0-3.0-1.212"
	},
	{
		"rt": 880,
		"stimulus": "../audio/11-2-masc.mp3",
		"response": " ",
		"word": "gostam",
		"trial_type": "audio-keyboard-response",
		"trial_index": 266,
		"time_elapsed": 536848,
		"internal_node_id": "0.0-3.0-1.213"
	},
	{
		"rt": 1179,
		"stimulus": "../audio/11-3-masc.mp3",
		"response": " ",
		"word": "muito",
		"trial_type": "audio-keyboard-response",
		"trial_index": 267,
		"time_elapsed": 538288,
		"internal_node_id": "0.0-3.0-1.214"
	},
	{
		"rt": 771,
		"stimulus": "../audio/11-4-masc.mp3",
		"response": " ",
		"word": "de",
		"trial_type": "audio-keyboard-response",
		"trial_index": 268,
		"time_elapsed": 539328,
		"internal_node_id": "0.0-3.0-1.215"
	},
	{
		"rt": 1731,
		"stimulus": "../audio/11-5-masc.mp3",
		"response": " ",
		"word": "aritmética",
		"trial_type": "audio-keyboard-response",
		"trial_index": 269,
		"time_elapsed": 541344,
		"internal_node_id": "0.0-3.0-1.216"
	},
	{
		"rt": 789,
		"stimulus": "../audio/11-6-masc.mp3",
		"response": " ",
		"word": "e",
		"trial_type": "audio-keyboard-response",
		"trial_index": 270,
		"time_elapsed": 542400,
		"internal_node_id": "0.0-3.0-1.217"
	},
	{
		"rt": 2291,
		"stimulus": "../audio/11-7-masc.mp3",
		"response": " ",
		"word": "de",
		"trial_type": "audio-keyboard-response",
		"trial_index": 271,
		"time_elapsed": 544976,
		"internal_node_id": "0.0-3.0-1.218"
	},
	{
		"rt": 1341,
		"stimulus": "../audio/11-8-masc.mp3",
		"response": " ",
		"word": "leitura.",
		"trial_type": "audio-keyboard-response",
		"trial_index": 272,
		"time_elapsed": 546592,
		"internal_node_id": "0.0-3.0-1.219"
	},
	{
		"rt": null,
		"stimulus": "<span style= \"font-size:30px; font-family: monospace\">+</span>",
		"response": null,
		"trial_part": "fixation",
		"trial_type": "html-keyboard-response",
		"trial_index": 273,
		"time_elapsed": 547855,
		"internal_node_id": "0.0-3.0-0.220-0.220"
	},
	{
		"rt": 869,
		"stimulus": "../audio/13-1-masc.mp3",
		"response": " ",
		"word": "Para",
		"trial_type": "audio-keyboard-response",
		"trial_index": 274,
		"time_elapsed": 549008,
		"internal_node_id": "0.0-3.0-1.220"
	},
	{
		"rt": 680,
		"stimulus": "../audio/13-2-masc.mp3",
		"response": " ",
		"word": "mim",
		"trial_type": "audio-keyboard-response",
		"trial_index": 275,
		"time_elapsed": 549952,
		"internal_node_id": "0.0-3.0-1.221"
	},
	{
		"rt": 600,
		"stimulus": "../audio/13-3-masc.mp3",
		"response": " ",
		"word": "é",
		"trial_type": "audio-keyboard-response",
		"trial_index": 276,
		"time_elapsed": 550832,
		"internal_node_id": "0.0-3.0-1.222"
	},
	{
		"rt": 669,
		"stimulus": "../audio/13-4-masc.mp3",
		"response": " ",
		"word": "muito",
		"trial_type": "audio-keyboard-response",
		"trial_index": 277,
		"time_elapsed": 551776,
		"internal_node_id": "0.0-3.0-1.223"
	},
	{
		"rt": 952,
		"stimulus": "../audio/13-5-masc.mp3",
		"response": " ",
		"word": "difícil",
		"trial_type": "audio-keyboard-response",
		"trial_index": 278,
		"time_elapsed": 552992,
		"internal_node_id": "0.0-3.0-1.224"
	},
	{
		"rt": 1139,
		"stimulus": "../audio/13-6-masc.mp3",
		"response": " ",
		"word": "acordar",
		"trial_type": "audio-keyboard-response",
		"trial_index": 279,
		"time_elapsed": 554400,
		"internal_node_id": "0.0-3.0-1.225"
	},
	{
		"rt": 859,
		"stimulus": "../audio/13-7-masc.mp3",
		"response": " ",
		"word": "cedo.",
		"trial_type": "audio-keyboard-response",
		"trial_index": 280,
		"time_elapsed": 555520,
		"internal_node_id": "0.0-3.0-1.226"
	},
	{
		"rt": null,
		"stimulus": "<span style= \"font-size:30px; font-family: monospace\">+</span>",
		"response": null,
		"trial_part": "fixation",
		"trial_type": "html-keyboard-response",
		"trial_index": 281,
		"time_elapsed": 556791,
		"internal_node_id": "0.0-3.0-0.227-0.227"
	},
	{
		"rt": 749,
		"stimulus": "../audio/15-1-fem.mp3",
		"response": " ",
		"word": "Meu",
		"trial_type": "audio-keyboard-response",
		"trial_index": 282,
		"time_elapsed": 557824,
		"internal_node_id": "0.0-3.0-1.227"
	},
	{
		"rt": 931,
		"stimulus": "../audio/15-2-fem.mp3",
		"response": " ",
		"word": "primo",
		"trial_type": "audio-keyboard-response",
		"trial_index": 283,
		"time_elapsed": 559024,
		"internal_node_id": "0.0-3.0-1.228"
	},
	{
		"rt": 741,
		"stimulus": "../audio/15-3-fem.mp3",
		"response": " ",
		"word": "é",
		"trial_type": "audio-keyboard-response",
		"trial_index": 284,
		"time_elapsed": 560032,
		"internal_node_id": "0.0-3.0-1.229"
	},
	{
		"rt": 771,
		"stimulus": "../audio/15-4-fem.mp3",
		"response": " ",
		"word": "um",
		"trial_type": "audio-keyboard-response",
		"trial_index": 285,
		"time_elapsed": 561072,
		"internal_node_id": "0.0-3.0-1.230"
	},
	{
		"rt": 1000,
		"stimulus": "../audio/15-5-fem.mp3",
		"response": " ",
		"word": "grande",
		"trial_type": "audio-keyboard-response",
		"trial_index": 286,
		"time_elapsed": 562352,
		"internal_node_id": "0.0-3.0-1.231"
	},
	{
		"rt": 1288,
		"stimulus": "../audio/15-6-fem.mp3",
		"response": " ",
		"word": "vendedor",
		"trial_type": "audio-keyboard-response",
		"trial_index": 287,
		"time_elapsed": 563920,
		"internal_node_id": "0.0-3.0-1.232"
	},
	{
		"rt": 869,
		"stimulus": "../audio/15-7-fem.mp3",
		"response": " ",
		"word": "de",
		"trial_type": "audio-keyboard-response",
		"trial_index": 288,
		"time_elapsed": 565056,
		"internal_node_id": "0.0-3.0-1.233"
	},
	{
		"rt": 1051,
		"stimulus": "../audio/15-8-fem.mp3",
		"response": " ",
		"word": "carros.",
		"trial_type": "audio-keyboard-response",
		"trial_index": 289,
		"time_elapsed": 566368,
		"internal_node_id": "0.0-3.0-1.234"
	},
	{
		"rt": 6516,
		"stimulus": "<span style=\"font-size:25px; font-family: monospace\">O primo é um vendedor de carros?</span>",
		"response": "s",
		"question": "O primo é um vendedor de carros?",
		"answer": "null",
		"trial": "exp-sent",
		"trial_type": "html-keyboard-response",
		"trial_index": 290,
		"time_elapsed": 573136,
		"internal_node_id": "0.0-3.0-2.234-0.234",
		"accuracy": false
	},
	{
		"rt": null,
		"stimulus": "<span style= \"font-size:30px; font-family: monospace\">+</span>",
		"response": null,
		"trial_part": "fixation",
		"trial_type": "html-keyboard-response",
		"trial_index": 291,
		"time_elapsed": 574665,
		"internal_node_id": "0.0-3.0-0.235-0.235"
	},
	{
		"rt": 749,
		"stimulus": "../audio/79-1-fem.mp3",
		"response": " ",
		"word": "A",
		"trial_type": "audio-keyboard-response",
		"trial_index": 292,
		"time_elapsed": 575696,
		"internal_node_id": "0.0-3.0-1.235"
	},
	{
		"rt": 920,
		"stimulus": "../audio/79-2-fem.mp3",
		"response": " ",
		"word": "médica",
		"trial_type": "audio-keyboard-response",
		"trial_index": 293,
		"time_elapsed": 576896,
		"internal_node_id": "0.0-3.0-1.236"
	},
	{
		"rt": 1080,
		"stimulus": "../audio/79-3-fem.mp3",
		"response": " ",
		"word": "verificou",
		"trial_type": "audio-keyboard-response",
		"trial_index": 294,
		"time_elapsed": 578256,
		"internal_node_id": "0.0-3.0-1.237"
	},
	{
		"rt": 621,
		"stimulus": "../audio/79-4-fem.mp3",
		"response": " ",
		"word": "a",
		"trial_type": "audio-keyboard-response",
		"trial_index": 295,
		"time_elapsed": 579152,
		"internal_node_id": "0.0-3.0-1.238"
	},
	{
		"rt": 979,
		"stimulus": "../audio/79-5-fem.mp3",
		"response": " ",
		"word": "gengiva",
		"trial_type": "audio-keyboard-response",
		"trial_index": 296,
		"time_elapsed": 580400,
		"internal_node_id": "0.0-3.0-1.239"
	},
	{
		"rt": 760,
		"stimulus": "../audio/79-6-fem.mp3",
		"response": " ",
		"word": "por",
		"trial_type": "audio-keyboard-response",
		"trial_index": 297,
		"time_elapsed": 581440,
		"internal_node_id": "0.0-3.0-1.240"
	},
	{
		"rt": 1019,
		"stimulus": "../audio/79-7-fem.mp3",
		"response": " ",
		"word": "último.",
		"trial_type": "audio-keyboard-response",
		"trial_index": 298,
		"time_elapsed": 582736,
		"internal_node_id": "0.0-3.0-1.241"
	},
	{
		"rt": null,
		"stimulus": "<span style= \"font-size:30px; font-family: monospace\">+</span>",
		"response": null,
		"trial_part": "fixation",
		"trial_type": "html-keyboard-response",
		"trial_index": 299,
		"time_elapsed": 584015,
		"internal_node_id": "0.0-3.0-0.242-0.242"
	},
	{
		"rt": 651,
		"stimulus": "../audio/76-1-fem.mp3",
		"response": " ",
		"word": "O",
		"trial_type": "audio-keyboard-response",
		"trial_index": 300,
		"time_elapsed": 584944,
		"internal_node_id": "0.0-3.0-1.242"
	},
	{
		"rt": 1269,
		"stimulus": "../audio/76-2-fem.mp3",
		"response": " ",
		"word": "bisavô",
		"trial_type": "audio-keyboard-response",
		"trial_index": 301,
		"time_elapsed": 586479,
		"internal_node_id": "0.0-3.0-1.243"
	},
	{
		"rt": 1059,
		"stimulus": "../audio/76-3-fem.mp3",
		"response": " ",
		"word": "comprou",
		"trial_type": "audio-keyboard-response",
		"trial_index": 302,
		"time_elapsed": 587808,
		"internal_node_id": "0.0-3.0-1.244"
	},
	{
		"rt": 672,
		"stimulus": "../audio/76-4-fem.mp3",
		"response": " ",
		"word": "um",
		"trial_type": "audio-keyboard-response",
		"trial_index": 303,
		"time_elapsed": 588752,
		"internal_node_id": "0.0-3.0-1.245"
	},
	{
		"rt": 1171,
		"stimulus": "../audio/76-5-fem.mp3",
		"response": " ",
		"word": "ralador",
		"trial_type": "audio-keyboard-response",
		"trial_index": 304,
		"time_elapsed": 590192,
		"internal_node_id": "0.0-3.0-1.246"
	},
	{
		"rt": 651,
		"stimulus": "../audio/76-6-fem.mp3",
		"response": " ",
		"word": "de",
		"trial_type": "audio-keyboard-response",
		"trial_index": 305,
		"time_elapsed": 591104,
		"internal_node_id": "0.0-3.0-1.247"
	},
	{
		"rt": 1320,
		"stimulus": "../audio/76-7-fem.mp3",
		"response": " ",
		"word": "queijo.",
		"trial_type": "audio-keyboard-response",
		"trial_index": 306,
		"time_elapsed": 592688,
		"internal_node_id": "0.0-3.0-1.248"
	},
	{
		"rt": null,
		"stimulus": "<span style= \"font-size:30px; font-family: monospace\">+</span>",
		"response": null,
		"trial_part": "fixation",
		"trial_type": "html-keyboard-response",
		"trial_index": 307,
		"time_elapsed": 593968,
		"internal_node_id": "0.0-3.0-0.249-0.249"
	},
	{
		"rt": 760,
		"stimulus": "../audio/77-1-masc.mp3",
		"response": " ",
		"word": "A",
		"trial_type": "audio-keyboard-response",
		"trial_index": 308,
		"time_elapsed": 595008,
		"internal_node_id": "0.0-3.0-1.249"
	},
	{
		"rt": 869,
		"stimulus": "../audio/77-2-masc.mp3",
		"response": " ",
		"word": "criança",
		"trial_type": "audio-keyboard-response",
		"trial_index": 309,
		"time_elapsed": 596143,
		"internal_node_id": "0.0-3.0-1.250"
	},
	{
		"rt": 800,
		"stimulus": "../audio/77-3-masc.mp3",
		"response": " ",
		"word": "ficou",
		"trial_type": "audio-keyboard-response",
		"trial_index": 310,
		"time_elapsed": 597216,
		"internal_node_id": "0.0-3.0-1.251"
	},
	{
		"rt": 880,
		"stimulus": "../audio/77-4-masc.mp3",
		"response": " ",
		"word": "muito",
		"trial_type": "audio-keyboard-response",
		"trial_index": 311,
		"time_elapsed": 598368,
		"internal_node_id": "0.0-3.0-1.252"
	},
	{
		"rt": 880,
		"stimulus": "../audio/77-5-masc.mp3",
		"response": " ",
		"word": "feliz",
		"trial_type": "audio-keyboard-response",
		"trial_index": 312,
		"time_elapsed": 599536,
		"internal_node_id": "0.0-3.0-1.253"
	},
	{
		"rt": 680,
		"stimulus": "../audio/77-6-masc.mp3",
		"response": " ",
		"word": "com",
		"trial_type": "audio-keyboard-response",
		"trial_index": 313,
		"time_elapsed": 600496,
		"internal_node_id": "0.0-3.0-1.254"
	},
	{
		"rt": 701,
		"stimulus": "../audio/77-7-masc.mp3",
		"response": " ",
		"word": "o",
		"trial_type": "audio-keyboard-response",
		"trial_index": 314,
		"time_elapsed": 601471,
		"internal_node_id": "0.0-3.0-1.255"
	},
	{
		"rt": 1048,
		"stimulus": "../audio/77-8-masc.mp3",
		"response": " ",
		"word": "brinquedo.",
		"trial_type": "audio-keyboard-response",
		"trial_index": 315,
		"time_elapsed": 602800,
		"internal_node_id": "0.0-3.0-1.256"
	},
	{
		"rt": null,
		"stimulus": "<span style= \"font-size:30px; font-family: monospace\">+</span>",
		"response": null,
		"trial_part": "fixation",
		"trial_type": "html-keyboard-response",
		"trial_index": 316,
		"time_elapsed": 604070,
		"internal_node_id": "0.0-3.0-0.257-0.257"
	},
	{
		"rt": 611,
		"stimulus": "../audio/78-1-fem.mp3",
		"response": " ",
		"word": "Eles",
		"trial_type": "audio-keyboard-response",
		"trial_index": 317,
		"time_elapsed": 604976,
		"internal_node_id": "0.0-3.0-1.257"
	},
	{
		"rt": 891,
		"stimulus": "../audio/78-2-fem.mp3",
		"response": " ",
		"word": "trazem",
		"trial_type": "audio-keyboard-response",
		"trial_index": 318,
		"time_elapsed": 606144,
		"internal_node_id": "0.0-3.0-1.258"
	},
	{
		"rt": 699,
		"stimulus": "../audio/78-3-fem.mp3",
		"response": " ",
		"word": "um",
		"trial_type": "audio-keyboard-response",
		"trial_index": 319,
		"time_elapsed": 607120,
		"internal_node_id": "0.0-3.0-1.259"
	},
	{
		"rt": 1061,
		"stimulus": "../audio/78-4-fem.mp3",
		"response": " ",
		"word": "fato",
		"trial_type": "audio-keyboard-response",
		"trial_index": 320,
		"time_elapsed": 608464,
		"internal_node_id": "0.0-3.0-1.260"
	},
	{
		"rt": 1461,
		"stimulus": "../audio/78-5-fem.mp3",
		"response": " ",
		"word": "urgente",
		"trial_type": "audio-keyboard-response",
		"trial_index": 321,
		"time_elapsed": 610192,
		"internal_node_id": "0.0-3.0-1.261"
	},
	{
		"rt": 949,
		"stimulus": "../audio/78-6-fem.mp3",
		"response": " ",
		"word": "todos",
		"trial_type": "audio-keyboard-response",
		"trial_index": 322,
		"time_elapsed": 611408,
		"internal_node_id": "0.0-3.0-1.262"
	},
	{
		"rt": 840,
		"stimulus": "../audio/78-7-fem.mp3",
		"response": " ",
		"word": "os",
		"trial_type": "audio-keyboard-response",
		"trial_index": 323,
		"time_elapsed": 612512,
		"internal_node_id": "0.0-3.0-1.263"
	},
	{
		"rt": 899,
		"stimulus": "../audio/78-8-fem.mp3",
		"response": " ",
		"word": "dias.",
		"trial_type": "audio-keyboard-response",
		"trial_index": 324,
		"time_elapsed": 613680,
		"internal_node_id": "0.0-3.0-1.264"
	},
	{
		"rt": null,
		"stimulus": "<span style= \"font-size:30px; font-family: monospace\">+</span>",
		"response": null,
		"trial_part": "fixation",
		"trial_type": "html-keyboard-response",
		"trial_index": 325,
		"time_elapsed": 614960,
		"internal_node_id": "0.0-3.0-0.265-0.265"
	},
	{
		"rt": 800,
		"stimulus": "../audio/80-1-fem.mp3",
		"response": " ",
		"word": "Meu",
		"trial_type": "audio-keyboard-response",
		"trial_index": 326,
		"time_elapsed": 616048,
		"internal_node_id": "0.0-3.0-1.265"
	},
	{
		"rt": 861,
		"stimulus": "../audio/80-2-fem.mp3",
		"response": " ",
		"word": "primo",
		"trial_type": "audio-keyboard-response",
		"trial_index": 327,
		"time_elapsed": 617184,
		"internal_node_id": "0.0-3.0-1.266"
	},
	{
		"rt": 1240,
		"stimulus": "../audio/80-3-fem.mp3",
		"response": " ",
		"word": "conheceu",
		"trial_type": "audio-keyboard-response",
		"trial_index": 328,
		"time_elapsed": 618688,
		"internal_node_id": "0.0-3.0-1.267"
	},
	{
		"rt": 800,
		"stimulus": "../audio/80-4-fem.mp3",
		"response": " ",
		"word": "um",
		"trial_type": "audio-keyboard-response",
		"trial_index": 329,
		"time_elapsed": 619760,
		"internal_node_id": "0.0-3.0-1.268"
	},
	{
		"rt": 1160,
		"stimulus": "../audio/80-5-fem.mp3",
		"response": " ",
		"word": "jovem",
		"trial_type": "audio-keyboard-response",
		"trial_index": 330,
		"time_elapsed": 621200,
		"internal_node_id": "0.0-3.0-1.269"
	},
	{
		"rt": 1272,
		"stimulus": "../audio/80-6-fem.mp3",
		"response": " ",
		"word": "amável",
		"trial_type": "audio-keyboard-response",
		"trial_index": 331,
		"time_elapsed": 622752,
		"internal_node_id": "0.0-3.0-1.270"
	},
	{
		"rt": 720,
		"stimulus": "../audio/80-7-fem.mp3",
		"response": " ",
		"word": "e",
		"trial_type": "audio-keyboard-response",
		"trial_index": 332,
		"time_elapsed": 623744,
		"internal_node_id": "0.0-3.0-1.271"
	},
	{
		"rt": 1400,
		"stimulus": "../audio/80-8-fem.mp3",
		"response": " ",
		"word": "confiante.",
		"trial_type": "audio-keyboard-response",
		"trial_index": 333,
		"time_elapsed": 625424,
		"internal_node_id": "0.0-3.0-1.272"
	},
	{
		"rt": 3909,
		"stimulus": "<span style=\"font-size:25px; font-family: monospace\">O primo conheceu um jovem irritante?</span>",
		"response": "n",
		"question": "O primo conheceu um jovem irritante?",
		"answer": "null",
		"trial": "exp-sent",
		"trial_type": "html-keyboard-response",
		"trial_index": 334,
		"time_elapsed": 629584,
		"internal_node_id": "0.0-3.0-2.272-0.272",
		"accuracy": false
	},
	{
		"rt": null,
		"stimulus": "<span style= \"font-size:30px; font-family: monospace\">+</span>",
		"response": null,
		"trial_part": "fixation",
		"trial_type": "html-keyboard-response",
		"trial_index": 335,
		"time_elapsed": 631116,
		"internal_node_id": "0.0-3.0-0.273-0.273"
	},
	{
		"rt": 1131,
		"stimulus": "../audio/27-1-fem.mp3",
		"response": " ",
		"word": "O",
		"trial_type": "audio-keyboard-response",
		"trial_index": 336,
		"time_elapsed": 632512,
		"internal_node_id": "0.0-3.0-1.273"
	},
	{
		"rt": 1099,
		"stimulus": "../audio/27-2-fem.mp3",
		"response": " ",
		"word": "dinheiro",
		"trial_type": "audio-keyboard-response",
		"trial_index": 337,
		"time_elapsed": 633888,
		"internal_node_id": "0.0-3.0-1.274"
	},
	{
		"rt": 920,
		"stimulus": "../audio/27-3-fem.mp3",
		"response": " ",
		"word": "chegou",
		"trial_type": "audio-keyboard-response",
		"trial_index": 338,
		"time_elapsed": 635088,
		"internal_node_id": "0.0-3.0-1.275"
	},
	{
		"rt": 592,
		"stimulus": "../audio/27-4-fem.mp3",
		"response": " ",
		"word": "à",
		"trial_type": "audio-keyboard-response",
		"trial_index": 339,
		"time_elapsed": 635952,
		"internal_node_id": "0.0-3.0-1.276"
	},
	{
		"rt": 789,
		"stimulus": "../audio/27-5-fem.mp3",
		"response": " ",
		"word": "elite",
		"trial_type": "audio-keyboard-response",
		"trial_index": 340,
		"time_elapsed": 637007,
		"internal_node_id": "0.0-3.0-1.277"
	},
	{
		"rt": 832,
		"stimulus": "../audio/27-6-fem.mp3",
		"response": " ",
		"word": "deste",
		"trial_type": "audio-keyboard-response",
		"trial_index": 341,
		"time_elapsed": 638111,
		"internal_node_id": "0.0-3.0-1.278"
	},
	{
		"rt": 1600,
		"stimulus": "../audio/27-7-fem.mp3",
		"response": " ",
		"word": "país.",
		"trial_type": "audio-keyboard-response",
		"trial_index": 342,
		"time_elapsed": 639968,
		"internal_node_id": "0.0-3.0-1.279"
	},
	{
		"rt": null,
		"stimulus": "<span style= \"font-size:30px; font-family: monospace\">+</span>",
		"response": null,
		"trial_part": "fixation",
		"trial_type": "html-keyboard-response",
		"trial_index": 343,
		"time_elapsed": 641242,
		"internal_node_id": "0.0-3.0-0.280-0.280"
	},
	{
		"rt": 1139,
		"stimulus": "../audio/28-1-masc.mp3",
		"response": " ",
		"word": "O",
		"trial_type": "audio-keyboard-response",
		"trial_index": 344,
		"time_elapsed": 642655,
		"internal_node_id": "0.0-3.0-1.280"
	},
	{
		"rt": 971,
		"stimulus": "../audio/28-2-masc.mp3",
		"response": " ",
		"word": "time",
		"trial_type": "audio-keyboard-response",
		"trial_index": 345,
		"time_elapsed": 643887,
		"internal_node_id": "0.0-3.0-1.281"
	},
	{
		"rt": 851,
		"stimulus": "../audio/28-3-masc.mp3",
		"response": " ",
		"word": "quer",
		"trial_type": "audio-keyboard-response",
		"trial_index": 346,
		"time_elapsed": 645008,
		"internal_node_id": "0.0-3.0-1.282"
	},
	{
		"rt": 731,
		"stimulus": "../audio/28-4-masc.mp3",
		"response": " ",
		"word": "a",
		"trial_type": "audio-keyboard-response",
		"trial_index": 347,
		"time_elapsed": 646015,
		"internal_node_id": "0.0-3.0-1.283"
	},
	{
		"rt": 1069,
		"stimulus": "../audio/28-5-masc.mp3",
		"response": " ",
		"word": "vitória",
		"trial_type": "audio-keyboard-response",
		"trial_index": 348,
		"time_elapsed": 647359,
		"internal_node_id": "0.0-3.0-1.284"
	},
	{
		"rt": 739,
		"stimulus": "../audio/28-6-masc.mp3",
		"response": " ",
		"word": "no",
		"trial_type": "audio-keyboard-response",
		"trial_index": 349,
		"time_elapsed": 648367,
		"internal_node_id": "0.0-3.0-1.285"
	},
	{
		"rt": 992,
		"stimulus": "../audio/28-7-masc.mp3",
		"response": " ",
		"word": "jogo",
		"trial_type": "audio-keyboard-response",
		"trial_index": 350,
		"time_elapsed": 649631,
		"internal_node_id": "0.0-3.0-1.286"
	},
	{
		"rt": 771,
		"stimulus": "../audio/28-8-masc.mp3",
		"response": " ",
		"word": "de",
		"trial_type": "audio-keyboard-response",
		"trial_index": 351,
		"time_elapsed": 650672,
		"internal_node_id": "0.0-3.0-1.287"
	},
	{
		"rt": 1219,
		"stimulus": "../audio/28-9-masc.mp3",
		"response": " ",
		"word": "vôlei.",
		"trial_type": "audio-keyboard-response",
		"trial_index": 352,
		"time_elapsed": 652175,
		"internal_node_id": "0.0-3.0-1.288"
	},
	{
		"rt": null,
		"stimulus": "<span style= \"font-size:30px; font-family: monospace\">+</span>",
		"response": null,
		"trial_part": "fixation",
		"trial_type": "html-keyboard-response",
		"trial_index": 353,
		"time_elapsed": 653444,
		"internal_node_id": "0.0-3.0-0.289-0.289"
	},
	{
		"rt": 1120,
		"stimulus": "../audio/26-1-fem.mp3",
		"response": " ",
		"word": "Amanhã",
		"trial_type": "audio-keyboard-response",
		"trial_index": 354,
		"time_elapsed": 654831,
		"internal_node_id": "0.0-3.0-1.289"
	},
	{
		"rt": 880,
		"stimulus": "../audio/26-2-fem.mp3",
		"response": " ",
		"word": "temos",
		"trial_type": "audio-keyboard-response",
		"trial_index": 355,
		"time_elapsed": 655983,
		"internal_node_id": "0.0-3.0-1.290"
	},
	{
		"rt": 979,
		"stimulus": "../audio/26-3-fem.mp3",
		"response": " ",
		"word": "festa",
		"trial_type": "audio-keyboard-response",
		"trial_index": 356,
		"time_elapsed": 657247,
		"internal_node_id": "0.0-3.0-1.291"
	},
	{
		"rt": 880,
		"stimulus": "../audio/26-4-fem.mp3",
		"response": " ",
		"word": "na",
		"trial_type": "audio-keyboard-response",
		"trial_index": 357,
		"time_elapsed": 658399,
		"internal_node_id": "0.0-3.0-1.292"
	},
	{
		"rt": 1099,
		"stimulus": "../audio/26-5-fem.mp3",
		"response": " ",
		"word": "piscina",
		"trial_type": "audio-keyboard-response",
		"trial_index": 358,
		"time_elapsed": 659775,
		"internal_node_id": "0.0-3.0-1.293"
	},
	{
		"rt": 851,
		"stimulus": "../audio/26-6-fem.mp3",
		"response": " ",
		"word": "o",
		"trial_type": "audio-keyboard-response",
		"trial_index": 359,
		"time_elapsed": 660895,
		"internal_node_id": "0.0-3.0-1.294"
	},
	{
		"rt": 1040,
		"stimulus": "../audio/26-7-fem.mp3",
		"response": " ",
		"word": "dia",
		"trial_type": "audio-keyboard-response",
		"trial_index": 360,
		"time_elapsed": 662207,
		"internal_node_id": "0.0-3.0-1.295"
	},
	{
		"rt": 2101,
		"stimulus": "../audio/26-8-fem.mp3",
		"response": " ",
		"word": "todo.",
		"trial_type": "audio-keyboard-response",
		"trial_index": 361,
		"time_elapsed": 664591,
		"internal_node_id": "0.0-3.0-1.296"
	},
	{
		"rt": null,
		"stimulus": "<span style= \"font-size:30px; font-family: monospace\">+</span>",
		"response": null,
		"trial_part": "fixation",
		"trial_type": "html-keyboard-response",
		"trial_index": 362,
		"time_elapsed": 665861,
		"internal_node_id": "0.0-3.0-0.297-0.297"
	},
	{
		"rt": 1080,
		"stimulus": "../audio/29-1-masc.mp3",
		"response": " ",
		"word": "Hoje",
		"trial_type": "audio-keyboard-response",
		"trial_index": 363,
		"time_elapsed": 667231,
		"internal_node_id": "0.0-3.0-1.297"
	},
	{
		"rt": 979,
		"stimulus": "../audio/29-2-masc.mp3",
		"response": " ",
		"word": "vamos",
		"trial_type": "audio-keyboard-response",
		"trial_index": 364,
		"time_elapsed": 668495,
		"internal_node_id": "0.0-3.0-1.298"
	},
	{
		"rt": 909,
		"stimulus": "../audio/29-3-masc.mp3",
		"response": " ",
		"word": "fazer",
		"trial_type": "audio-keyboard-response",
		"trial_index": 365,
		"time_elapsed": 669679,
		"internal_node_id": "0.0-3.0-1.299"
	},
	{
		"rt": 792,
		"stimulus": "../audio/29-4-masc.mp3",
		"response": " ",
		"word": "uma",
		"trial_type": "audio-keyboard-response",
		"trial_index": 366,
		"time_elapsed": 670751,
		"internal_node_id": "0.0-3.0-1.300"
	},
	{
		"rt": 1349,
		"stimulus": "../audio/29-5-masc.mp3",
		"response": " ",
		"word": "atividade",
		"trial_type": "audio-keyboard-response",
		"trial_index": 367,
		"time_elapsed": 672383,
		"internal_node_id": "0.0-3.0-1.301"
	},
	{
		"rt": 949,
		"stimulus": "../audio/29-6-masc.mp3",
		"response": " ",
		"word": "sobre",
		"trial_type": "audio-keyboard-response",
		"trial_index": 368,
		"time_elapsed": 673615,
		"internal_node_id": "0.0-3.0-1.302"
	},
	{
		"rt": 971,
		"stimulus": "../audio/29-7-masc.mp3",
		"response": " ",
		"word": "fauna",
		"trial_type": "audio-keyboard-response",
		"trial_index": 369,
		"time_elapsed": 674863,
		"internal_node_id": "0.0-3.0-1.303"
	},
	{
		"rt": 1211,
		"stimulus": "../audio/29-8-masc.mp3",
		"response": " ",
		"word": "marinha.",
		"trial_type": "audio-keyboard-response",
		"trial_index": 370,
		"time_elapsed": 676351,
		"internal_node_id": "0.0-3.0-1.304"
	},
	{
		"rt": null,
		"stimulus": "<span style= \"font-size:30px; font-family: monospace\">+</span>",
		"response": null,
		"trial_part": "fixation",
		"trial_type": "html-keyboard-response",
		"trial_index": 371,
		"time_elapsed": 677617,
		"internal_node_id": "0.0-3.0-0.305-0.305"
	},
	{
		"rt": 1352,
		"stimulus": "../audio/30-1-masc.mp3",
		"response": " ",
		"word": "O",
		"trial_type": "audio-keyboard-response",
		"trial_index": 372,
		"time_elapsed": 679231,
		"internal_node_id": "0.0-3.0-1.305"
	},
	{
		"rt": 1189,
		"stimulus": "../audio/30-2-masc.mp3",
		"response": " ",
		"word": "funcionário",
		"trial_type": "audio-keyboard-response",
		"trial_index": 373,
		"time_elapsed": 680703,
		"internal_node_id": "0.0-3.0-1.306"
	},
	{
		"rt": 1109,
		"stimulus": "../audio/30-3-masc.mp3",
		"response": " ",
		"word": "entregou",
		"trial_type": "audio-keyboard-response",
		"trial_index": 374,
		"time_elapsed": 682079,
		"internal_node_id": "0.0-3.0-1.307"
	},
	{
		"rt": 779,
		"stimulus": "../audio/30-4-masc.mp3",
		"response": " ",
		"word": "o",
		"trial_type": "audio-keyboard-response",
		"trial_index": 375,
		"time_elapsed": 683119,
		"internal_node_id": "0.0-3.0-1.308"
	},
	{
		"rt": 1120,
		"stimulus": "../audio/30-5-masc.mp3",
		"response": " ",
		"word": "restante",
		"trial_type": "audio-keyboard-response",
		"trial_index": 376,
		"time_elapsed": 684511,
		"internal_node_id": "0.0-3.0-1.309"
	},
	{
		"rt": 749,
		"stimulus": "../audio/30-6-masc.mp3",
		"response": " ",
		"word": "do",
		"trial_type": "audio-keyboard-response",
		"trial_index": 377,
		"time_elapsed": 685535,
		"internal_node_id": "0.0-3.0-1.310"
	},
	{
		"rt": 971,
		"stimulus": "../audio/30-7-masc.mp3",
		"response": " ",
		"word": "dinheiro.",
		"trial_type": "audio-keyboard-response",
		"trial_index": 378,
		"time_elapsed": 686783,
		"internal_node_id": "0.0-3.0-1.311"
	},
	{
		"rt": 4702,
		"stimulus": "<span style=\"font-size:25px; font-family: monospace\">O funcionário entregou o contrato?</span>",
		"response": "n",
		"question": "O funcionário entregou o contrato?",
		"answer": "null",
		"trial": "exp-sent",
		"trial_type": "html-keyboard-response",
		"trial_index": 379,
		"time_elapsed": 691743,
		"internal_node_id": "0.0-3.0-2.311-0.311",
		"accuracy": false
	},
	{
		"rt": null,
		"stimulus": "<span style= \"font-size:30px; font-family: monospace\">+</span>",
		"response": null,
		"trial_part": "fixation",
		"trial_type": "html-keyboard-response",
		"trial_index": 380,
		"time_elapsed": 693266,
		"internal_node_id": "0.0-3.0-0.312-0.312"
	},
	{
		"rt": 48,
		"stimulus": "../audio/19-1-fem.mp3",
		"response": " ",
		"word": "O",
		"trial_type": "audio-keyboard-response",
		"trial_index": 381,
		"time_elapsed": 693599,
		"internal_node_id": "0.0-3.0-1.312"
	},
	{
		"rt": 1168,
		"stimulus": "../audio/19-2-fem.mp3",
		"response": " ",
		"word": "menino",
		"trial_type": "audio-keyboard-response",
		"trial_index": 382,
		"time_elapsed": 695039,
		"internal_node_id": "0.0-3.0-1.313"
	},
	{
		"rt": 859,
		"stimulus": "../audio/19-3-fem.mp3",
		"response": " ",
		"word": "ganhou",
		"trial_type": "audio-keyboard-response",
		"trial_index": 383,
		"time_elapsed": 696175,
		"internal_node_id": "0.0-3.0-1.314"
	},
	{
		"rt": 800,
		"stimulus": "../audio/19-4-fem.mp3",
		"response": " ",
		"word": "uma",
		"trial_type": "audio-keyboard-response",
		"trial_index": 384,
		"time_elapsed": 697247,
		"internal_node_id": "0.0-3.0-1.315"
	},
	{
		"rt": 752,
		"stimulus": "../audio/19-5-fem.mp3",
		"response": " ",
		"word": "bala",
		"trial_type": "audio-keyboard-response",
		"trial_index": 385,
		"time_elapsed": 698271,
		"internal_node_id": "0.0-3.0-1.316"
	},
	{
		"rt": 1040,
		"stimulus": "../audio/19-6-fem.mp3",
		"response": " ",
		"word": "depois",
		"trial_type": "audio-keyboard-response",
		"trial_index": 386,
		"time_elapsed": 699583,
		"internal_node_id": "0.0-3.0-1.317"
	},
	{
		"rt": 720,
		"stimulus": "../audio/19-7-fem.mp3",
		"response": " ",
		"word": "do",
		"trial_type": "audio-keyboard-response",
		"trial_index": 387,
		"time_elapsed": 700591,
		"internal_node_id": "0.0-3.0-1.318"
	},
	{
		"rt": 1208,
		"stimulus": "../audio/19-8-fem.mp3",
		"response": " ",
		"word": "almoço.",
		"trial_type": "audio-keyboard-response",
		"trial_index": 388,
		"time_elapsed": 702079,
		"internal_node_id": "0.0-3.0-1.319"
	},
	{
		"rt": null,
		"stimulus": "<span style= \"font-size:30px; font-family: monospace\">+</span>",
		"response": null,
		"trial_part": "fixation",
		"trial_type": "html-keyboard-response",
		"trial_index": 389,
		"time_elapsed": 703350,
		"internal_node_id": "0.0-3.0-0.320-0.320"
	},
	{
		"rt": 632,
		"stimulus": "../audio/18-1-masc.mp3",
		"response": " ",
		"word": "O",
		"trial_type": "audio-keyboard-response",
		"trial_index": 390,
		"time_elapsed": 704271,
		"internal_node_id": "0.0-3.0-1.320"
	},
	{
		"rt": 709,
		"stimulus": "../audio/18-2-masc.mp3",
		"response": " ",
		"word": "enredo",
		"trial_type": "audio-keyboard-response",
		"trial_index": 391,
		"time_elapsed": 705263,
		"internal_node_id": "0.0-3.0-1.321"
	},
	{
		"rt": 720,
		"stimulus": "../audio/18-3-masc.mp3",
		"response": " ",
		"word": "traz",
		"trial_type": "audio-keyboard-response",
		"trial_index": 392,
		"time_elapsed": 706255,
		"internal_node_id": "0.0-3.0-1.322"
	},
	{
		"rt": 669,
		"stimulus": "../audio/18-4-masc.mp3",
		"response": " ",
		"word": "um",
		"trial_type": "audio-keyboard-response",
		"trial_index": 393,
		"time_elapsed": 707199,
		"internal_node_id": "0.0-3.0-1.323"
	},
	{
		"rt": 888,
		"stimulus": "../audio/18-5-masc.mp3",
		"response": " ",
		"word": "dragão",
		"trial_type": "audio-keyboard-response",
		"trial_index": 394,
		"time_elapsed": 708367,
		"internal_node_id": "0.0-3.0-1.324"
	},
	{
		"rt": 771,
		"stimulus": "../audio/18-6-masc.mp3",
		"response": " ",
		"word": "forte",
		"trial_type": "audio-keyboard-response",
		"trial_index": 395,
		"time_elapsed": 709407,
		"internal_node_id": "0.0-3.0-1.325"
	},
	{
		"rt": 808,
		"stimulus": "../audio/18-7-masc.mp3",
		"response": " ",
		"word": "e",
		"trial_type": "audio-keyboard-response",
		"trial_index": 396,
		"time_elapsed": 710479,
		"internal_node_id": "0.0-3.0-1.326"
	},
	{
		"rt": 1171,
		"stimulus": "../audio/18-8-masc.mp3",
		"response": " ",
		"word": "solitário.",
		"trial_type": "audio-keyboard-response",
		"trial_index": 397,
		"time_elapsed": 711935,
		"internal_node_id": "0.0-3.0-1.327"
	},
	{
		"rt": null,
		"stimulus": "<span style= \"font-size:30px; font-family: monospace\">+</span>",
		"response": null,
		"trial_part": "fixation",
		"trial_type": "html-keyboard-response",
		"trial_index": 398,
		"time_elapsed": 713205,
		"internal_node_id": "0.0-3.0-0.328-0.328"
	},
	{
		"rt": 701,
		"stimulus": "../audio/17-1-masc.mp3",
		"response": " ",
		"word": "Falaram",
		"trial_type": "audio-keyboard-response",
		"trial_index": 399,
		"time_elapsed": 714191,
		"internal_node_id": "0.0-3.0-1.328"
	},
	{
		"rt": 659,
		"stimulus": "../audio/17-2-masc.mp3",
		"response": " ",
		"word": "da",
		"trial_type": "audio-keyboard-response",
		"trial_index": 400,
		"time_elapsed": 715135,
		"internal_node_id": "0.0-3.0-1.329"
	},
	{
		"rt": 781,
		"stimulus": "../audio/17-3-masc.mp3",
		"response": " ",
		"word": "lei",
		"trial_type": "audio-keyboard-response",
		"trial_index": 401,
		"time_elapsed": 716191,
		"internal_node_id": "0.0-3.0-1.330"
	},
	{
		"rt": 688,
		"stimulus": "../audio/17-4-masc.mp3",
		"response": " ",
		"word": "no",
		"trial_type": "audio-keyboard-response",
		"trial_index": 402,
		"time_elapsed": 717167,
		"internal_node_id": "0.0-3.0-1.331"
	},
	{
		"rt": 1040,
		"stimulus": "../audio/17-5-masc.mp3",
		"response": " ",
		"word": "ministério",
		"trial_type": "audio-keyboard-response",
		"trial_index": 403,
		"time_elapsed": 718479,
		"internal_node_id": "0.0-3.0-1.332"
	},
	{
		"rt": 891,
		"stimulus": "../audio/17-6-masc.mp3",
		"response": " ",
		"word": "diversas",
		"trial_type": "audio-keyboard-response",
		"trial_index": 404,
		"time_elapsed": 719647,
		"internal_node_id": "0.0-3.0-1.333"
	},
	{
		"rt": 1021,
		"stimulus": "../audio/17-7-masc.mp3",
		"response": " ",
		"word": "vezes.",
		"trial_type": "audio-keyboard-response",
		"trial_index": 405,
		"time_elapsed": 720943,
		"internal_node_id": "0.0-3.0-1.334"
	},
	{
		"rt": null,
		"stimulus": "<span style= \"font-size:30px; font-family: monospace\">+</span>",
		"response": null,
		"trial_part": "fixation",
		"trial_type": "html-keyboard-response",
		"trial_index": 406,
		"time_elapsed": 722207,
		"internal_node_id": "0.0-3.0-0.335-0.335"
	},
	{
		"rt": 640,
		"stimulus": "../audio/16-1-masc.mp3",
		"response": " ",
		"word": "Eu",
		"trial_type": "audio-keyboard-response",
		"trial_index": 407,
		"time_elapsed": 723119,
		"internal_node_id": "0.0-3.0-1.335"
	},
	{
		"rt": 880,
		"stimulus": "../audio/16-2-masc.mp3",
		"response": " ",
		"word": "nunca",
		"trial_type": "audio-keyboard-response",
		"trial_index": 408,
		"time_elapsed": 724270,
		"internal_node_id": "0.0-3.0-1.336"
	},
	{
		"rt": 909,
		"stimulus": "../audio/16-3-masc.mp3",
		"response": " ",
		"word": "conheci",
		"trial_type": "audio-keyboard-response",
		"trial_index": 409,
		"time_elapsed": 725455,
		"internal_node_id": "0.0-3.0-1.337"
	},
	{
		"rt": 669,
		"stimulus": "../audio/16-4-masc.mp3",
		"response": " ",
		"word": "um",
		"trial_type": "audio-keyboard-response",
		"trial_index": 410,
		"time_elapsed": 726398,
		"internal_node_id": "0.0-3.0-1.338"
	},
	{
		"rt": 931,
		"stimulus": "../audio/16-5-masc.mp3",
		"response": " ",
		"word": "general",
		"trial_type": "audio-keyboard-response",
		"trial_index": 411,
		"time_elapsed": 727615,
		"internal_node_id": "0.0-3.0-1.339"
	},
	{
		"rt": 691,
		"stimulus": "../audio/16-6-masc.mp3",
		"response": " ",
		"word": "do",
		"trial_type": "audio-keyboard-response",
		"trial_index": 412,
		"time_elapsed": 728574,
		"internal_node_id": "0.0-3.0-1.340"
	},
	{
		"rt": 1280,
		"stimulus": "../audio/16-7-masc.mp3",
		"response": " ",
		"word": "exército.",
		"trial_type": "audio-keyboard-response",
		"trial_index": 413,
		"time_elapsed": 730126,
		"internal_node_id": "0.0-3.0-1.341"
	},
	{
		"rt": null,
		"stimulus": "<span style= \"font-size:30px; font-family: monospace\">+</span>",
		"response": null,
		"trial_part": "fixation",
		"trial_type": "html-keyboard-response",
		"trial_index": 414,
		"time_elapsed": 731391,
		"internal_node_id": "0.0-3.0-0.342-0.342"
	},
	{
		"rt": 579,
		"stimulus": "../audio/20-1-masc.mp3",
		"response": " ",
		"word": "O",
		"trial_type": "audio-keyboard-response",
		"trial_index": 415,
		"time_elapsed": 732238,
		"internal_node_id": "0.0-3.0-1.342"
	},
	{
		"rt": 840,
		"stimulus": "../audio/20-2-masc.mp3",
		"response": " ",
		"word": "colega",
		"trial_type": "audio-keyboard-response",
		"trial_index": 416,
		"time_elapsed": 733359,
		"internal_node_id": "0.0-3.0-1.343"
	},
	{
		"rt": 909,
		"stimulus": "../audio/20-3-masc.mp3",
		"response": " ",
		"word": "parecia",
		"trial_type": "audio-keyboard-response",
		"trial_index": 417,
		"time_elapsed": 734543,
		"internal_node_id": "0.0-3.0-1.344"
	},
	{
		"rt": 691,
		"stimulus": "../audio/20-4-masc.mp3",
		"response": " ",
		"word": "muito",
		"trial_type": "audio-keyboard-response",
		"trial_index": 418,
		"time_elapsed": 735503,
		"internal_node_id": "0.0-3.0-1.345"
	},
	{
		"rt": 1069,
		"stimulus": "../audio/20-5-masc.mp3",
		"response": " ",
		"word": "gripado",
		"trial_type": "audio-keyboard-response",
		"trial_index": 419,
		"time_elapsed": 736847,
		"internal_node_id": "0.0-3.0-1.346"
	},
	{
		"rt": 811,
		"stimulus": "../audio/20-6-masc.mp3",
		"response": " ",
		"word": "no",
		"trial_type": "audio-keyboard-response",
		"trial_index": 420,
		"time_elapsed": 737934,
		"internal_node_id": "0.0-3.0-1.347"
	},
	{
		"rt": 741,
		"stimulus": "../audio/20-7-masc.mp3",
		"response": " ",
		"word": "dia",
		"trial_type": "audio-keyboard-response",
		"trial_index": 421,
		"time_elapsed": 738943,
		"internal_node_id": "0.0-3.0-1.348"
	},
	{
		"rt": 1221,
		"stimulus": "../audio/20-8-masc.mp3",
		"response": " ",
		"word": "anterior.",
		"trial_type": "audio-keyboard-response",
		"trial_index": 422,
		"time_elapsed": 740431,
		"internal_node_id": "0.0-3.0-1.349"
	},
	{
		"rt": 5878,
