[
	{
		"view_history": [
			{
				"page_index": 0,
				"viewing_time": 3035
			}
		],
		"rt": 3035,
		"trial_type": "instructions",
		"trial_index": 0,
		"time_elapsed": 3036,
		"internal_node_id": "0.0-0.0"
	},
	{
		"rt": 5206,
		"response": {
			"tcle": "Concordo voluntariamente em participar da pesquisa conforme texto acima."
		},
		"question_order": [
			0
		],
		"trial_type": "survey-multi-choice",
		"trial_index": 1,
		"time_elapsed": 8444,
		"internal_node_id": "0.0-1.0"
	},
	{
		"rt": 36074,
		"response": {
			"email": "4OHU7"
		},
		"trial_type": "survey-text",
		"trial_index": 2,
		"time_elapsed": 45563,
		"internal_node_id": "0.0-2.0"
	}
]