"view_history","rt","trial_type","trial_index","time_elapsed","internal_node_id","stimulus","response","trial_part","trial","word","question","answer","accuracy"
"[{""page_index"":0,""viewing_time"":28481},{""page_index"":1,""viewing_time"":7544}]","36026","instructions","0","36026","0.0-0.0","","","","","","","",""
"","null","html-keyboard-response","1","37129","0.0-1.0-0.0-0.0","<span style= ""font-size:30px; font-family: monospace"">+</span>","null","fixation","","","","",""
"","41486","html-keyboard-response","2","78866","0.0-1.0-1.0","<span style=""font-size:30px; font-family: monospace"">O</span>"," ","","prac-sent","O","","",""
"","6147","html-keyboard-response","3","85265","0.0-1.0-1.1","<span style=""font-size:30px; font-family: monospace"">dia</span>"," ","","prac-sent","dia","","",""
"","114693","html-keyboard-response","4","200207","0.0-1.0-1.2","<span style=""font-size:30px; font-family: monospace"">estará</span>"," ","","prac-sent","estará","","",""
"","1956","html-keyboard-response","5","202415","0.0-1.0-1.3","<span style=""font-size:30px; font-family: monospace"">cheio</span>"," ","","prac-sent","cheio","","",""
"","109733","html-keyboard-response","6","312398","0.0-1.0-1.4","<span style=""font-size:30px; font-family: monospace"">de</span>"," ","","prac-sent","de","","",""
"","41653","html-keyboard-response","7","354302","0.0-1.0-1.5","<span style=""font-size:30px; font-family: monospace"">nuvens</span>"," ","","prac-sent","nuvens","","",""
"","404","html-keyboard-response","8","354957","0.0-1.0-1.6","<span style=""font-size:30px; font-family: monospace"">hoje.</span>"," ","","prac-sent","hoje.","","",""
"","null","html-keyboard-response","9","356209","0.0-1.0-0.7-0.7","<span style= ""font-size:30px; font-family: monospace"">+</span>","null","fixation","","","","",""
"","801","html-keyboard-response","10","357262","0.0-1.0-1.7","<span style=""font-size:30px; font-family: monospace"">A</span>"," ","","prac-sent","A","","",""
"","837","html-keyboard-response","11","358349","0.0-1.0-1.8","<span style=""font-size:30px; font-family: monospace"">caneca</span>"," ","","prac-sent","caneca","","",""
"","1125","html-keyboard-response","12","359725","0.0-1.0-1.9","<span style=""font-size:30px; font-family: monospace"">colorida</span>"," ","","prac-sent","colorida","","",""
"","25013","html-keyboard-response","13","384989","0.0-1.0-1.10","<span style=""font-size:30px; font-family: monospace"">caiu</span>"," ","","prac-sent","caiu","","",""
"","1188","html-keyboard-response","14","386429","0.0-1.0-1.11","<span style=""font-size:30px; font-family: monospace"">da</span>"," ","","prac-sent","da","","",""
"","933","html-keyboard-response","15","387613","0.0-1.0-1.12","<span style=""font-size:30px; font-family: monospace"">mesa</span>"," ","","prac-sent","mesa","","",""
"","725","html-keyboard-response","16","388589","0.0-1.0-1.13","<span style=""font-size:30px; font-family: monospace"">de</span>"," ","","prac-sent","de","","",""
"","789","html-keyboard-response","17","389629","0.0-1.0-1.14","<span style=""font-size:30px; font-family: monospace"">jantar.</span>"," ","","prac-comp","jantar.","","",""
"","18084","html-keyboard-response","18","407965","0.0-1.0-2.14-0.14","<span style=""font-size:30px; font-family: monospace"">A caneca permaneceu na mesa?</span>","s","","prac-comp","","A caneca permaneceu na mesa?","não","false"
"[{""page_index"":0,""viewing_time"":4884}]","4884","instructions","19","413357","0.0-2.0","","","","","","","",""
"","null","html-keyboard-response","20","414474","0.0-3.0-0.0-0.0","<span style= ""font-size:30px; font-family: monospace"">+</span>","null","fixation","","","","",""
"","408","html-keyboard-response","21","415133","0.0-3.0-1.0","<span style=""font-size:30px; font-family: monospace"">O</span>"," ","","exp-sent","O","","",""
"","63573","html-keyboard-response","22","478955","0.0-3.0-1.1","<span style=""font-size:30px; font-family: monospace"">moço</span>"," ","","exp-sent","moço","","",""
"","372","html-keyboard-response","23","479579","0.0-3.0-1.2","<span style=""font-size:30px; font-family: monospace"">usou</span>"," ","","exp-sent","usou","","",""
"","629","html-keyboard-response","24","480459","0.0-3.0-1.3","<span style=""font-size:30px; font-family: monospace"">várias</span>"," ","","exp-sent","várias","","",""
"","613","html-keyboard-response","25","481323","0.0-3.0-1.4","<span style=""font-size:30px; font-family: monospace"">velas</span>"," ","","exp-sent","velas","","",""
"","485","html-keyboard-response","26","482059","0.0-3.0-1.5","<span style=""font-size:30px; font-family: monospace"">no</span>"," ","","exp-sent","no","","",""
"","453","html-keyboard-response","27","482763","0.0-3.0-1.6","<span style=""font-size:30px; font-family: monospace"">enfeite</span>"," ","","exp-sent","enfeite","","",""
"","421","html-keyboard-response","28","483435","0.0-3.0-1.7","<span style=""font-size:30px; font-family: monospace"">de</span>"," ","","exp-sent","de","","",""
"","10421","html-keyboard-response","29","494107","0.0-3.0-1.8","<span style=""font-size:30px; font-family: monospace"">mesa.</span>"," ","","exp-sent","mesa.","","",""
"","null","html-keyboard-response","30","495358","0.0-3.0-0.9-0.9","<span style= ""font-size:30px; font-family: monospace"">+</span>","null","fixation","","","","",""
"","802","html-keyboard-response","31","496411","0.0-3.0-1.9","<span style=""font-size:30px; font-family: monospace"">Gostamos</span>"," ","","exp-sent","Gostamos","","",""
"","469","html-keyboard-response","32","497131","0.0-3.0-1.10","<span style=""font-size:30px; font-family: monospace"">de</span>"," ","","exp-sent","de","","",""
"","422","html-keyboard-response","33","497803","0.0-3.0-1.11","<span style=""font-size:30px; font-family: monospace"">suco</span>"," ","","exp-sent","suco","","",""
"","341","html-keyboard-response","34","498395","0.0-3.0-1.12","<span style=""font-size:30px; font-family: monospace"">em</span>"," ","","exp-sent","em","","",""
"","613","html-keyboard-response","35","499259","0.0-3.0-1.13","<span style=""font-size:30px; font-family: monospace"">garrafa</span>"," ","","exp-sent","garrafa","","",""
"","374","html-keyboard-response","36","499883","0.0-3.0-1.14","<span style=""font-size:30px; font-family: monospace"">de</span>"," ","","exp-sent","de","","",""
"","372","html-keyboard-response","37","500507","0.0-3.0-1.15","<span style=""font-size:30px; font-family: monospace"">tamanho</span>"," ","","exp-sent","tamanho","","",""
"","389","html-keyboard-response","38","501147","0.0-3.0-1.16","<span style=""font-size:30px; font-family: monospace"">pequeno.</span>"," ","","exp-sent","pequeno.","","",""
"","null","html-keyboard-response","39","502399","0.0-3.0-0.17-0.17","<span style= ""font-size:30px; font-family: monospace"">+</span>","null","fixation","","","","",""
"","593","html-keyboard-response","40","503243","0.0-3.0-1.17","<span style=""font-size:30px; font-family: monospace"">Sua</span>"," ","","exp-sent","Sua","","",""
"","485","html-keyboard-response","41","503979","0.0-3.0-1.18","<span style=""font-size:30px; font-family: monospace"">filha</span>"," ","","exp-sent","filha","","",""
"","373","html-keyboard-response","42","504604","0.0-3.0-1.19","<span style=""font-size:30px; font-family: monospace"">é</span>"," ","","exp-sent","é","","",""
"","500","html-keyboard-response","43","505355","0.0-3.0-1.20","<span style=""font-size:30px; font-family: monospace"">muito</span>"," ","","exp-sent","muito","","",""
"","326","html-keyboard-response","44","505931","0.0-3.0-1.21","<span style=""font-size:30px; font-family: monospace"">capaz</span>"," ","","exp-sent","capaz","","",""
"","276","html-keyboard-response","45","506459","0.0-3.0-1.22","<span style=""font-size:30px; font-family: monospace"">e</span>"," ","","exp-sent","e","","",""
"","677","html-keyboard-response","46","507387","0.0-3.0-1.23","<span style=""font-size:30px; font-family: monospace"">esforçada.</span>"," ","","exp-sent","esforçada.","","",""
"","null","html-keyboard-response","47","508639","0.0-3.0-0.24-0.24","<span style= ""font-size:30px; font-family: monospace"">+</span>","null","fixation","","","","",""
"","386","html-keyboard-response","48","509275","0.0-3.0-1.24","<span style=""font-size:30px; font-family: monospace"">A</span>"," ","","exp-sent","A","","",""
"","453","html-keyboard-response","49","509979","0.0-3.0-1.25","<span style=""font-size:30px; font-family: monospace"">batida</span>"," ","","exp-sent","batida","","",""
"","356","html-keyboard-response","50","510587","0.0-3.0-1.26","<span style=""font-size:30px; font-family: monospace"">causou</span>"," ","","exp-sent","causou","","",""
"","357","html-keyboard-response","51","511195","0.0-3.0-1.27","<span style=""font-size:30px; font-family: monospace"">muita</span>"," ","","exp-sent","muita","","",""
"","469","html-keyboard-response","52","511915","0.0-3.0-1.28","<span style=""font-size:30px; font-family: monospace"">confusão</span>"," ","","exp-sent","confusão","","",""
"","389","html-keyboard-response","53","512555","0.0-3.0-1.29","<span style=""font-size:30px; font-family: monospace"">na</span>"," ","","exp-sent","na","","",""
"","437","html-keyboard-response","54","513243","0.0-3.0-1.30","<span style=""font-size:30px; font-family: monospace"">estrada.</span>"," ","","exp-sent","estrada.","","",""
"","null","html-keyboard-response","55","514495","0.0-3.0-0.31-0.31","<span style= ""font-size:30px; font-family: monospace"">+</span>","null","fixation","","","","",""
"","673","html-keyboard-response","56","515419","0.0-3.0-1.31","<span style=""font-size:30px; font-family: monospace"">Eu</span>"," ","","exp-sent","Eu","","",""
"","597","html-keyboard-response","57","516267","0.0-3.0-1.32","<span style=""font-size:30px; font-family: monospace"">cozinhei</span>"," ","","exp-sent","cozinhei","","",""
"","374","html-keyboard-response","58","516891","0.0-3.0-1.33","<span style=""font-size:30px; font-family: monospace"">um</span>"," ","","exp-sent","um","","",""
"","453","html-keyboard-response","59","517595","0.0-3.0-1.34","<span style=""font-size:30px; font-family: monospace"">almoço</span>"," ","","exp-sent","almoço","","",""
"","421","html-keyboard-response","60","518267","0.0-3.0-1.35","<span style=""font-size:30px; font-family: monospace"">nutritivo</span>"," ","","exp-sent","nutritivo","","",""
"","357","html-keyboard-response","61","518875","0.0-3.0-1.36","<span style=""font-size:30px; font-family: monospace"">para</span>"," ","","exp-sent","para","","",""
"","373","html-keyboard-response","62","519499","0.0-3.0-1.37","<span style=""font-size:30px; font-family: monospace"">hoje.</span>"," ","","comp","hoje.","","",""
"","4246","html-keyboard-response","63","523995","0.0-3.0-2.37-0.37","<span style=""font-size:30px; font-family: monospace"">O almoço era nutritivo?</span>","s","","comp","","O almoço era nutritivo?","sim","false"
"","null","html-keyboard-response","64","525496","0.0-3.0-0.38-0.38","<span style= ""font-size:30px; font-family: monospace"">+</span>","null","fixation","","","","",""
"","3384","html-keyboard-response","65","529132","0.0-3.0-1.38","<span style=""font-size:30px; font-family: monospace"">Ursos</span>"," ","","exp-sent","Ursos","","",""
"","357","html-keyboard-response","66","529739","0.0-3.0-1.39","<span style=""font-size:30px; font-family: monospace"">têm</span>"," ","","exp-sent","têm","","",""
"","229","html-keyboard-response","67","530219","0.0-3.0-1.40","<span style=""font-size:30px; font-family: monospace"">uma</span>"," ","","exp-sent","uma","","",""
"","149","html-keyboard-response","68","530619","0.0-3.0-1.41","<span style=""font-size:30px; font-family: monospace"">patada</span>"," ","","exp-sent","patada","","",""
"","165","html-keyboard-response","69","531035","0.0-3.0-1.42","<span style=""font-size:30px; font-family: monospace"">brutal</span>"," ","","exp-sent","brutal","","",""
"","166","html-keyboard-response","70","531451","0.0-3.0-1.43","<span style=""font-size:30px; font-family: monospace"">e</span>"," ","","exp-sent","e","","",""
"","101","html-keyboard-response","71","531803","0.0-3.0-1.44","<span style=""font-size:30px; font-family: monospace"">poderosa.</span>"," ","","exp-sent","poderosa.","","",""
"","null","html-keyboard-response","72","533056","0.0-3.0-0.45-0.45","<span style= ""font-size:30px; font-family: monospace"">+</span>","null","fixation","","","","",""
"","321","html-keyboard-response","73","533627","0.0-3.0-1.45","<span style=""font-size:30px; font-family: monospace"">Eu</span>"," ","","exp-sent","Eu","","",""
"","197","html-keyboard-response","74","534075","0.0-3.0-1.46","<span style=""font-size:30px; font-family: monospace"">fiz</span>"," ","","exp-sent","fiz","","",""
"","117","html-keyboard-response","75","534443","0.0-3.0-1.47","<span style=""font-size:30px; font-family: monospace"">aulas</span>"," ","","exp-sent","aulas","","",""
"","180","html-keyboard-response","76","534875","0.0-3.0-1.48","<span style=""font-size:30px; font-family: monospace"">de</span>"," ","","exp-sent","de","","",""
"","117","html-keyboard-response","77","535243","0.0-3.0-1.49","<span style=""font-size:30px; font-family: monospace"">espanhol</span>"," ","","exp-sent","espanhol","","",""
"","132","html-keyboard-response","78","535627","0.0-3.0-1.50","<span style=""font-size:30px; font-family: monospace"">nesta</span>"," ","","exp-sent","nesta","","",""
"","133","html-keyboard-response","79","536011","0.0-3.0-1.51","<span style=""font-size:30px; font-family: monospace"">cidade.</span>"," ","","exp-sent","cidade.","","",""
"","null","html-keyboard-response","80","537263","0.0-3.0-0.52-0.52","<span style= ""font-size:30px; font-family: monospace"">+</span>","null","fixation","","","","",""
"","569","html-keyboard-response","81","538091","0.0-3.0-1.52","<span style=""font-size:30px; font-family: monospace"">Ele</span>"," ","","exp-sent","Ele","","",""
"","325","html-keyboard-response","82","538667","0.0-3.0-1.53","<span style=""font-size:30px; font-family: monospace"">comprou</span>"," ","","exp-sent","comprou","","",""
"","373","html-keyboard-response","83","539291","0.0-3.0-1.54","<span style=""font-size:30px; font-family: monospace"">mais</span>"," ","","exp-sent","mais","","",""
"","389","html-keyboard-response","84","539930","0.0-3.0-1.55","<span style=""font-size:30px; font-family: monospace"">uma</span>"," ","","exp-sent","uma","","",""
"","517","html-keyboard-response","85","540698","0.0-3.0-1.56","<span style=""font-size:30px; font-family: monospace"">esponja</span>"," ","","exp-sent","esponja","","",""
"","293","html-keyboard-response","86","541243","0.0-3.0-1.57","<span style=""font-size:30px; font-family: monospace"">para</span>"," ","","exp-sent","para","","",""
"","212","html-keyboard-response","87","541706","0.0-3.0-1.58","<span style=""font-size:30px; font-family: monospace"">a</span>"," ","","exp-sent","a","","",""
"","581","html-keyboard-response","88","542538","0.0-3.0-1.59","<span style=""font-size:30px; font-family: monospace"">cozinha.</span>"," ","","exp-sent","cozinha.","","",""
"","null","html-keyboard-response","89","543790","0.0-3.0-0.60-0.60","<span style= ""font-size:30px; font-family: monospace"">+</span>","null","fixation","","","","",""
"","593","html-keyboard-response","90","544634","0.0-3.0-1.60","<span style=""font-size:30px; font-family: monospace"">Ele</span>"," ","","exp-sent","Ele","","",""
"","453","html-keyboard-response","91","545338","0.0-3.0-1.61","<span style=""font-size:30px; font-family: monospace"">teve</span>"," ","","exp-sent","teve","","",""
"","325","html-keyboard-response","92","545914","0.0-3.0-1.62","<span style=""font-size:30px; font-family: monospace"">um</span>"," ","","exp-sent","um","","",""
"","388","html-keyboard-response","93","546554","0.0-3.0-1.63","<span style=""font-size:30px; font-family: monospace"">sono</span>"," ","","exp-sent","sono","","",""
"","549","html-keyboard-response","94","547354","0.0-3.0-1.64","<span style=""font-size:30px; font-family: monospace"">bizarro</span>"," ","","exp-sent","bizarro","","",""
"","389","html-keyboard-response","95","547994","0.0-3.0-1.65","<span style=""font-size:30px; font-family: monospace"">sem</span>"," ","","exp-sent","sem","","",""
"","374","html-keyboard-response","96","548618","0.0-3.0-1.66","<span style=""font-size:30px; font-family: monospace"">nenhum</span>"," ","","exp-sent","nenhum","","",""
"","326","html-keyboard-response","97","549194","0.0-3.0-1.67","<span style=""font-size:30px; font-family: monospace"">motivo.</span>"," ","","exp-sent","motivo.","","",""
"","null","html-keyboard-response","98","550466","0.0-3.0-0.68-0.68","<span style= ""font-size:30px; font-family: monospace"">+</span>","null","fixation","","","","",""
"","1086","html-keyboard-response","99","551802","0.0-3.0-1.68","<span style=""font-size:30px; font-family: monospace"">A</span>"," ","","exp-sent","A","","",""
"","11781","html-keyboard-response","100","563835","0.0-3.0-1.69","<span style=""font-size:30px; font-family: monospace"">moça</span>"," ","","exp-sent","moça","","",""
"","405","html-keyboard-response","101","564490","0.0-3.0-1.70","<span style=""font-size:30px; font-family: monospace"">comprou</span>"," ","","exp-sent","comprou","","",""
"","324","html-keyboard-response","102","565067","0.0-3.0-1.71","<span style=""font-size:30px; font-family: monospace"">um</span>"," ","","exp-sent","um","","",""
"","532","html-keyboard-response","103","565851","0.0-3.0-1.72","<span style=""font-size:30px; font-family: monospace"">diamante</span>"," ","","exp-sent","diamante","","",""
"","404","html-keyboard-response","104","566506","0.0-3.0-1.73","<span style=""font-size:30px; font-family: monospace"">para</span>"," ","","exp-sent","para","","",""
"","373","html-keyboard-response","105","567131","0.0-3.0-1.74","<span style=""font-size:30px; font-family: monospace"">sua</span>"," ","","exp-sent","sua","","",""
"","261","html-keyboard-response","106","567642","0.0-3.0-1.75","<span style=""font-size:30px; font-family: monospace"">prima.</span>"," ","","comp","prima.","","",""
"","59061","html-keyboard-response","107","626954","0.0-3.0-2.75-0.75","<span style=""font-size:30px; font-family: monospace"">A moça comprou um diamante?</span>","n","","comp","","A moça comprou um diamante?","sim","false"
"","null","html-keyboard-response","108","628456","0.0-3.0-0.76-0.76","<span style= ""font-size:30px; font-family: monospace"">+</span>","null","fixation","","","","",""
"","1046","html-keyboard-response","109","629754","0.0-3.0-1.76","<span style=""font-size:30px; font-family: monospace"">O</span>"," ","","exp-sent","O","","",""
"","1268","html-keyboard-response","110","631274","0.0-3.0-1.77","<span style=""font-size:30px; font-family: monospace"">travesseiro</span>"," ","","exp-sent","travesseiro","","",""
"","1126","html-keyboard-response","111","632650","0.0-3.0-1.78","<span style=""font-size:30px; font-family: monospace"">era</span>"," ","","exp-sent","era","","",""
"","853","html-keyboard-response","112","633754","0.0-3.0-1.79","<span style=""font-size:30px; font-family: monospace"">muito</span>"," ","","exp-sent","muito","","",""
"","1429","html-keyboard-response","113","635434","0.0-3.0-1.80","<span style=""font-size:30px; font-family: monospace"">macio</span>"," ","","exp-sent","macio","","",""
"","869","html-keyboard-response","114","636554","0.0-3.0-1.81","<span style=""font-size:30px; font-family: monospace"">e</span>"," ","","exp-sent","e","","",""
"","1253","html-keyboard-response","115","638058","0.0-3.0-1.82","<span style=""font-size:30px; font-family: monospace"">confortável.</span>"," ","","exp-sent","confortável.","","",""
"","null","html-keyboard-response","116","639309","0.0-3.0-0.83-0.83","<span style= ""font-size:30px; font-family: monospace"">+</span>","null","fixation","","","","",""
"","1042","html-keyboard-response","117","640602","0.0-3.0-1.83","<span style=""font-size:30px; font-family: monospace"">Hoje</span>"," ","","exp-sent","Hoje","","",""
"","981","html-keyboard-response","118","641834","0.0-3.0-1.84","<span style=""font-size:30px; font-family: monospace"">a</span>"," ","","exp-sent","a","","",""
"","1285","html-keyboard-response","119","643370","0.0-3.0-1.85","<span style=""font-size:30px; font-family: monospace"">atendente</span>"," ","","exp-sent","atendente","","",""
"","1029","html-keyboard-response","120","644650","0.0-3.0-1.86","<span style=""font-size:30px; font-family: monospace"">estava</span>"," ","","exp-sent","estava","","",""
"","1428","html-keyboard-response","121","646330","0.0-3.0-1.87","<span style=""font-size:30px; font-family: monospace"">furiosa</span>"," ","","exp-sent","furiosa","","",""
"","853","html-keyboard-response","122","647434","0.0-3.0-1.88","<span style=""font-size:30px; font-family: monospace"">com</span>"," ","","exp-sent","com","","",""
"","917","html-keyboard-response","123","648602","0.0-3.0-1.89","<span style=""font-size:30px; font-family: monospace"">o</span>"," ","","exp-sent","o","","",""
"","1093","html-keyboard-response","124","649946","0.0-3.0-1.90","<span style=""font-size:30px; font-family: monospace"">cliente.</span>"," ","","exp-sent","cliente.","","",""
"","null","html-keyboard-response","125","651197","0.0-3.0-0.91-0.91","<span style= ""font-size:30px; font-family: monospace"">+</span>","null","fixation","","","","",""
"","705","html-keyboard-response","126","652153","0.0-3.0-1.91","<span style=""font-size:30px; font-family: monospace"">O</span>"," ","","exp-sent","O","","",""
"","981","html-keyboard-response","127","653386","0.0-3.0-1.92","<span style=""font-size:30px; font-family: monospace"">vizinho</span>"," ","","exp-sent","vizinho","","",""
"","821","html-keyboard-response","128","654458","0.0-3.0-1.93","<span style=""font-size:30px; font-family: monospace"">é</span>"," ","","exp-sent","é","","",""
"","837","html-keyboard-response","129","655546","0.0-3.0-1.94","<span style=""font-size:30px; font-family: monospace"">um</span>"," ","","exp-sent","um","","",""
"","1381","html-keyboard-response","130","657178","0.0-3.0-1.95","<span style=""font-size:30px; font-family: monospace"">arquiteto</span>"," ","","exp-sent","arquiteto","","",""
"","917","html-keyboard-response","131","658345","0.0-3.0-1.96","<span style=""font-size:30px; font-family: monospace"">muito</span>"," ","","exp-sent","muito","","",""
"","1429","html-keyboard-response","132","660025","0.0-3.0-1.97","<span style=""font-size:30px; font-family: monospace"">excêntrico.</span>"," ","","exp-sent","excêntrico.","","",""
"","null","html-keyboard-response","133","661277","0.0-3.0-0.98-0.98","<span style= ""font-size:30px; font-family: monospace"">+</span>","null","fixation","","","","",""
"","753","html-keyboard-response","134","662281","0.0-3.0-1.98","<span style=""font-size:30px; font-family: monospace"">A</span>"," ","","exp-sent","A","","",""
"","1093","html-keyboard-response","135","663625","0.0-3.0-1.99","<span style=""font-size:30px; font-family: monospace"">nossa</span>"," ","","exp-sent","nossa","","",""
"","1093","html-keyboard-response","136","664969","0.0-3.0-1.100","<span style=""font-size:30px; font-family: monospace"">colega</span>"," ","","exp-sent","colega","","",""
"","1124","html-keyboard-response","137","666345","0.0-3.0-1.101","<span style=""font-size:30px; font-family: monospace"">foi</span>"," ","","exp-sent","foi","","",""
"","69574","html-keyboard-response","138","736170","0.0-3.0-1.102","<span style=""font-size:30px; font-family: monospace"">má</span>"," ","","exp-sent","má","","",""
"","567","html-keyboard-response","139","737000","0.0-3.0-1.103","<span style=""font-size:30px; font-family: monospace"">com</span>"," ","","exp-sent","com","","",""
"","484","html-keyboard-response","140","737737","0.0-3.0-1.104","<span style=""font-size:30px; font-family: monospace"">as</span>"," ","","exp-sent","as","","",""
"","2149","html-keyboard-response","141","740136","0.0-3.0-1.105","<span style=""font-size:30px; font-family: monospace"">crianças.</span>"," ","","exp-sent","crianças.","","",""
"","null","html-keyboard-response","142","741388","0.0-3.0-0.106-0.106","<span style= ""font-size:30px; font-family: monospace"">+</span>","null","fixation","","","","",""
"","769","html-keyboard-response","143","742408","0.0-3.0-1.106","<span style=""font-size:30px; font-family: monospace"">Virtudes</span>"," ","","exp-sent","Virtudes","","",""
"","469","html-keyboard-response","144","743128","0.0-3.0-1.107","<span style=""font-size:30px; font-family: monospace"">não</span>"," ","","exp-sent","não","","",""
"","548","html-keyboard-response","145","743928","0.0-3.0-1.108","<span style=""font-size:30px; font-family: monospace"">são</span>"," ","","exp-sent","são","","",""
"","645","html-keyboard-response","146","744824","0.0-3.0-1.109","<span style=""font-size:30px; font-family: monospace"">preguiça,</span>"," ","","exp-sent","preguiça,","","",""
"","534","html-keyboard-response","147","745608","0.0-3.0-1.110","<span style=""font-size:30px; font-family: monospace"">gula</span>"," ","","exp-sent","gula","","",""
"","390","html-keyboard-response","148","746248","0.0-3.0-1.111","<span style=""font-size:30px; font-family: monospace"">nem</span>"," ","","exp-sent","nem","","",""
"","436","html-keyboard-response","149","746936","0.0-3.0-1.112","<span style=""font-size:30px; font-family: monospace"">ganância.</span>"," ","","comp","ganância.","","",""
"","5189","html-keyboard-response","150","752376","0.0-3.0-2.112-0.112","<span style=""font-size:30px; font-family: monospace"">Preguiça é uma virtude?</span>","s","","comp","","Preguiça é uma virtude?","não","false"
"","null","html-keyboard-response","151","753890","0.0-3.0-0.113-0.113","<span style= ""font-size:30px; font-family: monospace"">+</span>","null","fixation","","","","",""
"","523","html-keyboard-response","152","754664","0.0-3.0-1.113","<span style=""font-size:30px; font-family: monospace"">A</span>"," ","","exp-sent","A","","",""
"","565","html-keyboard-response","153","755480","0.0-3.0-1.114","<span style=""font-size:30px; font-family: monospace"">motorista</span>"," ","","exp-sent","motorista","","",""
"","436","html-keyboard-response","154","756168","0.0-3.0-1.115","<span style=""font-size:30px; font-family: monospace"">fez</span>"," ","","exp-sent","fez","","",""
"","437","html-keyboard-response","155","756857","0.0-3.0-1.116","<span style=""font-size:30px; font-family: monospace"">o</span>"," ","","exp-sent","o","","",""
"","516","html-keyboard-response","156","757624","0.0-3.0-1.117","<span style=""font-size:30px; font-family: monospace"">retorno</span>"," ","","exp-sent","retorno","","",""
"","453","html-keyboard-response","157","758328","0.0-3.0-1.118","<span style=""font-size:30px; font-family: monospace"">com</span>"," ","","exp-sent","com","","",""
"","566","html-keyboard-response","158","759144","0.0-3.0-1.119","<span style=""font-size:30px; font-family: monospace"">cuidado.</span>"," ","","exp-sent","cuidado.","","",""
"","null","html-keyboard-response","159","760396","0.0-3.0-0.120-0.120","<span style= ""font-size:30px; font-family: monospace"">+</span>","null","fixation","","","","",""
"","1809","html-keyboard-response","160","762456","0.0-3.0-1.120","<span style=""font-size:30px; font-family: monospace"">Contos</span>"," ","","exp-sent","Contos","","",""
"","405","html-keyboard-response","161","763112","0.0-3.0-1.121","<span style=""font-size:30px; font-family: monospace"">de</span>"," ","","exp-sent","de","","",""
"","420","html-keyboard-response","162","763784","0.0-3.0-1.122","<span style=""font-size:30px; font-family: monospace"">ação</span>"," ","","exp-sent","ação","","",""
"","261","html-keyboard-response","163","764297","0.0-3.0-1.123","<span style=""font-size:30px; font-family: monospace"">têm</span>"," ","","exp-sent","têm","","",""
"","341","html-keyboard-response","164","764888","0.0-3.0-1.124","<span style=""font-size:30px; font-family: monospace"">chantagem</span>"," ","","exp-sent","chantagem","","",""
"","453","html-keyboard-response","165","765592","0.0-3.0-1.125","<span style=""font-size:30px; font-family: monospace"">e</span>"," ","","exp-sent","e","","",""
"","485","html-keyboard-response","166","766328","0.0-3.0-1.126","<span style=""font-size:30px; font-family: monospace"">muita</span>"," ","","exp-sent","muita","","",""
"","293","html-keyboard-response","167","766872","0.0-3.0-1.127","<span style=""font-size:30px; font-family: monospace"">luta.</span>"," ","","exp-sent","luta.","","",""
"","null","html-keyboard-response","168","768124","0.0-3.0-0.128-0.128","<span style= ""font-size:30px; font-family: monospace"">+</span>","null","fixation","","","","",""
"","401","html-keyboard-response","169","768776","0.0-3.0-1.128","<span style=""font-size:30px; font-family: monospace"">A</span>"," ","","exp-sent","A","","",""
"","277","html-keyboard-response","170","769304","0.0-3.0-1.129","<span style=""font-size:30px; font-family: monospace"">bisavó</span>"," ","","exp-sent","bisavó","","",""
"","278","html-keyboard-response","171","769832","0.0-3.0-1.130","<span style=""font-size:30px; font-family: monospace"">recebeu</span>"," ","","exp-sent","recebeu","","",""
"","309","html-keyboard-response","172","770392","0.0-3.0-1.131","<span style=""font-size:30px; font-family: monospace"">um</span>"," ","","exp-sent","um","","",""
"","565","html-keyboard-response","173","771208","0.0-3.0-1.132","<span style=""font-size:30px; font-family: monospace"">benefício</span>"," ","","exp-sent","benefício","","",""
"","340","html-keyboard-response","174","771800","0.0-3.0-1.133","<span style=""font-size:30px; font-family: monospace"">temporário</span>"," ","","exp-sent","temporário","","",""
"","404","html-keyboard-response","175","772456","0.0-3.0-1.134","<span style=""font-size:30px; font-family: monospace"">do</span>"," ","","exp-sent","do","","",""
"","501","html-keyboard-response","176","773208","0.0-3.0-1.135","<span style=""font-size:30px; font-family: monospace"">governo.</span>"," ","","exp-sent","governo.","","",""
"","null","html-keyboard-response","177","774460","0.0-3.0-0.136-0.136","<span style= ""font-size:30px; font-family: monospace"">+</span>","null","fixation","","","","",""
"","522","html-keyboard-response","178","775240","0.0-3.0-1.136","<span style=""font-size:30px; font-family: monospace"">As</span>"," ","","exp-sent","As","","",""
"","53301","html-keyboard-response","179","828792","0.0-3.0-1.137","<span style=""font-size:30px; font-family: monospace"">crianças</span>"," ","","exp-sent","crianças","","",""
"","452","html-keyboard-response","180","829496","0.0-3.0-1.138","<span style=""font-size:30px; font-family: monospace"">brincaram</span>"," ","","exp-sent","brincaram","","",""
"","357","html-keyboard-response","181","830103","0.0-3.0-1.139","<span style=""font-size:30px; font-family: monospace"">no</span>"," ","","exp-sent","no","","",""
"","388","html-keyboard-response","182","830743","0.0-3.0-1.140","<span style=""font-size:30px; font-family: monospace"">balanço</span>"," ","","exp-sent","balanço","","",""
"","277","html-keyboard-response","183","831271","0.0-3.0-1.141","<span style=""font-size:30px; font-family: monospace"">a</span>"," ","","exp-sent","a","","",""
"","277","html-keyboard-response","184","831800","0.0-3.0-1.142","<span style=""font-size:30px; font-family: monospace"">tarde</span>"," ","","exp-sent","tarde","","",""
"","261","html-keyboard-response","185","832312","0.0-3.0-1.143","<span style=""font-size:30px; font-family: monospace"">toda.</span>"," ","","exp-sent","toda.","","",""
"","null","html-keyboard-response","186","833564","0.0-3.0-0.144-0.144","<span style= ""font-size:30px; font-family: monospace"">+</span>","null","fixation","","","","",""
"","657","html-keyboard-response","187","834471","0.0-3.0-1.144","<span style=""font-size:30px; font-family: monospace"">Ela</span>"," ","","exp-sent","Ela","","",""
"","293","html-keyboard-response","188","835016","0.0-3.0-1.145","<span style=""font-size:30px; font-family: monospace"">gosta</span>"," ","","exp-sent","gosta","","",""
"","213","html-keyboard-response","189","835479","0.0-3.0-1.146","<span style=""font-size:30px; font-family: monospace"">de</span>"," ","","exp-sent","de","","",""
"","198","html-keyboard-response","190","835928","0.0-3.0-1.147","<span style=""font-size:30px; font-family: monospace"">comida</span>"," ","","exp-sent","comida","","",""
"","213","html-keyboard-response","191","836391","0.0-3.0-1.148","<span style=""font-size:30px; font-family: monospace"">natural</span>"," ","","exp-sent","natural","","",""
"","261","html-keyboard-response","192","836903","0.0-3.0-1.149","<span style=""font-size:30px; font-family: monospace"">no</span>"," ","","exp-sent","no","","",""
"","278","html-keyboard-response","193","837432","0.0-3.0-1.150","<span style=""font-size:30px; font-family: monospace"">almoço.</span>"," ","","comp","almoço.","","",""
"","24725","html-keyboard-response","194","862407","0.0-3.0-2.150-0.150","<span style=""font-size:30px; font-family: monospace"">Ela gosta de comida natural no almoço?</span>","n","","comp","","Ela gosta de comida natural no almoço?","sim","false"
"","null","html-keyboard-response","195","863908","0.0-3.0-0.151-0.151","<span style= ""font-size:30px; font-family: monospace"">+</span>","null","fixation","","","","",""
"","223","html-keyboard-response","196","864391","0.0-3.0-1.151","<span style=""font-size:30px; font-family: monospace"">As</span>"," ","","exp-sent","As","","",""
"","390","html-keyboard-response","197","865031","0.0-3.0-1.152","<span style=""font-size:30px; font-family: monospace"">crianças</span>"," ","","exp-sent","crianças","","",""
"","277","html-keyboard-response","198","865559","0.0-3.0-1.153","<span style=""font-size:30px; font-family: monospace"">viram</span>"," ","","exp-sent","viram","","",""
"","181","html-keyboard-response","199","865991","0.0-3.0-1.154","<span style=""font-size:30px; font-family: monospace"">um</span>"," ","","exp-sent","um","","",""
"","197","html-keyboard-response","200","866439","0.0-3.0-1.155","<span style=""font-size:30px; font-family: monospace"">vaga-lume</span>"," ","","exp-sent","vaga-lume","","",""
"","373","html-keyboard-response","201","867063","0.0-3.0-1.156","<span style=""font-size:30px; font-family: monospace"">nos</span>"," ","","exp-sent","nos","","",""
"","246","html-keyboard-response","202","867559","0.0-3.0-1.157","<span style=""font-size:30px; font-family: monospace"">arbustos.</span>"," ","","exp-sent","arbustos.","","",""
"","null","html-keyboard-response","203","868810","0.0-3.0-0.158-0.158","<span style= ""font-size:30px; font-family: monospace"">+</span>","null","fixation","","","","",""
"","290","html-keyboard-response","204","869351","0.0-3.0-1.158","<span style=""font-size:30px; font-family: monospace"">Ontem</span>"," ","","exp-sent","Ontem","","",""
"","309","html-keyboard-response","205","869911","0.0-3.0-1.159","<span style=""font-size:30px; font-family: monospace"">o</span>"," ","","exp-sent","o","","",""
"","262","html-keyboard-response","206","870423","0.0-3.0-1.160","<span style=""font-size:30px; font-family: monospace"">funcionário</span>"," ","","exp-sent","funcionário","","",""
"","293","html-keyboard-response","207","870967","0.0-3.0-1.161","<span style=""font-size:30px; font-family: monospace"">pediu</span>"," ","","exp-sent","pediu","","",""
"","293","html-keyboard-response","208","871511","0.0-3.0-1.162","<span style=""font-size:30px; font-family: monospace"">autorização</span>"," ","","exp-sent","autorização","","",""
"","437","html-keyboard-response","209","872199","0.0-3.0-1.163","<span style=""font-size:30px; font-family: monospace"">para</span>"," ","","exp-sent","para","","",""
"","420","html-keyboard-response","210","872871","0.0-3.0-1.164","<span style=""font-size:30px; font-family: monospace"">a</span>"," ","","exp-sent","a","","",""
"","1158","html-keyboard-response","211","874279","0.0-3.0-1.165","<span style=""font-size:30px; font-family: monospace"">colega.</span>"," ","","exp-sent","colega.","","",""
"","null","html-keyboard-response","212","875536","0.0-3.0-0.166-0.166","<span style= ""font-size:30px; font-family: monospace"">+</span>","null","fixation","","","","",""
"","571","html-keyboard-response","213","876359","0.0-3.0-1.166","<span style=""font-size:30px; font-family: monospace"">Eu</span>"," ","","exp-sent","Eu","","",""
"","324","html-keyboard-response","214","876935","0.0-3.0-1.167","<span style=""font-size:30px; font-family: monospace"">sempre</span>"," ","","exp-sent","sempre","","",""
"","293","html-keyboard-response","215","877479","0.0-3.0-1.168","<span style=""font-size:30px; font-family: monospace"">fujo</span>"," ","","exp-sent","fujo","","",""
"","358","html-keyboard-response","216","878087","0.0-3.0-1.169","<span style=""font-size:30px; font-family: monospace"">de</span>"," ","","exp-sent","de","","",""
"","357","html-keyboard-response","217","878695","0.0-3.0-1.170","<span style=""font-size:30px; font-family: monospace"">conflito</span>"," ","","exp-sent","conflito","","",""
"","341","html-keyboard-response","218","879287","0.0-3.0-1.171","<span style=""font-size:30px; font-family: monospace"">com</span>"," ","","exp-sent","com","","",""
"","421","html-keyboard-response","219","879959","0.0-3.0-1.172","<span style=""font-size:30px; font-family: monospace"">as</span>"," ","","exp-sent","as","","",""
"","789","html-keyboard-response","220","880999","0.0-3.0-1.173","<span style=""font-size:30px; font-family: monospace"">pessoas.</span>"," ","","exp-sent","pessoas.","","",""
"","null","html-keyboard-response","221","882252","0.0-3.0-0.174-0.174","<span style= ""font-size:30px; font-family: monospace"">+</span>","null","fixation","","","","",""
"","1071","html-keyboard-response","222","883575","0.0-3.0-1.174","<span style=""font-size:30px; font-family: monospace"">O</span>"," ","","exp-sent","O","","",""
"","724","html-keyboard-response","223","884551","0.0-3.0-1.175","<span style=""font-size:30px; font-family: monospace"">bolo</span>"," ","","exp-sent","bolo","","",""
"","4037","html-keyboard-response","224","888839","0.0-3.0-1.176","<span style=""font-size:30px; font-family: monospace"">era</span>"," ","","exp-sent","era","","",""
"","371","html-keyboard-response","225","889463","0.0-3.0-1.177","<span style=""font-size:30px; font-family: monospace"">de</span>"," ","","exp-sent","de","","",""
"","644","html-keyboard-response","226","890359","0.0-3.0-1.178","<span style=""font-size:30px; font-family: monospace"">abacaxi</span>"," ","","exp-sent","abacaxi","","",""
"","342","html-keyboard-response","227","890951","0.0-3.0-1.179","<span style=""font-size:30px; font-family: monospace"">e</span>"," ","","exp-sent","e","","",""
"","548","html-keyboard-response","228","891751","0.0-3.0-1.180","<span style=""font-size:30px; font-family: monospace"">creme</span>"," ","","exp-sent","creme","","",""
"","389","html-keyboard-response","229","892391","0.0-3.0-1.181","<span style=""font-size:30px; font-family: monospace"">de</span>"," ","","exp-sent","de","","",""
"","564","html-keyboard-response","230","893207","0.0-3.0-1.182","<span style=""font-size:30px; font-family: monospace"">coco.</span>"," ","","exp-sent","coco.","","",""
"","null","html-keyboard-response","231","894459","0.0-3.0-0.183-0.183","<span style= ""font-size:30px; font-family: monospace"">+</span>","null","fixation","","","","",""
"","784","html-keyboard-response","232","895495","0.0-3.0-1.183","<span style=""font-size:30px; font-family: monospace"">As</span>"," ","","exp-sent","As","","",""
"","629","html-keyboard-response","233","896375","0.0-3.0-1.184","<span style=""font-size:30px; font-family: monospace"">crianças</span>"," ","","exp-sent","crianças","","",""
"","1157","html-keyboard-response","234","897783","0.0-3.0-1.185","<span style=""font-size:30px; font-family: monospace"">brincaram</span>"," ","","exp-sent","brincaram","","",""
"","453","html-keyboard-response","235","898486","0.0-3.0-1.186","<span style=""font-size:30px; font-family: monospace"">com</span>"," ","","exp-sent","com","","",""
"","1172","html-keyboard-response","236","899910","0.0-3.0-1.187","<span style=""font-size:30px; font-family: monospace"">bolhas</span>"," ","","exp-sent","bolhas","","",""
"","389","html-keyboard-response","237","900550","0.0-3.0-1.188","<span style=""font-size:30px; font-family: monospace"">no</span>"," ","","exp-sent","no","","",""
"","901","html-keyboard-response","238","901702","0.0-3.0-1.189","<span style=""font-size:30px; font-family: monospace"">banho.</span>"," ","","comp","banho.","","",""
"","8054","html-keyboard-response","239","910007","0.0-3.0-2.189-0.189","<span style=""font-size:30px; font-family: monospace"">As crianças brincaram com bolhas?</span>","s","","comp","","As crianças brincaram com bolhas?","sim","false"
"","null","html-keyboard-response","240","911507","0.0-3.0-0.190-0.190","<span style= ""font-size:30px; font-family: monospace"">+</span>","null","fixation","","","","",""
"","104","html-keyboard-response","241","911862","0.0-3.0-1.190","<span style=""font-size:30px; font-family: monospace"">O</span>"," ","","exp-sent","O","","",""
"","229","html-keyboard-response","242","912342","0.0-3.0-1.191","<span style=""font-size:30px; font-family: monospace"">texto</span>"," ","","exp-sent","texto","","",""
"","5","html-keyboard-response","243","912598","0.0-3.0-1.192","<span style=""font-size:30px; font-family: monospace"">trazia</span>"," ","","exp-sent","trazia","","",""
"","133","html-keyboard-response","244","912982","0.0-3.0-1.193","<span style=""font-size:30px; font-family: monospace"">um</span>"," ","","exp-sent","um","","",""
"","101","html-keyboard-response","245","913334","0.0-3.0-1.194","<span style=""font-size:30px; font-family: monospace"">argumento</span>"," ","","exp-sent","argumento","","",""
"","245","html-keyboard-response","246","913830","0.0-3.0-1.195","<span style=""font-size:30px; font-family: monospace"">central</span>"," ","","exp-sent","central","","",""
"","214","html-keyboard-response","247","914294","0.0-3.0-1.196","<span style=""font-size:30px; font-family: monospace"">para</span>"," ","","exp-sent","para","","",""
"","421","html-keyboard-response","248","914966","0.0-3.0-1.197","<span style=""font-size:30px; font-family: monospace"">a</span>"," ","","exp-sent","a","","",""
"","421","html-keyboard-response","249","915638","0.0-3.0-1.198","<span style=""font-size:30px; font-family: monospace"">conversa.</span>"," ","","exp-sent","conversa.","","",""
"","null","html-keyboard-response","250","916891","0.0-3.0-0.199-0.199","<span style= ""font-size:30px; font-family: monospace"">+</span>","null","fixation","","","","",""
"","480","html-keyboard-response","251","917622","0.0-3.0-1.199","<span style=""font-size:30px; font-family: monospace"">Ontem</span>"," ","","exp-sent","Ontem","","",""
"","326","html-keyboard-response","252","918198","0.0-3.0-1.200","<span style=""font-size:30px; font-family: monospace"">a</span>"," ","","exp-sent","a","","",""
"","325","html-keyboard-response","253","918774","0.0-3.0-1.201","<span style=""font-size:30px; font-family: monospace"">temperatura</span>"," ","","exp-sent","temperatura","","",""
"","309","html-keyboard-response","254","919334","0.0-3.0-1.202","<span style=""font-size:30px; font-family: monospace"">estava</span>"," ","","exp-sent","estava","","",""
"","325","html-keyboard-response","255","919910","0.0-3.0-1.203","<span style=""font-size:30px; font-family: monospace"">amena</span>"," ","","exp-sent","amena","","",""
"","486","html-keyboard-response","256","920646","0.0-3.0-1.204","<span style=""font-size:30px; font-family: monospace"">durante</span>"," ","","exp-sent","durante","","",""
"","437","html-keyboard-response","257","921334","0.0-3.0-1.205","<span style=""font-size:30px; font-family: monospace"">o</span>"," ","","exp-sent","o","","",""
"","405","html-keyboard-response","258","921990","0.0-3.0-1.206","<span style=""font-size:30px; font-family: monospace"">dia.</span>"," ","","exp-sent","dia.","","",""
"","null","html-keyboard-response","259","923242","0.0-3.0-0.207-0.207","<span style= ""font-size:30px; font-family: monospace"">+</span>","null","fixation","","","","",""
"","656","html-keyboard-response","260","924150","0.0-3.0-1.207","<span style=""font-size:30px; font-family: monospace"">Havia</span>"," ","","exp-sent","Havia","","",""
"","405","html-keyboard-response","261","924806","0.0-3.0-1.208","<span style=""font-size:30px; font-family: monospace"">um</span>"," ","","exp-sent","um","","",""
"","789","html-keyboard-response","262","925846","0.0-3.0-1.209","<span style=""font-size:30px; font-family: monospace"">machucado</span>"," ","","exp-sent","machucado","","",""
"","261","html-keyboard-response","263","926358","0.0-3.0-1.210","<span style=""font-size:30px; font-family: monospace"">no</span>"," ","","exp-sent","no","","",""
"","309","html-keyboard-response","264","926918","0.0-3.0-1.211","<span style=""font-size:30px; font-family: monospace"">dedo</span>"," ","","exp-sent","dedo","","",""
"","261","html-keyboard-response","265","927430","0.0-3.0-1.212","<span style=""font-size:30px; font-family: monospace"">da</span>"," ","","exp-sent","da","","",""
"","741","html-keyboard-response","266","928422","0.0-3.0-1.213","<span style=""font-size:30px; font-family: monospace"">criança.</span>"," ","","exp-sent","criança.","","",""
"","null","html-keyboard-response","267","929674","0.0-3.0-0.214-0.214","<span style= ""font-size:30px; font-family: monospace"">+</span>","null","fixation","","","","",""
"","529","html-keyboard-response","268","930454","0.0-3.0-1.214","<span style=""font-size:30px; font-family: monospace"">A</span>"," ","","exp-sent","A","","",""
"","469","html-keyboard-response","269","931174","0.0-3.0-1.215","<span style=""font-size:30px; font-family: monospace"">borboleta</span>"," ","","exp-sent","borboleta","","",""
"","469","html-keyboard-response","270","931894","0.0-3.0-1.216","<span style=""font-size:30px; font-family: monospace"">pousou</span>"," ","","exp-sent","pousou","","",""
"","341","html-keyboard-response","271","932486","0.0-3.0-1.217","<span style=""font-size:30px; font-family: monospace"">no</span>"," ","","exp-sent","no","","",""
"","420","html-keyboard-response","272","933158","0.0-3.0-1.218","<span style=""font-size:30px; font-family: monospace"">ombro</span>"," ","","exp-sent","ombro","","",""
"","340","html-keyboard-response","273","933750","0.0-3.0-1.219","<span style=""font-size:30px; font-family: monospace"">daquela</span>"," ","","exp-sent","daquela","","",""
"","501","html-keyboard-response","274","934502","0.0-3.0-1.220","<span style=""font-size:30px; font-family: monospace"">moça.</span>"," ","","exp-sent","moça.","","",""
"","null","html-keyboard-response","275","935754","0.0-3.0-0.221-0.221","<span style= ""font-size:30px; font-family: monospace"">+</span>","null","fixation","","","","",""
"","401","html-keyboard-response","276","936406","0.0-3.0-1.221","<span style=""font-size:30px; font-family: monospace"">Eu</span>"," ","","exp-sent","Eu","","",""
"","437","html-keyboard-response","277","937094","0.0-3.0-1.222","<span style=""font-size:30px; font-family: monospace"">quero</span>"," ","","exp-sent","quero","","",""
"","341","html-keyboard-response","278","937686","0.0-3.0-1.223","<span style=""font-size:30px; font-family: monospace"">um</span>"," ","","exp-sent","um","","",""
"","837","html-keyboard-response","279","938774","0.0-3.0-1.224","<span style=""font-size:30px; font-family: monospace"">namorado</span>"," ","","exp-sent","namorado","","",""
"","629","html-keyboard-response","280","939654","0.0-3.0-1.225","<span style=""font-size:30px; font-family: monospace"">honesto</span>"," ","","exp-sent","honesto","","",""
"","358","html-keyboard-response","281","940262","0.0-3.0-1.226","<span style=""font-size:30px; font-family: monospace"">e</span>"," ","","exp-sent","e","","",""
"","790","html-keyboard-response","282","941302","0.0-3.0-1.227","<span style=""font-size:30px; font-family: monospace"">compreensivo.</span>"," ","","comp","compreensivo.","","",""
"","4309","html-keyboard-response","283","945862","0.0-3.0-2.227-0.227","<span style=""font-size:30px; font-family: monospace"">Eu quero um namorado honesto?</span>","s","","comp","","Eu quero um namorado honesto?","sim","false"
"","null","html-keyboard-response","284","947364","0.0-3.0-0.228-0.228","<span style= ""font-size:30px; font-family: monospace"">+</span>","null","fixation","","","","",""
"","567","html-keyboard-response","285","948182","0.0-3.0-1.228","<span style=""font-size:30px; font-family: monospace"">Ganhamos</span>"," ","","exp-sent","Ganhamos","","",""
"","309","html-keyboard-response","286","948742","0.0-3.0-1.229","<span style=""font-size:30px; font-family: monospace"">passagem</span>"," ","","exp-sent","passagem","","",""
"","229","html-keyboard-response","287","949222","0.0-3.0-1.230","<span style=""font-size:30px; font-family: monospace"">para</span>"," ","","exp-sent","para","","",""
"","293","html-keyboard-response","288","949766","0.0-3.0-1.231","<span style=""font-size:30px; font-family: monospace"">uma</span>"," ","","exp-sent","uma","","",""
"","197","html-keyboard-response","289","950214","0.0-3.0-1.232","<span style=""font-size:30px; font-family: monospace"">viagem</span>"," ","","exp-sent","viagem","","",""
"","421","html-keyboard-response","290","950886","0.0-3.0-1.233","<span style=""font-size:30px; font-family: monospace"">de</span>"," ","","exp-sent","de","","",""
"","533","html-keyboard-response","291","951670","0.0-3.0-1.234","<span style=""font-size:30px; font-family: monospace"">férias.</span>"," ","","exp-sent","férias.","","",""
"","null","html-keyboard-response","292","952922","0.0-3.0-0.235-0.235","<span style= ""font-size:30px; font-family: monospace"">+</span>","null","fixation","","","","",""
"","49","html-keyboard-response","293","953222","0.0-3.0-1.235","<span style=""font-size:30px; font-family: monospace"">Caiu</span>"," ","","exp-sent","Caiu","","",""
"","390","html-keyboard-response","294","953862","0.0-3.0-1.236","<span style=""font-size:30px; font-family: monospace"">algo</span>"," ","","exp-sent","algo","","",""
"","389","html-keyboard-response","295","954502","0.0-3.0-1.237","<span style=""font-size:30px; font-family: monospace"">no</span>"," ","","exp-sent","no","","",""
"","309","html-keyboard-response","296","955062","0.0-3.0-1.238","<span style=""font-size:30px; font-family: monospace"">meu</span>"," ","","exp-sent","meu","","",""
"","308","html-keyboard-response","297","955622","0.0-3.0-1.239","<span style=""font-size:30px; font-family: monospace"">olho</span>"," ","","exp-sent","olho","","",""
"","277","html-keyboard-response","298","956150","0.0-3.0-1.240","<span style=""font-size:30px; font-family: monospace"">ontem</span>"," ","","exp-sent","ontem","","",""
"","293","html-keyboard-response","299","956694","0.0-3.0-1.241","<span style=""font-size:30px; font-family: monospace"">de</span>"," ","","exp-sent","de","","",""
"","341","html-keyboard-response","300","957286","0.0-3.0-1.242","<span style=""font-size:30px; font-family: monospace"">tarde.</span>"," ","","exp-sent","tarde.","","",""
"","null","html-keyboard-response","301","958537","0.0-3.0-0.243-0.243","<span style= ""font-size:30px; font-family: monospace"">+</span>","null","fixation","","","","",""
"","608","html-keyboard-response","302","959397","0.0-3.0-1.243","<span style=""font-size:30px; font-family: monospace"">Não</span>"," ","","exp-sent","Não","","",""
"","436","html-keyboard-response","303","960085","0.0-3.0-1.244","<span style=""font-size:30px; font-family: monospace"">havia</span>"," ","","exp-sent","havia","","",""
"","341","html-keyboard-response","304","960678","0.0-3.0-1.245","<span style=""font-size:30px; font-family: monospace"">mais</span>"," ","","exp-sent","mais","","",""
"","357","html-keyboard-response","305","961286","0.0-3.0-1.246","<span style=""font-size:30px; font-family: monospace"">nenhum</span>"," ","","exp-sent","nenhum","","",""
"","485","html-keyboard-response","306","962022","0.0-3.0-1.247","<span style=""font-size:30px; font-family: monospace"">ingresso</span>"," ","","exp-sent","ingresso","","",""
"","421","html-keyboard-response","307","962693","0.0-3.0-1.248","<span style=""font-size:30px; font-family: monospace"">para</span>"," ","","exp-sent","para","","",""
"","405","html-keyboard-response","308","963350","0.0-3.0-1.249","<span style=""font-size:30px; font-family: monospace"">o</span>"," ","","exp-sent","o","","",""
"","453","html-keyboard-response","309","964054","0.0-3.0-1.250","<span style=""font-size:30px; font-family: monospace"">evento.</span>"," ","","exp-sent","evento.","","",""
"","null","html-keyboard-response","310","965305","0.0-3.0-0.251-0.251","<span style= ""font-size:30px; font-family: monospace"">+</span>","null","fixation","","","","",""
"","785","html-keyboard-response","311","966342","0.0-3.0-1.251","<span style=""font-size:30px; font-family: monospace"">A</span>"," ","","exp-sent","A","","",""
"","420","html-keyboard-response","312","967013","0.0-3.0-1.252","<span style=""font-size:30px; font-family: monospace"">médica</span>"," ","","exp-sent","médica","","",""
"","821","html-keyboard-response","313","968085","0.0-3.0-1.253","<span style=""font-size:30px; font-family: monospace"">descobriu</span>"," ","","exp-sent","descobriu","","",""
"","533","html-keyboard-response","314","968869","0.0-3.0-1.254","<span style=""font-size:30px; font-family: monospace"">uma</span>"," ","","exp-sent","uma","","",""
"","436","html-keyboard-response","315","969557","0.0-3.0-1.255","<span style=""font-size:30px; font-family: monospace"">cura</span>"," ","","exp-sent","cura","","",""
"","453","html-keyboard-response","316","970261","0.0-3.0-1.256","<span style=""font-size:30px; font-family: monospace"">para</span>"," ","","exp-sent","para","","",""
"","389","html-keyboard-response","317","970901","0.0-3.0-1.257","<span style=""font-size:30px; font-family: monospace"">a</span>"," ","","exp-sent","a","","",""
"","677","html-keyboard-response","318","971829","0.0-3.0-1.258","<span style=""font-size:30px; font-family: monospace"">doença.</span>"," ","","exp-sent","doença.","","",""
"","null","html-keyboard-response","319","973081","0.0-3.0-0.259-0.259","<span style= ""font-size:30px; font-family: monospace"">+</span>","null","fixation","","","","",""
"","578","html-keyboard-response","320","973909","0.0-3.0-1.259","<span style=""font-size:30px; font-family: monospace"">O</span>"," ","","exp-sent","O","","",""
"","517","html-keyboard-response","321","974677","0.0-3.0-1.260","<span style=""font-size:30px; font-family: monospace"">menino</span>"," ","","exp-sent","menino","","",""
"","582","html-keyboard-response","322","975509","0.0-3.0-1.261","<span style=""font-size:30px; font-family: monospace"">riscou</span>"," ","","exp-sent","riscou","","",""
"","340","html-keyboard-response","323","976101","0.0-3.0-1.262","<span style=""font-size:30px; font-family: monospace"">o</span>"," ","","exp-sent","o","","",""
"","597","html-keyboard-response","324","976949","0.0-3.0-1.263","<span style=""font-size:30px; font-family: monospace"">caderno</span>"," ","","exp-sent","caderno","","",""
"","502","html-keyboard-response","325","977702","0.0-3.0-1.264","<span style=""font-size:30px; font-family: monospace"">com</span>"," ","","exp-sent","com","","",""
"","565","html-keyboard-response","326","978517","0.0-3.0-1.265","<span style=""font-size:30px; font-family: monospace"">a</span>"," ","","exp-sent","a","","",""
"","708","html-keyboard-response","327","979477","0.0-3.0-1.266","<span style=""font-size:30px; font-family: monospace"">caneta.</span>"," ","","comp","caneta.","","",""
"","3142","html-keyboard-response","328","982870","0.0-3.0-2.266-0.266","<span style=""font-size:30px; font-family: monospace"">O menino riscou a parede com a caneta?</span>","s","","comp","","O menino riscou a parede com a caneta?","não","false"
"","null","html-keyboard-response","329","984371","0.0-3.0-0.267-0.267","<span style= ""font-size:30px; font-family: monospace"">+</span>","null","fixation","","","","",""
"","24615","html-keyboard-response","330","1009238","0.0-3.0-1.267","<span style=""font-size:30px; font-family: monospace"">A</span>"," ","","exp-sent","A","","",""
"","469","html-keyboard-response","331","1009957","0.0-3.0-1.268","<span style=""font-size:30px; font-family: monospace"">força</span>"," ","","exp-sent","força","","",""
"","213","html-keyboard-response","332","1010421","0.0-3.0-1.269","<span style=""font-size:30px; font-family: monospace"">d'água</span>"," ","","exp-sent","d'água","","",""
"","421","html-keyboard-response","333","1011093","0.0-3.0-1.270","<span style=""font-size:30px; font-family: monospace"">estava</span>"," ","","exp-sent","estava","","",""
"","197","html-keyboard-response","334","1011541","0.0-3.0-1.271","<span style=""font-size:30px; font-family: monospace"">normal</span>"," ","","exp-sent","normal","","",""
"","19157","html-keyboard-response","335","1030949","0.0-3.0-1.272","<span style=""font-size:30px; font-family: monospace"">naquele</span>"," ","","exp-sent","naquele","","",""
"","517","html-keyboard-response","336","1031717","0.0-3.0-1.273","<span style=""font-size:30px; font-family: monospace"">dia.</span>"," ","","exp-sent","dia.","","",""
"","null","html-keyboard-response","337","1032969","0.0-3.0-0.274-0.274","<span style= ""font-size:30px; font-family: monospace"">+</span>","null","fixation","","","","",""
"","112","html-keyboard-response","338","1033333","0.0-3.0-1.274","<span style=""font-size:30px; font-family: monospace"">A</span>"," ","","exp-sent","A","","",""
"","373","html-keyboard-response","339","1033957","0.0-3.0-1.275","<span style=""font-size:30px; font-family: monospace"">médica</span>"," ","","exp-sent","médica","","",""
"","245","html-keyboard-response","340","1034453","0.0-3.0-1.276","<span style=""font-size:30px; font-family: monospace"">ofereceu</span>"," ","","exp-sent","ofereceu","","",""
"","245","html-keyboard-response","341","1034949","0.0-3.0-1.277","<span style=""font-size:30px; font-family: monospace"">a</span>"," ","","exp-sent","a","","",""
"","293","html-keyboard-response","342","1035493","0.0-3.0-1.278","<span style=""font-size:30px; font-family: monospace"">pomada</span>"," ","","exp-sent","pomada","","",""
"","245","html-keyboard-response","343","1035989","0.0-3.0-1.279","<span style=""font-size:30px; font-family: monospace"">para</span>"," ","","exp-sent","para","","",""
"","277","html-keyboard-response","344","1036517","0.0-3.0-1.280","<span style=""font-size:30px; font-family: monospace"">o</span>"," ","","exp-sent","o","","",""
"","661","html-keyboard-response","345","1037429","0.0-3.0-1.281","<span style=""font-size:30px; font-family: monospace"">avô.</span>"," ","","exp-sent","avô.","","",""
"","null","html-keyboard-response","346","1038685","0.0-3.0-0.282-0.282","<span style= ""font-size:30px; font-family: monospace"">+</span>","null","fixation","","","","",""
"","461","html-keyboard-response","347","1039397","0.0-3.0-1.282","<span style=""font-size:30px; font-family: monospace"">Ele</span>"," ","","exp-sent","Ele","","",""
"","421","html-keyboard-response","348","1040069","0.0-3.0-1.283","<span style=""font-size:30px; font-family: monospace"">conversou</span>"," ","","exp-sent","conversou","","",""
"","245","html-keyboard-response","349","1040565","0.0-3.0-1.284","<span style=""font-size:30px; font-family: monospace"">com</span>"," ","","exp-sent","com","","",""
"","262","html-keyboard-response","350","1041077","0.0-3.0-1.285","<span style=""font-size:30px; font-family: monospace"">o</span>"," ","","exp-sent","o","","",""
"","292","html-keyboard-response","351","1041621","0.0-3.0-1.286","<span style=""font-size:30px; font-family: monospace"">patrão</span>"," ","","exp-sent","patrão","","",""
"","1029","html-keyboard-response","352","1042901","0.0-3.0-1.287","<span style=""font-size:30px; font-family: monospace"">durante</span>"," ","","exp-sent","durante","","",""
"","389","html-keyboard-response","353","1043541","0.0-3.0-1.288","<span style=""font-size:30px; font-family: monospace"">a</span>"," ","","exp-sent","a","","",""
"","582","html-keyboard-response","354","1044373","0.0-3.0-1.289","<span style=""font-size:30px; font-family: monospace"">tarde.</span>"," ","","exp-sent","tarde.","","",""
"","null","html-keyboard-response","355","1045625","0.0-3.0-0.290-0.290","<span style= ""font-size:30px; font-family: monospace"">+</span>","null","fixation","","","","",""
"","480","html-keyboard-response","356","1046357","0.0-3.0-1.290","<span style=""font-size:30px; font-family: monospace"">Algumas</span>"," ","","exp-sent","Algumas","","",""
"","341","html-keyboard-response","357","1046949","0.0-3.0-1.291","<span style=""font-size:30px; font-family: monospace"">pessoas</span>"," ","","exp-sent","pessoas","","",""
"","260","html-keyboard-response","358","1047461","0.0-3.0-1.292","<span style=""font-size:30px; font-family: monospace"">acreditam</span>"," ","","exp-sent","acreditam","","",""
"","277","html-keyboard-response","359","1047989","0.0-3.0-1.293","<span style=""font-size:30px; font-family: monospace"">em</span>"," ","","exp-sent","em","","",""
"","453","html-keyboard-response","360","1048693","0.0-3.0-1.294","<span style=""font-size:30px; font-family: monospace"">espíritos</span>"," ","","exp-sent","espíritos","","",""
"","325","html-keyboard-response","361","1049269","0.0-3.0-1.295","<span style=""font-size:30px; font-family: monospace"">e</span>"," ","","exp-sent","e","","",""
"","357","html-keyboard-response","362","1049877","0.0-3.0-1.296","<span style=""font-size:30px; font-family: monospace"">em</span>"," ","","exp-sent","em","","",""
"","469","html-keyboard-response","363","1050597","0.0-3.0-1.297","<span style=""font-size:30px; font-family: monospace"">outras</span>"," ","","exp-sent","outras","","",""
"","405","html-keyboard-response","364","1051253","0.0-3.0-1.298","<span style=""font-size:30px; font-family: monospace"">vidas.</span>"," ","","exp-sent","vidas.","","",""
"","null","html-keyboard-response","365","1052505","0.0-3.0-0.299-0.299","<span style= ""font-size:30px; font-family: monospace"">+</span>","null","fixation","","","","",""
"","465","html-keyboard-response","366","1053221","0.0-3.0-1.299","<span style=""font-size:30px; font-family: monospace"">Ela</span>"," ","","exp-sent","Ela","","",""
"","165","html-keyboard-response","367","1053637","0.0-3.0-1.300","<span style=""font-size:30px; font-family: monospace"">gosta</span>"," ","","exp-sent","gosta","","",""
"","132","html-keyboard-response","368","1054021","0.0-3.0-1.301","<span style=""font-size:30px; font-family: monospace"">de</span>"," ","","exp-sent","de","","",""
"","117","html-keyboard-response","369","1054389","0.0-3.0-1.302","<span style=""font-size:30px; font-family: monospace"">estudar</span>"," ","","exp-sent","estudar","","",""
"","101","html-keyboard-response","370","1054741","0.0-3.0-1.303","<span style=""font-size:30px; font-family: monospace"">matemática</span>"," ","","exp-sent","matemática","","",""
"","373","html-keyboard-response","371","1055365","0.0-3.0-1.304","<span style=""font-size:30px; font-family: monospace"">com</span>"," ","","exp-sent","com","","",""
"","261","html-keyboard-response","372","1055877","0.0-3.0-1.305","<span style=""font-size:30px; font-family: monospace"">colegas.</span>"," ","","comp","colegas.","","",""
"","3685","html-keyboard-response","373","1059813","0.0-3.0-2.305-0.305","<span style=""font-size:30px; font-family: monospace"">Ela gosta de estudar física?</span>","n","","comp","","Ela gosta de estudar física?","não","false"
"","null","html-keyboard-response","374","1061315","0.0-3.0-0.306-0.306","<span style= ""font-size:30px; font-family: monospace"">+</span>","null","fixation","","","","",""
"","119","html-keyboard-response","375","1061685","0.0-3.0-1.306","<span style=""font-size:30px; font-family: monospace"">Este</span>"," ","","exp-sent","Este","","",""
"","245","html-keyboard-response","376","1062181","0.0-3.0-1.307","<span style=""font-size:30px; font-family: monospace"">conto</span>"," ","","exp-sent","conto","","",""
"","197","html-keyboard-response","377","1062629","0.0-3.0-1.308","<span style=""font-size:30px; font-family: monospace"">tem</span>"," ","","exp-sent","tem","","",""
"","149","html-keyboard-response","378","1063029","0.0-3.0-1.309","<span style=""font-size:30px; font-family: monospace"">um</span>"," ","","exp-sent","um","","",""
"","197","html-keyboard-response","379","1063477","0.0-3.0-1.310","<span style=""font-size:30px; font-family: monospace"">final</span>"," ","","exp-sent","final","","",""
"","197","html-keyboard-response","380","1063925","0.0-3.0-1.311","<span style=""font-size:30px; font-family: monospace"">perfeito.</span>"," ","","exp-sent","perfeito.","","",""
"","null","html-keyboard-response","381","1065177","0.0-3.0-0.312-0.312","<span style= ""font-size:30px; font-family: monospace"">+</span>","null","fixation","","","","",""
"","256","html-keyboard-response","382","1065685","0.0-3.0-1.312","<span style=""font-size:30px; font-family: monospace"">Ele</span>"," ","","exp-sent","Ele","","",""
"","133","html-keyboard-response","383","1066069","0.0-3.0-1.313","<span style=""font-size:30px; font-family: monospace"">precisa</span>"," ","","exp-sent","precisa","","",""
"","102","html-keyboard-response","384","1066421","0.0-3.0-1.314","<span style=""font-size:30px; font-family: monospace"">de</span>"," ","","exp-sent","de","","",""
"","197","html-keyboard-response","385","1066868","0.0-3.0-1.315","<span style=""font-size:30px; font-family: monospace"">um</span>"," ","","exp-sent","um","","",""
"","133","html-keyboard-response","386","1067253","0.0-3.0-1.316","<span style=""font-size:30px; font-family: monospace"">protetor</span>"," ","","exp-sent","protetor","","",""
"","166","html-keyboard-response","387","1067669","0.0-3.0-1.317","<span style=""font-size:30px; font-family: monospace"">de</span>"," ","","exp-sent","de","","",""
"","277","html-keyboard-response","388","1068197","0.0-3.0-1.318","<span style=""font-size:30px; font-family: monospace"">ouvido.</span>"," ","","exp-sent","ouvido.","","",""
"","null","html-keyboard-response","389","1069449","0.0-3.0-0.319-0.319","<span style= ""font-size:30px; font-family: monospace"">+</span>","null","fixation","","","","",""
"","113","html-keyboard-response","390","1069813","0.0-3.0-1.319","<span style=""font-size:30px; font-family: monospace"">Os</span>"," ","","exp-sent","Os","","",""
"","101","html-keyboard-response","391","1070165","0.0-3.0-1.320","<span style=""font-size:30px; font-family: monospace"">hábitos</span>"," ","","exp-sent","hábitos","","",""
"","85","html-keyboard-response","392","1070500","0.0-3.0-1.321","<span style=""font-size:30px; font-family: monospace"">de</span>"," ","","exp-sent","de","","",""
"","69","html-keyboard-response","393","1070821","0.0-3.0-1.322","<span style=""font-size:30px; font-family: monospace"">lugares</span>"," ","","exp-sent","lugares","","",""
"","69","html-keyboard-response","394","1071141","0.0-3.0-1.323","<span style=""font-size:30px; font-family: monospace"">diferentes</span>"," ","","exp-sent","diferentes","","",""
"","309","html-keyboard-response","395","1071701","0.0-3.0-1.324","<span style=""font-size:30px; font-family: monospace"">são</span>"," ","","exp-sent","são","","",""
"","198","html-keyboard-response","396","1072149","0.0-3.0-1.325","<span style=""font-size:30px; font-family: monospace"">muito</span>"," ","","exp-sent","muito","","",""
"","149","html-keyboard-response","397","1072549","0.0-3.0-1.326","<span style=""font-size:30px; font-family: monospace"">lindos.</span>"," ","","exp-sent","lindos.","","",""
"","null","html-keyboard-response","398","1073801","0.0-3.0-0.327-0.327","<span style= ""font-size:30px; font-family: monospace"">+</span>","null","fixation","","","","",""
"","481","html-keyboard-response","399","1074533","0.0-3.0-1.327","<span style=""font-size:30px; font-family: monospace"">O</span>"," ","","exp-sent","O","","",""
"","181","html-keyboard-response","400","1074965","0.0-3.0-1.328","<span style=""font-size:30px; font-family: monospace"">médico</span>"," ","","exp-sent","médico","","",""
"","149","html-keyboard-response","401","1075365","0.0-3.0-1.329","<span style=""font-size:30px; font-family: monospace"">corrigiu</span>"," ","","exp-sent","corrigiu","","",""
"","228","html-keyboard-response","402","1075845","0.0-3.0-1.330","<span style=""font-size:30px; font-family: monospace"">a</span>"," ","","exp-sent","a","","",""
"","356","html-keyboard-response","403","1076453","0.0-3.0-1.331","<span style=""font-size:30px; font-family: monospace"">postura</span>"," ","","exp-sent","postura","","",""
"","213","html-keyboard-response","404","1076917","0.0-3.0-1.332","<span style=""font-size:30px; font-family: monospace"">das</span>"," ","","exp-sent","das","","",""
"","181","html-keyboard-response","405","1077349","0.0-3.0-1.333","<span style=""font-size:30px; font-family: monospace"">costas</span>"," ","","exp-sent","costas","","",""
"","181","html-keyboard-response","406","1077781","0.0-3.0-1.334","<span style=""font-size:30px; font-family: monospace"">da</span>"," ","","exp-sent","da","","",""
"","181","html-keyboard-response","407","1078213","0.0-3.0-1.335","<span style=""font-size:30px; font-family: monospace"">pessoa.</span>"," ","","exp-sent","pessoa.","","",""
"","null","html-keyboard-response","408","1079464","0.0-3.0-0.336-0.336","<span style= ""font-size:30px; font-family: monospace"">+</span>","null","fixation","","","","",""
"","498","html-keyboard-response","409","1080212","0.0-3.0-1.336","<span style=""font-size:30px; font-family: monospace"">Aquele</span>"," ","","exp-sent","Aquele","","",""
"","485","html-keyboard-response","410","1080948","0.0-3.0-1.337","<span style=""font-size:30px; font-family: monospace"">era</span>"," ","","exp-sent","era","","",""
"","340","html-keyboard-response","411","1081540","0.0-3.0-1.338","<span style=""font-size:30px; font-family: monospace"">um</span>"," ","","exp-sent","um","","",""
"","326","html-keyboard-response","412","1082116","0.0-3.0-1.339","<span style=""font-size:30px; font-family: monospace"">caso</span>"," ","","exp-sent","caso","","",""
"","276","html-keyboard-response","413","1082644","0.0-3.0-1.340","<span style=""font-size:30px; font-family: monospace"">real</span>"," ","","exp-sent","real","","",""
"","356","html-keyboard-response","414","1083252","0.0-3.0-1.341","<span style=""font-size:30px; font-family: monospace"">de</span>"," ","","exp-sent","de","","",""
"","660","html-keyboard-response","415","1084164","0.0-3.0-1.342","<span style=""font-size:30px; font-family: monospace"">sequestro</span>"," ","","exp-sent","sequestro","","",""
"","1653","html-keyboard-response","416","1086068","0.0-3.0-1.343","<span style=""font-size:30px; font-family: monospace"">premeditado.</span>"," ","","comp","premeditado.","","",""
"","6133","html-keyboard-response","417","1092452","0.0-3.0-2.343-0.343","<span style=""font-size:30px; font-family: monospace"">Aquele era um caso real de roubo?</span>","n","","comp","","Aquele era um caso real de roubo?","não","false"
"","null","html-keyboard-response","418","1093954","0.0-3.0-0.344-0.344","<span style= ""font-size:30px; font-family: monospace"">+</span>","null","fixation","","","","",""
"","247","html-keyboard-response","419","1094452","0.0-3.0-1.344","<span style=""font-size:30px; font-family: monospace"">Preciso</span>"," ","","exp-sent","Preciso","","",""
"","261","html-keyboard-response","420","1094964","0.0-3.0-1.345","<span style=""font-size:30px; font-family: monospace"">de</span>"," ","","exp-sent","de","","",""
"","245","html-keyboard-response","421","1095460","0.0-3.0-1.346","<span style=""font-size:30px; font-family: monospace"">um</span>"," ","","exp-sent","um","","",""
"","245","html-keyboard-response","422","1095956","0.0-3.0-1.347","<span style=""font-size:30px; font-family: monospace"">relatório</span>"," ","","exp-sent","relatório","","",""
"","229","html-keyboard-response","423","1096436","0.0-3.0-1.348","<span style=""font-size:30px; font-family: monospace"">oficial</span>"," ","","exp-sent","oficial","","",""
"","229","html-keyboard-response","424","1096916","0.0-3.0-1.349","<span style=""font-size:30px; font-family: monospace"">para</span>"," ","","exp-sent","para","","",""
"","1828","html-keyboard-response","425","1098996","0.0-3.0-1.350","<span style=""font-size:30px; font-family: monospace"">amanhã.</span>"," ","","exp-sent","amanhã.","","",""
"","null","html-keyboard-response","426","1100248","0.0-3.0-0.351-0.351","<span style= ""font-size:30px; font-family: monospace"">+</span>","null","fixation","","","","",""
"","449","html-keyboard-response","427","1100948","0.0-3.0-1.351","<span style=""font-size:30px; font-family: monospace"">Ele</span>"," ","","exp-sent","Ele","","",""
"","149","html-keyboard-response","428","1101348","0.0-3.0-1.352","<span style=""font-size:30px; font-family: monospace"">viu</span>"," ","","exp-sent","viu","","",""
"","229","html-keyboard-response","429","1101828","0.0-3.0-1.353","<span style=""font-size:30px; font-family: monospace"">um</span>"," ","","exp-sent","um","","",""
"","181","html-keyboard-response","430","1102260","0.0-3.0-1.354","<span style=""font-size:30px; font-family: monospace"">inseto</span>"," ","","exp-sent","inseto","","",""
"","277","html-keyboard-response","431","1102788","0.0-3.0-1.355","<span style=""font-size:30px; font-family: monospace"">marrom</span>"," ","","exp-sent","marrom","","",""
"","277","html-keyboard-response","432","1103316","0.0-3.0-1.356","<span style=""font-size:30px; font-family: monospace"">na</span>"," ","","exp-sent","na","","",""
"","742","html-keyboard-response","433","1104308","0.0-3.0-1.357","<span style=""font-size:30px; font-family: monospace"">parede.</span>"," ","","exp-sent","parede.","","",""
"","null","html-keyboard-response","434","1105561","0.0-3.0-0.358-0.358","<span style= ""font-size:30px; font-family: monospace"">+</span>","null","fixation","","","","",""
"","239","html-keyboard-response","435","1106052","0.0-3.0-1.358","<span style=""font-size:30px; font-family: monospace"">O</span>"," ","","exp-sent","O","","",""
"","213","html-keyboard-response","436","1106516","0.0-3.0-1.359","<span style=""font-size:30px; font-family: monospace"">avô</span>"," ","","exp-sent","avô","","",""
"","261","html-keyboard-response","437","1107028","0.0-3.0-1.360","<span style=""font-size:30px; font-family: monospace"">fez</span>"," ","","exp-sent","fez","","",""
"","294","html-keyboard-response","438","1107572","0.0-3.0-1.361","<span style=""font-size:30px; font-family: monospace"">uma</span>"," ","","exp-sent","uma","","",""
"","245","html-keyboard-response","439","1108068","0.0-3.0-1.362","<span style=""font-size:30px; font-family: monospace"">lista</span>"," ","","exp-sent","lista","","",""
"","245","html-keyboard-response","440","1108564","0.0-3.0-1.363","<span style=""font-size:30px; font-family: monospace"">de</span>"," ","","exp-sent","de","","",""
"","341","html-keyboard-response","441","1109156","0.0-3.0-1.364","<span style=""font-size:30px; font-family: monospace"">compras</span>"," ","","exp-sent","compras","","",""
"","357","html-keyboard-response","442","1109764","0.0-3.0-1.365","<span style=""font-size:30px; font-family: monospace"">do</span>"," ","","exp-sent","do","","",""
"","469","html-keyboard-response","443","1110484","0.0-3.0-1.366","<span style=""font-size:30px; font-family: monospace"">mercado.</span>"," ","","exp-sent","mercado.","","",""
"","null","html-keyboard-response","444","1111736","0.0-3.0-0.367-0.367","<span style= ""font-size:30px; font-family: monospace"">+</span>","null","fixation","","","","",""
"","433","html-keyboard-response","445","1112420","0.0-3.0-1.367","<span style=""font-size:30px; font-family: monospace"">As</span>"," ","","exp-sent","As","","",""
"","294","html-keyboard-response","446","1112964","0.0-3.0-1.368","<span style=""font-size:30px; font-family: monospace"">pessoas</span>"," ","","exp-sent","pessoas","","",""
"","229","html-keyboard-response","447","1113444","0.0-3.0-1.369","<span style=""font-size:30px; font-family: monospace"">não</span>"," ","","exp-sent","não","","",""
"","228","html-keyboard-response","448","1113924","0.0-3.0-1.370","<span style=""font-size:30px; font-family: monospace"">enviam</span>"," ","","exp-sent","enviam","","",""
"","276","html-keyboard-response","449","1114452","0.0-3.0-1.371","<span style=""font-size:30px; font-family: monospace"">telegrama</span>"," ","","exp-sent","telegrama","","",""
"","326","html-keyboard-response","450","1115028","0.0-3.0-1.372","<span style=""font-size:30px; font-family: monospace"">nos</span>"," ","","exp-sent","nos","","",""
"","309","html-keyboard-response","451","1115588","0.0-3.0-1.373","<span style=""font-size:30px; font-family: monospace"">dias</span>"," ","","exp-sent","dias","","",""
"","278","html-keyboard-response","452","1116116","0.0-3.0-1.374","<span style=""font-size:30px; font-family: monospace"">de</span>"," ","","exp-sent","de","","",""
"","325","html-keyboard-response","453","1116692","0.0-3.0-1.375","<span style=""font-size:30px; font-family: monospace"">hoje.</span>"," ","","exp-sent","hoje.","","",""
"","null","html-keyboard-response","454","1117952","0.0-3.0-0.376-0.376","<span style= ""font-size:30px; font-family: monospace"">+</span>","null","fixation","","","","",""
"","473","html-keyboard-response","455","1118676","0.0-3.0-1.376","<span style=""font-size:30px; font-family: monospace"">Ele</span>"," ","","exp-sent","Ele","","",""
"","260","html-keyboard-response","456","1119188","0.0-3.0-1.377","<span style=""font-size:30px; font-family: monospace"">não</span>"," ","","exp-sent","não","","",""
"","420","html-keyboard-response","457","1119860","0.0-3.0-1.378","<span style=""font-size:30px; font-family: monospace"">gosta</span>"," ","","exp-sent","gosta","","",""
"","309","html-keyboard-response","458","1120420","0.0-3.0-1.379","<span style=""font-size:30px; font-family: monospace"">de</span>"," ","","exp-sent","de","","",""
"","309","html-keyboard-response","459","1120980","0.0-3.0-1.380","<span style=""font-size:30px; font-family: monospace"">tomate</span>"," ","","exp-sent","tomate","","",""
"","421","html-keyboard-response","460","1121652","0.0-3.0-1.381","<span style=""font-size:30px; font-family: monospace"">misturado</span>"," ","","exp-sent","misturado","","",""
"","405","html-keyboard-response","461","1122308","0.0-3.0-1.382","<span style=""font-size:30px; font-family: monospace"">na</span>"," ","","exp-sent","na","","",""
"","325","html-keyboard-response","462","1122884","0.0-3.0-1.383","<span style=""font-size:30px; font-family: monospace"">comida.</span>"," ","","comp","comida.","","",""
"","15908","html-keyboard-response","463","1139044","0.0-3.0-2.383-0.383","<span style=""font-size:30px; font-family: monospace"">Ele gosta de tomate na comida?</span>","n","","comp","","Ele gosta de tomate na comida?","não","false"
"","null","html-keyboard-response","464","1140545","0.0-3.0-0.384-0.384","<span style= ""font-size:30px; font-family: monospace"">+</span>","null","fixation","","","","",""
"","150","html-keyboard-response","465","1140947","0.0-3.0-1.384","<span style=""font-size:30px; font-family: monospace"">Eu</span>"," ","","exp-sent","Eu","","",""
"","5","html-keyboard-response","466","1141203","0.0-3.0-1.385","<span style=""font-size:30px; font-family: monospace"">gosto</span>"," ","","exp-sent","gosto","","",""
"","37","html-keyboard-response","467","1141491","0.0-3.0-1.386","<span style=""font-size:30px; font-family: monospace"">de</span>"," ","","exp-sent","de","","",""
"","197","html-keyboard-response","468","1141939","0.0-3.0-1.387","<span style=""font-size:30px; font-family: monospace"">molho</span>"," ","","exp-sent","molho","","",""
"","85","html-keyboard-response","469","1142275","0.0-3.0-1.388","<span style=""font-size:30px; font-family: monospace"">picante</span>"," ","","exp-sent","picante","","",""
"","69","html-keyboard-response","470","1142595","0.0-3.0-1.389","<span style=""font-size:30px; font-family: monospace"">nas</span>"," ","","exp-sent","nas","","",""
"","84","html-keyboard-response","471","1142931","0.0-3.0-1.390","<span style=""font-size:30px; font-family: monospace"">batatas.</span>"," ","","exp-sent","batatas.","","",""
"","null","html-keyboard-response","472","1144186","0.0-3.0-0.391-0.391","<span style= ""font-size:30px; font-family: monospace"">+</span>","null","fixation","","","","",""
"","271","html-keyboard-response","473","1144707","0.0-3.0-1.391","<span style=""font-size:30px; font-family: monospace"">As</span>"," ","","exp-sent","As","","",""
"","245","html-keyboard-response","474","1145203","0.0-3.0-1.392","<span style=""font-size:30px; font-family: monospace"">pessoas</span>"," ","","exp-sent","pessoas","","",""
"","196","html-keyboard-response","475","1145651","0.0-3.0-1.393","<span style=""font-size:30px; font-family: monospace"">têm</span>"," ","","exp-sent","têm","","",""
"","293","html-keyboard-response","476","1146195","0.0-3.0-1.394","<span style=""font-size:30px; font-family: monospace"">sua</span>"," ","","exp-sent","sua","","",""
"","149","html-keyboard-response","477","1146595","0.0-3.0-1.395","<span style=""font-size:30px; font-family: monospace"">liberdade</span>"," ","","exp-sent","liberdade","","",""
"","228","html-keyboard-response","478","1147075","0.0-3.0-1.396","<span style=""font-size:30px; font-family: monospace"">até</span>"," ","","exp-sent","até","","",""
"","181","html-keyboard-response","479","1147508","0.0-3.0-1.397","<span style=""font-size:30px; font-family: monospace"">certo</span>"," ","","exp-sent","certo","","",""
"","166","html-keyboard-response","480","1147923","0.0-3.0-1.398","<span style=""font-size:30px; font-family: monospace"">ponto.</span>"," ","","exp-sent","ponto.","","",""
"","null","html-keyboard-response","481","1149174","0.0-3.0-0.399-0.399","<span style= ""font-size:30px; font-family: monospace"">+</span>","null","fixation","","","","",""
"","211","html-keyboard-response","482","1149635","0.0-3.0-1.399","<span style=""font-size:30px; font-family: monospace"">A</span>"," ","","exp-sent","A","","",""
"","196","html-keyboard-response","483","1150083","0.0-3.0-1.400","<span style=""font-size:30px; font-family: monospace"">empresa</span>"," ","","exp-sent","empresa","","",""
"","133","html-keyboard-response","484","1150467","0.0-3.0-1.401","<span style=""font-size:30px; font-family: monospace"">enviou</span>"," ","","exp-sent","enviou","","",""
"","294","html-keyboard-response","485","1151012","0.0-3.0-1.402","<span style=""font-size:30px; font-family: monospace"">o</span>"," ","","exp-sent","o","","",""
"","405","html-keyboard-response","486","1151667","0.0-3.0-1.403","<span style=""font-size:30px; font-family: monospace"">aviso</span>"," ","","exp-sent","aviso","","",""
"","325","html-keyboard-response","487","1152243","0.0-3.0-1.404","<span style=""font-size:30px; font-family: monospace"">hoje</span>"," ","","exp-sent","hoje","","",""
"","383","html-keyboard-response","488","1152883","0.0-3.0-1.405","<span style=""font-size:30px; font-family: monospace"">de</span>"," ","","exp-sent","de","","",""
"","245","html-keyboard-response","489","1153379","0.0-3.0-1.406","<span style=""font-size:30px; font-family: monospace"">tarde.</span>"," ","","exp-sent","tarde.","","",""
"","null","html-keyboard-response","490","1154631","0.0-3.0-0.407-0.407","<span style= ""font-size:30px; font-family: monospace"">+</span>","null","fixation","","","","",""
"","194","html-keyboard-response","491","1155075","0.0-3.0-1.407","<span style=""font-size:30px; font-family: monospace"">A</span>"," ","","exp-sent","A","","",""
"","340","html-keyboard-response","492","1155667","0.0-3.0-1.408","<span style=""font-size:30px; font-family: monospace"">loja</span>"," ","","exp-sent","loja","","",""
"","421","html-keyboard-response","493","1156339","0.0-3.0-1.409","<span style=""font-size:30px; font-family: monospace"">vende</span>"," ","","exp-sent","vende","","",""
"","373","html-keyboard-response","494","1156963","0.0-3.0-1.410","<span style=""font-size:30px; font-family: monospace"">tanto</span>"," ","","exp-sent","tanto","","",""
"","917","html-keyboard-response","495","1158131","0.0-3.0-1.411","<span style=""font-size:30px; font-family: monospace"">frituras</span>"," ","","exp-sent","frituras","","",""
"","454","html-keyboard-response","496","1158836","0.0-3.0-1.412","<span style=""font-size:30px; font-family: monospace"">quanto</span>"," ","","exp-sent","quanto","","",""
"","500","html-keyboard-response","497","1159587","0.0-3.0-1.413","<span style=""font-size:30px; font-family: monospace"">comidas</span>"," ","","exp-sent","comidas","","",""
"","437","html-keyboard-response","498","1160275","0.0-3.0-1.414","<span style=""font-size:30px; font-family: monospace"">leves.</span>"," ","","exp-sent","leves.","","",""
"","null","html-keyboard-response","499","1161527","0.0-3.0-0.415-0.415","<span style= ""font-size:30px; font-family: monospace"">+</span>","null","fixation","","","","",""
"","273","html-keyboard-response","500","1162051","0.0-3.0-1.415","<span style=""font-size:30px; font-family: monospace"">As</span>"," ","","exp-sent","As","","",""
"","757","html-keyboard-response","501","1163059","0.0-3.0-1.416","<span style=""font-size:30px; font-family: monospace"">cadeiras</span>"," ","","exp-sent","cadeiras","","",""
"","516","html-keyboard-response","502","1163827","0.0-3.0-1.417","<span style=""font-size:30px; font-family: monospace"">azuis</span>"," ","","exp-sent","azuis","","",""
"","421","html-keyboard-response","503","1164499","0.0-3.0-1.418","<span style=""font-size:30px; font-family: monospace"">da</span>"," ","","exp-sent","da","","",""
"","629","html-keyboard-response","504","1165379","0.0-3.0-1.419","<span style=""font-size:30px; font-family: monospace"">sala</span>"," ","","exp-sent","sala","","",""
"","853","html-keyboard-response","505","1166483","0.0-3.0-1.420","<span style=""font-size:30px; font-family: monospace"">eram</span>"," ","","exp-sent","eram","","",""
"","372","html-keyboard-response","506","1167107","0.0-3.0-1.421","<span style=""font-size:30px; font-family: monospace"">da</span>"," ","","exp-sent","da","","",""
"","405","html-keyboard-response","507","1167763","0.0-3.0-1.422","<span style=""font-size:30px; font-family: monospace"">minha</span>"," ","","exp-sent","minha","","",""
"","821","html-keyboard-response","508","1168835","0.0-3.0-1.423","<span style=""font-size:30px; font-family: monospace"">vó.</span>"," ","","comp","vó.","","",""
"","4788","html-keyboard-response","509","1173876","0.0-3.0-2.423-0.423","<span style=""font-size:30px; font-family: monospace"">As cadeiras eram da avó?</span>","s","","comp","","As cadeiras eram da avó?","sim","false"
"","null","html-keyboard-response","510","1175378","0.0-3.0-0.424-0.424","<span style= ""font-size:30px; font-family: monospace"">+</span>","null","fixation","","","","",""
"","2503","html-keyboard-response","511","1178131","0.0-3.0-1.424","<span style=""font-size:30px; font-family: monospace"">A</span>"," ","","exp-sent","A","","",""
"","44822","html-keyboard-response","512","1223203","0.0-3.0-1.425","<span style=""font-size:30px; font-family: monospace"">senhora</span>"," ","","exp-sent","senhora","","",""
"","548","html-keyboard-response","513","1224003","0.0-3.0-1.426","<span style=""font-size:30px; font-family: monospace"">cumprimentou</span>"," ","","exp-sent","cumprimentou","","",""
"","405","html-keyboard-response","514","1224659","0.0-3.0-1.427","<span style=""font-size:30px; font-family: monospace"">o</span>"," ","","exp-sent","o","","",""
"","549","html-keyboard-response","515","1225459","0.0-3.0-1.428","<span style=""font-size:30px; font-family: monospace"">operador</span>"," ","","exp-sent","operador","","",""
"","341","html-keyboard-response","516","1226051","0.0-3.0-1.429","<span style=""font-size:30px; font-family: monospace"">de</span>"," ","","exp-sent","de","","",""
"","421","html-keyboard-response","517","1226723","0.0-3.0-1.430","<span style=""font-size:30px; font-family: monospace"">caixa.</span>"," ","","exp-sent","caixa.","","",""
"","null","html-keyboard-response","518","1227975","0.0-3.0-0.431-0.431","<span style= ""font-size:30px; font-family: monospace"">+</span>","null","fixation","","","","",""
"","576","html-keyboard-response","519","1228803","0.0-3.0-1.431","<span style=""font-size:30px; font-family: monospace"">A</span>"," ","","exp-sent","A","","",""
"","980","html-keyboard-response","520","1230035","0.0-3.0-1.432","<span style=""font-size:30px; font-family: monospace"">gente</span>"," ","","exp-sent","gente","","",""
"","917","html-keyboard-response","521","1231203","0.0-3.0-1.433","<span style=""font-size:30px; font-family: monospace"">viu</span>"," ","","exp-sent","viu","","",""
"","357","html-keyboard-response","522","1231811","0.0-3.0-1.434","<span style=""font-size:30px; font-family: monospace"">o</span>"," ","","exp-sent","o","","",""
"","725","html-keyboard-response","523","1232787","0.0-3.0-1.435","<span style=""font-size:30px; font-family: monospace"">eclipse</span>"," ","","exp-sent","eclipse","","",""
"","405","html-keyboard-response","524","1233443","0.0-3.0-1.436","<span style=""font-size:30px; font-family: monospace"">lunar</span>"," ","","exp-sent","lunar","","",""
"","452","html-keyboard-response","525","1234146","0.0-3.0-1.437","<span style=""font-size:30px; font-family: monospace"">durante</span>"," ","","exp-sent","durante","","",""
"","358","html-keyboard-response","526","1234755","0.0-3.0-1.438","<span style=""font-size:30px; font-family: monospace"">o</span>"," ","","exp-sent","o","","",""
"","677","html-keyboard-response","527","1235683","0.0-3.0-1.439","<span style=""font-size:30px; font-family: monospace"">dia.</span>"," ","","exp-sent","dia.","","",""
"","null","html-keyboard-response","528","1236935","0.0-3.0-0.440-0.440","<span style= ""font-size:30px; font-family: monospace"">+</span>","null","fixation","","","","",""
"","481","html-keyboard-response","529","1237667","0.0-3.0-1.440","<span style=""font-size:30px; font-family: monospace"">A</span>"," ","","exp-sent","A","","",""
"","501","html-keyboard-response","530","1238419","0.0-3.0-1.441","<span style=""font-size:30px; font-family: monospace"">mordida</span>"," ","","exp-sent","mordida","","",""
"","342","html-keyboard-response","531","1239011","0.0-3.0-1.442","<span style=""font-size:30px; font-family: monospace"">do</span>"," ","","exp-sent","do","","",""
"","757","html-keyboard-response","532","1240019","0.0-3.0-1.443","<span style=""font-size:30px; font-family: monospace"">cachorro</span>"," ","","exp-sent","cachorro","","",""
"","421","html-keyboard-response","533","1240691","0.0-3.0-1.444","<span style=""font-size:30px; font-family: monospace"">voraz</span>"," ","","exp-sent","voraz","","",""
"","341","html-keyboard-response","534","1241283","0.0-3.0-1.445","<span style=""font-size:30px; font-family: monospace"">causou</span>"," ","","exp-sent","causou","","",""
"","389","html-keyboard-response","535","1241923","0.0-3.0-1.446","<span style=""font-size:30px; font-family: monospace"">uma</span>"," ","","exp-sent","uma","","",""
"","805","html-keyboard-response","536","1242979","0.0-3.0-1.447","<span style=""font-size:30px; font-family: monospace"">cicatriz.</span>"," ","","exp-sent","cicatriz.","","",""
"","null","html-keyboard-response","537","1244231","0.0-3.0-0.448-0.448","<span style= ""font-size:30px; font-family: monospace"">+</span>","null","fixation","","","","",""
"","369","html-keyboard-response","538","1244851","0.0-3.0-1.448","<span style=""font-size:30px; font-family: monospace"">Elas</span>"," ","","exp-sent","Elas","","",""
"","373","html-keyboard-response","539","1245475","0.0-3.0-1.449","<span style=""font-size:30px; font-family: monospace"">não</span>"," ","","exp-sent","não","","",""
"","389","html-keyboard-response","540","1246115","0.0-3.0-1.450","<span style=""font-size:30px; font-family: monospace"">viram</span>"," ","","exp-sent","viram","","",""
"","740","html-keyboard-response","541","1247107","0.0-3.0-1.451","<span style=""font-size:30px; font-family: monospace"">nenhuma</span>"," ","","exp-sent","nenhuma","","",""
"","629","html-keyboard-response","542","1247987","0.0-3.0-1.452","<span style=""font-size:30px; font-family: monospace"">diferença</span>"," ","","exp-sent","diferença","","",""
"","373","html-keyboard-response","543","1248611","0.0-3.0-1.453","<span style=""font-size:30px; font-family: monospace"">entre</span>"," ","","exp-sent","entre","","",""
"","405","html-keyboard-response","544","1249267","0.0-3.0-1.454","<span style=""font-size:30px; font-family: monospace"">os</span>"," ","","exp-sent","os","","",""
"","373","html-keyboard-response","545","1249890","0.0-3.0-1.455","<span style=""font-size:30px; font-family: monospace"">textos.</span>"," ","","exp-sent","textos.","","",""
"","null","html-keyboard-response","546","1251152","0.0-3.0-0.456-0.456","<span style= ""font-size:30px; font-family: monospace"">+</span>","null","fixation","","","","",""
"","567","html-keyboard-response","547","1251971","0.0-3.0-1.456","<span style=""font-size:30px; font-family: monospace"">Amanhã</span>"," ","","exp-sent","Amanhã","","",""
"","372","html-keyboard-response","548","1252595","0.0-3.0-1.457","<span style=""font-size:30px; font-family: monospace"">vai</span>"," ","","exp-sent","vai","","",""
"","373","html-keyboard-response","549","1253219","0.0-3.0-1.458","<span style=""font-size:30px; font-family: monospace"">ter</span>"," ","","exp-sent","ter","","",""
"","294","html-keyboard-response","550","1253763","0.0-3.0-1.459","<span style=""font-size:30px; font-family: monospace"">um</span>"," ","","exp-sent","um","","",""
"","484","html-keyboard-response","551","1254499","0.0-3.0-1.460","<span style=""font-size:30px; font-family: monospace"">bazar</span>"," ","","exp-sent","bazar","","",""
"","357","html-keyboard-response","552","1255107","0.0-3.0-1.461","<span style=""font-size:30px; font-family: monospace"">no</span>"," ","","exp-sent","no","","",""
"","342","html-keyboard-response","553","1255699","0.0-3.0-1.462","<span style=""font-size:30px; font-family: monospace"">bairro.</span>"," ","","comp","bairro.","","",""
"","3333","html-keyboard-response","554","1259282","0.0-3.0-2.462-0.462","<span style=""font-size:30px; font-family: monospace"">Amanhã vai acontecer um bazar no bairro?</span>","s","","comp","","Amanhã vai acontecer um bazar no bairro?","sim","false"
"","null","html-keyboard-response","555","1260784","0.0-3.0-0.463-0.463","<span style= ""font-size:30px; font-family: monospace"">+</span>","null","fixation","","","","",""
"","375","html-keyboard-response","556","1261410","0.0-3.0-1.463","<span style=""font-size:30px; font-family: monospace"">Barulho</span>"," ","","exp-sent","Barulho","","",""
"","181","html-keyboard-response","557","1261842","0.0-3.0-1.464","<span style=""font-size:30px; font-family: monospace"">de</span>"," ","","exp-sent","de","","",""
"","213","html-keyboard-response","558","1262306","0.0-3.0-1.465","<span style=""font-size:30px; font-family: monospace"">carros</span>"," ","","exp-sent","carros","","",""
"","198","html-keyboard-response","559","1262754","0.0-3.0-1.466","<span style=""font-size:30px; font-family: monospace"">é</span>"," ","","exp-sent","é","","",""
"","229","html-keyboard-response","560","1263234","0.0-3.0-1.467","<span style=""font-size:30px; font-family: monospace"">irritante</span>"," ","","exp-sent","irritante","","",""
"","245","html-keyboard-response","561","1263730","0.0-3.0-1.468","<span style=""font-size:30px; font-family: monospace"">para</span>"," ","","exp-sent","para","","",""
"","149","html-keyboard-response","562","1264130","0.0-3.0-1.469","<span style=""font-size:30px; font-family: monospace"">a</span>"," ","","exp-sent","a","","",""
"","292","html-keyboard-response","563","1264674","0.0-3.0-1.470","<span style=""font-size:30px; font-family: monospace"">moça.</span>"," ","","exp-sent","moça.","","",""
"","null","html-keyboard-response","564","1265927","0.0-3.0-0.471-0.471","<span style= ""font-size:30px; font-family: monospace"">+</span>","null","fixation","","","","",""
"","176","html-keyboard-response","565","1266354","0.0-3.0-1.471","<span style=""font-size:30px; font-family: monospace"">A</span>"," ","","exp-sent","A","","",""
"","37","html-keyboard-response","566","1266643","0.0-3.0-1.472","<span style=""font-size:30px; font-family: monospace"">loja</span>"," ","","exp-sent","loja","","",""
"","149","html-keyboard-response","567","1267042","0.0-3.0-1.473","<span style=""font-size:30px; font-family: monospace"">também</span>"," ","","exp-sent","também","","",""
"","69","html-keyboard-response","568","1267362","0.0-3.0-1.474","<span style=""font-size:30px; font-family: monospace"">vende</span>"," ","","exp-sent","vende","","",""
"","148","html-keyboard-response","569","1267762","0.0-3.0-1.475","<span style=""font-size:30px; font-family: monospace"">taça</span>"," ","","exp-sent","taça","","",""
"","117","html-keyboard-response","570","1268130","0.0-3.0-1.476","<span style=""font-size:30px; font-family: monospace"">de</span>"," ","","exp-sent","de","","",""
"","117","html-keyboard-response","571","1268498","0.0-3.0-1.477","<span style=""font-size:30px; font-family: monospace"">vinho</span>"," ","","exp-sent","vinho","","",""
"","85","html-keyboard-response","572","1268834","0.0-3.0-1.478","<span style=""font-size:30px; font-family: monospace"">e</span>"," ","","exp-sent","e","","",""
"","68","html-keyboard-response","573","1269154","0.0-3.0-1.479","<span style=""font-size:30px; font-family: monospace"">espumante.</span>"," ","","exp-sent","espumante.","","",""
"","null","html-keyboard-response","574","1270405","0.0-3.0-0.480-0.480","<span style= ""font-size:30px; font-family: monospace"">+</span>","null","fixation","","","","",""
"","274","html-keyboard-response","575","1270930","0.0-3.0-1.480","<span style=""font-size:30px; font-family: monospace"">A</span>"," ","","exp-sent","A","","",""
"","164","html-keyboard-response","576","1271346","0.0-3.0-1.481","<span style=""font-size:30px; font-family: monospace"">bruxa</span>"," ","","exp-sent","bruxa","","",""
"","117","html-keyboard-response","577","1271714","0.0-3.0-1.482","<span style=""font-size:30px; font-family: monospace"">tinha</span>"," ","","exp-sent","tinha","","",""
"","132","html-keyboard-response","578","1272098","0.0-3.0-1.483","<span style=""font-size:30px; font-family: monospace"">uma</span>"," ","","exp-sent","uma","","",""
"","164","html-keyboard-response","579","1272514","0.0-3.0-1.484","<span style=""font-size:30px; font-family: monospace"">vassoura</span>"," ","","exp-sent","vassoura","","",""
"","566","html-keyboard-response","580","1273330","0.0-3.0-1.485","<span style=""font-size:30px; font-family: monospace"">e</span>"," ","","exp-sent","e","","",""
"","469","html-keyboard-response","581","1274050","0.0-3.0-1.486","<span style=""font-size:30px; font-family: monospace"">um</span>"," ","","exp-sent","um","","",""
"","340","html-keyboard-response","582","1274642","0.0-3.0-1.487","<span style=""font-size:30px; font-family: monospace"">gato.</span>"," ","","exp-sent","gato.","","",""
"","null","html-keyboard-response","583","1275894","0.0-3.0-0.488-0.488","<span style= ""font-size:30px; font-family: monospace"">+</span>","null","fixation","","","","",""
