"view_history","rt","trial_type","trial_index","time_elapsed","internal_node_id","stimulus","response","trial_part","word","question","answer","trial","accuracy"
"[{""page_index"":0,""viewing_time"":1757},{""page_index"":1,""viewing_time"":1144}]","2901","instructions","0","2902","0.0-0.0","","","","","","","",""
"","null","html-keyboard-response","1","4030","0.0-1.0-0.0-0.0","<span style= ""font-size:30px; font-family: monospace"">+</span>","null","fixation","","","","",""
"","1688","audio-keyboard-response","2","6010","0.0-1.0-1.0","../audio/prac-question-1-1.mp3"," ","","O","","","",""
"","14189","audio-keyboard-response","3","20495","0.0-1.0-1.1","../audio/prac-question-1-2.mp3"," ","","dia","","","",""
"","3720","audio-keyboard-response","4","24511","0.0-1.0-1.2","../audio/prac-question-1-3.mp3"," ","","estará","","","",""
"","4011","audio-keyboard-response","5","28823","0.0-1.0-1.3","../audio/prac-question-1-4.mp3"," ","","cheio","","","",""
"","1931","audio-keyboard-response","6","31055","0.0-1.0-1.4","../audio/prac-question-1-5.mp3"," ","","de","","","",""
"","8640","audio-keyboard-response","7","39991","0.0-1.0-1.5","../audio/prac-question-1-6.mp3"," ","","nuvens","","","",""
"","2741","audio-keyboard-response","8","43039","0.0-1.0-1.6","../audio/prac-question-1-7.mp3"," ","","hoje.","","","",""
"","null","html-keyboard-response","9","44292","0.0-1.0-0.7-0.7","<span style= ""font-size:30px; font-family: monospace"">+</span>","null","fixation","","","","",""
"","12419","audio-keyboard-response","10","57007","0.0-1.0-1.7","../audio/prac-question-2-1.mp3"," ","","A","","","",""
"","2531","audio-keyboard-response","11","59831","0.0-1.0-1.8","../audio/prac-question-2-2.mp3"," ","","caneca","","","",""
"","1139","audio-keyboard-response","12","61287","0.0-1.0-1.9","../audio/prac-question-2-3.mp3"," ","","colorida","","","",""
"","979","audio-keyboard-response","13","62567","0.0-1.0-1.10","../audio/prac-question-2-4.mp3"," ","","caiu","","","",""
"","651","audio-keyboard-response","14","63503","0.0-1.0-1.11","../audio/prac-question-2-5.mp3"," ","","da","","","",""
"","1091","audio-keyboard-response","15","64871","0.0-1.0-1.12","../audio/prac-question-2-6.mp3"," ","","mesa","","","",""
"","680","audio-keyboard-response","16","65831","0.0-1.0-1.13","../audio/prac-question-2-7.mp3"," ","","de","","","",""
"","2632","audio-keyboard-response","17","68759","0.0-1.0-1.14","../audio/prac-question-2-8.mp3"," ","","jantar.","","","",""
"","12698","html-keyboard-response","18","81728","0.0-1.0-2.14-0.14","<span style=""font-size:25px; font-family: monospace"">A caneca era colorida?</span>","s","","","A caneca era colorida?","null","prac-sent","false"
"[{""page_index"":0,""viewing_time"":20079}]","20079","instructions","19","102319","0.0-2.0","","","","","","","",""
"","null","html-keyboard-response","20","103422","0.0-3.0-0.0-0.0","<span style= ""font-size:30px; font-family: monospace"">+</span>","null","fixation","","","","",""
"","2360","audio-keyboard-response","21","106104","0.0-3.0-1.0","../audio/24-1-fem.mp3"," ","","As","","","",""
"","1051","audio-keyboard-response","22","107471","0.0-3.0-1.1","../audio/24-2-fem.mp3"," ","","crianças","","","",""
"","661","audio-keyboard-response","23","108423","0.0-3.0-1.2","../audio/24-3-fem.mp3"," ","","vão","","","",""
"","1461","audio-keyboard-response","24","110175","0.0-3.0-1.3","../audio/24-4-fem.mp3"," ","","ao","","","",""
"","1611","audio-keyboard-response","25","112087","0.0-3.0-1.4","../audio/24-5-fem.mp3"," ","","cinema","","","",""
"","1219","audio-keyboard-response","26","113608","0.0-3.0-1.5","../audio/24-6-fem.mp3"," ","","mais","","","",""
"","1589","audio-keyboard-response","27","115487","0.0-3.0-1.6","../audio/24-7-fem.mp3"," ","","tarde.","","","",""
"","null","html-keyboard-response","28","116762","0.0-3.0-0.7-0.7","<span style= ""font-size:30px; font-family: monospace"">+</span>","null","fixation","","","","",""
"","2032","audio-keyboard-response","29","119103","0.0-3.0-1.7","../audio/23-1-masc.mp3"," ","","Português","","","",""
"","731","audio-keyboard-response","30","120127","0.0-3.0-1.8","../audio/23-2-masc.mp3"," ","","é","","","",""
"","800","audio-keyboard-response","31","121207","0.0-3.0-1.9","../audio/23-3-masc.mp3"," ","","um","","","",""
"","1109","audio-keyboard-response","32","122615","0.0-3.0-1.10","../audio/23-4-masc.mp3"," ","","assunto","","","",""
"","2181","audio-keyboard-response","33","125096","0.0-3.0-1.11","../audio/23-5-masc.mp3"," ","","elementar","","","",""
"","808","audio-keyboard-response","34","126199","0.0-3.0-1.12","../audio/23-6-masc.mp3"," ","","para","","","",""
"","821","audio-keyboard-response","35","127303","0.0-3.0-1.13","../audio/23-7-masc.mp3"," ","","os","","","",""
"","1592","audio-keyboard-response","36","129183","0.0-3.0-1.14","../audio/23-8-masc.mp3"," ","","alunos.","","","",""
"","null","html-keyboard-response","37","130451","0.0-3.0-0.15-0.15","<span style= ""font-size:30px; font-family: monospace"">+</span>","null","fixation","","","","",""
"","1699","audio-keyboard-response","38","132447","0.0-3.0-1.15","../audio/22-1-fem.mp3"," ","","Eu","","","",""
"","1320","audio-keyboard-response","39","134063","0.0-3.0-1.16","../audio/22-2-fem.mp3"," ","","detesto","","","",""
"","1549","audio-keyboard-response","40","135936","0.0-3.0-1.17","../audio/22-3-fem.mp3"," ","","fumaça","","","",""
"","589","audio-keyboard-response","41","136807","0.0-3.0-1.18","../audio/22-4-fem.mp3"," ","","de","","","",""
"","1349","audio-keyboard-response","42","138455","0.0-3.0-1.19","../audio/22-5-fem.mp3"," ","","cachimbo","","","",""
"","629","audio-keyboard-response","43","139375","0.0-3.0-1.20","../audio/22-6-fem.mp3"," ","","e","","","",""
"","640","audio-keyboard-response","44","140303","0.0-3.0-1.21","../audio/22-7-fem.mp3"," ","","de","","","",""
"","2731","audio-keyboard-response","45","143327","0.0-3.0-1.22","../audio/22-8-fem.mp3"," ","","cigarro.","","","",""
"","null","html-keyboard-response","46","144593","0.0-3.0-0.23-0.23","<span style= ""font-size:30px; font-family: monospace"">+</span>","null","fixation","","","","",""
"","1360","audio-keyboard-response","47","146280","0.0-3.0-1.23","../audio/21-1-masc.mp3"," ","","Precisamos","","","",""
"","731","audio-keyboard-response","48","147295","0.0-3.0-1.24","../audio/21-2-masc.mp3"," ","","de","","","",""
"","1248","audio-keyboard-response","49","148839","0.0-3.0-1.25","../audio/21-3-masc.mp3"," ","","paciência","","","",""
"","581","audio-keyboard-response","50","149695","0.0-3.0-1.26","../audio/21-4-masc.mp3"," ","","e","","","",""
"","1192","audio-keyboard-response","51","151191","0.0-3.0-1.27","../audio/21-5-masc.mp3"," ","","bondade","","","",""
"","680","audio-keyboard-response","52","152166","0.0-3.0-1.28","../audio/21-6-masc.mp3"," ","","para","","","",""
"","811","audio-keyboard-response","53","153303","0.0-3.0-1.29","../audio/21-7-masc.mp3"," ","","um","","","",""
"","960","audio-keyboard-response","54","154559","0.0-3.0-1.30","../audio/21-8-masc.mp3"," ","","mundo","","","",""
"","1931","audio-keyboard-response","55","156766","0.0-3.0-1.31","../audio/21-9-masc.mp3"," ","","melhor.","","","",""
"","null","html-keyboard-response","56","158042","0.0-3.0-0.32-0.32","<span style= ""font-size:30px; font-family: monospace"">+</span>","null","fixation","","","","",""
"","1011","audio-keyboard-response","57","159343","0.0-3.0-1.32","../audio/25-1-fem.mp3"," ","","Ela","","","",""
"","800","audio-keyboard-response","58","160447","0.0-3.0-1.33","../audio/25-2-fem.mp3"," ","","faz","","","",""
"","1069","audio-keyboard-response","59","161807","0.0-3.0-1.34","../audio/25-3-fem.mp3"," ","","tanto","","","",""
"","960","audio-keyboard-response","60","163063","0.0-3.0-1.35","../audio/25-4-fem.mp3"," ","","cabelo","","","",""
"","1051","audio-keyboard-response","61","164411","0.0-3.0-1.36","../audio/25-5-fem.mp3"," ","","liso","","","",""
"","792","audio-keyboard-response","62","165508","0.0-3.0-1.37","../audio/25-6-fem.mp3"," ","","quanto","","","",""
"","1891","audio-keyboard-response","63","167708","0.0-3.0-1.38","../audio/25-7-fem.mp3"," ","","cacheado.","","","",""
"","6057","html-keyboard-response","64","174036","0.0-3.0-2.38-0.38","<span style=""font-size:25px; font-family: monospace"">Ela só faz cabelo cacheado?</span>","n","","","Ela só faz cabelo cacheado?","null","exp-sent","false"
"","null","html-keyboard-response","65","175568","0.0-3.0-0.39-0.39","<span style= ""font-size:30px; font-family: monospace"">+</span>","null","fixation","","","","",""
"","1880","audio-keyboard-response","66","177756","0.0-3.0-1.39","../audio/33-1-masc.mp3"," ","","Eles","","","",""
"","851","audio-keyboard-response","67","178900","0.0-3.0-1.40","../audio/33-2-masc.mp3"," ","","sabem","","","",""
"","760","audio-keyboard-response","68","179963","0.0-3.0-1.41","../audio/33-3-masc.mp3"," ","","do","","","",""
"","771","audio-keyboard-response","69","181027","0.0-3.0-1.42","../audio/33-4-masc.mp3"," ","","seu","","","",""
"","1301","audio-keyboard-response","70","182627","0.0-3.0-1.43","../audio/33-5-masc.mp3"," ","","privilégio","","","",""
"","981","audio-keyboard-response","71","183907","0.0-3.0-1.44","../audio/33-6-masc.mp3"," ","","nessa","","","",""
"","5291","audio-keyboard-response","72","189500","0.0-3.0-1.45","../audio/33-7-masc.mp3"," ","","confusão.","","","",""
"","null","html-keyboard-response","73","190778","0.0-3.0-0.46-0.46","<span style= ""font-size:30px; font-family: monospace"">+</span>","null","fixation","","","","",""
"","811","audio-keyboard-response","74","191891","0.0-3.0-1.46","../audio/32-1-masc.mp3"," ","","A","","","",""
"","832","audio-keyboard-response","75","193028","0.0-3.0-1.47","../audio/32-2-masc.mp3"," ","","tia","","","",""
"","1480","audio-keyboard-response","76","194788","0.0-3.0-1.48","../audio/32-3-masc.mp3"," ","","comprou","","","",""
"","592","audio-keyboard-response","77","195667","0.0-3.0-1.49","../audio/32-4-masc.mp3"," ","","um","","","",""
"","1091","audio-keyboard-response","78","197043","0.0-3.0-1.50","../audio/32-5-masc.mp3"," ","","pilão","","","",""
"","739","audio-keyboard-response","79","198075","0.0-3.0-1.51","../audio/32-6-masc.mp3"," ","","para","","","",""
"","712","audio-keyboard-response","80","199059","0.0-3.0-1.52","../audio/32-7-masc.mp3"," ","","a","","","",""
"","1779","audio-keyboard-response","81","201124","0.0-3.0-1.53","../audio/32-8-masc.mp3"," ","","cozinha.","","","",""
"","null","html-keyboard-response","82","202398","0.0-3.0-0.54-0.54","<span style= ""font-size:30px; font-family: monospace"">+</span>","null","fixation","","","","",""
"","1459","audio-keyboard-response","83","204155","0.0-3.0-1.54","../audio/34-1-masc.mp3"," ","","Cobrança","","","",""
"","1069","audio-keyboard-response","84","205515","0.0-3.0-1.55","../audio/34-2-masc.mp3"," ","","excessiva","","","",""
"","589","audio-keyboard-response","85","206395","0.0-3.0-1.56","../audio/34-3-masc.mp3"," ","","é","","","",""
"","680","audio-keyboard-response","86","207363","0.0-3.0-1.57","../audio/34-4-masc.mp3"," ","","um","","","",""
"","2120","audio-keyboard-response","87","209796","0.0-3.0-1.58","../audio/34-5-masc.mp3"," ","","fardo","","","",""
"","691","audio-keyboard-response","88","210787","0.0-3.0-1.59","../audio/34-6-masc.mp3"," ","","para","","","",""
"","731","audio-keyboard-response","89","211812","0.0-3.0-1.60","../audio/34-7-masc.mp3"," ","","a","","","",""
"","1731","audio-keyboard-response","90","213843","0.0-3.0-1.61","../audio/34-8-masc.mp3"," ","","cabeça.","","","",""
"","null","html-keyboard-response","91","215128","0.0-3.0-0.62-0.62","<span style= ""font-size:30px; font-family: monospace"">+</span>","null","fixation","","","","",""
"","59","audio-keyboard-response","92","215483","0.0-3.0-1.62","../audio/31-1-fem.mp3"," ","","O","","","",""
"","1211","audio-keyboard-response","93","216987","0.0-3.0-1.63","../audio/31-2-fem.mp3"," ","","padeiro","","","",""
"","880","audio-keyboard-response","94","218163","0.0-3.0-1.64","../audio/31-3-fem.mp3"," ","","usou","","","",""
"","629","audio-keyboard-response","95","219083","0.0-3.0-1.65","../audio/31-4-fem.mp3"," ","","a","","","",""
"","1120","audio-keyboard-response","96","220507","0.0-3.0-1.66","../audio/31-5-fem.mp3"," ","","balança","","","",""
"","629","audio-keyboard-response","97","221435","0.0-3.0-1.67","../audio/31-6-fem.mp3"," ","","o","","","",""
"","832","audio-keyboard-response","98","222548","0.0-3.0-1.68","../audio/31-7-fem.mp3"," ","","dia","","","",""
"","1581","audio-keyboard-response","99","224431","0.0-3.0-1.69","../audio/31-8-fem.mp3"," ","","inteiro.","","","",""
"","null","html-keyboard-response","100","225701","0.0-3.0-0.70-0.70","<span style= ""font-size:30px; font-family: monospace"">+</span>","null","fixation","","","","",""
"","992","audio-keyboard-response","101","226983","0.0-3.0-1.70","../audio/35-1-fem.mp3"," ","","A","","","",""
"","1181","audio-keyboard-response","102","228471","0.0-3.0-1.71","../audio/35-2-fem.mp3"," ","","receita","","","",""
"","691","audio-keyboard-response","103","229455","0.0-3.0-1.72","../audio/35-3-fem.mp3"," ","","para","","","",""
"","549","audio-keyboard-response","104","230287","0.0-3.0-1.73","../audio/35-4-fem.mp3"," ","","a","","","",""
"","1392","audio-keyboard-response","105","231983","0.0-3.0-1.74","../audio/35-5-fem.mp3"," ","","preparação","","","",""
"","619","audio-keyboard-response","106","232887","0.0-3.0-1.75","../audio/35-6-fem.mp3"," ","","do","","","",""
"","901","audio-keyboard-response","107","234063","0.0-3.0-1.76","../audio/35-7-fem.mp3"," ","","bolo","","","",""
"","552","audio-keyboard-response","108","234903","0.0-3.0-1.77","../audio/35-8-fem.mp3"," ","","é","","","",""
"","1792","audio-keyboard-response","109","236982","0.0-3.0-1.78","../audio/35-9-fem.mp3"," ","","leve.","","","",""
"","5662","html-keyboard-response","110","242903","0.0-3.0-2.78-0.78","<span style=""font-size:25px; font-family: monospace"">A receita do bolo é pesada?</span>","n","","","A receita do bolo é pesada?","null","exp-sent","false"
"","null","html-keyboard-response","111","244432","0.0-3.0-0.79-0.79","<span style= ""font-size:30px; font-family: monospace"">+</span>","null","fixation","","","","",""
"","1221","audio-keyboard-response","112","245943","0.0-3.0-1.79","../audio/09-1-masc.mp3"," ","","O","","","",""
"","1731","audio-keyboard-response","113","247975","0.0-3.0-1.80","../audio/09-2-masc.mp3"," ","","rapaz","","","",""
"","981","audio-keyboard-response","114","249263","0.0-3.0-1.81","../audio/09-3-masc.mp3"," ","","limpou","","","",""
"","461","audio-keyboard-response","115","250015","0.0-3.0-1.82","../audio/09-4-masc.mp3"," ","","o","","","",""
"","752","audio-keyboard-response","116","251071","0.0-3.0-1.83","../audio/09-5-masc.mp3"," ","","terreno","","","",""
"","701","audio-keyboard-response","117","252055","0.0-3.0-1.84","../audio/09-6-masc.mp3"," ","","com","","","",""
"","731","audio-keyboard-response","118","253071","0.0-3.0-1.85","../audio/09-7-masc.mp3"," ","","uma","","","",""
"","1400","audio-keyboard-response","119","254767","0.0-3.0-1.86","../audio/09-8-masc.mp3"," ","","pá.","","","",""
"","null","html-keyboard-response","120","256051","0.0-3.0-0.87-0.87","<span style= ""font-size:30px; font-family: monospace"">+</span>","null","fixation","","","","",""
"","709","audio-keyboard-response","121","257055","0.0-3.0-1.87","../audio/08-1-fem.mp3"," ","","A","","","",""
"","1088","audio-keyboard-response","122","258439","0.0-3.0-1.88","../audio/08-2-fem.mp3"," ","","receita","","","",""
"","661","audio-keyboard-response","123","259391","0.0-3.0-1.89","../audio/08-3-fem.mp3"," ","","pede","","","",""
"","709","audio-keyboard-response","124","260399","0.0-3.0-1.90","../audio/08-4-fem.mp3"," ","","um","","","",""
"","1019","audio-keyboard-response","125","261718","0.0-3.0-1.91","../audio/08-5-fem.mp3"," ","","litro","","","",""
"","480","audio-keyboard-response","126","262487","0.0-3.0-1.92","../audio/08-6-fem.mp3"," ","","de","","","",""
"","1000","audio-keyboard-response","127","263775","0.0-3.0-1.93","../audio/08-7-fem.mp3"," ","","leite","","","",""
"","461","audio-keyboard-response","128","264543","0.0-3.0-1.94","../audio/08-8-fem.mp3"," ","","integral.","","","",""
"","null","html-keyboard-response","129","265831","0.0-3.0-0.95-0.95","<span style= ""font-size:30px; font-family: monospace"">+</span>","null","fixation","","","","",""
"","4739","audio-keyboard-response","130","270879","0.0-3.0-1.95","../audio/06-1-fem.mp3"," ","","Ouvimos","","","",""
"","651","audio-keyboard-response","131","271815","0.0-3.0-1.96","../audio/06-2-fem.mp3"," ","","a","","","",""
"","861","audio-keyboard-response","132","272975","0.0-3.0-1.97","../audio/06-3-fem.mp3"," ","","fala","","","",""
"","571","audio-keyboard-response","133","273822","0.0-3.0-1.98","../audio/06-4-fem.mp3"," ","","do","","","",""
"","1261","audio-keyboard-response","134","275375","0.0-3.0-1.99","../audio/06-5-fem.mp3"," ","","profeta","","","",""
"","1048","audio-keyboard-response","135","276719","0.0-3.0-1.100","../audio/06-6-fem.mp3"," ","","no","","","",""
"","1171","audio-keyboard-response","136","278183","0.0-3.0-1.101","../audio/06-7-fem.mp3"," ","","púlpito","","","",""
"","600","audio-keyboard-response","137","279071","0.0-3.0-1.102","../audio/06-8-fem.mp3"," ","","da","","","",""
"","1549","audio-keyboard-response","138","280919","0.0-3.0-1.103","../audio/06-9-fem.mp3"," ","","igreja.","","","",""
"","null","html-keyboard-response","139","282201","0.0-3.0-0.104-0.104","<span style= ""font-size:30px; font-family: monospace"">+</span>","null","fixation","","","","",""
"","811","audio-keyboard-response","140","283303","0.0-3.0-1.104","../audio/07-1-masc.mp3"," ","","Meu","","","",""
"","832","audio-keyboard-response","141","284423","0.0-3.0-1.105","../audio/07-2-masc.mp3"," ","","filho","","","",""
"","621","audio-keyboard-response","142","285334","0.0-3.0-1.106","../audio/07-3-masc.mp3"," ","","é","","","",""
"","891","audio-keyboard-response","143","286510","0.0-3.0-1.107","../audio/07-4-masc.mp3"," ","","muito","","","",""
"","1429","audio-keyboard-response","144","288246","0.0-3.0-1.108","../audio/07-5-masc.mp3"," ","","responsável","","","",""
"","768","audio-keyboard-response","145","289318","0.0-3.0-1.109","../audio/07-6-masc.mp3"," ","","nos","","","",""
"","2099","audio-keyboard-response","146","291718","0.0-3.0-1.110","../audio/07-7-masc.mp3"," ","","estudos.","","","",""
"","null","html-keyboard-response","147","293001","0.0-3.0-0.111-0.111","<span style= ""font-size:30px; font-family: monospace"">+</span>","null","fixation","","","","",""
"","741","audio-keyboard-response","148","294054","0.0-3.0-1.111","../audio/10-1-fem.mp3"," ","","O","","","",""
"","1160","audio-keyboard-response","149","295503","0.0-3.0-1.112","../audio/10-2-fem.mp3"," ","","pássaro","","","",""
"","1080","audio-keyboard-response","150","296862","0.0-3.0-1.113","../audio/10-3-fem.mp3"," ","","azul","","","",""
"","971","audio-keyboard-response","151","298134","0.0-3.0-1.114","../audio/10-4-fem.mp3"," ","","estava","","","",""
"","1048","audio-keyboard-response","152","299478","0.0-3.0-1.115","../audio/10-5-fem.mp3"," ","","vivo","","","",""
"","709","audio-keyboard-response","153","300486","0.0-3.0-1.116","../audio/10-6-fem.mp3"," ","","e","","","",""
"","1480","audio-keyboard-response","154","302246","0.0-3.0-1.117","../audio/10-7-fem.mp3"," ","","em","","","",""
"","2152","audio-keyboard-response","155","304710","0.0-3.0-1.118","../audio/10-8-fem.mp3"," ","","segurança.","","","",""
"","7938","html-keyboard-response","156","312919","0.0-3.0-2.118-0.118","<span style=""font-size:25px; font-family: monospace"">O pássaro vermelho estava em segurança?</span>","n","","","O pássaro vermelho estava em segurança?","null","exp-sent","false"
"","null","html-keyboard-response","157","314431","0.0-3.0-0.119-0.119","<span style= ""font-size:30px; font-family: monospace"">+</span>","null","fixation","","","","",""
"","1101","audio-keyboard-response","158","315829","0.0-3.0-1.119","../audio/61-1-fem.mp3"," ","","Aquele","","","",""
"","1051","audio-keyboard-response","159","317150","0.0-3.0-1.120","../audio/61-2-fem.mp3"," ","","senhor","","","",""
"","672","audio-keyboard-response","160","318111","0.0-3.0-1.121","../audio/61-3-fem.mp3"," ","","é","","","",""
"","1061","audio-keyboard-response","161","319462","0.0-3.0-1.122","../audio/61-4-fem.mp3"," ","","muito","","","",""
"","3109","audio-keyboard-response","162","322894","0.0-3.0-1.123","../audio/61-5-fem.mp3"," ","","sovina","","","",""
"","752","audio-keyboard-response","163","323942","0.0-3.0-1.124","../audio/61-6-fem.mp3"," ","","e","","","",""
"","2469","audio-keyboard-response","164","326726","0.0-3.0-1.125","../audio/61-7-fem.mp3"," ","","inflexível.","","","",""
"","null","html-keyboard-response","165","328000","0.0-3.0-0.126-0.126","<span style= ""font-size:30px; font-family: monospace"">+</span>","null","fixation","","","","",""
"","651","audio-keyboard-response","166","328950","0.0-3.0-1.126","../audio/64-1-fem.mp3"," ","","O","","","",""
"","829","audio-keyboard-response","167","330086","0.0-3.0-1.127","../audio/64-2-fem.mp3"," ","","dia","","","",""
"","960","audio-keyboard-response","168","331342","0.0-3.0-1.128","../audio/64-3-fem.mp3"," ","","começou","","","",""
"","579","audio-keyboard-response","169","332238","0.0-3.0-1.129","../audio/64-4-fem.mp3"," ","","com","","","",""
"","1640","audio-keyboard-response","170","334166","0.0-3.0-1.130","../audio/64-5-fem.mp3"," ","","garoa","","","",""
"","1259","audio-keyboard-response","171","335726","0.0-3.0-1.131","../audio/64-6-fem.mp3"," ","","gelada","","","",""
"","739","audio-keyboard-response","172","336758","0.0-3.0-1.132","../audio/64-7-fem.mp3"," ","","e","","","",""
"","2691","audio-keyboard-response","173","339734","0.0-3.0-1.133","../audio/64-8-fem.mp3"," ","","leve.","","","",""
"","null","html-keyboard-response","174","341006","0.0-3.0-0.134-0.134","<span style= ""font-size:30px; font-family: monospace"">+</span>","null","fixation","","","","",""
"","960","audio-keyboard-response","175","342270","0.0-3.0-1.134","../audio/62-1-fem.mp3"," ","","As","","","",""
"","3309","audio-keyboard-response","176","345871","0.0-3.0-1.135","../audio/62-2-fem.mp3"," ","","artesãs","","","",""
"","971","audio-keyboard-response","177","347174","0.0-3.0-1.136","../audio/62-3-fem.mp3"," ","","gostam","","","",""
"","659","audio-keyboard-response","178","348118","0.0-3.0-1.137","../audio/62-4-fem.mp3"," ","","de","","","",""
"","4992","audio-keyboard-response","179","353422","0.0-3.0-1.138","../audio/62-5-fem.mp3"," ","","maquiagem","","","",""
"","811","audio-keyboard-response","180","354526","0.0-3.0-1.139","../audio/62-6-fem.mp3"," ","","e","","","",""
"","771","audio-keyboard-response","181","355582","0.0-3.0-1.140","../audio/62-7-fem.mp3"," ","","de","","","",""
"","2539","audio-keyboard-response","182","358431","0.0-3.0-1.141","../audio/62-8-fem.mp3"," ","","crochê.","","","",""
"","null","html-keyboard-response","183","359684","0.0-3.0-0.142-0.142","<span style= ""font-size:30px; font-family: monospace"">+</span>","null","fixation","","","","",""
"","821","audio-keyboard-response","184","360806","0.0-3.0-1.142","../audio/63-1-masc.mp3"," ","","A","","","",""
"","960","audio-keyboard-response","185","362062","0.0-3.0-1.143","../audio/63-2-masc.mp3"," ","","chuva","","","",""
"","1320","audio-keyboard-response","186","363678","0.0-3.0-1.144","../audio/63-3-masc.mp3"," ","","entrou","","","",""
"","861","audio-keyboard-response","187","364822","0.0-3.0-1.145","../audio/63-4-masc.mp3"," ","","pela","","","",""
"","1189","audio-keyboard-response","188","366310","0.0-3.0-1.146","../audio/63-5-masc.mp3"," ","","abertura","","","",""
"","880","audio-keyboard-response","189","367478","0.0-3.0-1.147","../audio/63-6-masc.mp3"," ","","na","","","",""
"","1379","audio-keyboard-response","190","369151","0.0-3.0-1.148","../audio/63-7-masc.mp3"," ","","janela.","","","",""
"","null","html-keyboard-response","191","370420","0.0-3.0-0.149-0.149","<span style= ""font-size:30px; font-family: monospace"">+</span>","null","fixation","","","","",""
"","771","audio-keyboard-response","192","371654","0.0-3.0-1.149","../audio/65-1-masc.mp3"," ","","O","","","",""
"","971","audio-keyboard-response","193","372942","0.0-3.0-1.150","../audio/65-2-masc.mp3"," ","","fantasma","","","",""
"","621","audio-keyboard-response","194","373854","0.0-3.0-1.151","../audio/65-3-masc.mp3"," ","","veio","","","",""
"","760","audio-keyboard-response","195","374902","0.0-3.0-1.152","../audio/65-4-masc.mp3"," ","","da","","","",""
"","1240","audio-keyboard-response","196","376462","0.0-3.0-1.153","../audio/65-5-masc.mp3"," ","","escuridão","","","",""
"","581","audio-keyboard-response","197","377342","0.0-3.0-1.154","../audio/65-6-masc.mp3"," ","","do","","","",""
"","1229","audio-keyboard-response","198","378870","0.0-3.0-1.155","../audio/65-7-masc.mp3"," ","","armário.","","","",""
"","6546","html-keyboard-response","199","385679","0.0-3.0-2.155-0.155","<span style=""font-size:25px; font-family: monospace"">O fantasma veio da escuridão do armário?</span>","s","","","O fantasma veio da escuridão do armário?","null","exp-sent","false"
"","null","html-keyboard-response","200","387203","0.0-3.0-0.156-0.156","<span style= ""font-size:30px; font-family: monospace"">+</span>","null","fixation","","","","",""
"","1032","audio-keyboard-response","201","388542","0.0-3.0-1.156","../audio/59-1-fem.mp3"," ","","O","","","",""
"","1080","audio-keyboard-response","202","389918","0.0-3.0-1.157","../audio/59-2-fem.mp3"," ","","carteiro","","","",""
"","800","audio-keyboard-response","203","391030","0.0-3.0-1.158","../audio/59-3-fem.mp3"," ","","fez","","","",""
"","760","audio-keyboard-response","204","392070","0.0-3.0-1.159","../audio/59-4-fem.mp3"," ","","uma","","","",""
"","869","audio-keyboard-response","205","393238","0.0-3.0-1.160","../audio/59-5-fem.mp3"," ","","tentativa","","","",""
"","931","audio-keyboard-response","206","394462","0.0-3.0-1.161","../audio/59-6-fem.mp3"," ","","de","","","",""
"","1819","audio-keyboard-response","207","396599","0.0-3.0-1.162","../audio/59-7-fem.mp3"," ","","entrega.","","","",""
"","null","html-keyboard-response","208","397882","0.0-3.0-0.163-0.163","<span style= ""font-size:30px; font-family: monospace"">+</span>","null","fixation","","","","",""
"","691","audio-keyboard-response","209","398893","0.0-3.0-1.163","../audio/56-1-masc.mp3"," ","","A","","","",""
"","931","audio-keyboard-response","210","400095","0.0-3.0-1.164","../audio/56-2-masc.mp3"," ","","moça","","","",""
"","680","audio-keyboard-response","211","401054","0.0-3.0-1.165","../audio/56-3-masc.mp3"," ","","foi","","","",""
"","621","audio-keyboard-response","212","401966","0.0-3.0-1.166","../audio/56-4-masc.mp3"," ","","à","","","",""
"","1149","audio-keyboard-response","213","403406","0.0-3.0-1.167","../audio/56-5-masc.mp3"," ","","agência","","","",""
"","1112","audio-keyboard-response","214","404814","0.0-3.0-1.168","../audio/56-6-masc.mp3"," ","","bancária","","","",""
"","621","audio-keyboard-response","215","405742","0.0-3.0-1.169","../audio/56-7-masc.mp3"," ","","ontem","","","",""
"","811","audio-keyboard-response","216","406846","0.0-3.0-1.170","../audio/56-8-masc.mp3"," ","","de","","","",""
"","6051","audio-keyboard-response","217","413190","0.0-3.0-1.171","../audio/56-9-masc.mp3"," ","","tarde.","","","",""
"","null","html-keyboard-response","218","414470","0.0-3.0-0.172-0.172","<span style= ""font-size:30px; font-family: monospace"">+</span>","null","fixation","","","","",""
"","1141","audio-keyboard-response","219","415910","0.0-3.0-1.172","../audio/58-1-fem.mp3"," ","","Havia","","","",""
"","1139","audio-keyboard-response","220","417358","0.0-3.0-1.173","../audio/58-2-fem.mp3"," ","","apenas","","","",""
"","731","audio-keyboard-response","221","418366","0.0-3.0-1.174","../audio/58-3-fem.mp3"," ","","um","","","",""
"","1240","audio-keyboard-response","222","419902","0.0-3.0-1.175","../audio/58-4-fem.mp3"," ","","último","","","",""
"","4552","audio-keyboard-response","223","424742","0.0-3.0-1.176","../audio/58-5-fem.mp3"," ","","herdeiro","","","",""
"","792","audio-keyboard-response","224","425821","0.0-3.0-1.177","../audio/58-6-fem.mp3"," ","","do","","","",""
"","1152","audio-keyboard-response","225","427270","0.0-3.0-1.178","../audio/58-7-fem.mp3"," ","","dinheiro.","","","",""
"","null","html-keyboard-response","226","428550","0.0-3.0-0.179-0.179","<span style= ""font-size:30px; font-family: monospace"">+</span>","null","fixation","","","","",""
"","1019","audio-keyboard-response","227","429966","0.0-3.0-1.179","../audio/57-1-fem.mp3"," ","","O","","","",""
"","1352","audio-keyboard-response","228","431630","0.0-3.0-1.180","../audio/57-2-fem.mp3"," ","","capitão","","","",""
"","741","audio-keyboard-response","229","432654","0.0-3.0-1.181","../audio/57-3-fem.mp3"," ","","deu","","","",""
"","1029","audio-keyboard-response","230","433966","0.0-3.0-1.182","../audio/57-4-fem.mp3"," ","","uma","","","",""
"","1712","audio-keyboard-response","231","435990","0.0-3.0-1.183","../audio/57-5-fem.mp3"," ","","instrução","","","",""
"","880","audio-keyboard-response","232","437190","0.0-3.0-1.184","../audio/57-6-fem.mp3"," ","","para","","","",""
"","768","audio-keyboard-response","233","438238","0.0-3.0-1.185","../audio/57-7-fem.mp3"," ","","as","","","",""
"","4800","audio-keyboard-response","234","443326","0.0-3.0-1.186","../audio/57-8-fem.mp3"," ","","pessoas.","","","",""
"","null","html-keyboard-response","235","444600","0.0-3.0-0.187-0.187","<span style= ""font-size:30px; font-family: monospace"">+</span>","null","fixation","","","","",""
"","1240","audio-keyboard-response","236","446134","0.0-3.0-1.187","../audio/60-1-masc.mp3"," ","","Ondas","","","",""
"","699","audio-keyboard-response","237","447118","0.0-3.0-1.188","../audio/60-2-masc.mp3"," ","","têm","","","",""
"","701","audio-keyboard-response","238","448110","0.0-3.0-1.189","../audio/60-3-masc.mp3"," ","","um","","","",""
"","1309","audio-keyboard-response","239","449726","0.0-3.0-1.190","../audio/60-4-masc.mp3"," ","","impacto","","","",""
"","1371","audio-keyboard-response","240","451406","0.0-3.0-1.191","../audio/60-5-masc.mp3"," ","","destrutivo","","","",""
"","760","audio-keyboard-response","241","452454","0.0-3.0-1.192","../audio/60-6-masc.mp3"," ","","no","","","",""
"","2029","audio-keyboard-response","242","454774","0.0-3.0-1.193","../audio/60-7-masc.mp3"," ","","litoral.","","","",""
"","7151","html-keyboard-response","243","462182","0.0-3.0-2.193-0.193","<span style=""font-size:25px; font-family: monospace"">Ondas têm um impacto destrutivo?</span>","s","","","Ondas têm um impacto destrutivo?","null","exp-sent","false"
"","null","html-keyboard-response","244","463720","0.0-3.0-0.194-0.194","<span style= ""font-size:30px; font-family: monospace"">+</span>","null","fixation","","","","",""
"","779","audio-keyboard-response","245","464806","0.0-3.0-1.194","../audio/66-1-fem.mp3"," ","","Não","","","",""
"","989","audio-keyboard-response","246","466080","0.0-3.0-1.195","../audio/66-2-fem.mp3"," ","","gosto","","","",""
"","589","audio-keyboard-response","247","466952","0.0-3.0-1.196","../audio/66-3-fem.mp3"," ","","de","","","",""
"","1040","audio-keyboard-response","248","468280","0.0-3.0-1.197","../audio/66-4-fem.mp3"," ","","gente","","","",""
"","1320","audio-keyboard-response","249","469888","0.0-3.0-1.198","../audio/66-5-fem.mp3"," ","","egoísta","","","",""
"","699","audio-keyboard-response","250","470880","0.0-3.0-1.199","../audio/66-6-fem.mp3"," ","","nem","","","",""
"","1179","audio-keyboard-response","251","472353","0.0-3.0-1.200","../audio/66-7-fem.mp3"," ","","chata.","","","",""
"","null","html-keyboard-response","252","473615","0.0-3.0-0.201-0.201","<span style= ""font-size:30px; font-family: monospace"">+</span>","null","fixation","","","","",""
"","541","audio-keyboard-response","253","474448","0.0-3.0-1.201","../audio/68-1-masc.mp3"," ","","Meu","","","",""
"","899","audio-keyboard-response","254","475633","0.0-3.0-1.202","../audio/68-2-masc.mp3"," ","","irmão","","","",""
"","872","audio-keyboard-response","255","476776","0.0-3.0-1.203","../audio/68-3-masc.mp3"," ","","teve","","","",""
"","560","audio-keyboard-response","256","477616","0.0-3.0-1.204","../audio/68-4-masc.mp3"," ","","um","","","",""
"","552","audio-keyboard-response","257","478464","0.0-3.0-1.205","../audio/68-5-masc.mp3"," ","","noivado","","","",""
"","3621","audio-keyboard-response","258","482377","0.0-3.0-1.206","../audio/68-6-masc.mp3"," ","","longo","","","",""
"","701","audio-keyboard-response","259","483368","0.0-3.0-1.207","../audio/68-7-masc.mp3"," ","","e","","","",""
"","5640","audio-keyboard-response","260","489313","0.0-3.0-1.208","../audio/68-8-masc.mp3"," ","","maravilhoso.","","","",""
"","null","html-keyboard-response","261","490595","0.0-3.0-0.209-0.209","<span style= ""font-size:30px; font-family: monospace"">+</span>","null","fixation","","","","",""
"","629","audio-keyboard-response","262","491520","0.0-3.0-1.209","../audio/69-1-masc.mp3"," ","","A","","","",""
"","880","audio-keyboard-response","263","492704","0.0-3.0-1.210","../audio/69-2-masc.mp3"," ","","loja","","","",""
"","939","audio-keyboard-response","264","493952","0.0-3.0-1.211","../audio/69-3-masc.mp3"," ","","recebeu","","","",""
"","800","audio-keyboard-response","265","495072","0.0-3.0-1.212","../audio/69-4-masc.mp3"," ","","uma","","","",""
"","1069","audio-keyboard-response","266","496432","0.0-3.0-1.213","../audio/69-5-masc.mp3"," ","","poltrona","","","",""
"","581","audio-keyboard-response","267","497288","0.0-3.0-1.214","../audio/69-6-masc.mp3"," ","","de","","","",""
"","960","audio-keyboard-response","268","498544","0.0-3.0-1.215","../audio/69-7-masc.mp3"," ","","couro","","","",""
"","371","audio-keyboard-response","269","499200","0.0-3.0-1.216","../audio/69-8-masc.mp3"," ","","preto.","","","",""
"","null","html-keyboard-response","270","500465","0.0-3.0-0.217-0.217","<span style= ""font-size:30px; font-family: monospace"">+</span>","null","fixation","","","","",""
"","891","audio-keyboard-response","271","501641","0.0-3.0-1.217","../audio/67-1-masc.mp3"," ","","Minha","","","",""
"","1011","audio-keyboard-response","272","502936","0.0-3.0-1.218","../audio/67-2-masc.mp3"," ","","tia","","","",""
"","872","audio-keyboard-response","273","504096","0.0-3.0-1.219","../audio/67-3-masc.mp3"," ","","comprou","","","",""
"","688","audio-keyboard-response","274","505072","0.0-3.0-1.220","../audio/67-4-masc.mp3"," ","","um","","","",""
"","960","audio-keyboard-response","275","506328","0.0-3.0-1.221","../audio/67-5-masc.mp3"," ","","cordão","","","",""
"","779","audio-keyboard-response","276","507400","0.0-3.0-1.222","../audio/67-6-masc.mp3"," ","","para","","","",""
"","680","audio-keyboard-response","277","508360","0.0-3.0-1.223","../audio/67-7-masc.mp3"," ","","o","","","",""
"","1968","audio-keyboard-response","278","510632","0.0-3.0-1.224","../audio/67-8-masc.mp3"," ","","varal.","","","",""
"","null","html-keyboard-response","279","511906","0.0-3.0-0.225-0.225","<span style= ""font-size:30px; font-family: monospace"">+</span>","null","fixation","","","","",""
"","611","audio-keyboard-response","280","512808","0.0-3.0-1.225","../audio/70-1-masc.mp3"," ","","O","","","",""
"","629","audio-keyboard-response","281","513728","0.0-3.0-1.226","../audio/70-2-masc.mp3"," ","","meu","","","",""
"","739","audio-keyboard-response","282","514752","0.0-3.0-1.227","../audio/70-3-masc.mp3"," ","","filho","","","",""
"","632","audio-keyboard-response","283","515664","0.0-3.0-1.228","../audio/70-4-masc.mp3"," ","","tem","","","",""
"","1272","audio-keyboard-response","284","517224","0.0-3.0-1.229","../audio/70-5-masc.mp3"," ","","medo","","","",""
"","621","audio-keyboard-response","285","518137","0.0-3.0-1.230","../audio/70-6-masc.mp3"," ","","de","","","",""
"","1101","audio-keyboard-response","286","519536","0.0-3.0-1.231","../audio/70-7-masc.mp3"," ","","enguia","","","",""
"","712","audio-keyboard-response","287","520544","0.0-3.0-1.232","../audio/70-8-masc.mp3"," ","","e","","","",""
"","1701","audio-keyboard-response","288","522537","0.0-3.0-1.233","../audio/70-9-masc.mp3"," ","","beija-flor.","","","",""
"","5804","html-keyboard-response","289","528610","0.0-3.0-2.233-0.233","<span style=""font-size:25px; font-family: monospace"">O filho tem medo de tigre?</span>","n","","","O filho tem medo de tigre?","null","exp-sent","false"
"","null","html-keyboard-response","290","530126","0.0-3.0-0.234-0.234","<span style= ""font-size:30px; font-family: monospace"">+</span>","null","fixation","","","","",""
"","829","audio-keyboard-response","291","531250","0.0-3.0-1.234","../audio/48-1-masc.mp3"," ","","Ela","","","",""
"","840","audio-keyboard-response","292","532378","0.0-3.0-1.235","../audio/48-2-masc.mp3"," ","","come","","","",""
"","691","audio-keyboard-response","293","533379","0.0-3.0-1.236","../audio/48-3-masc.mp3"," ","","feijão","","","",""
"","589","audio-keyboard-response","294","534242","0.0-3.0-1.237","../audio/48-4-masc.mp3"," ","","com","","","",""
"","600","audio-keyboard-response","295","535146","0.0-3.0-1.238","../audio/48-5-masc.mp3"," ","","arroz","","","",""
"","792","audio-keyboard-response","296","536218","0.0-3.0-1.239","../audio/48-6-masc.mp3"," ","","todos","","","",""
"","571","audio-keyboard-response","297","537090","0.0-3.0-1.240","../audio/48-7-masc.mp3"," ","","os","","","",""
"","1301","audio-keyboard-response","298","538690","0.0-3.0-1.241","../audio/48-8-masc.mp3"," ","","dias.","","","",""
"","null","html-keyboard-response","299","539966","0.0-3.0-0.242-0.242","<span style= ""font-size:30px; font-family: monospace"">+</span>","null","fixation","","","","",""
"","808","audio-keyboard-response","300","541074","0.0-3.0-1.242","../audio/49-1-masc.mp3"," ","","Eu","","","",""
"","680","audio-keyboard-response","301","542042","0.0-3.0-1.243","../audio/49-2-masc.mp3"," ","","quero","","","",""
"","651","audio-keyboard-response","302","542978","0.0-3.0-1.244","../audio/49-3-masc.mp3"," ","","um","","","",""
"","872","audio-keyboard-response","303","544138","0.0-3.0-1.245","../audio/49-4-masc.mp3"," ","","lanche","","","",""
"","672","audio-keyboard-response","304","545098","0.0-3.0-1.246","../audio/49-5-masc.mp3"," ","","duplo","","","",""
"","600","audio-keyboard-response","305","545978","0.0-3.0-1.247","../audio/49-6-masc.mp3"," ","","e","","","",""
"","672","audio-keyboard-response","306","546938","0.0-3.0-1.248","../audio/49-7-masc.mp3"," ","","um","","","",""
"","3131","audio-keyboard-response","307","550362","0.0-3.0-1.249","../audio/49-8-masc.mp3"," ","","suco.","","","",""
"","null","html-keyboard-response","308","551636","0.0-3.0-0.250-0.250","<span style= ""font-size:30px; font-family: monospace"">+</span>","null","fixation","","","","",""
"","259","audio-keyboard-response","309","552202","0.0-3.0-1.250","../audio/47-1-masc.mp3"," ","","O","","","",""
"","821","audio-keyboard-response","310","553306","0.0-3.0-1.251","../audio/47-2-masc.mp3"," ","","tio","","","",""
"","1011","audio-keyboard-response","311","554627","0.0-3.0-1.252","../audio/47-3-masc.mp3"," ","","recusou","","","",""
"","701","audio-keyboard-response","312","555618","0.0-3.0-1.253","../audio/47-4-masc.mp3"," ","","a","","","",""
"","1101","audio-keyboard-response","313","557018","0.0-3.0-1.254","../audio/47-5-masc.mp3"," ","","sobremesa","","","",""
"","821","audio-keyboard-response","314","558130","0.0-3.0-1.255","../audio/47-6-masc.mp3"," ","","no","","","",""
"","1989","audio-keyboard-response","315","560410","0.0-3.0-1.256","../audio/47-7-masc.mp3"," ","","almoço.","","","",""
"","null","html-keyboard-response","316","561686","0.0-3.0-0.257-0.257","<span style= ""font-size:30px; font-family: monospace"">+</span>","null","fixation","","","","",""
"","709","audio-keyboard-response","317","562690","0.0-3.0-1.257","../audio/46-1-masc.mp3"," ","","Meu","","","",""
"","699","audio-keyboard-response","318","563682","0.0-3.0-1.258","../audio/46-2-masc.mp3"," ","","primo","","","",""
"","739","audio-keyboard-response","319","564714","0.0-3.0-1.259","../audio/46-3-masc.mp3"," ","","estava","","","",""
"","600","audio-keyboard-response","320","565602","0.0-3.0-1.260","../audio/46-4-masc.mp3"," ","","muito","","","",""
"","1109","audio-keyboard-response","321","567010","0.0-3.0-1.261","../audio/46-5-masc.mp3"," ","","deprimido","","","",""
"","568","audio-keyboard-response","322","567874","0.0-3.0-1.262","../audio/46-6-masc.mp3"," ","","no","","","",""
"","1192","audio-keyboard-response","323","569338","0.0-3.0-1.263","../audio/46-7-masc.mp3"," ","","inverno.","","","",""
"","null","html-keyboard-response","324","570616","0.0-3.0-0.264-0.264","<span style= ""font-size:30px; font-family: monospace"">+</span>","null","fixation","","","","",""
"","592","audio-keyboard-response","325","571506","0.0-3.0-1.264","../audio/50-1-masc.mp3"," ","","O","","","",""
"","789","audio-keyboard-response","326","572610","0.0-3.0-1.265","../audio/50-2-masc.mp3"," ","","pássaro","","","",""
"","720","audio-keyboard-response","327","573618","0.0-3.0-1.266","../audio/50-3-masc.mp3"," ","","fugiu","","","",""
"","552","audio-keyboard-response","328","574466","0.0-3.0-1.267","../audio/50-4-masc.mp3"," ","","da","","","",""
"","792","audio-keyboard-response","329","575538","0.0-3.0-1.268","../audio/50-5-masc.mp3"," ","","gaiola","","","",""
"","851","audio-keyboard-response","330","576682","0.0-3.0-1.269","../audio/50-6-masc.mp3"," ","","pela","","","",""
"","1651","audio-keyboard-response","331","578618","0.0-3.0-1.270","../audio/50-7-masc.mp3"," ","","portinhola.","","","",""
"","5787","html-keyboard-response","332","584675","0.0-3.0-2.270-0.270","<span style=""font-size:25px; font-family: monospace"">O pássaro fugiu da gaiola?</span>","s","","","O pássaro fugiu da gaiola?","null","exp-sent","false"
"","null","html-keyboard-response","333","586196","0.0-3.0-0.271-0.271","<span style= ""font-size:30px; font-family: monospace"">+</span>","null","fixation","","","","",""
"","659","audio-keyboard-response","334","587154","0.0-3.0-1.271","../audio/18-1-masc.mp3"," ","","O","","","",""
"","981","audio-keyboard-response","335","588418","0.0-3.0-1.272","../audio/18-2-masc.mp3"," ","","enredo","","","",""
"","640","audio-keyboard-response","336","589342","0.0-3.0-1.273","../audio/18-3-masc.mp3"," ","","traz","","","",""
"","541","audio-keyboard-response","337","590173","0.0-3.0-1.274","../audio/18-4-masc.mp3"," ","","um","","","",""
"","851","audio-keyboard-response","338","591310","0.0-3.0-1.275","../audio/18-5-masc.mp3"," ","","dragão","","","",""
"","701","audio-keyboard-response","339","592293","0.0-3.0-1.276","../audio/18-6-masc.mp3"," ","","forte","","","",""
"","592","audio-keyboard-response","340","593182","0.0-3.0-1.277","../audio/18-7-masc.mp3"," ","","e","","","",""
"","1120","audio-keyboard-response","341","594598","0.0-3.0-1.278","../audio/18-8-masc.mp3"," ","","solitário.","","","",""
"","null","html-keyboard-response","342","595870","0.0-3.0-0.279-0.279","<span style= ""font-size:30px; font-family: monospace"">+</span>","null","fixation","","","","",""
"","661","audio-keyboard-response","343","596821","0.0-3.0-1.279","../audio/16-1-masc.mp3"," ","","Eu","","","",""
"","672","audio-keyboard-response","344","597781","0.0-3.0-1.280","../audio/16-2-masc.mp3"," ","","nunca","","","",""
"","1011","audio-keyboard-response","345","599093","0.0-3.0-1.281","../audio/16-3-masc.mp3"," ","","conheci","","","",""
"","640","audio-keyboard-response","346","600022","0.0-3.0-1.282","../audio/16-4-masc.mp3"," ","","um","","","",""
"","952","audio-keyboard-response","347","601262","0.0-3.0-1.283","../audio/16-5-masc.mp3"," ","","general","","","",""
"","661","audio-keyboard-response","348","602213","0.0-3.0-1.284","../audio/16-6-masc.mp3"," ","","do","","","",""
"","2261","audio-keyboard-response","349","604774","0.0-3.0-1.285","../audio/16-7-masc.mp3"," ","","exército.","","","",""
"","null","html-keyboard-response","350","606041","0.0-3.0-0.286-0.286","<span style= ""font-size:30px; font-family: monospace"">+</span>","null","fixation","","","","",""
"","1349","audio-keyboard-response","351","607686","0.0-3.0-1.286","../audio/17-1-masc.mp3"," ","","Falaram","","","",""
"","789","audio-keyboard-response","352","608766","0.0-3.0-1.287","../audio/17-2-masc.mp3"," ","","da","","","",""
"","939","audio-keyboard-response","353","609997","0.0-3.0-1.288","../audio/17-3-masc.mp3"," ","","lei","","","",""
"","600","audio-keyboard-response","354","610893","0.0-3.0-1.289","../audio/17-4-masc.mp3"," ","","no","","","",""
"","571","audio-keyboard-response","355","611765","0.0-3.0-1.290","../audio/17-5-masc.mp3"," ","","ministério","","","",""
"","1659","audio-keyboard-response","356","613725","0.0-3.0-1.291","../audio/17-6-masc.mp3"," ","","diversas","","","",""
"","1659","audio-keyboard-response","357","615678","0.0-3.0-1.292","../audio/17-7-masc.mp3"," ","","vezes.","","","",""
"","null","html-keyboard-response","358","616950","0.0-3.0-0.293-0.293","<span style= ""font-size:30px; font-family: monospace"">+</span>","null","fixation","","","","",""
"","691","audio-keyboard-response","359","617934","0.0-3.0-1.293","../audio/19-1-masc.mp3"," ","","O","","","",""
"","2040","audio-keyboard-response","360","620277","0.0-3.0-1.294","../audio/19-2-masc.mp3"," ","","menino","","","",""
"","829","audio-keyboard-response","361","621397","0.0-3.0-1.295","../audio/19-3-masc.mp3"," ","","ganhou","","","",""
"","699","audio-keyboard-response","362","622397","0.0-3.0-1.296","../audio/19-4-masc.mp3"," ","","uma","","","",""
"","909","audio-keyboard-response","363","623605","0.0-3.0-1.297","../audio/19-5-masc.mp3"," ","","bala","","","",""
"","920","audio-keyboard-response","364","624830","0.0-3.0-1.298","../audio/19-6-masc.mp3"," ","","depois","","","",""
"","600","audio-keyboard-response","365","625733","0.0-3.0-1.299","../audio/19-7-masc.mp3"," ","","do","","","",""
"","1472","audio-keyboard-response","366","627501","0.0-3.0-1.300","../audio/19-8-masc.mp3"," ","","almoço.","","","",""
"","null","html-keyboard-response","367","628770","0.0-3.0-0.301-0.301","<span style= ""font-size:30px; font-family: monospace"">+</span>","null","fixation","","","","",""
"","619","audio-keyboard-response","368","629685","0.0-3.0-1.301","../audio/20-1-masc.mp3"," ","","O","","","",""
"","800","audio-keyboard-response","369","630765","0.0-3.0-1.302","../audio/20-2-masc.mp3"," ","","colega","","","",""
"","880","audio-keyboard-response","370","631941","0.0-3.0-1.303","../audio/20-3-masc.mp3"," ","","parecia","","","",""
"","781","audio-keyboard-response","371","633022","0.0-3.0-1.304","../audio/20-4-masc.mp3"," ","","muito","","","",""
"","1160","audio-keyboard-response","372","634485","0.0-3.0-1.305","../audio/20-5-masc.mp3"," ","","gripado","","","",""
"","749","audio-keyboard-response","373","635517","0.0-3.0-1.306","../audio/20-6-masc.mp3"," ","","no","","","",""
"","811","audio-keyboard-response","374","636613","0.0-3.0-1.307","../audio/20-7-masc.mp3"," ","","dia","","","",""
"","1331","audio-keyboard-response","375","638245","0.0-3.0-1.308","../audio/20-8-masc.mp3"," ","","anterior.","","","",""
"","5085","html-keyboard-response","376","643591","0.0-3.0-2.308-0.308","<span style=""font-size:25px; font-family: monospace"">O colega parecia muito gripado?</span>","s","","","O colega parecia muito gripado?","null","exp-sent","false"
"","null","html-keyboard-response","377","645110","0.0-3.0-0.309-0.309","<span style= ""font-size:30px; font-family: monospace"">+</span>","null","fixation","","","","",""
"","38331","audio-keyboard-response","378","683735","0.0-3.0-1.309","../audio/43-1-fem.mp3"," ","","Eu","","","",""
"","1181","audio-keyboard-response","379","685262","0.0-3.0-1.310","../audio/43-2-fem.mp3"," ","","achei","","","",""
"","621","audio-keyboard-response","380","686174","0.0-3.0-1.311","../audio/43-3-fem.mp3"," ","","um","","","",""
"","960","audio-keyboard-response","381","687414","0.0-3.0-1.312","../audio/43-4-fem.mp3"," ","","colchão","","","",""
"","869","audio-keyboard-response","382","688574","0.0-3.0-1.313","../audio/43-5-fem.mp3"," ","","velho","","","",""
"","699","audio-keyboard-response","383","689566","0.0-3.0-1.314","../audio/43-6-fem.mp3"," ","","e","","","",""
"","1141","audio-keyboard-response","384","691014","0.0-3.0-1.315","../audio/43-7-fem.mp3"," ","","imundo","","","",""
"","680","audio-keyboard-response","385","691982","0.0-3.0-1.316","../audio/43-8-fem.mp3"," ","","na","","","",""
"","1232","audio-keyboard-response","386","693502","0.0-3.0-1.317","../audio/43-9-fem.mp3"," ","","casa.","","","",""
"","null","html-keyboard-response","387","694770","0.0-3.0-0.318-0.318","<span style= ""font-size:30px; font-family: monospace"">+</span>","null","fixation","","","","",""
"","760","audio-keyboard-response","388","695838","0.0-3.0-1.318","../audio/44-1-fem.mp3"," ","","Meus","","","",""
"","891","audio-keyboard-response","389","697014","0.0-3.0-1.319","../audio/44-2-fem.mp3"," ","","irmãos","","","",""
"","901","audio-keyboard-response","390","698214","0.0-3.0-1.320","../audio/44-3-fem.mp3"," ","","brigam","","","",""
"","699","audio-keyboard-response","391","699206","0.0-3.0-1.321","../audio/44-4-fem.mp3"," ","","por","","","",""
"","1200","audio-keyboard-response","392","700694","0.0-3.0-1.322","../audio/44-5-fem.mp3"," ","","bobagem","","","",""
"","792","audio-keyboard-response","393","701790","0.0-3.0-1.323","../audio/44-6-fem.mp3"," ","","todos","","","",""
"","501","audio-keyboard-response","394","702590","0.0-3.0-1.324","../audio/44-7-fem.mp3"," ","","os","","","",""
"","1171","audio-keyboard-response","395","704046","0.0-3.0-1.325","../audio/44-8-fem.mp3"," ","","dias.","","","",""
"","null","html-keyboard-response","396","705311","0.0-3.0-0.326-0.326","<span style= ""font-size:30px; font-family: monospace"">+</span>","null","fixation","","","","",""
"","709","audio-keyboard-response","397","706326","0.0-3.0-1.326","../audio/42-1-masc.mp3"," ","","Eu","","","",""
"","731","audio-keyboard-response","398","707350","0.0-3.0-1.327","../audio/42-2-masc.mp3"," ","","fui","","","",""
"","651","audio-keyboard-response","399","708286","0.0-3.0-1.328","../audio/42-3-masc.mp3"," ","","a","","","",""
"","861","audio-keyboard-response","400","709422","0.0-3.0-1.329","../audio/42-4-masc.mp3"," ","","uma","","","",""
"","869","audio-keyboard-response","401","710574","0.0-3.0-1.330","../audio/42-5-masc.mp3"," ","","loja","","","",""
"","640","audio-keyboard-response","402","711510","0.0-3.0-1.331","../audio/42-6-masc.mp3"," ","","de","","","",""
"","971","audio-keyboard-response","403","712790","0.0-3.0-1.332","../audio/42-7-masc.mp3"," ","","móveis","","","",""
"","1019","audio-keyboard-response","404","714118","0.0-3.0-1.333","../audio/42-8-masc.mp3"," ","","no","","","",""
"","1589","audio-keyboard-response","405","716006","0.0-3.0-1.334","../audio/42-9-masc.mp3"," ","","bairro.","","","",""
"","null","html-keyboard-response","406","717270","0.0-3.0-0.335-0.335","<span style= ""font-size:30px; font-family: monospace"">+</span>","null","fixation","","","","",""
"","720","audio-keyboard-response","407","718286","0.0-3.0-1.335","../audio/41-1-fem.mp3"," ","","A","","","",""
"","1131","audio-keyboard-response","408","719710","0.0-3.0-1.336","../audio/41-2-fem.mp3"," ","","novela","","","",""
"","731","audio-keyboard-response","409","720742","0.0-3.0-1.337","../audio/41-3-fem.mp3"," ","","falava","","","",""
"","651","audio-keyboard-response","410","721694","0.0-3.0-1.338","../audio/41-4-fem.mp3"," ","","de","","","",""
"","941","audio-keyboard-response","411","722934","0.0-3.0-1.339","../audio/41-5-fem.mp3"," ","","paixão","","","",""
"","568","audio-keyboard-response","412","723798","0.0-3.0-1.340","../audio/41-6-fem.mp3"," ","","e","","","",""
"","1411","audio-keyboard-response","413","725502","0.0-3.0-1.341","../audio/41-7-fem.mp3"," ","","comédia.","","","",""
"","null","html-keyboard-response","414","726770","0.0-3.0-0.342-0.342","<span style= ""font-size:30px; font-family: monospace"">+</span>","null","fixation","","","","",""
"","640","audio-keyboard-response","415","727710","0.0-3.0-1.342","../audio/45-1-fem.mp3"," ","","O","","","",""
"","901","audio-keyboard-response","416","728902","0.0-3.0-1.343","../audio/45-2-fem.mp3"," ","","homem","","","",""
"","869","audio-keyboard-response","417","730054","0.0-3.0-1.344","../audio/45-3-fem.mp3"," ","","pagou","","","",""
"","520","audio-keyboard-response","418","730854","0.0-3.0-1.345","../audio/45-4-fem.mp3"," ","","o","","","",""
"","779","audio-keyboard-response","419","731926","0.0-3.0-1.346","../audio/45-5-fem.mp3"," ","","aluguel","","","",""
"","741","audio-keyboard-response","420","732942","0.0-3.0-1.347","../audio/45-6-fem.mp3"," ","","com","","","",""
"","1349","audio-keyboard-response","421","734598","0.0-3.0-1.348","../audio/45-7-fem.mp3"," ","","atraso.","","","",""
"","4674","html-keyboard-response","422","739535","0.0-3.0-2.348-0.348","<span style=""font-size:25px; font-family: monospace"">O homem pagou o aluguel em dia?</span>","n","","","O homem pagou o aluguel em dia?","null","exp-sent","false"
"","null","html-keyboard-response","423","741070","0.0-3.0-0.349-0.349","<span style= ""font-size:30px; font-family: monospace"">+</span>","null","fixation","","","","",""
"","661","audio-keyboard-response","424","742030","0.0-3.0-1.349","../audio/38-1-masc.mp3"," ","","A","","","",""
"","971","audio-keyboard-response","425","743286","0.0-3.0-1.350","../audio/38-2-masc.mp3"," ","","empresa","","","",""
"","680","audio-keyboard-response","426","744240","0.0-3.0-1.351","../audio/38-3-masc.mp3"," ","","criou","","","",""
"","568","audio-keyboard-response","427","745112","0.0-3.0-1.352","../audio/38-4-masc.mp3"," ","","a","","","",""
"","1040","audio-keyboard-response","428","746439","0.0-3.0-1.353","../audio/38-5-masc.mp3"," ","","patente","","","",""
"","579","audio-keyboard-response","429","747312","0.0-3.0-1.354","../audio/38-6-masc.mp3"," ","","da","","","",""
"","2859","audio-keyboard-response","430","750480","0.0-3.0-1.355","../audio/38-7-masc.mp3"," ","","frigideira.","","","",""
"","null","html-keyboard-response","431","751753","0.0-3.0-0.356-0.356","<span style= ""font-size:30px; font-family: monospace"">+</span>","null","fixation","","","","",""
"","648","audio-keyboard-response","432","752711","0.0-3.0-1.356","../audio/36-1-masc.mp3"," ","","Meu","","","",""
"","760","audio-keyboard-response","433","753775","0.0-3.0-1.357","../audio/36-2-masc.mp3"," ","","tio","","","",""
"","792","audio-keyboard-response","434","754864","0.0-3.0-1.358","../audio/36-3-masc.mp3"," ","","comprou","","","",""
"","501","audio-keyboard-response","435","755647","0.0-3.0-1.359","../audio/36-4-masc.mp3"," ","","um","","","",""
"","608","audio-keyboard-response","436","756552","0.0-3.0-1.360","../audio/36-5-masc.mp3"," ","","filtro","","","",""
"","579","audio-keyboard-response","437","757431","0.0-3.0-1.361","../audio/36-6-masc.mp3"," ","","de","","","",""
"","941","audio-keyboard-response","438","758664","0.0-3.0-1.362","../audio/36-7-masc.mp3"," ","","água","","","",""
"","760","audio-keyboard-response","439","759712","0.0-3.0-1.363","../audio/36-8-masc.mp3"," ","","hoje","","","",""
"","1749","audio-keyboard-response","440","761752","0.0-3.0-1.364","../audio/36-9-masc.mp3"," ","","cedo.","","","",""
"","null","html-keyboard-response","441","763012","0.0-3.0-0.365-0.365","<span style= ""font-size:30px; font-family: monospace"">+</span>","null","fixation","","","","",""
"","688","audio-keyboard-response","442","763991","0.0-3.0-1.365","../audio/37-1-masc.mp3"," ","","Eu","","","",""
"","859","audio-keyboard-response","443","765152","0.0-3.0-1.366","../audio/37-2-masc.mp3"," ","","adoro","","","",""
"","792","audio-keyboard-response","444","766216","0.0-3.0-1.367","../audio/37-3-masc.mp3"," ","","suco","","","",""
"","600","audio-keyboard-response","445","767096","0.0-3.0-1.368","../audio/37-4-masc.mp3"," ","","de","","","",""
"","920","audio-keyboard-response","446","768303","0.0-3.0-1.369","../audio/37-5-masc.mp3"," ","","manga","","","",""
"","629","audio-keyboard-response","447","769231","0.0-3.0-1.370","../audio/37-6-masc.mp3"," ","","com","","","",""
"","1771","audio-keyboard-response","448","771287","0.0-3.0-1.371","../audio/37-7-masc.mp3"," ","","hortelã.","","","",""
"","null","html-keyboard-response","449","772563","0.0-3.0-0.372-0.372","<span style= ""font-size:30px; font-family: monospace"">+</span>","null","fixation","","","","",""
"","589","audio-keyboard-response","450","773448","0.0-3.0-1.372","../audio/39-1-masc.mp3"," ","","O","","","",""
"","1008","audio-keyboard-response","451","774752","0.0-3.0-1.373","../audio/39-2-masc.mp3"," ","","conselho","","","",""
"","661","audio-keyboard-response","452","775687","0.0-3.0-1.374","../audio/39-3-masc.mp3"," ","","foi","","","",""
"","952","audio-keyboard-response","453","776943","0.0-3.0-1.375","../audio/39-4-masc.mp3"," ","","muito","","","",""
"","941","audio-keyboard-response","454","778176","0.0-3.0-1.376","../audio/39-5-masc.mp3"," ","","útil","","","",""
"","659","audio-keyboard-response","455","779120","0.0-3.0-1.377","../audio/39-6-masc.mp3"," ","","para","","","",""
"","960","audio-keyboard-response","456","780359","0.0-3.0-1.378","../audio/39-7-masc.mp3"," ","","minha","","","",""
"","971","audio-keyboard-response","457","781624","0.0-3.0-1.379","../audio/39-8-masc.mp3"," ","","tia.","","","",""
"","null","html-keyboard-response","458","782914","0.0-3.0-0.380-0.380","<span style= ""font-size:30px; font-family: monospace"">+</span>","null","fixation","","","","",""
"","560","audio-keyboard-response","459","783768","0.0-3.0-1.380","../audio/40-1-fem.mp3"," ","","O","","","",""
"","968","audio-keyboard-response","460","785031","0.0-3.0-1.381","../audio/40-2-fem.mp3"," ","","jogo","","","",""
"","1179","audio-keyboard-response","461","786519","0.0-3.0-1.382","../audio/40-3-fem.mp3"," ","","falava","","","",""
"","709","audio-keyboard-response","462","787511","0.0-3.0-1.383","../audio/40-4-fem.mp3"," ","","de","","","",""
"","1400","audio-keyboard-response","463","789216","0.0-3.0-1.384","../audio/40-5-fem.mp3"," ","","fantasia","","","",""
"","531","audio-keyboard-response","464","790040","0.0-3.0-1.385","../audio/40-6-fem.mp3"," ","","e","","","",""
"","699","audio-keyboard-response","465","791031","0.0-3.0-1.386","../audio/40-7-fem.mp3"," ","","de","","","",""
"","901","audio-keyboard-response","466","792214","0.0-3.0-1.387","../audio/40-8-fem.mp3"," ","","aventura.","","","",""
"","11934","html-keyboard-response","467","804410","0.0-3.0-2.387-0.387","<span style=""font-size:25px; font-family: monospace"">O jogo tinha fantasia e aventura?</span>","s","","","O jogo tinha fantasia e aventura?","null","exp-sent","false"
"","null","html-keyboard-response","468","805925","0.0-3.0-0.388-0.388","<span style= ""font-size:30px; font-family: monospace"">+</span>","null","fixation","","","","",""
"","1029","audio-keyboard-response","469","807249","0.0-3.0-1.388","../audio/54-1-fem.mp3"," ","","Estou","","","",""
"","621","audio-keyboard-response","470","808145","0.0-3.0-1.389","../audio/54-2-fem.mp3"," ","","com","","","",""
"","920","audio-keyboard-response","471","809353","0.0-3.0-1.390","../audio/54-3-fem.mp3"," ","","medo","","","",""
"","581","audio-keyboard-response","472","810208","0.0-3.0-1.391","../audio/54-4-fem.mp3"," ","","da","","","",""
"","1091","audio-keyboard-response","473","811601","0.0-3.0-1.392","../audio/54-5-fem.mp3"," ","","atual","","","",""
"","1469","audio-keyboard-response","474","813361","0.0-3.0-1.393","../audio/54-6-fem.mp3"," ","","organização","","","",""
"","571","audio-keyboard-response","475","814225","0.0-3.0-1.394","../audio/54-7-fem.mp3"," ","","do","","","",""
"","1869","audio-keyboard-response","476","816393","0.0-3.0-1.395","../audio/54-8-fem.mp3"," ","","país.","","","",""
"","null","html-keyboard-response","477","817665","0.0-3.0-0.396-0.396","<span style= ""font-size:30px; font-family: monospace"">+</span>","null","fixation","","","","",""
"","851","audio-keyboard-response","478","818809","0.0-3.0-1.396","../audio/52-1-masc.mp3"," ","","Às","","","",""
"","920","audio-keyboard-response","479","820033","0.0-3.0-1.397","../audio/52-2-masc.mp3"," ","","vezes","","","",""
"","731","audio-keyboard-response","480","821041","0.0-3.0-1.398","../audio/52-3-masc.mp3"," ","","eu","","","",""
"","749","audio-keyboard-response","481","822081","0.0-3.0-1.399","../audio/52-4-masc.mp3"," ","","tenho","","","",""
"","1000","audio-keyboard-response","482","823369","0.0-3.0-1.400","../audio/52-5-masc.mp3"," ","","azia","","","",""
"","792","audio-keyboard-response","483","824457","0.0-3.0-1.401","../audio/52-6-masc.mp3"," ","","depois","","","",""
"","571","audio-keyboard-response","484","825321","0.0-3.0-1.402","../audio/52-7-masc.mp3"," ","","da","","","",""
"","531","audio-keyboard-response","485","826129","0.0-3.0-1.403","../audio/52-8-masc.mp3"," ","","janta.","","","",""
"","null","html-keyboard-response","486","827415","0.0-3.0-0.404-0.404","<span style= ""font-size:30px; font-family: monospace"">+</span>","null","fixation","","","","",""
"","971","audio-keyboard-response","487","828681","0.0-3.0-1.404","../audio/51-1-masc.mp3"," ","","Suco","","","",""
"","611","audio-keyboard-response","488","829569","0.0-3.0-1.405","../audio/51-2-masc.mp3"," ","","de","","","",""
"","1080","audio-keyboard-response","489","830937","0.0-3.0-1.406","../audio/51-3-masc.mp3"," ","","acerola","","","",""
"","600","audio-keyboard-response","490","831833","0.0-3.0-1.407","../audio/51-4-masc.mp3"," ","","é","","","",""
"","629","audio-keyboard-response","491","832753","0.0-3.0-1.408","../audio/51-5-masc.mp3"," ","","azedo","","","",""
"","611","audio-keyboard-response","492","833641","0.0-3.0-1.409","../audio/51-6-masc.mp3"," ","","e","","","",""
"","851","audio-keyboard-response","493","834785","0.0-3.0-1.410","../audio/51-7-masc.mp3"," ","","até","","","",""
"","1299","audio-keyboard-response","494","836393","0.0-3.0-1.411","../audio/51-8-masc.mp3"," ","","barato.","","","",""
"","null","html-keyboard-response","495","837665","0.0-3.0-0.412-0.412","<span style= ""font-size:30px; font-family: monospace"">+</span>","null","fixation","","","","",""
"","709","audio-keyboard-response","496","838673","0.0-3.0-1.412","../audio/53-1-masc.mp3"," ","","O","","","",""
"","1211","audio-keyboard-response","497","840169","0.0-3.0-1.413","../audio/53-2-masc.mp3"," ","","médico","","","",""
"","600","audio-keyboard-response","498","841065","0.0-3.0-1.414","../audio/53-3-masc.mp3"," ","","foi","","","",""
"","949","audio-keyboard-response","499","842329","0.0-3.0-1.415","../audio/53-4-masc.mp3"," ","","bastante","","","",""
"","1059","audio-keyboard-response","500","843681","0.0-3.0-1.416","../audio/53-5-masc.mp3"," ","","preciso","","","",""
"","861","audio-keyboard-response","501","844825","0.0-3.0-1.417","../audio/53-6-masc.mp3"," ","","durante","","","",""
"","501","audio-keyboard-response","502","845625","0.0-3.0-1.418","../audio/53-7-masc.mp3"," ","","a","","","",""
"","1371","audio-keyboard-response","503","847305","0.0-3.0-1.419","../audio/53-8-masc.mp3"," ","","cirurgia.","","","",""
"","null","html-keyboard-response","504","848585","0.0-3.0-0.420-0.420","<span style= ""font-size:30px; font-family: monospace"">+</span>","null","fixation","","","","",""
"","571","audio-keyboard-response","505","849465","0.0-3.0-1.420","../audio/55-1-fem.mp3"," ","","O","","","",""
"","979","audio-keyboard-response","506","850761","0.0-3.0-1.421","../audio/55-2-fem.mp3"," ","","insulto","","","",""
"","1229","audio-keyboard-response","507","852288","0.0-3.0-1.422","../audio/55-3-fem.mp3"," ","","recente","","","",""
"","1112","audio-keyboard-response","508","853697","0.0-3.0-1.423","../audio/55-4-fem.mp3"," ","","causou","","","",""
"","1651","audio-keyboard-response","509","855649","0.0-3.0-1.424","../audio/55-5-fem.mp3"," ","","indignação","","","",""
"","840","audio-keyboard-response","510","856769","0.0-3.0-1.425","../audio/55-6-fem.mp3"," ","","em","","","",""
"","1331","audio-keyboard-response","511","858377","0.0-3.0-1.426","../audio/55-7-fem.mp3"," ","","todos.","","","",""
"","6358","html-keyboard-response","512","864990","0.0-3.0-2.426-0.426","<span style=""font-size:25px; font-family: monospace"">O insulto causou calmaria?</span>","n","","","O insulto causou calmaria?","null","exp-sent","false"
"","null","html-keyboard-response","513","866501","0.0-3.0-0.427-0.427","<span style= ""font-size:30px; font-family: monospace"">+</span>","null","fixation","","","","",""
"","880","audio-keyboard-response","514","867685","0.0-3.0-1.427","../audio/26-1-masc.mp3"," ","","Amanhã","","","",""
"","728","audio-keyboard-response","515","868709","0.0-3.0-1.428","../audio/26-2-masc.mp3"," ","","temos","","","",""
"","840","audio-keyboard-response","516","869829","0.0-3.0-1.429","../audio/26-3-masc.mp3"," ","","festa","","","",""
"","720","audio-keyboard-response","517","870837","0.0-3.0-1.430","../audio/26-4-masc.mp3"," ","","na","","","",""
"","899","audio-keyboard-response","518","872029","0.0-3.0-1.431","../audio/26-5-masc.mp3"," ","","piscina","","","",""
"","600","audio-keyboard-response","519","872909","0.0-3.0-1.432","../audio/26-6-masc.mp3"," ","","o","","","",""
"","651","audio-keyboard-response","520","873845","0.0-3.0-1.433","../audio/26-7-masc.mp3"," ","","dia","","","",""
"","1251","audio-keyboard-response","521","875373","0.0-3.0-1.434","../audio/26-8-masc.mp3"," ","","todo.","","","",""
"","null","html-keyboard-response","522","876651","0.0-3.0-0.435-0.435","<span style= ""font-size:30px; font-family: monospace"">+</span>","null","fixation","","","","",""
"","509","audio-keyboard-response","523","877469","0.0-3.0-1.435","../audio/29-1-fem.mp3"," ","","Hoje","","","",""
"","851","audio-keyboard-response","524","878613","0.0-3.0-1.436","../audio/29-2-fem.mp3"," ","","vamos","","","",""
"","720","audio-keyboard-response","525","879629","0.0-3.0-1.437","../audio/29-3-fem.mp3"," ","","fazer","","","",""
"","531","audio-keyboard-response","526","880437","0.0-3.0-1.438","../audio/29-4-fem.mp3"," ","","uma","","","",""
"","1560","audio-keyboard-response","527","882293","0.0-3.0-1.439","../audio/29-5-fem.mp3"," ","","atividade","","","",""
"","1072","audio-keyboard-response","528","883653","0.0-3.0-1.440","../audio/29-6-fem.mp3"," ","","sobre","","","",""
"","1091","audio-keyboard-response","529","885045","0.0-3.0-1.441","../audio/29-7-fem.mp3"," ","","fauna","","","",""
"","1499","audio-keyboard-response","530","886837","0.0-3.0-1.442","../audio/29-8-fem.mp3"," ","","marinha.","","","",""
"","null","html-keyboard-response","531","888111","0.0-3.0-0.443-0.443","<span style= ""font-size:30px; font-family: monospace"">+</span>","null","fixation","","","","",""
"","789","audio-keyboard-response","532","889197","0.0-3.0-1.443","../audio/27-1-masc.mp3"," ","","O","","","",""
"","819","audio-keyboard-response","533","890317","0.0-3.0-1.444","../audio/27-2-masc.mp3"," ","","dinheiro","","","",""
"","781","audio-keyboard-response","534","891381","0.0-3.0-1.445","../audio/27-3-masc.mp3"," ","","chegou","","","",""
"","621","audio-keyboard-response","535","892293","0.0-3.0-1.446","../audio/27-4-masc.mp3"," ","","à","","","",""
"","952","audio-keyboard-response","536","893533","0.0-3.0-1.447","../audio/27-5-masc.mp3"," ","","elite","","","",""
"","581","audio-keyboard-response","537","894405","0.0-3.0-1.448","../audio/27-6-masc.mp3"," ","","deste","","","",""
"","1389","audio-keyboard-response","538","896085","0.0-3.0-1.449","../audio/27-7-masc.mp3"," ","","país.","","","",""
"","null","html-keyboard-response","539","897361","0.0-3.0-0.450-0.450","<span style= ""font-size:30px; font-family: monospace"">+</span>","null","fixation","","","","",""
"","600","audio-keyboard-response","540","898261","0.0-3.0-1.450","../audio/28-1-masc.mp3"," ","","O","","","",""
"","832","audio-keyboard-response","541","899373","0.0-3.0-1.451","../audio/28-2-masc.mp3"," ","","time","","","",""
"","672","audio-keyboard-response","542","900341","0.0-3.0-1.452","../audio/28-3-masc.mp3"," ","","quer","","","",""
"","621","audio-keyboard-response","543","901245","0.0-3.0-1.453","../audio/28-4-masc.mp3"," ","","a","","","",""
"","1149","audio-keyboard-response","544","902685","0.0-3.0-1.454","../audio/28-5-masc.mp3"," ","","vitória","","","",""
"","739","audio-keyboard-response","545","903717","0.0-3.0-1.455","../audio/28-6-masc.mp3"," ","","no","","","",""
"","928","audio-keyboard-response","546","904949","0.0-3.0-1.456","../audio/28-7-masc.mp3"," ","","jogo","","","",""
"","640","audio-keyboard-response","547","905869","0.0-3.0-1.457","../audio/28-8-masc.mp3"," ","","de","","","",""
"","1341","audio-keyboard-response","548","907493","0.0-3.0-1.458","../audio/28-9-masc.mp3"," ","","vôlei.","","","",""
"","null","html-keyboard-response","549","908762","0.0-3.0-0.459-0.459","<span style= ""font-size:30px; font-family: monospace"">+</span>","null","fixation","","","","",""
"","560","audio-keyboard-response","550","909613","0.0-3.0-1.459","../audio/30-1-masc.mp3"," ","","O","","","",""
"","1141","audio-keyboard-response","551","911061","0.0-3.0-1.460","../audio/30-2-masc.mp3"," ","","funcionário","","","",""
"","981","audio-keyboard-response","552","912333","0.0-3.0-1.461","../audio/30-3-masc.mp3"," ","","entregou","","","",""
"","581","audio-keyboard-response","553","913213","0.0-3.0-1.462","../audio/30-4-masc.mp3"," ","","o","","","",""
"","1200","audio-keyboard-response","554","914709","0.0-3.0-1.463","../audio/30-5-masc.mp3"," ","","restante","","","",""
"","581","audio-keyboard-response","555","915581","0.0-3.0-1.464","../audio/30-6-masc.mp3"," ","","do","","","",""
"","819","audio-keyboard-response","556","916709","0.0-3.0-1.465","../audio/30-7-masc.mp3"," ","","dinheiro.","","","",""
"","4234","html-keyboard-response","557","921205","0.0-3.0-2.465-0.465","<span style=""font-size:25px; font-family: monospace"">O funcionário entregou o contrato?</span>","n","","","O funcionário entregou o contrato?","null","exp-sent","false"
"","null","html-keyboard-response","558","922731","0.0-3.0-0.466-0.466","<span style= ""font-size:30px; font-family: monospace"">+</span>","null","fixation","","","","",""
"","779","audio-keyboard-response","559","923829","0.0-3.0-1.466","../audio/13-1-fem.mp3"," ","","Para","","","",""
"","712","audio-keyboard-response","560","924813","0.0-3.0-1.467","../audio/13-2-fem.mp3"," ","","mim","","","",""
"","512","audio-keyboard-response","561","925621","0.0-3.0-1.468","../audio/13-3-fem.mp3"," ","","é","","","",""
"","861","audio-keyboard-response","562","926789","0.0-3.0-1.469","../audio/13-4-fem.mp3"," ","","muito","","","",""
"","1019","audio-keyboard-response","563","928117","0.0-3.0-1.470","../audio/13-5-fem.mp3"," ","","difícil","","","",""
"","939","audio-keyboard-response","564","929357","0.0-3.0-1.471","../audio/13-6-fem.mp3"," ","","acordar","","","",""
"","981","audio-keyboard-response","565","930621","0.0-3.0-1.472","../audio/13-7-fem.mp3"," ","","cedo.","","","",""
"","null","html-keyboard-response","566","931899","0.0-3.0-0.473-0.473","<span style= ""font-size:30px; font-family: monospace"">+</span>","null","fixation","","","","",""
"","301","audio-keyboard-response","567","932493","0.0-3.0-1.473","../audio/11-1-masc.mp3"," ","","Elas","","","",""
"","851","audio-keyboard-response","568","933645","0.0-3.0-1.474","../audio/11-2-masc.mp3"," ","","gostam","","","",""
"","909","audio-keyboard-response","569","934845","0.0-3.0-1.475","../audio/11-3-masc.mp3"," ","","muito","","","",""
"","651","audio-keyboard-response","570","935781","0.0-3.0-1.476","../audio/11-4-masc.mp3"," ","","de","","","",""
"","1360","audio-keyboard-response","571","937453","0.0-3.0-1.477","../audio/11-5-masc.mp3"," ","","aritmética","","","",""
"","739","audio-keyboard-response","572","938469","0.0-3.0-1.478","../audio/11-6-masc.mp3"," ","","e","","","",""
"","571","audio-keyboard-response","573","939333","0.0-3.0-1.479","../audio/11-7-masc.mp3"," ","","de","","","",""
"","1152","audio-keyboard-response","574","940789","0.0-3.0-1.480","../audio/11-8-masc.mp3"," ","","leitura.","","","",""
"","null","html-keyboard-response","575","942067","0.0-3.0-0.481-0.481","<span style= ""font-size:30px; font-family: monospace"">+</span>","null","fixation","","","","",""
"","589","audio-keyboard-response","576","942957","0.0-3.0-1.481","../audio/14-1-masc.mp3"," ","","O","","","",""
"","960","audio-keyboard-response","577","944205","0.0-3.0-1.482","../audio/14-2-masc.mp3"," ","","cachorro","","","",""
"","611","audio-keyboard-response","578","945093","0.0-3.0-1.483","../audio/14-3-masc.mp3"," ","","é","","","",""
"","821","audio-keyboard-response","579","946213","0.0-3.0-1.484","../audio/14-4-masc.mp3"," ","","muito","","","",""
"","760","audio-keyboard-response","580","947253","0.0-3.0-1.485","../audio/14-5-masc.mp3"," ","","fiel","","","",""
"","531","audio-keyboard-response","581","948069","0.0-3.0-1.486","../audio/14-6-masc.mp3"," ","","a","","","",""
"","920","audio-keyboard-response","582","949285","0.0-3.0-1.487","../audio/14-7-masc.mp3"," ","","seus","","","",""
"","1371","audio-keyboard-response","583","950933","0.0-3.0-1.488","../audio/14-8-masc.mp3"," ","","donos.","","","",""
"","null","html-keyboard-response","584","952219","0.0-3.0-0.489-0.489","<span style= ""font-size:30px; font-family: monospace"">+</span>","null","fixation","","","","",""
"","560","audio-keyboard-response","585","953077","0.0-3.0-1.489","../audio/12-1-fem.mp3"," ","","O","","","",""
"","712","audio-keyboard-response","586","954061","0.0-3.0-1.490","../audio/12-2-fem.mp3"," ","","dia","","","",""
"","760","audio-keyboard-response","587","955125","0.0-3.0-1.491","../audio/12-3-fem.mp3"," ","","estava","","","",""
"","611","audio-keyboard-response","588","956029","0.0-3.0-1.492","../audio/12-4-fem.mp3"," ","","quente,","","","",""
"","1171","audio-keyboard-response","589","957501","0.0-3.0-1.493","../audio/12-5-fem.mp3"," ","","tranquilo","","","",""
"","619","audio-keyboard-response","590","958405","0.0-3.0-1.494","../audio/12-6-fem.mp3"," ","","e","","","",""
"","1579","audio-keyboard-response","591","960277","0.0-3.0-1.495","../audio/12-7-fem.mp3"," ","","ensolarado.","","","",""
"","null","html-keyboard-response","592","961549","0.0-3.0-0.496-0.496","<span style= ""font-size:30px; font-family: monospace"">+</span>","null","fixation","","","","",""
"","701","audio-keyboard-response","593","962541","0.0-3.0-1.496","../audio/15-1-masc.mp3"," ","","Meu","","","",""
"","712","audio-keyboard-response","594","963549","0.0-3.0-1.497","../audio/15-2-masc.mp3"," ","","primo","","","",""
"","552","audio-keyboard-response","595","964389","0.0-3.0-1.498","../audio/15-3-masc.mp3"," ","","é","","","",""
"","611","audio-keyboard-response","596","965301","0.0-3.0-1.499","../audio/15-4-masc.mp3"," ","","um","","","",""
"","880","audio-keyboard-response","597","966461","0.0-3.0-1.500","../audio/15-5-masc.mp3"," ","","grande","","","",""
"","1181","audio-keyboard-response","598","967949","0.0-3.0-1.501","../audio/15-6-masc.mp3"," ","","vendedor","","","",""
"","592","audio-keyboard-response","599","968829","0.0-3.0-1.502","../audio/15-7-masc.mp3"," ","","de","","","",""
"","699","audio-keyboard-response","600","969837","0.0-3.0-1.503","../audio/15-8-masc.mp3"," ","","carros.","","","",""
"","5292","html-keyboard-response","601","975381","0.0-3.0-2.503-0.503","<span style=""font-size:25px; font-family: monospace"">O primo é um vendedor de carros?</span>","s","","","O primo é um vendedor de carros?","null","exp-sent","false"
"","null","html-keyboard-response","602","976899","0.0-3.0-0.504-0.504","<span style= ""font-size:30px; font-family: monospace"">+</span>","null","fixation","","","","",""
"","581","audio-keyboard-response","603","977773","0.0-3.0-1.504","../audio/72-1-fem.mp3"," ","","A","","","",""
"","1360","audio-keyboard-response","604","979445","0.0-3.0-1.505","../audio/72-2-fem.mp3"," ","","vencedora","","","",""
"","1069","audio-keyboard-response","605","980813","0.0-3.0-1.506","../audio/72-3-fem.mp3"," ","","recebeu","","","",""
"","560","audio-keyboard-response","606","981661","0.0-3.0-1.507","../audio/72-4-fem.mp3"," ","","um","","","",""
"","800","audio-keyboard-response","607","982757","0.0-3.0-1.508","../audio/72-5-fem.mp3"," ","","prêmio","","","",""
"","651","audio-keyboard-response","608","983685","0.0-3.0-1.509","../audio/72-6-fem.mp3"," ","","em","","","",""
"","1339","audio-keyboard-response","609","985319","0.0-3.0-1.510","../audio/72-7-fem.mp3"," ","","dinheiro.","","","",""
"","null","html-keyboard-response","610","986583","0.0-3.0-0.511-0.511","<span style= ""font-size:30px; font-family: monospace"">+</span>","null","fixation","","","","",""
"","731","audio-keyboard-response","611","987624","0.0-3.0-1.511","../audio/71-1-masc.mp3"," ","","Minhas","","","",""
"","891","audio-keyboard-response","612","988807","0.0-3.0-1.512","../audio/71-2-masc.mp3"," ","","comidas","","","",""
"","992","audio-keyboard-response","613","990103","0.0-3.0-1.513","../audio/71-3-masc.mp3"," ","","favoritas","","","",""
"","600","audio-keyboard-response","614","990999","0.0-3.0-1.514","../audio/71-4-masc.mp3"," ","","são","","","",""
"","928","audio-keyboard-response","615","992231","0.0-3.0-1.515","../audio/71-5-masc.mp3"," ","","morango","","","",""
"","512","audio-keyboard-response","616","993015","0.0-3.0-1.516","../audio/71-6-masc.mp3"," ","","e","","","",""
"","1179","audio-keyboard-response","617","994479","0.0-3.0-1.517","../audio/71-7-masc.mp3"," ","","uva.","","","",""
"","null","html-keyboard-response","618","995744","0.0-3.0-0.518-0.518","<span style= ""font-size:30px; font-family: monospace"">+</span>","null","fixation","","","","",""
"","648","audio-keyboard-response","619","996711","0.0-3.0-1.518","../audio/74-1-fem.mp3"," ","","Este","","","",""
"","1171","audio-keyboard-response","620","998176","0.0-3.0-1.519","../audio/74-2-fem.mp3"," ","","emprego","","","",""
"","651","audio-keyboard-response","621","999119","0.0-3.0-1.520","../audio/74-3-fem.mp3"," ","","é","","","",""
"","971","audio-keyboard-response","622","1000367","0.0-3.0-1.521","../audio/74-4-fem.mp3"," ","","muito","","","",""
"","1459","audio-keyboard-response","623","1002119","0.0-3.0-1.522","../audio/74-5-fem.mp3"," ","","cansativo","","","",""
"","701","audio-keyboard-response","624","1003095","0.0-3.0-1.523","../audio/74-6-fem.mp3"," ","","a","","","",""
"","931","audio-keyboard-response","625","1004319","0.0-3.0-1.524","../audio/74-7-fem.mp3"," ","","longo","","","",""
"","1608","audio-keyboard-response","626","1006231","0.0-3.0-1.525","../audio/74-8-fem.mp3"," ","","prazo.","","","",""
"","null","html-keyboard-response","627","1007504","0.0-3.0-0.526-0.526","<span style= ""font-size:30px; font-family: monospace"">+</span>","null","fixation","","","","",""
"","731","audio-keyboard-response","628","1008535","0.0-3.0-1.526","../audio/73-1-fem.mp3"," ","","O","","","",""
"","1040","audio-keyboard-response","629","1009879","0.0-3.0-1.527","../audio/73-2-fem.mp3"," ","","cliente","","","",""
"","571","audio-keyboard-response","630","1010743","0.0-3.0-1.528","../audio/73-3-fem.mp3"," ","","era","","","",""
"","701","audio-keyboard-response","631","1011727","0.0-3.0-1.529","../audio/73-4-fem.mp3"," ","","um","","","",""
"","752","audio-keyboard-response","632","1012783","0.0-3.0-1.530","../audio/73-5-fem.mp3"," ","","homem","","","",""
"","861","audio-keyboard-response","633","1013935","0.0-3.0-1.531","../audio/73-6-fem.mp3"," ","","muito","","","",""
"","1400","audio-keyboard-response","634","1015639","0.0-3.0-1.532","../audio/73-7-fem.mp3"," ","","educado.","","","",""
"","null","html-keyboard-response","635","1016913","0.0-3.0-0.533-0.533","<span style= ""font-size:30px; font-family: monospace"">+</span>","null","fixation","","","","",""
"","829","audio-keyboard-response","636","1018039","0.0-3.0-1.533","../audio/75-1-fem.mp3"," ","","Só","","","",""
"","1120","audio-keyboard-response","637","1019464","0.0-3.0-1.534","../audio/75-2-fem.mp3"," ","","existe","","","",""
"","592","audio-keyboard-response","638","1020343","0.0-3.0-1.535","../audio/75-3-fem.mp3"," ","","uma","","","",""
"","920","audio-keyboard-response","639","1021559","0.0-3.0-1.536","../audio/75-4-fem.mp3"," ","","pessoa","","","",""
"","1349","audio-keyboard-response","640","1023207","0.0-3.0-1.537","../audio/75-5-fem.mp3"," ","","canhota","","","",""
"","989","audio-keyboard-response","641","1024511","0.0-3.0-1.538","../audio/75-6-fem.mp3"," ","","nesta","","","",""
"","2211","audio-keyboard-response","642","1027023","0.0-3.0-1.539","../audio/75-7-fem.mp3"," ","","cidade.","","","",""
"","10322","html-keyboard-response","643","1037616","0.0-3.0-2.539-0.539","<span style=""font-size:25px; font-family: monospace"">Só existe uma pessoa canhota na cidade?</span>","s","","","Só existe uma pessoa canhota na cidade?","null","exp-sent","false"
"","null","html-keyboard-response","644","1039133","0.0-3.0-0.540-0.540","<span style= ""font-size:30px; font-family: monospace"">+</span>","null","fixation","","","","",""
"","611","audio-keyboard-response","645","1040055","0.0-3.0-1.540","../audio/76-1-masc.mp3"," ","","O","","","",""
"","920","audio-keyboard-response","646","1041271","0.0-3.0-1.541","../audio/76-2-masc.mp3"," ","","bisavô","","","",""
"","792","audio-keyboard-response","647","1042335","0.0-3.0-1.542","../audio/76-3-masc.mp3"," ","","comprou","","","",""
"","552","audio-keyboard-response","648","1043183","0.0-3.0-1.543","../audio/76-4-masc.mp3"," ","","um","","","",""
"","1061","audio-keyboard-response","649","1044543","0.0-3.0-1.544","../audio/76-5-masc.mp3"," ","","ralador","","","",""
"","621","audio-keyboard-response","650","1045449","0.0-3.0-1.545","../audio/76-6-masc.mp3"," ","","de","","","",""
"","979","audio-keyboard-response","651","1046713","0.0-3.0-1.546","../audio/76-7-masc.mp3"," ","","queijo.","","","",""
"","null","html-keyboard-response","652","1047985","0.0-3.0-0.547-0.547","<span style= ""font-size:30px; font-family: monospace"">+</span>","null","fixation","","","","",""
"","661","audio-keyboard-response","653","1048945","0.0-3.0-1.547","../audio/78-1-masc.mp3"," ","","Eles","","","",""
"","800","audio-keyboard-response","654","1050041","0.0-3.0-1.548","../audio/78-2-masc.mp3"," ","","trazem","","","",""
"","611","audio-keyboard-response","655","1050945","0.0-3.0-1.549","../audio/78-3-masc.mp3"," ","","um","","","",""
"","811","audio-keyboard-response","656","1052049","0.0-3.0-1.550","../audio/78-4-masc.mp3"," ","","fato","","","",""
"","1000","audio-keyboard-response","657","1053337","0.0-3.0-1.551","../audio/78-5-masc.mp3"," ","","urgente","","","",""
"","680","audio-keyboard-response","658","1054321","0.0-3.0-1.552","../audio/78-6-masc.mp3"," ","","todos","","","",""
"","571","audio-keyboard-response","659","1055169","0.0-3.0-1.553","../audio/78-7-masc.mp3"," ","","os","","","",""
"","1232","audio-keyboard-response","660","1056705","0.0-3.0-1.554","../audio/78-8-masc.mp3"," ","","dias.","","","",""
"","null","html-keyboard-response","661","1057985","0.0-3.0-0.555-0.555","<span style= ""font-size:30px; font-family: monospace"">+</span>","null","fixation","","","","",""
"","651","audio-keyboard-response","662","1058946","0.0-3.0-1.555","../audio/77-1-fem.mp3"," ","","A","","","",""
"","1080","audio-keyboard-response","663","1060321","0.0-3.0-1.556","../audio/77-2-fem.mp3"," ","","criança","","","",""
"","909","audio-keyboard-response","664","1061521","0.0-3.0-1.557","../audio/77-3-fem.mp3"," ","","ficou","","","",""
"","901","audio-keyboard-response","665","1062705","0.0-3.0-1.558","../audio/77-4-fem.mp3"," ","","muito","","","",""
"","989","audio-keyboard-response","666","1064001","0.0-3.0-1.559","../audio/77-5-fem.mp3"," ","","feliz","","","",""
"","581","audio-keyboard-response","667","1064857","0.0-3.0-1.560","../audio/77-6-fem.mp3"," ","","com","","","",""
"","600","audio-keyboard-response","668","1065753","0.0-3.0-1.561","../audio/77-7-fem.mp3"," ","","o","","","",""
"","1451","audio-keyboard-response","669","1067497","0.0-3.0-1.562","../audio/77-8-fem.mp3"," ","","brinquedo.","","","",""
"","null","html-keyboard-response","670","1068765","0.0-3.0-0.563-0.563","<span style= ""font-size:30px; font-family: monospace"">+</span>","null","fixation","","","","",""
"","669","audio-keyboard-response","671","1069729","0.0-3.0-1.563","../audio/79-1-masc.mp3"," ","","A","","","",""
"","1160","audio-keyboard-response","672","1071185","0.0-3.0-1.564","../audio/79-2-masc.mp3"," ","","médica","","","",""
"","1091","audio-keyboard-response","673","1072569","0.0-3.0-1.565","../audio/79-3-masc.mp3"," ","","verificou","","","",""
"","589","audio-keyboard-response","674","1073449","0.0-3.0-1.566","../audio/79-4-masc.mp3"," ","","a","","","",""
"","1040","audio-keyboard-response","675","1074793","0.0-3.0-1.567","../audio/79-5-masc.mp3"," ","","gengiva","","","",""
"","541","audio-keyboard-response","676","1075617","0.0-3.0-1.568","../audio/79-6-masc.mp3"," ","","por","","","",""
"","1488","audio-keyboard-response","677","1077393","0.0-3.0-1.569","../audio/79-7-masc.mp3"," ","","último.","","","",""
"","null","html-keyboard-response","678","1078665","0.0-3.0-0.570-0.570","<span style= ""font-size:30px; font-family: monospace"">+</span>","null","fixation","","","","",""
"","731","audio-keyboard-response","679","1079689","0.0-3.0-1.570","../audio/80-1-fem.mp3"," ","","Meu","","","",""
"","760","audio-keyboard-response","680","1080745","0.0-3.0-1.571","../audio/80-2-fem.mp3"," ","","primo","","","",""
"","960","audio-keyboard-response","681","1082001","0.0-3.0-1.572","../audio/80-3-fem.mp3"," ","","conheceu","","","",""
"","589","audio-keyboard-response","682","1082873","0.0-3.0-1.573","../audio/80-4-fem.mp3"," ","","um","","","",""
"","4091","audio-keyboard-response","683","1087257","0.0-3.0-1.574","../audio/80-5-fem.mp3"," ","","jovem","","","",""
"","1171","audio-keyboard-response","684","1088737","0.0-3.0-1.575","../audio/80-6-fem.mp3"," ","","amável","","","",""
"","611","audio-keyboard-response","685","1089641","0.0-3.0-1.576","../audio/80-7-fem.mp3"," ","","e","","","",""
"","1240","audio-keyboard-response","686","1091177","0.0-3.0-1.577","../audio/80-8-fem.mp3"," ","","confiante.","","","",""
"","10100","html-keyboard-response","687","1101546","0.0-3.0-2.577-0.577","<span style=""font-size:25px; font-family: monospace"">O primo conheceu um jovem irritante?</span>","n","","","O primo conheceu um jovem irritante?","null","exp-sent","false"
"","null","html-keyboard-response","688","1103085","0.0-3.0-0.578-0.578","<span style= ""font-size:30px; font-family: monospace"">+</span>","null","fixation","","","","",""
"","781","audio-keyboard-response","689","1104168","0.0-3.0-1.578","../audio/03-1-masc.mp3"," ","","O","","","",""
"","800","audio-keyboard-response","690","1105265","0.0-3.0-1.579","../audio/03-2-masc.mp3"," ","","coelho","","","",""
"","611","audio-keyboard-response","691","1106172","0.0-3.0-1.580","../audio/03-3-masc.mp3"," ","","foi","","","",""
"","851","audio-keyboard-response","692","1107324","0.0-3.0-1.581","../audio/03-4-masc.mp3"," ","","bastante","","","",""
"","1211","audio-keyboard-response","693","1108812","0.0-3.0-1.582","../audio/03-5-masc.mp3"," ","","dócil","","","",""
"","669","audio-keyboard-response","694","1109772","0.0-3.0-1.583","../audio/03-6-masc.mp3"," ","","com","","","",""
"","589","audio-keyboard-response","695","1110652","0.0-3.0-1.584","../audio/03-7-masc.mp3"," ","","as","","","",""
"","1109","audio-keyboard-response","696","1112077","0.0-3.0-1.585","../audio/03-8-masc.mp3"," ","","crianças.","","","",""
"","null","html-keyboard-response","697","1113348","0.0-3.0-0.586-0.586","<span style= ""font-size:30px; font-family: monospace"">+</span>","null","fixation","","","","",""
"","1069","audio-keyboard-response","698","1114732","0.0-3.0-1.586","../audio/04-1-fem.mp3"," ","","Duzentos","","","",""
"","720","audio-keyboard-response","699","1115756","0.0-3.0-1.587","../audio/04-2-fem.mp3"," ","","carros","","","",""
"","1019","audio-keyboard-response","700","1117076","0.0-3.0-1.588","../audio/04-3-fem.mp3"," ","","passaram","","","",""
"","651","audio-keyboard-response","701","1118020","0.0-3.0-1.589","../audio/04-4-fem.mp3"," ","","pela","","","",""
"","672","audio-keyboard-response","702","1118980","0.0-3.0-1.590","../audio/04-5-fem.mp3"," ","","ponte","","","",""
"","1080","audio-keyboard-response","703","1120348","0.0-3.0-1.591","../audio/04-6-fem.mp3"," ","","hoje","","","",""
"","512","audio-keyboard-response","704","1121148","0.0-3.0-1.592","../audio/04-7-fem.mp3"," ","","de","","","",""
"","1371","audio-keyboard-response","705","1122813","0.0-3.0-1.593","../audio/04-8-fem.mp3"," ","","tarde.","","","",""
"","null","html-keyboard-response","706","1124084","0.0-3.0-0.594-0.594","<span style= ""font-size:30px; font-family: monospace"">+</span>","null","fixation","","","","",""
"","600","audio-keyboard-response","707","1124980","0.0-3.0-1.594","../audio/02-2-masc.mp3"," ","","Havia","","","",""
"","621","audio-keyboard-response","708","1125860","0.0-3.0-1.595","../audio/02-2-masc.mp3"," ","","um","","","",""
"","2968","audio-keyboard-response","709","1129116","0.0-3.0-1.596","../audio/02-3-masc.mp3"," ","","cheiro","","","",""
"","699","audio-keyboard-response","710","1130116","0.0-3.0-1.597","../audio/02-4-masc.mp3"," ","","de","","","",""
"","992","audio-keyboard-response","711","1131380","0.0-3.0-1.598","../audio/02-5-masc.mp3"," ","","gasolina","","","",""
"","731","audio-keyboard-response","712","1132404","0.0-3.0-1.599","../audio/02-6-masc.mp3"," ","","na","","","",""
"","1411","audio-keyboard-response","713","1134109","0.0-3.0-1.600","../audio/02-7-masc.mp3"," ","","garagem.","","","",""
"","null","html-keyboard-response","714","1135379","0.0-3.0-0.601-0.601","<span style= ""font-size:30px; font-family: monospace"">+</span>","null","fixation","","","","",""
"","672","audio-keyboard-response","715","1136348","0.0-3.0-1.601","../audio/01-1-masc.mp3"," ","","O","","","",""
"","779","audio-keyboard-response","716","1137436","0.0-3.0-1.602","../audio/01-2-masc.mp3"," ","","menino","","","",""
"","771","audio-keyboard-response","717","1138508","0.0-3.0-1.603","../audio/01-3-masc.mp3"," ","","derrubou","","","",""
"","571","audio-keyboard-response","718","1139372","0.0-3.0-1.604","../audio/01-4-masc.mp3"," ","","a","","","",""
"","1000","audio-keyboard-response","719","1140668","0.0-3.0-1.605","../audio/01-5-masc.mp3"," ","","guitarra","","","",""
"","611","audio-keyboard-response","720","1141564","0.0-3.0-1.606","../audio/01-6-masc.mp3"," ","","no","","","",""
"","771","audio-keyboard-response","721","1142628","0.0-3.0-1.607","../audio/01-7-masc.mp3"," ","","chão.","","","",""
"","null","html-keyboard-response","722","1143898","0.0-3.0-0.608-0.608","<span style= ""font-size:30px; font-family: monospace"">+</span>","null","fixation","","","","",""
"","672","audio-keyboard-response","723","1144869","0.0-3.0-1.608","../audio/05-1-masc.mp3"," ","","A","","","",""
"","1189","audio-keyboard-response","724","1146372","0.0-3.0-1.609","../audio/05-2-masc.mp3"," ","","vendedora","","","",""
"","829","audio-keyboard-response","725","1147492","0.0-3.0-1.610","../audio/05-3-masc.mp3"," ","","ajudou","","","",""
"","600","audio-keyboard-response","726","1148388","0.0-3.0-1.611","../audio/05-4-masc.mp3"," ","","um","","","",""
"","949","audio-keyboard-response","727","1149643","0.0-3.0-1.612","../audio/05-5-masc.mp3"," ","","turista","","","",""
"","739","audio-keyboard-response","728","1150684","0.0-3.0-1.613","../audio/05-6-masc.mp3"," ","","na","","","",""
"","1240","audio-keyboard-response","729","1152228","0.0-3.0-1.614","../audio/05-7-masc.mp3"," ","","loja.","","","",""
"","5108","html-keyboard-response","730","1157597","0.0-3.0-2.614-0.614","<span style=""font-size:25px; font-family: monospace"">A vendedora ajudou um turista?</span>","s","","","A vendedora ajudou um turista?","null","exp-sent","false"
"[{""page_index"":0,""viewing_time"":35577}]","35577","instructions","731","1193676","0.0-4.0","","","","","","","",""
