"view_history","rt","trial_type","trial_index","time_elapsed","internal_node_id","stimulus","response","trial_part","trial","word","question","answer","accuracy"
"[{""page_index"":0,""viewing_time"":37111},{""page_index"":1,""viewing_time"":22896}]","60008","instructions","0","60009","0.0-0.0","","","","","","","",""
"","null","html-keyboard-response","1","61113","0.0-1.0-0.0-0.0","<span style= ""font-size:30px; font-family: monospace"">+</span>","null","fixation","","","","",""
"","3086","html-keyboard-response","2","64451","0.0-1.0-1.0","<span style=""font-size:30px; font-family: monospace"">O</span>"," ","","prac-sent","O","","",""
"","2016","html-keyboard-response","3","66721","0.0-1.0-1.1","<span style=""font-size:30px; font-family: monospace"">dia</span>"," ","","prac-sent","dia","","",""
"","1644","html-keyboard-response","4","68617","0.0-1.0-1.2","<span style=""font-size:30px; font-family: monospace"">estará</span>"," ","","prac-sent","estará","","",""
"","1236","html-keyboard-response","5","70105","0.0-1.0-1.3","<span style=""font-size:30px; font-family: monospace"">cheio</span>"," ","","prac-sent","cheio","","",""
"","892","html-keyboard-response","6","71249","0.0-1.0-1.4","<span style=""font-size:30px; font-family: monospace"">de</span>"," ","","prac-sent","de","","",""
"","1277","html-keyboard-response","7","72777","0.0-1.0-1.5","<span style=""font-size:30px; font-family: monospace"">nuvens</span>"," ","","prac-sent","nuvens","","",""
"","1028","html-keyboard-response","8","74057","0.0-1.0-1.6","<span style=""font-size:30px; font-family: monospace"">hoje.</span>"," ","","prac-sent","hoje.","","",""
"","null","html-keyboard-response","9","75308","0.0-1.0-0.7-0.7","<span style= ""font-size:30px; font-family: monospace"">+</span>","null","fixation","","","","",""
"","6328","html-keyboard-response","10","81889","0.0-1.0-1.7","<span style=""font-size:30px; font-family: monospace"">A</span>"," ","","prac-sent","A","","",""
"","4604","html-keyboard-response","11","86744","0.0-1.0-1.8","<span style=""font-size:30px; font-family: monospace"">caneca</span>"," ","","prac-sent","caneca","","",""
"","2156","html-keyboard-response","12","89153","0.0-1.0-1.9","<span style=""font-size:30px; font-family: monospace"">colorida</span>"," ","","prac-sent","colorida","","",""
"","4197","html-keyboard-response","13","93602","0.0-1.0-1.10","<span style=""font-size:30px; font-family: monospace"">caiu</span>"," ","","prac-sent","caiu","","",""
"","1059","html-keyboard-response","14","94913","0.0-1.0-1.11","<span style=""font-size:30px; font-family: monospace"">da</span>"," ","","prac-sent","da","","",""
"","1421","html-keyboard-response","15","96585","0.0-1.0-1.12","<span style=""font-size:30px; font-family: monospace"">mesa</span>"," ","","prac-sent","mesa","","",""
"","1141","html-keyboard-response","16","97977","0.0-1.0-1.13","<span style=""font-size:30px; font-family: monospace"">de</span>"," ","","prac-sent","de","","",""
"","3004","html-keyboard-response","17","101233","0.0-1.0-1.14","<span style=""font-size:30px; font-family: monospace"">jantar.</span>"," ","","prac-comp","jantar.","","",""
"","19829","html-keyboard-response","18","121314","0.0-1.0-2.14-0.14","<span style=""font-size:30px; font-family: monospace"">A caneca permaneceu na mesa?</span>","n","","prac-comp","","A caneca permaneceu na mesa?","não","false"
"[{""page_index"":0,""viewing_time"":32793}]","32793","instructions","19","154608","0.0-2.0","","","","","","","",""
"","null","html-keyboard-response","20","155711","0.0-3.0-0.0-0.0","<span style= ""font-size:30px; font-family: monospace"">+</span>","null","fixation","","","","",""
"","2270","html-keyboard-response","21","158233","0.0-3.0-1.0","<span style=""font-size:30px; font-family: monospace"">A</span>"," ","","exp-sent","A","","",""
"","2429","html-keyboard-response","22","160913","0.0-3.0-1.1","<span style=""font-size:30px; font-family: monospace"">força</span>"," ","","exp-sent","força","","",""
"","1461","html-keyboard-response","23","162625","0.0-3.0-1.2","<span style=""font-size:30px; font-family: monospace"">d'água</span>"," ","","exp-sent","d'água","","",""
"","1885","html-keyboard-response","24","164761","0.0-3.0-1.3","<span style=""font-size:30px; font-family: monospace"">estava</span>"," ","","exp-sent","estava","","",""
"","2852","html-keyboard-response","25","167865","0.0-3.0-1.4","<span style=""font-size:30px; font-family: monospace"">normal</span>"," ","","exp-sent","normal","","",""
"","1645","html-keyboard-response","26","169761","0.0-3.0-1.5","<span style=""font-size:30px; font-family: monospace"">naquele</span>"," ","","exp-sent","naquele","","",""
"","4396","html-keyboard-response","27","174408","0.0-3.0-1.6","<span style=""font-size:30px; font-family: monospace"">dia.</span>"," ","","exp-sent","dia.","","",""
"","null","html-keyboard-response","28","175660","0.0-3.0-0.7-0.7","<span style= ""font-size:30px; font-family: monospace"">+</span>","null","fixation","","","","",""
"","98","html-keyboard-response","29","176009","0.0-3.0-1.7","<span style=""font-size:30px; font-family: monospace"">A</span>"," ","","exp-sent","A","","",""
"","3452","html-keyboard-response","30","179713","0.0-3.0-1.8","<span style=""font-size:30px; font-family: monospace"">médica</span>"," ","","exp-sent","médica","","",""
"","1547","html-keyboard-response","31","181513","0.0-3.0-1.9","<span style=""font-size:30px; font-family: monospace"">ofereceu</span>"," ","","exp-sent","ofereceu","","",""
"","1300","html-keyboard-response","32","183064","0.0-3.0-1.10","<span style=""font-size:30px; font-family: monospace"">a</span>"," ","","exp-sent","a","","",""
"","1829","html-keyboard-response","33","185144","0.0-3.0-1.11","<span style=""font-size:30px; font-family: monospace"">pomada</span>"," ","","exp-sent","pomada","","",""
"","3301","html-keyboard-response","34","188697","0.0-3.0-1.12","<span style=""font-size:30px; font-family: monospace"">para</span>"," ","","exp-sent","para","","",""
"","708","html-keyboard-response","35","189656","0.0-3.0-1.13","<span style=""font-size:30px; font-family: monospace"">o</span>"," ","","exp-sent","o","","",""
"","1668","html-keyboard-response","36","191576","0.0-3.0-1.14","<span style=""font-size:30px; font-family: monospace"">avô.</span>"," ","","exp-sent","avô.","","",""
"","null","html-keyboard-response","37","192828","0.0-3.0-0.15-0.15","<span style= ""font-size:30px; font-family: monospace"">+</span>","null","fixation","","","","",""
"","1953","html-keyboard-response","38","195033","0.0-3.0-1.15","<span style=""font-size:30px; font-family: monospace"">Ele</span>"," ","","exp-sent","Ele","","",""
"","1797","html-keyboard-response","39","197080","0.0-3.0-1.16","<span style=""font-size:30px; font-family: monospace"">conversou</span>"," ","","exp-sent","conversou","","",""
"","781","html-keyboard-response","40","198113","0.0-3.0-1.17","<span style=""font-size:30px; font-family: monospace"">com</span>"," ","","exp-sent","com","","",""
"","892","html-keyboard-response","41","199257","0.0-3.0-1.18","<span style=""font-size:30px; font-family: monospace"">o</span>"," ","","exp-sent","o","","",""
"","1884","html-keyboard-response","42","201392","0.0-3.0-1.19","<span style=""font-size:30px; font-family: monospace"">patrão</span>"," ","","exp-sent","patrão","","",""
"","1141","html-keyboard-response","43","202784","0.0-3.0-1.20","<span style=""font-size:30px; font-family: monospace"">durante</span>"," ","","exp-sent","durante","","",""
"","565","html-keyboard-response","44","203600","0.0-3.0-1.21","<span style=""font-size:30px; font-family: monospace"">a</span>"," ","","exp-sent","a","","",""
"","797","html-keyboard-response","45","204648","0.0-3.0-1.22","<span style=""font-size:30px; font-family: monospace"">tarde.</span>"," ","","exp-sent","tarde.","","",""
"","null","html-keyboard-response","46","205900","0.0-3.0-0.23-0.23","<span style= ""font-size:30px; font-family: monospace"">+</span>","null","fixation","","","","",""
"","3215","html-keyboard-response","47","209369","0.0-3.0-1.23","<span style=""font-size:30px; font-family: monospace"">Algumas</span>"," ","","exp-sent","Algumas","","",""
"","1092","html-keyboard-response","48","210712","0.0-3.0-1.24","<span style=""font-size:30px; font-family: monospace"">pessoas</span>"," ","","exp-sent","pessoas","","",""
"","1740","html-keyboard-response","49","212704","0.0-3.0-1.25","<span style=""font-size:30px; font-family: monospace"">acreditam</span>"," ","","exp-sent","acreditam","","",""
"","884","html-keyboard-response","50","213840","0.0-3.0-1.26","<span style=""font-size:30px; font-family: monospace"">em</span>"," ","","exp-sent","em","","",""
"","7780","html-keyboard-response","51","221872","0.0-3.0-1.27","<span style=""font-size:30px; font-family: monospace"">espíritos</span>"," ","","exp-sent","espíritos","","",""
"","652","html-keyboard-response","52","222776","0.0-3.0-1.28","<span style=""font-size:30px; font-family: monospace"">e</span>"," ","","exp-sent","e","","",""
"","629","html-keyboard-response","53","223656","0.0-3.0-1.29","<span style=""font-size:30px; font-family: monospace"">em</span>"," ","","exp-sent","em","","",""
"","995","html-keyboard-response","54","224904","0.0-3.0-1.30","<span style=""font-size:30px; font-family: monospace"">outras</span>"," ","","exp-sent","outras","","",""
"","1605","html-keyboard-response","55","226760","0.0-3.0-1.31","<span style=""font-size:30px; font-family: monospace"">vidas.</span>"," ","","exp-sent","vidas.","","",""
"","null","html-keyboard-response","56","228013","0.0-3.0-0.32-0.32","<span style= ""font-size:30px; font-family: monospace"">+</span>","null","fixation","","","","",""
"","6248","html-keyboard-response","57","234512","0.0-3.0-1.32","<span style=""font-size:30px; font-family: monospace"">Ela</span>"," ","","exp-sent","Ela","","",""
"","940","html-keyboard-response","58","235704","0.0-3.0-1.33","<span style=""font-size:30px; font-family: monospace"">gosta</span>"," ","","exp-sent","gosta","","",""
"","637","html-keyboard-response","59","236592","0.0-3.0-1.34","<span style=""font-size:30px; font-family: monospace"">de</span>"," ","","exp-sent","de","","",""
"","1788","html-keyboard-response","60","238632","0.0-3.0-1.35","<span style=""font-size:30px; font-family: monospace"">estudar</span>"," ","","exp-sent","estudar","","",""
"","2468","html-keyboard-response","61","241352","0.0-3.0-1.36","<span style=""font-size:30px; font-family: monospace"">matemática</span>"," ","","exp-sent","matemática","","",""
"","781","html-keyboard-response","62","242384","0.0-3.0-1.37","<span style=""font-size:30px; font-family: monospace"">com</span>"," ","","exp-sent","com","","",""
"","1845","html-keyboard-response","63","244480","0.0-3.0-1.38","<span style=""font-size:30px; font-family: monospace"">colegas.</span>"," ","","comp","colegas.","","",""
"","10460","html-keyboard-response","64","255192","0.0-3.0-2.38-0.38","<span style=""font-size:30px; font-family: monospace"">Ela gosta de estudar física?</span>","n","","comp","","Ela gosta de estudar física?","não","false"
"","null","html-keyboard-response","65","256694","0.0-3.0-0.39-0.39","<span style= ""font-size:30px; font-family: monospace"">+</span>","null","fixation","","","","",""
"","2190","html-keyboard-response","66","259136","0.0-3.0-1.39","<span style=""font-size:30px; font-family: monospace"">O</span>"," ","","exp-sent","O","","",""
"","1933","html-keyboard-response","67","261320","0.0-3.0-1.40","<span style=""font-size:30px; font-family: monospace"">texto</span>"," ","","exp-sent","texto","","",""
"","5645","html-keyboard-response","68","267216","0.0-3.0-1.41","<span style=""font-size:30px; font-family: monospace"">trazia</span>"," ","","exp-sent","trazia","","",""
"","764","html-keyboard-response","69","268232","0.0-3.0-1.42","<span style=""font-size:30px; font-family: monospace"">um</span>"," ","","exp-sent","um","","",""
"","2372","html-keyboard-response","70","270856","0.0-3.0-1.43","<span style=""font-size:30px; font-family: monospace"">argumento</span>"," ","","exp-sent","argumento","","",""
"","2133","html-keyboard-response","71","273240","0.0-3.0-1.44","<span style=""font-size:30px; font-family: monospace"">central</span>"," ","","exp-sent","central","","",""
"","877","html-keyboard-response","72","274368","0.0-3.0-1.45","<span style=""font-size:30px; font-family: monospace"">para</span>"," ","","exp-sent","para","","",""
"","5460","html-keyboard-response","73","280080","0.0-3.0-1.46","<span style=""font-size:30px; font-family: monospace"">a</span>"," ","","exp-sent","a","","",""
"","2509","html-keyboard-response","74","282840","0.0-3.0-1.47","<span style=""font-size:30px; font-family: monospace"">conversa.</span>"," ","","exp-sent","conversa.","","",""
"","null","html-keyboard-response","75","284092","0.0-3.0-0.48-0.48","<span style= ""font-size:30px; font-family: monospace"">+</span>","null","fixation","","","","",""
"","3008","html-keyboard-response","76","287352","0.0-3.0-1.48","<span style=""font-size:30px; font-family: monospace"">Ontem</span>"," ","","exp-sent","Ontem","","",""
"","756","html-keyboard-response","77","288360","0.0-3.0-1.49","<span style=""font-size:30px; font-family: monospace"">a</span>"," ","","exp-sent","a","","",""
"","1717","html-keyboard-response","78","290328","0.0-3.0-1.50","<span style=""font-size:30px; font-family: monospace"">temperatura</span>"," ","","exp-sent","temperatura","","",""
"","1004","html-keyboard-response","79","291584","0.0-3.0-1.51","<span style=""font-size:30px; font-family: monospace"">estava</span>"," ","","exp-sent","estava","","",""
"","6692","html-keyboard-response","80","298528","0.0-3.0-1.52","<span style=""font-size:30px; font-family: monospace"">amena</span>"," ","","exp-sent","amena","","",""
"","1061","html-keyboard-response","81","299840","0.0-3.0-1.53","<span style=""font-size:30px; font-family: monospace"">durante</span>"," ","","exp-sent","durante","","",""
"","517","html-keyboard-response","82","300608","0.0-3.0-1.54","<span style=""font-size:30px; font-family: monospace"">o</span>"," ","","exp-sent","o","","",""
"","1396","html-keyboard-response","83","302256","0.0-3.0-1.55","<span style=""font-size:30px; font-family: monospace"">dia.</span>"," ","","exp-sent","dia.","","",""
"","null","html-keyboard-response","84","303508","0.0-3.0-0.56-0.56","<span style= ""font-size:30px; font-family: monospace"">+</span>","null","fixation","","","","",""
"","5681","html-keyboard-response","85","309440","0.0-3.0-1.56","<span style=""font-size:30px; font-family: monospace"">Havia</span>"," ","","exp-sent","Havia","","",""
"","773","html-keyboard-response","86","310464","0.0-3.0-1.57","<span style=""font-size:30px; font-family: monospace"">um</span>"," ","","exp-sent","um","","",""
"","1709","html-keyboard-response","87","312424","0.0-3.0-1.58","<span style=""font-size:30px; font-family: monospace"">machucado</span>"," ","","exp-sent","machucado","","",""
"","628","html-keyboard-response","88","313304","0.0-3.0-1.59","<span style=""font-size:30px; font-family: monospace"">no</span>"," ","","exp-sent","no","","",""
"","1356","html-keyboard-response","89","314912","0.0-3.0-1.60","<span style=""font-size:30px; font-family: monospace"">dedo</span>"," ","","exp-sent","dedo","","",""
"","689","html-keyboard-response","90","315864","0.0-3.0-1.61","<span style=""font-size:30px; font-family: monospace"">da</span>"," ","","exp-sent","da","","",""
"","2037","html-keyboard-response","91","318152","0.0-3.0-1.62","<span style=""font-size:30px; font-family: monospace"">criança.</span>"," ","","exp-sent","criança.","","",""
"","null","html-keyboard-response","92","319404","0.0-3.0-0.63-0.63","<span style= ""font-size:30px; font-family: monospace"">+</span>","null","fixation","","","","",""
"","777","html-keyboard-response","93","320432","0.0-3.0-1.63","<span style=""font-size:30px; font-family: monospace"">A</span>"," ","","exp-sent","A","","",""
"","2620","html-keyboard-response","94","323304","0.0-3.0-1.64","<span style=""font-size:30px; font-family: monospace"">borboleta</span>"," ","","exp-sent","borboleta","","",""
"","1109","html-keyboard-response","95","324664","0.0-3.0-1.65","<span style=""font-size:30px; font-family: monospace"">pousou</span>"," ","","exp-sent","pousou","","",""
"","461","html-keyboard-response","96","325376","0.0-3.0-1.66","<span style=""font-size:30px; font-family: monospace"">no</span>"," ","","exp-sent","no","","",""
"","957","html-keyboard-response","97","326584","0.0-3.0-1.67","<span style=""font-size:30px; font-family: monospace"">ombro</span>"," ","","exp-sent","ombro","","",""
"","1581","html-keyboard-response","98","328416","0.0-3.0-1.68","<span style=""font-size:30px; font-family: monospace"">daquela</span>"," ","","exp-sent","daquela","","",""
"","3741","html-keyboard-response","99","332408","0.0-3.0-1.69","<span style=""font-size:30px; font-family: monospace"">moça.</span>"," ","","exp-sent","moça.","","",""
"","null","html-keyboard-response","100","333660","0.0-3.0-0.70-0.70","<span style= ""font-size:30px; font-family: monospace"">+</span>","null","fixation","","","","",""
"","1169","html-keyboard-response","101","335080","0.0-3.0-1.70","<span style=""font-size:30px; font-family: monospace"">Eu</span>"," ","","exp-sent","Eu","","",""
"","884","html-keyboard-response","102","336216","0.0-3.0-1.71","<span style=""font-size:30px; font-family: monospace"">quero</span>"," ","","exp-sent","quero","","",""
"","573","html-keyboard-response","103","337040","0.0-3.0-1.72","<span style=""font-size:30px; font-family: monospace"">um</span>"," ","","exp-sent","um","","",""
"","4917","html-keyboard-response","104","342208","0.0-3.0-1.73","<span style=""font-size:30px; font-family: monospace"">namorado</span>"," ","","exp-sent","namorado","","",""
"","1989","html-keyboard-response","105","344448","0.0-3.0-1.74","<span style=""font-size:30px; font-family: monospace"">honesto</span>"," ","","exp-sent","honesto","","",""
"","571","html-keyboard-response","106","345272","0.0-3.0-1.75","<span style=""font-size:30px; font-family: monospace"">e</span>"," ","","exp-sent","e","","",""
"","1428","html-keyboard-response","107","346952","0.0-3.0-1.76","<span style=""font-size:30px; font-family: monospace"">compreensivo.</span>"," ","","comp","compreensivo.","","",""
"","50820","html-keyboard-response","108","398024","0.0-3.0-2.76-0.76","<span style=""font-size:30px; font-family: monospace"">Eu quero um namorado honesto?</span>","s","","comp","","Eu quero um namorado honesto?","sim","false"
"","null","html-keyboard-response","109","399526","0.0-3.0-0.77-0.77","<span style= ""font-size:30px; font-family: monospace"">+</span>","null","fixation","","","","",""
"","710","html-keyboard-response","110","400488","0.0-3.0-1.77","<span style=""font-size:30px; font-family: monospace"">A</span>"," ","","exp-sent","A","","",""
"","1580","html-keyboard-response","111","402320","0.0-3.0-1.78","<span style=""font-size:30px; font-family: monospace"">motorista</span>"," ","","exp-sent","motorista","","",""
"","578","html-keyboard-response","112","403152","0.0-3.0-1.79","<span style=""font-size:30px; font-family: monospace"">fez</span>"," ","","exp-sent","fez","","",""
"","619","html-keyboard-response","113","404024","0.0-3.0-1.80","<span style=""font-size:30px; font-family: monospace"">o</span>"," ","","exp-sent","o","","",""
"","2132","html-keyboard-response","114","406408","0.0-3.0-1.81","<span style=""font-size:30px; font-family: monospace"">retorno</span>"," ","","exp-sent","retorno","","",""
"","1356","html-keyboard-response","115","408016","0.0-3.0-1.82","<span style=""font-size:30px; font-family: monospace"">com</span>"," ","","exp-sent","com","","",""
"","1245","html-keyboard-response","116","409512","0.0-3.0-1.83","<span style=""font-size:30px; font-family: monospace"">cuidado.</span>"," ","","exp-sent","cuidado.","","",""
"","null","html-keyboard-response","117","410765","0.0-3.0-0.84-0.84","<span style= ""font-size:30px; font-family: monospace"">+</span>","null","fixation","","","","",""
"","2544","html-keyboard-response","118","413560","0.0-3.0-1.84","<span style=""font-size:30px; font-family: monospace"">Contos</span>"," ","","exp-sent","Contos","","",""
"","565","html-keyboard-response","119","414376","0.0-3.0-1.85","<span style=""font-size:30px; font-family: monospace"">de</span>"," ","","exp-sent","de","","",""
"","1500","html-keyboard-response","120","416127","0.0-3.0-1.86","<span style=""font-size:30px; font-family: monospace"">ação</span>"," ","","exp-sent","ação","","",""
"","629","html-keyboard-response","121","417008","0.0-3.0-1.87","<span style=""font-size:30px; font-family: monospace"">têm</span>"," ","","exp-sent","têm","","",""
"","3940","html-keyboard-response","122","421208","0.0-3.0-1.88","<span style=""font-size:30px; font-family: monospace"">chantagem</span>"," ","","exp-sent","chantagem","","",""
"","652","html-keyboard-response","123","422112","0.0-3.0-1.89","<span style=""font-size:30px; font-family: monospace"">e</span>"," ","","exp-sent","e","","",""
"","1340","html-keyboard-response","124","423704","0.0-3.0-1.90","<span style=""font-size:30px; font-family: monospace"">muita</span>"," ","","exp-sent","muita","","",""
"","11805","html-keyboard-response","125","435760","0.0-3.0-1.91","<span style=""font-size:30px; font-family: monospace"">luta.</span>"," ","","exp-sent","luta.","","",""
"","null","html-keyboard-response","126","437011","0.0-3.0-0.92-0.92","<span style= ""font-size:30px; font-family: monospace"">+</span>","null","fixation","","","","",""
"","897","html-keyboard-response","127","438160","0.0-3.0-1.92","<span style=""font-size:30px; font-family: monospace"">A</span>"," ","","exp-sent","A","","",""
"","3437","html-keyboard-response","128","441848","0.0-3.0-1.93","<span style=""font-size:30px; font-family: monospace"">bisavó</span>"," ","","exp-sent","bisavó","","",""
"","1277","html-keyboard-response","129","443376","0.0-3.0-1.94","<span style=""font-size:30px; font-family: monospace"">recebeu</span>"," ","","exp-sent","recebeu","","",""
"","1012","html-keyboard-response","130","444640","0.0-3.0-1.95","<span style=""font-size:30px; font-family: monospace"">um</span>"," ","","exp-sent","um","","",""
"","1437","html-keyboard-response","131","446328","0.0-3.0-1.96","<span style=""font-size:30px; font-family: monospace"">benefício</span>"," ","","exp-sent","benefício","","",""
"","1413","html-keyboard-response","132","447992","0.0-3.0-1.97","<span style=""font-size:30px; font-family: monospace"">temporário</span>"," ","","exp-sent","temporário","","",""
"","573","html-keyboard-response","133","448816","0.0-3.0-1.98","<span style=""font-size:30px; font-family: monospace"">do</span>"," ","","exp-sent","do","","",""
"","1044","html-keyboard-response","134","450112","0.0-3.0-1.99","<span style=""font-size:30px; font-family: monospace"">governo.</span>"," ","","exp-sent","governo.","","",""
"","null","html-keyboard-response","135","451376","0.0-3.0-0.100-0.100","<span style= ""font-size:30px; font-family: monospace"">+</span>","null","fixation","","","","",""
"","965","html-keyboard-response","136","452592","0.0-3.0-1.100","<span style=""font-size:30px; font-family: monospace"">As</span>"," ","","exp-sent","As","","",""
"","957","html-keyboard-response","137","453800","0.0-3.0-1.101","<span style=""font-size:30px; font-family: monospace"">crianças</span>"," ","","exp-sent","crianças","","",""
"","1509","html-keyboard-response","138","455560","0.0-3.0-1.102","<span style=""font-size:30px; font-family: monospace"">brincaram</span>"," ","","exp-sent","brincaram","","",""
"","549","html-keyboard-response","139","456360","0.0-3.0-1.103","<span style=""font-size:30px; font-family: monospace"">no</span>"," ","","exp-sent","no","","",""
"","1868","html-keyboard-response","140","458480","0.0-3.0-1.104","<span style=""font-size:30px; font-family: monospace"">balanço</span>"," ","","exp-sent","balanço","","",""
"","1180","html-keyboard-response","141","459912","0.0-3.0-1.105","<span style=""font-size:30px; font-family: monospace"">a</span>"," ","","exp-sent","a","","",""
"","1613","html-keyboard-response","142","461776","0.0-3.0-1.106","<span style=""font-size:30px; font-family: monospace"">tarde</span>"," ","","exp-sent","tarde","","",""
"","3861","html-keyboard-response","143","465888","0.0-3.0-1.107","<span style=""font-size:30px; font-family: monospace"">toda.</span>"," ","","exp-sent","toda.","","",""
"","null","html-keyboard-response","144","467140","0.0-3.0-0.108-0.108","<span style= ""font-size:30px; font-family: monospace"">+</span>","null","fixation","","","","",""
"","897","html-keyboard-response","145","468288","0.0-3.0-1.108","<span style=""font-size:30px; font-family: monospace"">Ela</span>"," ","","exp-sent","Ela","","",""
"","1066","html-keyboard-response","146","469616","0.0-3.0-1.109","<span style=""font-size:30px; font-family: monospace"">gosta</span>"," ","","exp-sent","gosta","","",""
"","533","html-keyboard-response","147","470400","0.0-3.0-1.110","<span style=""font-size:30px; font-family: monospace"">de</span>"," ","","exp-sent","de","","",""
"","1557","html-keyboard-response","148","472208","0.0-3.0-1.111","<span style=""font-size:30px; font-family: monospace"">comida</span>"," ","","exp-sent","comida","","",""
"","2373","html-keyboard-response","149","474832","0.0-3.0-1.112","<span style=""font-size:30px; font-family: monospace"">natural</span>"," ","","exp-sent","natural","","",""
"","580","html-keyboard-response","150","475664","0.0-3.0-1.113","<span style=""font-size:30px; font-family: monospace"">no</span>"," ","","exp-sent","no","","",""
"","1565","html-keyboard-response","151","477480","0.0-3.0-1.114","<span style=""font-size:30px; font-family: monospace"">almoço.</span>"," ","","comp","almoço.","","",""
"","8820","html-keyboard-response","152","486552","0.0-3.0-2.114-0.114","<span style=""font-size:30px; font-family: monospace"">Ela gosta de comida natural no almoço?</span>","s","","comp","","Ela gosta de comida natural no almoço?","sim","false"
"","null","html-keyboard-response","153","488055","0.0-3.0-0.115-0.115","<span style= ""font-size:30px; font-family: monospace"">+</span>","null","fixation","","","","",""
"","7102","html-keyboard-response","154","495408","0.0-3.0-1.115","<span style=""font-size:30px; font-family: monospace"">Barulho</span>"," ","","exp-sent","Barulho","","",""
"","788","html-keyboard-response","155","496448","0.0-3.0-1.116","<span style=""font-size:30px; font-family: monospace"">de</span>"," ","","exp-sent","de","","",""
"","1485","html-keyboard-response","156","498184","0.0-3.0-1.117","<span style=""font-size:30px; font-family: monospace"">carros</span>"," ","","exp-sent","carros","","",""
"","556","html-keyboard-response","157","498992","0.0-3.0-1.118","<span style=""font-size:30px; font-family: monospace"">é</span>"," ","","exp-sent","é","","",""
"","1291","html-keyboard-response","158","500536","0.0-3.0-1.119","<span style=""font-size:30px; font-family: monospace"">irritante</span>"," ","","exp-sent","irritante","","",""
"","525","html-keyboard-response","159","501312","0.0-3.0-1.120","<span style=""font-size:30px; font-family: monospace"">para</span>"," ","","exp-sent","para","","",""
"","515","html-keyboard-response","160","502080","0.0-3.0-1.121","<span style=""font-size:30px; font-family: monospace"">a</span>"," ","","exp-sent","a","","",""
"","741","html-keyboard-response","161","503072","0.0-3.0-1.122","<span style=""font-size:30px; font-family: monospace"">moça.</span>"," ","","exp-sent","moça.","","",""
"","null","html-keyboard-response","162","504324","0.0-3.0-0.123-0.123","<span style= ""font-size:30px; font-family: monospace"">+</span>","null","fixation","","","","",""
"","49","html-keyboard-response","163","504624","0.0-3.0-1.123","<span style=""font-size:30px; font-family: monospace"">A</span>"," ","","exp-sent","A","","",""
"","1972","html-keyboard-response","164","506848","0.0-3.0-1.124","<span style=""font-size:30px; font-family: monospace"">loja</span>"," ","","exp-sent","loja","","",""
"","1076","html-keyboard-response","165","508176","0.0-3.0-1.125","<span style=""font-size:30px; font-family: monospace"">também</span>"," ","","exp-sent","também","","",""
"","1333","html-keyboard-response","166","509760","0.0-3.0-1.126","<span style=""font-size:30px; font-family: monospace"">vende</span>"," ","","exp-sent","vende","","",""
"","1237","html-keyboard-response","167","511248","0.0-3.0-1.127","<span style=""font-size:30px; font-family: monospace"">taça</span>"," ","","exp-sent","taça","","",""
"","645","html-keyboard-response","168","512144","0.0-3.0-1.128","<span style=""font-size:30px; font-family: monospace"">de</span>"," ","","exp-sent","de","","",""
"","717","html-keyboard-response","169","513112","0.0-3.0-1.129","<span style=""font-size:30px; font-family: monospace"">vinho</span>"," ","","exp-sent","vinho","","",""
"","580","html-keyboard-response","170","513944","0.0-3.0-1.130","<span style=""font-size:30px; font-family: monospace"">e</span>"," ","","exp-sent","e","","",""
"","4901","html-keyboard-response","171","519096","0.0-3.0-1.131","<span style=""font-size:30px; font-family: monospace"">espumante.</span>"," ","","exp-sent","espumante.","","",""
"","null","html-keyboard-response","172","520348","0.0-3.0-0.132-0.132","<span style= ""font-size:30px; font-family: monospace"">+</span>","null","fixation","","","","",""
"","777","html-keyboard-response","173","521376","0.0-3.0-1.132","<span style=""font-size:30px; font-family: monospace"">A</span>"," ","","exp-sent","A","","",""
"","1220","html-keyboard-response","174","522848","0.0-3.0-1.133","<span style=""font-size:30px; font-family: monospace"">bruxa</span>"," ","","exp-sent","bruxa","","",""
"","1997","html-keyboard-response","175","525096","0.0-3.0-1.134","<span style=""font-size:30px; font-family: monospace"">tinha</span>"," ","","exp-sent","tinha","","",""
"","989","html-keyboard-response","176","526336","0.0-3.0-1.135","<span style=""font-size:30px; font-family: monospace"">uma</span>"," ","","exp-sent","uma","","",""
"","2085","html-keyboard-response","177","528672","0.0-3.0-1.136","<span style=""font-size:30px; font-family: monospace"">vassoura</span>"," ","","exp-sent","vassoura","","",""
"","533","html-keyboard-response","178","529456","0.0-3.0-1.137","<span style=""font-size:30px; font-family: monospace"">e</span>"," ","","exp-sent","e","","",""
"","1029","html-keyboard-response","179","530736","0.0-3.0-1.138","<span style=""font-size:30px; font-family: monospace"">um</span>"," ","","exp-sent","um","","",""
"","4140","html-keyboard-response","180","535127","0.0-3.0-1.139","<span style=""font-size:30px; font-family: monospace"">gato.</span>"," ","","exp-sent","gato.","","",""
"","null","html-keyboard-response","181","536380","0.0-3.0-0.140-0.140","<span style= ""font-size:30px; font-family: monospace"">+</span>","null","fixation","","","","",""
"","712","html-keyboard-response","182","537344","0.0-3.0-1.140","<span style=""font-size:30px; font-family: monospace"">Eu</span>"," ","","exp-sent","Eu","","",""
"","733","html-keyboard-response","183","538328","0.0-3.0-1.141","<span style=""font-size:30px; font-family: monospace"">me</span>"," ","","exp-sent","me","","",""
"","1628","html-keyboard-response","184","540208","0.0-3.0-1.142","<span style=""font-size:30px; font-family: monospace"">divirto</span>"," ","","exp-sent","divirto","","",""
"","589","html-keyboard-response","185","541048","0.0-3.0-1.143","<span style=""font-size:30px; font-family: monospace"">em</span>"," ","","exp-sent","em","","",""
"","2156","html-keyboard-response","186","543455","0.0-3.0-1.144","<span style=""font-size:30px; font-family: monospace"">festas</span>"," ","","exp-sent","festas","","",""
"","645","html-keyboard-response","187","544351","0.0-3.0-1.145","<span style=""font-size:30px; font-family: monospace"">de</span>"," ","","exp-sent","de","","",""
"","2044","html-keyboard-response","188","546647","0.0-3.0-1.146","<span style=""font-size:30px; font-family: monospace"">criança.</span>"," ","","exp-sent","criança.","","",""
"","null","html-keyboard-response","189","547914","0.0-3.0-0.147-0.147","<span style= ""font-size:30px; font-family: monospace"">+</span>","null","fixation","","","","",""
"","826","html-keyboard-response","190","548991","0.0-3.0-1.147","<span style=""font-size:30px; font-family: monospace"">A</span>"," ","","exp-sent","A","","",""
"","2996","html-keyboard-response","191","552240","0.0-3.0-1.148","<span style=""font-size:30px; font-family: monospace"">janela</span>"," ","","exp-sent","janela","","",""
"","1276","html-keyboard-response","192","553767","0.0-3.0-1.149","<span style=""font-size:30px; font-family: monospace"">alta</span>"," ","","exp-sent","alta","","",""
"","1500","html-keyboard-response","193","555520","0.0-3.0-1.150","<span style=""font-size:30px; font-family: monospace"">estava</span>"," ","","exp-sent","estava","","",""
"","1748","html-keyboard-response","194","557519","0.0-3.0-1.151","<span style=""font-size:30px; font-family: monospace"">quebrada</span>"," ","","exp-sent","quebrada","","",""
"","1309","html-keyboard-response","195","559080","0.0-3.0-1.152","<span style=""font-size:30px; font-family: monospace"">desde</span>"," ","","exp-sent","desde","","",""
"","1325","html-keyboard-response","196","560655","0.0-3.0-1.153","<span style=""font-size:30px; font-family: monospace"">ontem.</span>"," ","","comp","ontem.","","",""
"","7957","html-keyboard-response","197","568864","0.0-3.0-2.153-0.153","<span style=""font-size:30px; font-family: monospace"">A janela alta estava quebrada?</span>","s","","comp","","A janela alta estava quebrada?","sim","false"
"","null","html-keyboard-response","198","570377","0.0-3.0-0.154-0.154","<span style= ""font-size:30px; font-family: monospace"">+</span>","null","fixation","","","","",""
"","4","html-keyboard-response","199","570632","0.0-3.0-1.154","<span style=""font-size:30px; font-family: monospace"">O</span>"," ","","exp-sent","O","","",""
"","1077","html-keyboard-response","200","571959","0.0-3.0-1.155","<span style=""font-size:30px; font-family: monospace"">moço</span>"," ","","exp-sent","moço","","",""
"","989","html-keyboard-response","201","573199","0.0-3.0-1.156","<span style=""font-size:30px; font-family: monospace"">usou</span>"," ","","exp-sent","usou","","",""
"","2005","html-keyboard-response","202","575455","0.0-3.0-1.157","<span style=""font-size:30px; font-family: monospace"">várias</span>"," ","","exp-sent","várias","","",""
"","717","html-keyboard-response","203","576424","0.0-3.0-1.158","<span style=""font-size:30px; font-family: monospace"">velas</span>"," ","","exp-sent","velas","","",""
"","2869","html-keyboard-response","204","579544","0.0-3.0-1.159","<span style=""font-size:30px; font-family: monospace"">no</span>"," ","","exp-sent","no","","",""
"","1852","html-keyboard-response","205","581647","0.0-3.0-1.160","<span style=""font-size:30px; font-family: monospace"">enfeite</span>"," ","","exp-sent","enfeite","","",""
"","556","html-keyboard-response","206","582455","0.0-3.0-1.161","<span style=""font-size:30px; font-family: monospace"">de</span>"," ","","exp-sent","de","","",""
"","2164","html-keyboard-response","207","584871","0.0-3.0-1.162","<span style=""font-size:30px; font-family: monospace"">mesa.</span>"," ","","exp-sent","mesa.","","",""
"","null","html-keyboard-response","208","586124","0.0-3.0-0.163-0.163","<span style= ""font-size:30px; font-family: monospace"">+</span>","null","fixation","","","","",""
"","1632","html-keyboard-response","209","588007","0.0-3.0-1.163","<span style=""font-size:30px; font-family: monospace"">Gostamos</span>"," ","","exp-sent","Gostamos","","",""
"","604","html-keyboard-response","210","588863","0.0-3.0-1.164","<span style=""font-size:30px; font-family: monospace"">de</span>"," ","","exp-sent","de","","",""
"","965","html-keyboard-response","211","590079","0.0-3.0-1.165","<span style=""font-size:30px; font-family: monospace"">suco</span>"," ","","exp-sent","suco","","",""
"","627","html-keyboard-response","212","590959","0.0-3.0-1.166","<span style=""font-size:30px; font-family: monospace"">em</span>"," ","","exp-sent","em","","",""
"","4916","html-keyboard-response","213","596126","0.0-3.0-1.167","<span style=""font-size:30px; font-family: monospace"">garrafa</span>"," ","","exp-sent","garrafa","","",""
"","582","html-keyboard-response","214","596959","0.0-3.0-1.168","<span style=""font-size:30px; font-family: monospace"">de</span>"," ","","exp-sent","de","","",""
"","3245","html-keyboard-response","215","600455","0.0-3.0-1.169","<span style=""font-size:30px; font-family: monospace"">tamanho</span>"," ","","exp-sent","tamanho","","",""
"","1437","html-keyboard-response","216","602143","0.0-3.0-1.170","<span style=""font-size:30px; font-family: monospace"">pequeno.</span>"," ","","exp-sent","pequeno.","","",""
"","null","html-keyboard-response","217","603395","0.0-3.0-0.171-0.171","<span style= ""font-size:30px; font-family: monospace"">+</span>","null","fixation","","","","",""
"","5545","html-keyboard-response","218","609191","0.0-3.0-1.171","<span style=""font-size:30px; font-family: monospace"">Sua</span>"," ","","exp-sent","Sua","","",""
"","1101","html-keyboard-response","219","610543","0.0-3.0-1.172","<span style=""font-size:30px; font-family: monospace"">filha</span>"," ","","exp-sent","filha","","",""
"","588","html-keyboard-response","220","611383","0.0-3.0-1.173","<span style=""font-size:30px; font-family: monospace"">é</span>"," ","","exp-sent","é","","",""
"","933","html-keyboard-response","221","612567","0.0-3.0-1.174","<span style=""font-size:30px; font-family: monospace"">muito</span>"," ","","exp-sent","muito","","",""
"","3404","html-keyboard-response","222","616223","0.0-3.0-1.175","<span style=""font-size:30px; font-family: monospace"">capaz</span>"," ","","exp-sent","capaz","","",""
"","1204","html-keyboard-response","223","617679","0.0-3.0-1.176","<span style=""font-size:30px; font-family: monospace"">e</span>"," ","","exp-sent","e","","",""
"","4133","html-keyboard-response","224","622063","0.0-3.0-1.177","<span style=""font-size:30px; font-family: monospace"">esforçada.</span>"," ","","exp-sent","esforçada.","","",""
"","null","html-keyboard-response","225","623316","0.0-3.0-0.178-0.178","<span style= ""font-size:30px; font-family: monospace"">+</span>","null","fixation","","","","",""
"","689","html-keyboard-response","226","624255","0.0-3.0-1.178","<span style=""font-size:30px; font-family: monospace"">A</span>"," ","","exp-sent","A","","",""
"","2077","html-keyboard-response","227","626583","0.0-3.0-1.179","<span style=""font-size:30px; font-family: monospace"">batida</span>"," ","","exp-sent","batida","","",""
"","3372","html-keyboard-response","228","630207","0.0-3.0-1.180","<span style=""font-size:30px; font-family: monospace"">causou</span>"," ","","exp-sent","causou","","",""
"","1021","html-keyboard-response","229","631479","0.0-3.0-1.181","<span style=""font-size:30px; font-family: monospace"">muita</span>"," ","","exp-sent","muita","","",""
"","2805","html-keyboard-response","230","634536","0.0-3.0-1.182","<span style=""font-size:30px; font-family: monospace"">confusão</span>"," ","","exp-sent","confusão","","",""
"","868","html-keyboard-response","231","635655","0.0-3.0-1.183","<span style=""font-size:30px; font-family: monospace"">na</span>"," ","","exp-sent","na","","",""
"","14197","html-keyboard-response","232","650104","0.0-3.0-1.184","<span style=""font-size:30px; font-family: monospace"">estrada.</span>"," ","","exp-sent","estrada.","","",""
"","null","html-keyboard-response","233","651356","0.0-3.0-0.185-0.185","<span style= ""font-size:30px; font-family: monospace"">+</span>","null","fixation","","","","",""
"","1520","html-keyboard-response","234","653127","0.0-3.0-1.185","<span style=""font-size:30px; font-family: monospace"">Eu</span>"," ","","exp-sent","Eu","","",""
"","2373","html-keyboard-response","235","655751","0.0-3.0-1.186","<span style=""font-size:30px; font-family: monospace"">cozinhei</span>"," ","","exp-sent","cozinhei","","",""
"","925","html-keyboard-response","236","656927","0.0-3.0-1.187","<span style=""font-size:30px; font-family: monospace"">um</span>"," ","","exp-sent","um","","",""
"","1429","html-keyboard-response","237","658607","0.0-3.0-1.188","<span style=""font-size:30px; font-family: monospace"">almoço</span>"," ","","exp-sent","almoço","","",""
"","1821","html-keyboard-response","238","660679","0.0-3.0-1.189","<span style=""font-size:30px; font-family: monospace"">nutritivo</span>"," ","","exp-sent","nutritivo","","",""
"","653","html-keyboard-response","239","661583","0.0-3.0-1.190","<span style=""font-size:30px; font-family: monospace"">para</span>"," ","","exp-sent","para","","",""
"","1188","html-keyboard-response","240","663023","0.0-3.0-1.191","<span style=""font-size:30px; font-family: monospace"">hoje.</span>"," ","","comp","hoje.","","",""
"","9069","html-keyboard-response","241","672344","0.0-3.0-2.191-0.191","<span style=""font-size:30px; font-family: monospace"">O almoço era nutritivo?</span>","s","","comp","","O almoço era nutritivo?","sim","false"
"","null","html-keyboard-response","242","673846","0.0-3.0-0.192-0.192","<span style= ""font-size:30px; font-family: monospace"">+</span>","null","fixation","","","","",""
"","1750","html-keyboard-response","243","675847","0.0-3.0-1.192","<span style=""font-size:30px; font-family: monospace"">Ursos</span>"," ","","exp-sent","Ursos","","",""
"","828","html-keyboard-response","244","676927","0.0-3.0-1.193","<span style=""font-size:30px; font-family: monospace"">têm</span>"," ","","exp-sent","têm","","",""
"","1221","html-keyboard-response","245","678399","0.0-3.0-1.194","<span style=""font-size:30px; font-family: monospace"">uma</span>"," ","","exp-sent","uma","","",""
"","2492","html-keyboard-response","246","681143","0.0-3.0-1.195","<span style=""font-size:30px; font-family: monospace"">patada</span>"," ","","exp-sent","patada","","",""
"","1597","html-keyboard-response","247","682991","0.0-3.0-1.196","<span style=""font-size:30px; font-family: monospace"">brutal</span>"," ","","exp-sent","brutal","","",""
"","540","html-keyboard-response","248","683783","0.0-3.0-1.197","<span style=""font-size:30px; font-family: monospace"">e</span>"," ","","exp-sent","e","","",""
"","7180","html-keyboard-response","249","691215","0.0-3.0-1.198","<span style=""font-size:30px; font-family: monospace"">poderosa.</span>"," ","","exp-sent","poderosa.","","",""
"","null","html-keyboard-response","250","692467","0.0-3.0-0.199-0.199","<span style= ""font-size:30px; font-family: monospace"">+</span>","null","fixation","","","","",""
"","817","html-keyboard-response","251","693535","0.0-3.0-1.199","<span style=""font-size:30px; font-family: monospace"">Eu</span>"," ","","exp-sent","Eu","","",""
"","828","html-keyboard-response","252","694615","0.0-3.0-1.200","<span style=""font-size:30px; font-family: monospace"">fiz</span>"," ","","exp-sent","fiz","","",""
"","2232","html-keyboard-response","253","697111","0.0-3.0-1.201","<span style=""font-size:30px; font-family: monospace"">aulas</span>"," ","","exp-sent","aulas","","",""
"","676","html-keyboard-response","254","698039","0.0-3.0-1.202","<span style=""font-size:30px; font-family: monospace"">de</span>"," ","","exp-sent","de","","",""
"","1637","html-keyboard-response","255","699927","0.0-3.0-1.203","<span style=""font-size:30px; font-family: monospace"">espanhol</span>"," ","","exp-sent","espanhol","","",""
"","1069","html-keyboard-response","256","701247","0.0-3.0-1.204","<span style=""font-size:30px; font-family: monospace"">nesta</span>"," ","","exp-sent","nesta","","",""
"","4460","html-keyboard-response","257","705959","0.0-3.0-1.205","<span style=""font-size:30px; font-family: monospace"">cidade.</span>"," ","","exp-sent","cidade.","","",""
"","null","html-keyboard-response","258","707212","0.0-3.0-0.206-0.206","<span style= ""font-size:30px; font-family: monospace"">+</span>","null","fixation","","","","",""
"","879","html-keyboard-response","259","708343","0.0-3.0-1.206","<span style=""font-size:30px; font-family: monospace"">Ele</span>"," ","","exp-sent","Ele","","",""
"","1005","html-keyboard-response","260","709599","0.0-3.0-1.207","<span style=""font-size:30px; font-family: monospace"">comprou</span>"," ","","exp-sent","comprou","","",""
"","765","html-keyboard-response","261","710615","0.0-3.0-1.208","<span style=""font-size:30px; font-family: monospace"">mais</span>"," ","","exp-sent","mais","","",""
"","757","html-keyboard-response","262","711623","0.0-3.0-1.209","<span style=""font-size:30px; font-family: monospace"">uma</span>"," ","","exp-sent","uma","","",""
"","4693","html-keyboard-response","263","716568","0.0-3.0-1.210","<span style=""font-size:30px; font-family: monospace"">esponja</span>"," ","","exp-sent","esponja","","",""
"","627","html-keyboard-response","264","717446","0.0-3.0-1.211","<span style=""font-size:30px; font-family: monospace"">para</span>"," ","","exp-sent","para","","",""
"","582","html-keyboard-response","265","718279","0.0-3.0-1.212","<span style=""font-size:30px; font-family: monospace"">a</span>"," ","","exp-sent","a","","",""
"","9981","html-keyboard-response","266","728511","0.0-3.0-1.213","<span style=""font-size:30px; font-family: monospace"">cozinha.</span>"," ","","exp-sent","cozinha.","","",""
"","null","html-keyboard-response","267","729764","0.0-3.0-0.214-0.214","<span style= ""font-size:30px; font-family: monospace"">+</span>","null","fixation","","","","",""
"","2872","html-keyboard-response","268","732887","0.0-3.0-1.214","<span style=""font-size:30px; font-family: monospace"">Ele</span>"," ","","exp-sent","Ele","","",""
"","1173","html-keyboard-response","269","734311","0.0-3.0-1.215","<span style=""font-size:30px; font-family: monospace"">teve</span>"," ","","exp-sent","teve","","",""
"","524","html-keyboard-response","270","735087","0.0-3.0-1.216","<span style=""font-size:30px; font-family: monospace"">um</span>"," ","","exp-sent","um","","",""
"","1500","html-keyboard-response","271","736839","0.0-3.0-1.217","<span style=""font-size:30px; font-family: monospace"">sono</span>"," ","","exp-sent","sono","","",""
"","1701","html-keyboard-response","272","738791","0.0-3.0-1.218","<span style=""font-size:30px; font-family: monospace"">bizarro</span>"," ","","exp-sent","bizarro","","",""
"","493","html-keyboard-response","273","739535","0.0-3.0-1.219","<span style=""font-size:30px; font-family: monospace"">sem</span>"," ","","exp-sent","sem","","",""
"","902","html-keyboard-response","274","740703","0.0-3.0-1.220","<span style=""font-size:30px; font-family: monospace"">nenhum</span>"," ","","exp-sent","nenhum","","",""
"","636","html-keyboard-response","275","741591","0.0-3.0-1.221","<span style=""font-size:30px; font-family: monospace"">motivo.</span>"," ","","exp-sent","motivo.","","",""
"","null","html-keyboard-response","276","742844","0.0-3.0-0.222-0.222","<span style= ""font-size:30px; font-family: monospace"">+</span>","null","fixation","","","","",""
"","1311","html-keyboard-response","277","744407","0.0-3.0-1.222","<span style=""font-size:30px; font-family: monospace"">A</span>"," ","","exp-sent","A","","",""
"","645","html-keyboard-response","278","745303","0.0-3.0-1.223","<span style=""font-size:30px; font-family: monospace"">moça</span>"," ","","exp-sent","moça","","",""
"","1717","html-keyboard-response","279","747271","0.0-3.0-1.224","<span style=""font-size:30px; font-family: monospace"">comprou</span>"," ","","exp-sent","comprou","","",""
"","708","html-keyboard-response","280","748231","0.0-3.0-1.225","<span style=""font-size:30px; font-family: monospace"">um</span>"," ","","exp-sent","um","","",""
"","1925","html-keyboard-response","281","750407","0.0-3.0-1.226","<span style=""font-size:30px; font-family: monospace"">diamante</span>"," ","","exp-sent","diamante","","",""
"","1165","html-keyboard-response","282","751823","0.0-3.0-1.227","<span style=""font-size:30px; font-family: monospace"">para</span>"," ","","exp-sent","para","","",""
"","493","html-keyboard-response","283","752567","0.0-3.0-1.228","<span style=""font-size:30px; font-family: monospace"">sua</span>"," ","","exp-sent","sua","","",""
"","1213","html-keyboard-response","284","754031","0.0-3.0-1.229","<span style=""font-size:30px; font-family: monospace"">prima.</span>"," ","","comp","prima.","","",""
"","7141","html-keyboard-response","285","761423","0.0-3.0-2.229-0.229","<span style=""font-size:30px; font-family: monospace"">A moça comprou um diamante?</span>","s","","comp","","A moça comprou um diamante?","sim","false"
"","null","html-keyboard-response","286","762925","0.0-3.0-0.230-0.230","<span style= ""font-size:30px; font-family: monospace"">+</span>","null","fixation","","","","",""
"","1287","html-keyboard-response","287","764463","0.0-3.0-1.230","<span style=""font-size:30px; font-family: monospace"">Preciso</span>"," ","","exp-sent","Preciso","","",""
"","461","html-keyboard-response","288","765175","0.0-3.0-1.231","<span style=""font-size:30px; font-family: monospace"">de</span>"," ","","exp-sent","de","","",""
"","556","html-keyboard-response","289","765983","0.0-3.0-1.232","<span style=""font-size:30px; font-family: monospace"">um</span>"," ","","exp-sent","um","","",""
"","1725","html-keyboard-response","290","767959","0.0-3.0-1.233","<span style=""font-size:30px; font-family: monospace"">relatório</span>"," ","","exp-sent","relatório","","",""
"","1028","html-keyboard-response","291","769239","0.0-3.0-1.234","<span style=""font-size:30px; font-family: monospace"">oficial</span>"," ","","exp-sent","oficial","","",""
"","613","html-keyboard-response","292","770103","0.0-3.0-1.235","<span style=""font-size:30px; font-family: monospace"">para</span>"," ","","exp-sent","para","","",""
"","4389","html-keyboard-response","293","774744","0.0-3.0-1.236","<span style=""font-size:30px; font-family: monospace"">amanhã.</span>"," ","","exp-sent","amanhã.","","",""
"","null","html-keyboard-response","294","775997","0.0-3.0-0.237-0.237","<span style= ""font-size:30px; font-family: monospace"">+</span>","null","fixation","","","","",""
"","1463","html-keyboard-response","295","777711","0.0-3.0-1.237","<span style=""font-size:30px; font-family: monospace"">Ele</span>"," ","","exp-sent","Ele","","",""
"","868","html-keyboard-response","296","778831","0.0-3.0-1.238","<span style=""font-size:30px; font-family: monospace"">viu</span>"," ","","exp-sent","viu","","",""
"","477","html-keyboard-response","297","779559","0.0-3.0-1.239","<span style=""font-size:30px; font-family: monospace"">um</span>"," ","","exp-sent","um","","",""
"","2213","html-keyboard-response","298","782023","0.0-3.0-1.240","<span style=""font-size:30px; font-family: monospace"">inseto</span>"," ","","exp-sent","inseto","","",""
"","1581","html-keyboard-response","299","783855","0.0-3.0-1.241","<span style=""font-size:30px; font-family: monospace"">marrom</span>"," ","","exp-sent","marrom","","",""
"","564","html-keyboard-response","300","784671","0.0-3.0-1.242","<span style=""font-size:30px; font-family: monospace"">na</span>"," ","","exp-sent","na","","",""
"","6572","html-keyboard-response","301","791495","0.0-3.0-1.243","<span style=""font-size:30px; font-family: monospace"">parede.</span>"," ","","exp-sent","parede.","","",""
"","null","html-keyboard-response","302","792747","0.0-3.0-0.244-0.244","<span style= ""font-size:30px; font-family: monospace"">+</span>","null","fixation","","","","",""
"","1297","html-keyboard-response","303","794295","0.0-3.0-1.244","<span style=""font-size:30px; font-family: monospace"">O</span>"," ","","exp-sent","O","","",""
"","1197","html-keyboard-response","304","795743","0.0-3.0-1.245","<span style=""font-size:30px; font-family: monospace"">avô</span>"," ","","exp-sent","avô","","",""
"","1453","html-keyboard-response","305","797447","0.0-3.0-1.246","<span style=""font-size:30px; font-family: monospace"">fez</span>"," ","","exp-sent","fez","","",""
"","620","html-keyboard-response","306","798319","0.0-3.0-1.247","<span style=""font-size:30px; font-family: monospace"">uma</span>"," ","","exp-sent","uma","","",""
"","773","html-keyboard-response","307","799343","0.0-3.0-1.248","<span style=""font-size:30px; font-family: monospace"">lista</span>"," ","","exp-sent","lista","","",""
"","484","html-keyboard-response","308","800079","0.0-3.0-1.249","<span style=""font-size:30px; font-family: monospace"">de</span>"," ","","exp-sent","de","","",""
"","1068","html-keyboard-response","309","801399","0.0-3.0-1.250","<span style=""font-size:30px; font-family: monospace"">compras</span>"," ","","exp-sent","compras","","",""
"","541","html-keyboard-response","310","802191","0.0-3.0-1.251","<span style=""font-size:30px; font-family: monospace"">do</span>"," ","","exp-sent","do","","",""
"","5068","html-keyboard-response","311","807511","0.0-3.0-1.252","<span style=""font-size:30px; font-family: monospace"">mercado.</span>"," ","","exp-sent","mercado.","","",""
"","null","html-keyboard-response","312","808764","0.0-3.0-0.253-0.253","<span style= ""font-size:30px; font-family: monospace"">+</span>","null","fixation","","","","",""
"","664","html-keyboard-response","313","809679","0.0-3.0-1.253","<span style=""font-size:30px; font-family: monospace"">As</span>"," ","","exp-sent","As","","",""
"","949","html-keyboard-response","314","810879","0.0-3.0-1.254","<span style=""font-size:30px; font-family: monospace"">pessoas</span>"," ","","exp-sent","pessoas","","",""
"","460","html-keyboard-response","315","811591","0.0-3.0-1.255","<span style=""font-size:30px; font-family: monospace"">não</span>"," ","","exp-sent","não","","",""
"","885","html-keyboard-response","316","812727","0.0-3.0-1.256","<span style=""font-size:30px; font-family: monospace"">enviam</span>"," ","","exp-sent","enviam","","",""
"","1685","html-keyboard-response","317","814663","0.0-3.0-1.257","<span style=""font-size:30px; font-family: monospace"">telegrama</span>"," ","","exp-sent","telegrama","","",""
"","500","html-keyboard-response","318","815415","0.0-3.0-1.258","<span style=""font-size:30px; font-family: monospace"">nos</span>"," ","","exp-sent","nos","","",""
"","748","html-keyboard-response","319","816415","0.0-3.0-1.259","<span style=""font-size:30px; font-family: monospace"">dias</span>"," ","","exp-sent","dias","","",""
"","589","html-keyboard-response","320","817255","0.0-3.0-1.260","<span style=""font-size:30px; font-family: monospace"">de</span>"," ","","exp-sent","de","","",""
"","4548","html-keyboard-response","321","822055","0.0-3.0-1.261","<span style=""font-size:30px; font-family: monospace"">hoje.</span>"," ","","exp-sent","hoje.","","",""
"","null","html-keyboard-response","322","823307","0.0-3.0-0.262-0.262","<span style= ""font-size:30px; font-family: monospace"">+</span>","null","fixation","","","","",""
"","904","html-keyboard-response","323","824463","0.0-3.0-1.262","<span style=""font-size:30px; font-family: monospace"">Ele</span>"," ","","exp-sent","Ele","","",""
"","565","html-keyboard-response","324","825279","0.0-3.0-1.263","<span style=""font-size:30px; font-family: monospace"">não</span>"," ","","exp-sent","não","","",""
"","468","html-keyboard-response","325","825999","0.0-3.0-1.264","<span style=""font-size:30px; font-family: monospace"">gosta</span>"," ","","exp-sent","gosta","","",""
"","525","html-keyboard-response","326","826775","0.0-3.0-1.265","<span style=""font-size:30px; font-family: monospace"">de</span>"," ","","exp-sent","de","","",""
"","1144","html-keyboard-response","327","828175","0.0-3.0-1.266","<span style=""font-size:30px; font-family: monospace"">tomate</span>"," ","","exp-sent","tomate","","",""
"","2085","html-keyboard-response","328","830511","0.0-3.0-1.267","<span style=""font-size:30px; font-family: monospace"">misturado</span>"," ","","exp-sent","misturado","","",""
"","613","html-keyboard-response","329","831375","0.0-3.0-1.268","<span style=""font-size:30px; font-family: monospace"">na</span>"," ","","exp-sent","na","","",""
"","1045","html-keyboard-response","330","832671","0.0-3.0-1.269","<span style=""font-size:30px; font-family: monospace"">comida.</span>"," ","","comp","comida.","","",""
"","5085","html-keyboard-response","331","838008","0.0-3.0-2.269-0.269","<span style=""font-size:30px; font-family: monospace"">Ele gosta de tomate na comida?</span>","n","","comp","","Ele gosta de tomate na comida?","não","false"
"","null","html-keyboard-response","332","839509","0.0-3.0-0.270-0.270","<span style= ""font-size:30px; font-family: monospace"">+</span>","null","fixation","","","","",""
"","1678","html-keyboard-response","333","841439","0.0-3.0-1.270","<span style=""font-size:30px; font-family: monospace"">A</span>"," ","","exp-sent","A","","",""
"","981","html-keyboard-response","334","842671","0.0-3.0-1.271","<span style=""font-size:30px; font-family: monospace"">senhora</span>"," ","","exp-sent","senhora","","",""
"","1971","html-keyboard-response","335","844895","0.0-3.0-1.272","<span style=""font-size:30px; font-family: monospace"">cumprimentou</span>"," ","","exp-sent","cumprimentou","","",""
"","437","html-keyboard-response","336","845583","0.0-3.0-1.273","<span style=""font-size:30px; font-family: monospace"">o</span>"," ","","exp-sent","o","","",""
"","2773","html-keyboard-response","337","848608","0.0-3.0-1.274","<span style=""font-size:30px; font-family: monospace"">operador</span>"," ","","exp-sent","operador","","",""
"","484","html-keyboard-response","338","849343","0.0-3.0-1.275","<span style=""font-size:30px; font-family: monospace"">de</span>"," ","","exp-sent","de","","",""
"","3829","html-keyboard-response","339","853423","0.0-3.0-1.276","<span style=""font-size:30px; font-family: monospace"">caixa.</span>"," ","","exp-sent","caixa.","","",""
"","null","html-keyboard-response","340","854676","0.0-3.0-0.277-0.277","<span style= ""font-size:30px; font-family: monospace"">+</span>","null","fixation","","","","",""
"","920","html-keyboard-response","341","855847","0.0-3.0-1.277","<span style=""font-size:30px; font-family: monospace"">A</span>"," ","","exp-sent","A","","",""
"","725","html-keyboard-response","342","856823","0.0-3.0-1.278","<span style=""font-size:30px; font-family: monospace"">gente</span>"," ","","exp-sent","gente","","",""
"","695","html-keyboard-response","343","857783","0.0-3.0-1.279","<span style=""font-size:30px; font-family: monospace"">viu</span>"," ","","exp-sent","viu","","",""
"","693","html-keyboard-response","344","858728","0.0-3.0-1.280","<span style=""font-size:30px; font-family: monospace"">o</span>"," ","","exp-sent","o","","",""
"","2804","html-keyboard-response","345","861783","0.0-3.0-1.281","<span style=""font-size:30px; font-family: monospace"">eclipse</span>"," ","","exp-sent","eclipse","","",""
"","6005","html-keyboard-response","346","868039","0.0-3.0-1.282","<span style=""font-size:30px; font-family: monospace"">lunar</span>"," ","","exp-sent","lunar","","",""
"","797","html-keyboard-response","347","869088","0.0-3.0-1.283","<span style=""font-size:30px; font-family: monospace"">durante</span>"," ","","exp-sent","durante","","",""
"","563","html-keyboard-response","348","869903","0.0-3.0-1.284","<span style=""font-size:30px; font-family: monospace"">o</span>"," ","","exp-sent","o","","",""
"","5147","html-keyboard-response","349","875303","0.0-3.0-1.285","<span style=""font-size:30px; font-family: monospace"">dia.</span>"," ","","exp-sent","dia.","","",""
"","null","html-keyboard-response","350","876555","0.0-3.0-0.286-0.286","<span style= ""font-size:30px; font-family: monospace"">+</span>","null","fixation","","","","",""
"","1015","html-keyboard-response","351","877823","0.0-3.0-1.286","<span style=""font-size:30px; font-family: monospace"">A</span>"," ","","exp-sent","A","","",""
"","2109","html-keyboard-response","352","880184","0.0-3.0-1.287","<span style=""font-size:30px; font-family: monospace"">mordida</span>"," ","","exp-sent","mordida","","",""
"","428","html-keyboard-response","353","880863","0.0-3.0-1.288","<span style=""font-size:30px; font-family: monospace"">do</span>"," ","","exp-sent","do","","",""
"","1517","html-keyboard-response","354","882631","0.0-3.0-1.289","<span style=""font-size:30px; font-family: monospace"">cachorro</span>"," ","","exp-sent","cachorro","","",""
"","3005","html-keyboard-response","355","885887","0.0-3.0-1.290","<span style=""font-size:30px; font-family: monospace"">voraz</span>"," ","","exp-sent","voraz","","",""
"","1236","html-keyboard-response","356","887375","0.0-3.0-1.291","<span style=""font-size:30px; font-family: monospace"">causou</span>"," ","","exp-sent","causou","","",""
"","581","html-keyboard-response","357","888207","0.0-3.0-1.292","<span style=""font-size:30px; font-family: monospace"">uma</span>"," ","","exp-sent","uma","","",""
"","8197","html-keyboard-response","358","896656","0.0-3.0-1.293","<span style=""font-size:30px; font-family: monospace"">cicatriz.</span>"," ","","exp-sent","cicatriz.","","",""
"","null","html-keyboard-response","359","897909","0.0-3.0-0.294-0.294","<span style= ""font-size:30px; font-family: monospace"">+</span>","null","fixation","","","","",""
"","1136","html-keyboard-response","360","899295","0.0-3.0-1.294","<span style=""font-size:30px; font-family: monospace"">Elas</span>"," ","","exp-sent","Elas","","",""
"","508","html-keyboard-response","361","900055","0.0-3.0-1.295","<span style=""font-size:30px; font-family: monospace"">não</span>"," ","","exp-sent","não","","",""
"","629","html-keyboard-response","362","900935","0.0-3.0-1.296","<span style=""font-size:30px; font-family: monospace"">viram</span>"," ","","exp-sent","viram","","",""
"","3293","html-keyboard-response","363","904479","0.0-3.0-1.297","<span style=""font-size:30px; font-family: monospace"">nenhuma</span>"," ","","exp-sent","nenhuma","","",""
"","1213","html-keyboard-response","364","905943","0.0-3.0-1.298","<span style=""font-size:30px; font-family: monospace"">diferença</span>"," ","","exp-sent","diferença","","",""
"","525","html-keyboard-response","365","906720","0.0-3.0-1.299","<span style=""font-size:30px; font-family: monospace"">entre</span>"," ","","exp-sent","entre","","",""
"","516","html-keyboard-response","366","907487","0.0-3.0-1.300","<span style=""font-size:30px; font-family: monospace"">os</span>"," ","","exp-sent","os","","",""
"","996","html-keyboard-response","367","908735","0.0-3.0-1.301","<span style=""font-size:30px; font-family: monospace"">textos.</span>"," ","","exp-sent","textos.","","",""
"","null","html-keyboard-response","368","909987","0.0-3.0-0.302-0.302","<span style= ""font-size:30px; font-family: monospace"">+</span>","null","fixation","","","","",""
"","921","html-keyboard-response","369","911159","0.0-3.0-1.302","<span style=""font-size:30px; font-family: monospace"">Amanhã</span>"," ","","exp-sent","Amanhã","","",""
"","621","html-keyboard-response","370","912031","0.0-3.0-1.303","<span style=""font-size:30px; font-family: monospace"">vai</span>"," ","","exp-sent","vai","","",""
"","549","html-keyboard-response","371","912831","0.0-3.0-1.304","<span style=""font-size:30px; font-family: monospace"">ter</span>"," ","","exp-sent","ter","","",""
"","853","html-keyboard-response","372","913935","0.0-3.0-1.305","<span style=""font-size:30px; font-family: monospace"">um</span>"," ","","exp-sent","um","","",""
"","1749","html-keyboard-response","373","915935","0.0-3.0-1.306","<span style=""font-size:30px; font-family: monospace"">bazar</span>"," ","","exp-sent","bazar","","",""
"","453","html-keyboard-response","374","916639","0.0-3.0-1.307","<span style=""font-size:30px; font-family: monospace"">no</span>"," ","","exp-sent","no","","",""
"","949","html-keyboard-response","375","917840","0.0-3.0-1.308","<span style=""font-size:30px; font-family: monospace"">bairro.</span>"," ","","comp","bairro.","","",""
"","12292","html-keyboard-response","376","930384","0.0-3.0-2.308-0.308","<span style=""font-size:30px; font-family: monospace"">Amanhã vai acontecer um bazar no bairro?</span>","s","","comp","","Amanhã vai acontecer um bazar no bairro?","sim","false"
"","null","html-keyboard-response","377","931887","0.0-3.0-0.309-0.309","<span style= ""font-size:30px; font-family: monospace"">+</span>","null","fixation","","","","",""
"","285","html-keyboard-response","378","932423","0.0-3.0-1.309","<span style=""font-size:30px; font-family: monospace"">No</span>"," ","","exp-sent","No","","",""
"","1692","html-keyboard-response","379","934367","0.0-3.0-1.310","<span style=""font-size:30px; font-family: monospace"">passado</span>"," ","","exp-sent","passado","","",""
"","724","html-keyboard-response","380","935343","0.0-3.0-1.311","<span style=""font-size:30px; font-family: monospace"">houve</span>"," ","","exp-sent","houve","","",""
"","612","html-keyboard-response","381","936207","0.0-3.0-1.312","<span style=""font-size:30px; font-family: monospace"">uma</span>"," ","","exp-sent","uma","","",""
"","2068","html-keyboard-response","382","938527","0.0-3.0-1.313","<span style=""font-size:30px; font-family: monospace"">rebelião</span>"," ","","exp-sent","rebelião","","",""
"","500","html-keyboard-response","383","939279","0.0-3.0-1.314","<span style=""font-size:30px; font-family: monospace"">nesta</span>"," ","","exp-sent","nesta","","",""
"","3957","html-keyboard-response","384","943487","0.0-3.0-1.315","<span style=""font-size:30px; font-family: monospace"">cidade.</span>"," ","","exp-sent","cidade.","","",""
"","null","html-keyboard-response","385","944741","0.0-3.0-0.316-0.316","<span style= ""font-size:30px; font-family: monospace"">+</span>","null","fixation","","","","",""
"","638","html-keyboard-response","386","945631","0.0-3.0-1.316","<span style=""font-size:30px; font-family: monospace"">Ele</span>"," ","","exp-sent","Ele","","",""
"","973","html-keyboard-response","387","946855","0.0-3.0-1.317","<span style=""font-size:30px; font-family: monospace"">fundou</span>"," ","","exp-sent","fundou","","",""
"","4973","html-keyboard-response","388","952079","0.0-3.0-1.318","<span style=""font-size:30px; font-family: monospace"">uma</span>"," ","","exp-sent","uma","","",""
"","5533","html-keyboard-response","389","957863","0.0-3.0-1.319","<span style=""font-size:30px; font-family: monospace"">empresa</span>"," ","","exp-sent","empresa","","",""
"","900","html-keyboard-response","390","959014","0.0-3.0-1.320","<span style=""font-size:30px; font-family: monospace"">privada</span>"," ","","exp-sent","privada","","",""
"","661","html-keyboard-response","391","959927","0.0-3.0-1.321","<span style=""font-size:30px; font-family: monospace"">sem</span>"," ","","exp-sent","sem","","",""
"","7260","html-keyboard-response","392","967438","0.0-3.0-1.322","<span style=""font-size:30px; font-family: monospace"">ajuda.</span>"," ","","exp-sent","ajuda.","","",""
"","null","html-keyboard-response","393","968690","0.0-3.0-0.323-0.323","<span style= ""font-size:30px; font-family: monospace"">+</span>","null","fixation","","","","",""
"","561","html-keyboard-response","394","969503","0.0-3.0-1.323","<span style=""font-size:30px; font-family: monospace"">As</span>"," ","","exp-sent","As","","",""
"","1388","html-keyboard-response","395","971143","0.0-3.0-1.324","<span style=""font-size:30px; font-family: monospace"">meninas</span>"," ","","exp-sent","meninas","","",""
"","4205","html-keyboard-response","396","975599","0.0-3.0-1.325","<span style=""font-size:30px; font-family: monospace"">encontraram</span>"," ","","exp-sent","encontraram","","",""
"","516","html-keyboard-response","397","976366","0.0-3.0-1.326","<span style=""font-size:30px; font-family: monospace"">um</span>"," ","","exp-sent","um","","",""
"","1332","html-keyboard-response","398","977950","0.0-3.0-1.327","<span style=""font-size:30px; font-family: monospace"">rato</span>"," ","","exp-sent","rato","","",""
"","821","html-keyboard-response","399","979023","0.0-3.0-1.328","<span style=""font-size:30px; font-family: monospace"">dentro</span>"," ","","exp-sent","dentro","","",""
"","556","html-keyboard-response","400","979830","0.0-3.0-1.329","<span style=""font-size:30px; font-family: monospace"">de</span>"," ","","exp-sent","de","","",""
"","669","html-keyboard-response","401","980750","0.0-3.0-1.330","<span style=""font-size:30px; font-family: monospace"">casa.</span>"," ","","exp-sent","casa.","","",""
"","null","html-keyboard-response","402","982004","0.0-3.0-0.331-0.331","<span style= ""font-size:30px; font-family: monospace"">+</span>","null","fixation","","","","",""
"","975","html-keyboard-response","403","983230","0.0-3.0-1.331","<span style=""font-size:30px; font-family: monospace"">O</span>"," ","","exp-sent","O","","",""
"","1045","html-keyboard-response","404","984527","0.0-3.0-1.332","<span style=""font-size:30px; font-family: monospace"">texto</span>"," ","","exp-sent","texto","","",""
"","935","html-keyboard-response","405","985726","0.0-3.0-1.333","<span style=""font-size:30px; font-family: monospace"">tinha</span>"," ","","exp-sent","tinha","","",""
"","3381","html-keyboard-response","406","989359","0.0-3.0-1.334","<span style=""font-size:30px; font-family: monospace"">ideias</span>"," ","","exp-sent","ideias","","",""
"","1203","html-keyboard-response","407","990814","0.0-3.0-1.335","<span style=""font-size:30px; font-family: monospace"">vagas</span>"," ","","exp-sent","vagas","","",""
"","500","html-keyboard-response","408","991566","0.0-3.0-1.336","<span style=""font-size:30px; font-family: monospace"">e</span>"," ","","exp-sent","e","","",""
"","5605","html-keyboard-response","409","997423","0.0-3.0-1.337","<span style=""font-size:30px; font-family: monospace"">confusas.</span>"," ","","exp-sent","confusas.","","",""
"","null","html-keyboard-response","410","998674","0.0-3.0-0.338-0.338","<span style= ""font-size:30px; font-family: monospace"">+</span>","null","fixation","","","","",""
"","1114","html-keyboard-response","411","1000039","0.0-3.0-1.338","<span style=""font-size:30px; font-family: monospace"">As</span>"," ","","exp-sent","As","","",""
"","844","html-keyboard-response","412","1001134","0.0-3.0-1.339","<span style=""font-size:30px; font-family: monospace"">crianças</span>"," ","","exp-sent","crianças","","",""
"","1037","html-keyboard-response","413","1002422","0.0-3.0-1.340","<span style=""font-size:30px; font-family: monospace"">viram</span>"," ","","exp-sent","viram","","",""
"","788","html-keyboard-response","414","1003463","0.0-3.0-1.341","<span style=""font-size:30px; font-family: monospace"">a</span>"," ","","exp-sent","a","","",""
"","8461","html-keyboard-response","415","1012175","0.0-3.0-1.342","<span style=""font-size:30px; font-family: monospace"">acrobata</span>"," ","","exp-sent","acrobata","","",""
"","2205","html-keyboard-response","416","1014630","0.0-3.0-1.343","<span style=""font-size:30px; font-family: monospace"">talentosa</span>"," ","","exp-sent","talentosa","","",""
"","485","html-keyboard-response","417","1015366","0.0-3.0-1.344","<span style=""font-size:30px; font-family: monospace"">no</span>"," ","","exp-sent","no","","",""
"","2951","html-keyboard-response","418","1018582","0.0-3.0-1.345","<span style=""font-size:30px; font-family: monospace"">circo.</span>"," ","","comp","circo.","","",""
"","10468","html-keyboard-response","419","1029302","0.0-3.0-2.345-0.345","<span style=""font-size:30px; font-family: monospace"">As crianças viram o palhaço no circo?</span>","n","","comp","","As crianças viram o palhaço no circo?","não","false"
"","null","html-keyboard-response","420","1030804","0.0-3.0-0.346-0.346","<span style= ""font-size:30px; font-family: monospace"">+</span>","null","fixation","","","","",""
"","223","html-keyboard-response","421","1031278","0.0-3.0-1.346","<span style=""font-size:30px; font-family: monospace"">Ele</span>"," ","","exp-sent","Ele","","",""
"","925","html-keyboard-response","422","1032454","0.0-3.0-1.347","<span style=""font-size:30px; font-family: monospace"">é</span>"," ","","exp-sent","é","","",""
"","732","html-keyboard-response","423","1033438","0.0-3.0-1.348","<span style=""font-size:30px; font-family: monospace"">um</span>"," ","","exp-sent","um","","",""
"","885","html-keyboard-response","424","1034574","0.0-3.0-1.349","<span style=""font-size:30px; font-family: monospace"">pai</span>"," ","","exp-sent","pai","","",""
"","2957","html-keyboard-response","425","1037782","0.0-3.0-1.350","<span style=""font-size:30px; font-family: monospace"">ausente</span>"," ","","exp-sent","ausente","","",""
"","580","html-keyboard-response","426","1038614","0.0-3.0-1.351","<span style=""font-size:30px; font-family: monospace"">e</span>"," ","","exp-sent","e","","",""
"","797","html-keyboard-response","427","1039663","0.0-3.0-1.352","<span style=""font-size:30px; font-family: monospace"">muito</span>"," ","","exp-sent","muito","","",""
"","6476","html-keyboard-response","428","1046390","0.0-3.0-1.353","<span style=""font-size:30px; font-family: monospace"">fofoqueiro.</span>"," ","","exp-sent","fofoqueiro.","","",""
"","null","html-keyboard-response","429","1047643","0.0-3.0-0.354-0.354","<span style= ""font-size:30px; font-family: monospace"">+</span>","null","fixation","","","","",""
"","591","html-keyboard-response","430","1048486","0.0-3.0-1.354","<span style=""font-size:30px; font-family: monospace"">O</span>"," ","","exp-sent","O","","",""
"","836","html-keyboard-response","431","1049574","0.0-3.0-1.355","<span style=""font-size:30px; font-family: monospace"">filho</span>"," ","","exp-sent","filho","","",""
"","613","html-keyboard-response","432","1050438","0.0-3.0-1.356","<span style=""font-size:30px; font-family: monospace"">lavou</span>"," ","","exp-sent","lavou","","",""
"","3332","html-keyboard-response","433","1054022","0.0-3.0-1.357","<span style=""font-size:30px; font-family: monospace"">a</span>"," ","","exp-sent","a","","",""
"","6580","html-keyboard-response","434","1060854","0.0-3.0-1.358","<span style=""font-size:30px; font-family: monospace"">roupa</span>"," ","","exp-sent","roupa","","",""
"","812","html-keyboard-response","435","1061918","0.0-3.0-1.359","<span style=""font-size:30px; font-family: monospace"">sem</span>"," ","","exp-sent","sem","","",""
"","5578","html-keyboard-response","436","1067750","0.0-3.0-1.360","<span style=""font-size:30px; font-family: monospace"">nenhuma</span>"," ","","exp-sent","nenhuma","","",""
"","6877","html-keyboard-response","437","1074878","0.0-3.0-1.361","<span style=""font-size:30px; font-family: monospace"">ajuda.</span>"," ","","exp-sent","ajuda.","","",""
"","null","html-keyboard-response","438","1076131","0.0-3.0-0.362-0.362","<span style= ""font-size:30px; font-family: monospace"">+</span>","null","fixation","","","","",""
"","848","html-keyboard-response","439","1077230","0.0-3.0-1.362","<span style=""font-size:30px; font-family: monospace"">O</span>"," ","","exp-sent","O","","",""
"","1517","html-keyboard-response","440","1078998","0.0-3.0-1.363","<span style=""font-size:30px; font-family: monospace"">menino</span>"," ","","exp-sent","menino","","",""
"","1133","html-keyboard-response","441","1080382","0.0-3.0-1.364","<span style=""font-size:30px; font-family: monospace"">quebrou</span>"," ","","exp-sent","quebrou","","",""
"","540","html-keyboard-response","442","1081174","0.0-3.0-1.365","<span style=""font-size:30px; font-family: monospace"">a</span>"," ","","exp-sent","a","","",""
"","1077","html-keyboard-response","443","1082502","0.0-3.0-1.366","<span style=""font-size:30px; font-family: monospace"">perna</span>"," ","","exp-sent","perna","","",""
"","652","html-keyboard-response","444","1083406","0.0-3.0-1.367","<span style=""font-size:30px; font-family: monospace"">nos</span>"," ","","exp-sent","nos","","",""
"","3989","html-keyboard-response","445","1087654","0.0-3.0-1.368","<span style=""font-size:30px; font-family: monospace"">esportes.</span>"," ","","exp-sent","esportes.","","",""
"","null","html-keyboard-response","446","1088907","0.0-3.0-0.369-0.369","<span style= ""font-size:30px; font-family: monospace"">+</span>","null","fixation","","","","",""
"","968","html-keyboard-response","447","1090126","0.0-3.0-1.369","<span style=""font-size:30px; font-family: monospace"">Ela</span>"," ","","exp-sent","Ela","","",""
"","1957","html-keyboard-response","448","1092334","0.0-3.0-1.370","<span style=""font-size:30px; font-family: monospace"">brincou</span>"," ","","exp-sent","brincou","","",""
"","588","html-keyboard-response","449","1093174","0.0-3.0-1.371","<span style=""font-size:30px; font-family: monospace"">com</span>"," ","","exp-sent","com","","",""
"","540","html-keyboard-response","450","1093966","0.0-3.0-1.372","<span style=""font-size:30px; font-family: monospace"">uma</span>"," ","","exp-sent","uma","","",""
"","3861","html-keyboard-response","451","1098078","0.0-3.0-1.373","<span style=""font-size:30px; font-family: monospace"">menina</span>"," ","","exp-sent","menina","","",""
"","524","html-keyboard-response","452","1098854","0.0-3.0-1.374","<span style=""font-size:30px; font-family: monospace"">da</span>"," ","","exp-sent","da","","",""
"","1612","html-keyboard-response","453","1100718","0.0-3.0-1.375","<span style=""font-size:30px; font-family: monospace"">turma.</span>"," ","","exp-sent","turma.","","",""
"","null","html-keyboard-response","454","1101970","0.0-3.0-0.376-0.376","<span style= ""font-size:30px; font-family: monospace"">+</span>","null","fixation","","","","",""
"","832","html-keyboard-response","455","1103054","0.0-3.0-1.376","<span style=""font-size:30px; font-family: monospace"">Ele</span>"," ","","exp-sent","Ele","","",""
"","1045","html-keyboard-response","456","1104350","0.0-3.0-1.377","<span style=""font-size:30px; font-family: monospace"">esteve</span>"," ","","exp-sent","esteve","","",""
"","549","html-keyboard-response","457","1105150","0.0-3.0-1.378","<span style=""font-size:30px; font-family: monospace"">no</span>"," ","","exp-sent","no","","",""
"","1821","html-keyboard-response","458","1107222","0.0-3.0-1.379","<span style=""font-size:30px; font-family: monospace"">escritório</span>"," ","","exp-sent","escritório","","",""
"","620","html-keyboard-response","459","1108094","0.0-3.0-1.380","<span style=""font-size:30px; font-family: monospace"">o</span>"," ","","exp-sent","o","","",""
"","700","html-keyboard-response","460","1109046","0.0-3.0-1.381","<span style=""font-size:30px; font-family: monospace"">dia</span>"," ","","exp-sent","dia","","",""
"","964","html-keyboard-response","461","1110262","0.0-3.0-1.382","<span style=""font-size:30px; font-family: monospace"">inteiro.</span>"," ","","comp","inteiro.","","",""
"","6173","html-keyboard-response","462","1116686","0.0-3.0-2.382-0.382","<span style=""font-size:30px; font-family: monospace"">Ele esteve no parque o dia inteiro?</span>","n","","comp","","Ele esteve no parque o dia inteiro?","não","false"
"","null","html-keyboard-response","463","1118189","0.0-3.0-0.383-0.383","<span style= ""font-size:30px; font-family: monospace"">+</span>","null","fixation","","","","",""
"","1406","html-keyboard-response","464","1119847","0.0-3.0-1.383","<span style=""font-size:30px; font-family: monospace"">Minha</span>"," ","","exp-sent","Minha","","",""
"","1108","html-keyboard-response","465","1121206","0.0-3.0-1.384","<span style=""font-size:30px; font-family: monospace"">prima</span>"," ","","exp-sent","prima","","",""
"","1421","html-keyboard-response","466","1122878","0.0-3.0-1.385","<span style=""font-size:30px; font-family: monospace"">trocou</span>"," ","","exp-sent","trocou","","",""
"","676","html-keyboard-response","467","1123806","0.0-3.0-1.386","<span style=""font-size:30px; font-family: monospace"">a</span>"," ","","exp-sent","a","","",""
"","645","html-keyboard-response","468","1124702","0.0-3.0-1.387","<span style=""font-size:30px; font-family: monospace"">tela</span>"," ","","exp-sent","tela","","",""
"","620","html-keyboard-response","469","1125574","0.0-3.0-1.388","<span style=""font-size:30px; font-family: monospace"">do</span>"," ","","exp-sent","do","","",""
"","2612","html-keyboard-response","470","1128438","0.0-3.0-1.389","<span style=""font-size:30px; font-family: monospace"">celular</span>"," ","","exp-sent","celular","","",""
"","677","html-keyboard-response","471","1129366","0.0-3.0-1.390","<span style=""font-size:30px; font-family: monospace"">duas</span>"," ","","exp-sent","duas","","",""
"","7237","html-keyboard-response","472","1136854","0.0-3.0-1.391","<span style=""font-size:30px; font-family: monospace"">vezes.</span>"," ","","exp-sent","vezes.","","",""
"","null","html-keyboard-response","473","1138107","0.0-3.0-0.392-0.392","<span style= ""font-size:30px; font-family: monospace"">+</span>","null","fixation","","","","",""
"","1879","html-keyboard-response","474","1140238","0.0-3.0-1.392","<span style=""font-size:30px; font-family: monospace"">Agora</span>"," ","","exp-sent","Agora","","",""
"","576","html-keyboard-response","475","1141078","0.0-3.0-1.393","<span style=""font-size:30px; font-family: monospace"">a</span>"," ","","exp-sent","a","","",""
"","1645","html-keyboard-response","476","1142974","0.0-3.0-1.394","<span style=""font-size:30px; font-family: monospace"">minha</span>"," ","","exp-sent","minha","","",""
"","1269","html-keyboard-response","477","1144494","0.0-3.0-1.395","<span style=""font-size:30px; font-family: monospace"">única</span>"," ","","exp-sent","única","","",""
"","2613","html-keyboard-response","478","1147358","0.0-3.0-1.396","<span style=""font-size:30px; font-family: monospace"">preocupação</span>"," ","","exp-sent","preocupação","","",""
"","1444","html-keyboard-response","479","1149054","0.0-3.0-1.397","<span style=""font-size:30px; font-family: monospace"">é</span>"," ","","exp-sent","é","","",""
"","1197","html-keyboard-response","480","1150502","0.0-3.0-1.398","<span style=""font-size:30px; font-family: monospace"">um</span>"," ","","exp-sent","um","","",""
"","3700","html-keyboard-response","481","1154454","0.0-3.0-1.399","<span style=""font-size:30px; font-family: monospace"">descanso</span>"," ","","exp-sent","descanso","","",""
"","3285","html-keyboard-response","482","1157990","0.0-3.0-1.400","<span style=""font-size:30px; font-family: monospace"">tranquilo.</span>"," ","","exp-sent","tranquilo.","","",""
"","null","html-keyboard-response","483","1159242","0.0-3.0-0.401-0.401","<span style= ""font-size:30px; font-family: monospace"">+</span>","null","fixation","","","","",""
"","4440","html-keyboard-response","484","1163934","0.0-3.0-1.401","<span style=""font-size:30px; font-family: monospace"">A</span>"," ","","exp-sent","A","","",""
"","2141","html-keyboard-response","485","1166326","0.0-3.0-1.402","<span style=""font-size:30px; font-family: monospace"">criança</span>"," ","","exp-sent","criança","","",""
"","2493","html-keyboard-response","486","1169070","0.0-3.0-1.403","<span style=""font-size:30px; font-family: monospace"">ganhou</span>"," ","","exp-sent","ganhou","","",""
"","491","html-keyboard-response","487","1169814","0.0-3.0-1.404","<span style=""font-size:30px; font-family: monospace"">um</span>"," ","","exp-sent","um","","",""
"","1157","html-keyboard-response","488","1171222","0.0-3.0-1.405","<span style=""font-size:30px; font-family: monospace"">presente</span>"," ","","exp-sent","presente","","",""
"","3444","html-keyboard-response","489","1174918","0.0-3.0-1.406","<span style=""font-size:30px; font-family: monospace"">maravilhoso.</span>"," ","","exp-sent","maravilhoso.","","",""
"","null","html-keyboard-response","490","1176170","0.0-3.0-0.407-0.407","<span style= ""font-size:30px; font-family: monospace"">+</span>","null","fixation","","","","",""
"","793","html-keyboard-response","491","1177214","0.0-3.0-1.407","<span style=""font-size:30px; font-family: monospace"">Os</span>"," ","","exp-sent","Os","","",""
"","1149","html-keyboard-response","492","1178614","0.0-3.0-1.408","<span style=""font-size:30px; font-family: monospace"">bichos</span>"," ","","exp-sent","bichos","","",""
"","532","html-keyboard-response","493","1179406","0.0-3.0-1.409","<span style=""font-size:30px; font-family: monospace"">têm</span>"," ","","exp-sent","têm","","",""
"","620","html-keyboard-response","494","1180278","0.0-3.0-1.410","<span style=""font-size:30px; font-family: monospace"">um</span>"," ","","exp-sent","um","","",""
"","1221","html-keyboard-response","495","1181750","0.0-3.0-1.411","<span style=""font-size:30px; font-family: monospace"">instinto</span>"," ","","exp-sent","instinto","","",""
"","620","html-keyboard-response","496","1182622","0.0-3.0-1.412","<span style=""font-size:30px; font-family: monospace"">de</span>"," ","","exp-sent","de","","",""
"","5204","html-keyboard-response","497","1188078","0.0-3.0-1.413","<span style=""font-size:30px; font-family: monospace"">sobrevivência</span>"," ","","exp-sent","sobrevivência","","",""
"","1445","html-keyboard-response","498","1189774","0.0-3.0-1.414","<span style=""font-size:30px; font-family: monospace"">forte.</span>"," ","","exp-sent","forte.","","",""
"","null","html-keyboard-response","499","1191026","0.0-3.0-0.415-0.415","<span style= ""font-size:30px; font-family: monospace"">+</span>","null","fixation","","","","",""
"","2073","html-keyboard-response","500","1193350","0.0-3.0-1.415","<span style=""font-size:30px; font-family: monospace"">Aquele</span>"," ","","exp-sent","Aquele","","",""
"","1531","html-keyboard-response","501","1195134","0.0-3.0-1.416","<span style=""font-size:30px; font-family: monospace"">menino</span>"," ","","exp-sent","menino","","",""
"","988","html-keyboard-response","502","1196374","0.0-3.0-1.417","<span style=""font-size:30px; font-family: monospace"">alto</span>"," ","","exp-sent","alto","","",""
"","557","html-keyboard-response","503","1197182","0.0-3.0-1.418","<span style=""font-size:30px; font-family: monospace"">é</span>"," ","","exp-sent","é","","",""
"","2236","html-keyboard-response","504","1199670","0.0-3.0-1.419","<span style=""font-size:30px; font-family: monospace"">exibido</span>"," ","","exp-sent","exibido","","",""
"","613","html-keyboard-response","505","1200534","0.0-3.0-1.420","<span style=""font-size:30px; font-family: monospace"">e</span>"," ","","exp-sent","e","","",""
"","4860","html-keyboard-response","506","1205646","0.0-3.0-1.421","<span style=""font-size:30px; font-family: monospace"">sovina.</span>"," ","","comp","sovina.","","",""
"","5525","html-keyboard-response","507","1211423","0.0-3.0-2.421-0.421","<span style=""font-size:30px; font-family: monospace"">Aquele menino é humilde?</span>","n","","comp","","Aquele menino é humilde?","não","false"
"","null","html-keyboard-response","508","1212936","0.0-3.0-0.422-0.422","<span style= ""font-size:30px; font-family: monospace"">+</span>","null","fixation","","","","",""
"","491","html-keyboard-response","509","1213678","0.0-3.0-1.422","<span style=""font-size:30px; font-family: monospace"">Este</span>"," ","","exp-sent","Este","","",""
"","540","html-keyboard-response","510","1214471","0.0-3.0-1.423","<span style=""font-size:30px; font-family: monospace"">conto</span>"," ","","exp-sent","conto","","",""
"","3589","html-keyboard-response","511","1218310","0.0-3.0-1.424","<span style=""font-size:30px; font-family: monospace"">tem</span>"," ","","exp-sent","tem","","",""
"","557","html-keyboard-response","512","1219119","0.0-3.0-1.425","<span style=""font-size:30px; font-family: monospace"">um</span>"," ","","exp-sent","um","","",""
"","1327","html-keyboard-response","513","1220711","0.0-3.0-1.426","<span style=""font-size:30px; font-family: monospace"">final</span>"," ","","exp-sent","final","","",""
"","2789","html-keyboard-response","514","1223751","0.0-3.0-1.427","<span style=""font-size:30px; font-family: monospace"">perfeito.</span>"," ","","exp-sent","perfeito.","","",""
"","null","html-keyboard-response","515","1225005","0.0-3.0-0.428-0.428","<span style= ""font-size:30px; font-family: monospace"">+</span>","null","fixation","","","","",""
"","3350","html-keyboard-response","516","1228606","0.0-3.0-1.428","<span style=""font-size:30px; font-family: monospace"">Ele</span>"," ","","exp-sent","Ele","","",""
"","1197","html-keyboard-response","517","1230054","0.0-3.0-1.429","<span style=""font-size:30px; font-family: monospace"">precisa</span>"," ","","exp-sent","precisa","","",""
"","541","html-keyboard-response","518","1230846","0.0-3.0-1.430","<span style=""font-size:30px; font-family: monospace"">de</span>"," ","","exp-sent","de","","",""
"","612","html-keyboard-response","519","1231710","0.0-3.0-1.431","<span style=""font-size:30px; font-family: monospace"">um</span>"," ","","exp-sent","um","","",""
"","2341","html-keyboard-response","520","1234303","0.0-3.0-1.432","<span style=""font-size:30px; font-family: monospace"">protetor</span>"," ","","exp-sent","protetor","","",""
"","492","html-keyboard-response","521","1235046","0.0-3.0-1.433","<span style=""font-size:30px; font-family: monospace"">de</span>"," ","","exp-sent","de","","",""
"","3852","html-keyboard-response","522","1239151","0.0-3.0-1.434","<span style=""font-size:30px; font-family: monospace"">ouvido.</span>"," ","","exp-sent","ouvido.","","",""
"","null","html-keyboard-response","523","1240404","0.0-3.0-0.435-0.435","<span style= ""font-size:30px; font-family: monospace"">+</span>","null","fixation","","","","",""
"","575","html-keyboard-response","524","1241230","0.0-3.0-1.435","<span style=""font-size:30px; font-family: monospace"">Os</span>"," ","","exp-sent","Os","","",""
"","637","html-keyboard-response","525","1242118","0.0-3.0-1.436","<span style=""font-size:30px; font-family: monospace"">hábitos</span>"," ","","exp-sent","hábitos","","",""
"","1501","html-keyboard-response","526","1243870","0.0-3.0-1.437","<span style=""font-size:30px; font-family: monospace"">de</span>"," ","","exp-sent","de","","",""
"","1605","html-keyboard-response","527","1245727","0.0-3.0-1.438","<span style=""font-size:30px; font-family: monospace"">lugares</span>"," ","","exp-sent","lugares","","",""
"","1228","html-keyboard-response","528","1247206","0.0-3.0-1.439","<span style=""font-size:30px; font-family: monospace"">diferentes</span>"," ","","exp-sent","diferentes","","",""
"","980","html-keyboard-response","529","1248438","0.0-3.0-1.440","<span style=""font-size:30px; font-family: monospace"">são</span>"," ","","exp-sent","são","","",""
"","2133","html-keyboard-response","530","1250822","0.0-3.0-1.441","<span style=""font-size:30px; font-family: monospace"">muito</span>"," ","","exp-sent","muito","","",""
"","2365","html-keyboard-response","531","1253438","0.0-3.0-1.442","<span style=""font-size:30px; font-family: monospace"">lindos.</span>"," ","","exp-sent","lindos.","","",""
"","null","html-keyboard-response","532","1254691","0.0-3.0-0.443-0.443","<span style= ""font-size:30px; font-family: monospace"">+</span>","null","fixation","","","","",""
"","2478","html-keyboard-response","533","1257423","0.0-3.0-1.443","<span style=""font-size:30px; font-family: monospace"">O</span>"," ","","exp-sent","O","","",""
"","1171","html-keyboard-response","534","1258846","0.0-3.0-1.444","<span style=""font-size:30px; font-family: monospace"">médico</span>"," ","","exp-sent","médico","","",""
"","3245","html-keyboard-response","535","1262342","0.0-3.0-1.445","<span style=""font-size:30px; font-family: monospace"">corrigiu</span>"," ","","exp-sent","corrigiu","","",""
"","660","html-keyboard-response","536","1263254","0.0-3.0-1.446","<span style=""font-size:30px; font-family: monospace"">a</span>"," ","","exp-sent","a","","",""
"","1388","html-keyboard-response","537","1264894","0.0-3.0-1.447","<span style=""font-size:30px; font-family: monospace"">postura</span>"," ","","exp-sent","postura","","",""
"","565","html-keyboard-response","538","1265710","0.0-3.0-1.448","<span style=""font-size:30px; font-family: monospace"">das</span>"," ","","exp-sent","das","","",""
"","741","html-keyboard-response","539","1266703","0.0-3.0-1.449","<span style=""font-size:30px; font-family: monospace"">costas</span>"," ","","exp-sent","costas","","",""
"","693","html-keyboard-response","540","1267647","0.0-3.0-1.450","<span style=""font-size:30px; font-family: monospace"">da</span>"," ","","exp-sent","da","","",""
"","7308","html-keyboard-response","541","1275206","0.0-3.0-1.451","<span style=""font-size:30px; font-family: monospace"">pessoa.</span>"," ","","exp-sent","pessoa.","","",""
"","null","html-keyboard-response","542","1276478","0.0-3.0-0.452-0.452","<span style= ""font-size:30px; font-family: monospace"">+</span>","null","fixation","","","","",""
"","884","html-keyboard-response","543","1277613","0.0-3.0-1.452","<span style=""font-size:30px; font-family: monospace"">Aquele</span>"," ","","exp-sent","Aquele","","",""
"","1413","html-keyboard-response","544","1279278","0.0-3.0-1.453","<span style=""font-size:30px; font-family: monospace"">era</span>"," ","","exp-sent","era","","",""
"","900","html-keyboard-response","545","1280429","0.0-3.0-1.454","<span style=""font-size:30px; font-family: monospace"">um</span>"," ","","exp-sent","um","","",""
"","997","html-keyboard-response","546","1281678","0.0-3.0-1.455","<span style=""font-size:30px; font-family: monospace"">caso</span>"," ","","exp-sent","caso","","",""
"","723","html-keyboard-response","547","1282654","0.0-3.0-1.456","<span style=""font-size:30px; font-family: monospace"">real</span>"," ","","exp-sent","real","","",""
"","500","html-keyboard-response","548","1283406","0.0-3.0-1.457","<span style=""font-size:30px; font-family: monospace"">de</span>"," ","","exp-sent","de","","",""
"","2180","html-keyboard-response","549","1285838","0.0-3.0-1.458","<span style=""font-size:30px; font-family: monospace"">sequestro</span>"," ","","exp-sent","sequestro","","",""
"","2861","html-keyboard-response","550","1288950","0.0-3.0-1.459","<span style=""font-size:30px; font-family: monospace"">premeditado.</span>"," ","","comp","premeditado.","","",""
"","33220","html-keyboard-response","551","1322422","0.0-3.0-2.459-0.459","<span style=""font-size:30px; font-family: monospace"">Aquele era um caso real de roubo?</span>","n","","comp","","Aquele era um caso real de roubo?","não","false"
"","null","html-keyboard-response","552","1323935","0.0-3.0-0.460-0.460","<span style= ""font-size:30px; font-family: monospace"">+</span>","null","fixation","","","","",""
"","955","html-keyboard-response","553","1325141","0.0-3.0-1.460","<span style=""font-size:30px; font-family: monospace"">Eu</span>"," ","","exp-sent","Eu","","",""
"","733","html-keyboard-response","554","1326133","0.0-3.0-1.461","<span style=""font-size:30px; font-family: monospace"">gosto</span>"," ","","exp-sent","gosto","","",""
"","453","html-keyboard-response","555","1326837","0.0-3.0-1.462","<span style=""font-size:30px; font-family: monospace"">de</span>"," ","","exp-sent","de","","",""
"","565","html-keyboard-response","556","1327653","0.0-3.0-1.463","<span style=""font-size:30px; font-family: monospace"">molho</span>"," ","","exp-sent","molho","","",""
"","1023","html-keyboard-response","557","1328942","0.0-3.0-1.464","<span style=""font-size:30px; font-family: monospace"">picante</span>"," ","","exp-sent","picante","","",""
"","2108","html-keyboard-response","558","1331301","0.0-3.0-1.465","<span style=""font-size:30px; font-family: monospace"">nas</span>"," ","","exp-sent","nas","","",""
"","788","html-keyboard-response","559","1332341","0.0-3.0-1.466","<span style=""font-size:30px; font-family: monospace"">batatas.</span>"," ","","exp-sent","batatas.","","",""
"","null","html-keyboard-response","560","1333594","0.0-3.0-0.467-0.467","<span style= ""font-size:30px; font-family: monospace"">+</span>","null","fixation","","","","",""
"","3728","html-keyboard-response","561","1337574","0.0-3.0-1.467","<span style=""font-size:30px; font-family: monospace"">As</span>"," ","","exp-sent","As","","",""
"","1140","html-keyboard-response","562","1338966","0.0-3.0-1.468","<span style=""font-size:30px; font-family: monospace"">pessoas</span>"," ","","exp-sent","pessoas","","",""
"","797","html-keyboard-response","563","1340014","0.0-3.0-1.469","<span style=""font-size:30px; font-family: monospace"">têm</span>"," ","","exp-sent","têm","","",""
"","772","html-keyboard-response","564","1341038","0.0-3.0-1.470","<span style=""font-size:30px; font-family: monospace"">sua</span>"," ","","exp-sent","sua","","",""
"","2301","html-keyboard-response","565","1343590","0.0-3.0-1.471","<span style=""font-size:30px; font-family: monospace"">liberdade</span>"," ","","exp-sent","liberdade","","",""
"","588","html-keyboard-response","566","1344430","0.0-3.0-1.472","<span style=""font-size:30px; font-family: monospace"">até</span>"," ","","exp-sent","até","","",""
"","2309","html-keyboard-response","567","1346990","0.0-3.0-1.473","<span style=""font-size:30px; font-family: monospace"">certo</span>"," ","","exp-sent","certo","","",""
"","3565","html-keyboard-response","568","1350806","0.0-3.0-1.474","<span style=""font-size:30px; font-family: monospace"">ponto.</span>"," ","","exp-sent","ponto.","","",""
"","null","html-keyboard-response","569","1352059","0.0-3.0-0.475-0.475","<span style= ""font-size:30px; font-family: monospace"">+</span>","null","fixation","","","","",""
"","719","html-keyboard-response","570","1353030","0.0-3.0-1.475","<span style=""font-size:30px; font-family: monospace"">A</span>"," ","","exp-sent","A","","",""
"","1748","html-keyboard-response","571","1355030","0.0-3.0-1.476","<span style=""font-size:30px; font-family: monospace"">empresa</span>"," ","","exp-sent","empresa","","",""
"","1156","html-keyboard-response","572","1356438","0.0-3.0-1.477","<span style=""font-size:30px; font-family: monospace"">enviou</span>"," ","","exp-sent","enviou","","",""
"","500","html-keyboard-response","573","1357190","0.0-3.0-1.478","<span style=""font-size:30px; font-family: monospace"">o</span>"," ","","exp-sent","o","","",""
"","925","html-keyboard-response","574","1358366","0.0-3.0-1.479","<span style=""font-size:30px; font-family: monospace"">aviso</span>"," ","","exp-sent","aviso","","",""
"","628","html-keyboard-response","575","1359246","0.0-3.0-1.480","<span style=""font-size:30px; font-family: monospace"">hoje</span>"," ","","exp-sent","hoje","","",""
"","581","html-keyboard-response","576","1360078","0.0-3.0-1.481","<span style=""font-size:30px; font-family: monospace"">de</span>"," ","","exp-sent","de","","",""
"","3565","html-keyboard-response","577","1363894","0.0-3.0-1.482","<span style=""font-size:30px; font-family: monospace"">tarde.</span>"," ","","exp-sent","tarde.","","",""
"","null","html-keyboard-response","578","1365146","0.0-3.0-0.483-0.483","<span style= ""font-size:30px; font-family: monospace"">+</span>","null","fixation","","","","",""
"","815","html-keyboard-response","579","1366214","0.0-3.0-1.483","<span style=""font-size:30px; font-family: monospace"">A</span>"," ","","exp-sent","A","","",""
"","1101","html-keyboard-response","580","1367566","0.0-3.0-1.484","<span style=""font-size:30px; font-family: monospace"">loja</span>"," ","","exp-sent","loja","","",""
"","540","html-keyboard-response","581","1368358","0.0-3.0-1.485","<span style=""font-size:30px; font-family: monospace"">vende</span>"," ","","exp-sent","vende","","",""
"","621","html-keyboard-response","582","1369230","0.0-3.0-1.486","<span style=""font-size:30px; font-family: monospace"">tanto</span>"," ","","exp-sent","tanto","","",""
