[
	{
		"view_history": [
			{
				"page_index": 0,
				"viewing_time": 55156
			}
		],
		"rt": 55156,
		"trial_type": "instructions",
		"trial_index": 0,
		"time_elapsed": 55163,
		"internal_node_id": "0.0-0.0"
	},
	{
		"rt": 981000,
		"response": {
			"tcle": "Concordo voluntariamente em participar da pesquisa conforme texto acima."
		},
		"question_order": [
			0
		],
		"trial_type": "survey-multi-choice",
		"trial_index": 1,
		"time_elapsed": 1036368,
		"internal_node_id": "0.0-1.0"
	},
	{
		"rt": 59837,
		"response": {
			"email": "8V4CV"
		},
		"trial_type": "survey-text",
		"trial_index": 2,
		"time_elapsed": 1097280,
		"internal_node_id": "0.0-2.0"
	}
]