[
	{
		"view_history": [
			{
				"page_index": 0,
				"viewing_time": 4148
			}
		],
		"rt": 4149,
		"trial_type": "instructions",
		"trial_index": 0,
		"time_elapsed": 4151,
		"internal_node_id": "0.0-0.0"
	},
	{
		"rt": 29320,
		"response": {
			"age": "33"
		},
		"trial_type": "survey-text",
		"trial_index": 1,
		"time_elapsed": 33583,
		"internal_node_id": "0.0-1.0"
	},
	{
		"rt": 9968,
		"response": {
			"sex": "Masculino"
		},
		"question_order": [
			0
		],
		"trial_type": "survey-multi-choice",
		"trial_index": 2,
		"time_elapsed": 43655,
		"internal_node_id": "0.0-2.0"
	},
	{
		"rt": 17705,
		"response": {
			"own_schooling": "Ensino Médio completo"
		},
		"question_order": [
			0
		],
		"trial_type": "survey-multi-choice",
		"trial_index": 3,
		"time_elapsed": 61463,
		"internal_node_id": "0.0-3.0"
	},
	{
		"rt": 25800,
		"response": {
			"mother_schooling": "Outro"
		},
		"question_order": [
			0
		],
		"trial_type": "survey-multi-choice",
		"trial_index": 4,
		"time_elapsed": 87366,
		"internal_node_id": "0.0-4.0"
	},
	{
		"rt": 11225,
		"response": {
			"father_schooling": "Outro"
		},
		"question_order": [
			0
		],
		"trial_type": "survey-multi-choice",
		"trial_index": 5,
		"time_elapsed": 98695,
		"internal_node_id": "0.0-5.0"
	},
	{
		"rt": 398193,
		"response": {
			"language_0": "CRIOLO",
			"listening_0": "1",
			"speaking_0": "2",
			"reading_0": "4",
			"writing_0": "4",
			"language_1": "FRANCES",
			"listening_1": "4",
			"speaking_1": "5",
			"reading_1": "4",
			"writing_1": "4",
			"language_2": "ESPANHOL",
			"listening_2": "10",
			"speaking_2": "12",
			"reading_2": "12",
			"writing_2": "12",
			"language_3": "PORTUGUES",
			"listening_3": "24",
			"speaking_3": "24",
			"reading_3": "24",
			"writing_3": "24"
		},
		"trial_type": "survey-html-form",
		"trial_index": 6,
		"time_elapsed": 496991,
		"internal_node_id": "0.0-6.0"
	},
	{
		"rt": 783591,
		"response": {
			"language_3": "PORTUGUES",
			"listening_3": "5MESES",
			"speaking_3": "1ANO",
			"reading_3": "5MESES",
			"writing_3": "MESES",
			"language_1": "FRANCES",
			"listening_1": "2ANOS",
			"speaking_1": "18MESES",
			"reading_1": "18MESES",
			"writing_1": "18MESES",
			"language_2": "ESPANHOL",
			"listening_2": "2ANOS",
			"speaking_2": "12MESES",
			"reading_2": "12MESES",
			"writing_2": "12MESES"
		},
		"trial_type": "survey-html-form",
		"trial_index": 7,
		"time_elapsed": 1280685,
		"internal_node_id": "0.0-7.0"
	},
	{
		"rt": 11815,
		"response": {
			"country_of_origin": "HAITI"
		},
		"trial_type": "survey-text",
		"trial_index": 8,
		"time_elapsed": 1292604,
		"internal_node_id": "0.0-8.0"
	},
	{
		"rt": 20584,
		"response": {
			"country_of_residence": "BRASIL"
		},
		"trial_type": "survey-text",
		"trial_index": 9,
		"time_elapsed": 1313291,
		"internal_node_id": "0.0-9.0"
	},
	{
		"rt": 49705,
		"response": {
			"country_0": "",
			"duration_0": "",
			"language_0": "",
			"frequency_0": "",
			"country_1": "",
			"duration_1": "",
			"language_1": "",
			"frequency_1": "",
			"country_2": "",
			"duration_2": "",
			"language_2": "",
			"frequency_2": "",
			"country_3": "",
			"duration_3": "",
			"language_3": "",
			"frequency_3": ""
		},
		"trial_type": "survey-html-form",
		"trial_index": 10,
		"time_elapsed": 1363100,
		"internal_node_id": "0.0-10.0"
	},
	{
		"rt": 173705,
		"response": {
			"language_0": "FRANCES",
			"context_0": "2",
			"language_1": "ESPANHOL",
			"context_1": "2",
			"language_2": "PORTUGUES",
			"context_2": "1E2",
			"language_3": "",
			"context_3": ""
		},
		"trial_type": "survey-html-form",
		"trial_index": 11,
		"time_elapsed": 1536907,
		"internal_node_id": "0.0-11.0"
	},
	{
		"rt": 610575,
		"response": {
			"language_0": "CRIOLO",
			"home_0": "2ANOS",
			"friends_0": "3ANOS",
			"school_0": "3ANO",
			"work_0": "15ANOS",
			"computer_0": "24ANOS",
			"games_0": "-",
			"language_1": "FRANCES",
			"home_1": "5ANOS",
			"friends_1": "5ANOS",
			"school_1": "5ANOS",
			"work_1": "18ANOS",
			"computer_1": "24ANOS",
			"games_1": "-",
			"language_2": "ESPANHOL",
			"home_2": "-",
			"friends_2": "-",
			"school_2": "10ANOS",
			"work_2": "-",
			"computer_2": "-",
			"games_2": "-",
			"language_3": "PORTUGUES",
			"home_3": "24ANOS",
			"friends_3": "24ANOS",
			"school_3": "25ANO",
			"work_3": "25ANOS",
			"computer_3": "24ANOS",
			"games_3": "-"
		},
		"trial_type": "survey-html-form",
		"trial_index": 12,
		"time_elapsed": 2147588,
		"internal_node_id": "0.0-12.0"
	},
	{
		"rt": 31870,
		"response": {
			"new_languages": 4
		},
		"question_order": [
			0
		],
		"trial_type": "survey-likert",
		"trial_index": 13,
		"time_elapsed": 2179562,
		"internal_node_id": "0.0-13.0"
	},
	{
		"rt": 283936,
		"response": {
			"language_0": "CRIOLO",
			"listen_0": "7",
			"talk_0": "7",
			"read_0": "7",
			"write_0": "7",
			"language_1": "FRANCES",
			"listen_1": "5",
			"talk_1": "4",
			"read_1": "6",
			"write_1": "5",
			"language_2": "ESPANHOL",
			"listen_2": "4",
			"talk_2": "3",
			"read_2": "3",
			"write_2": "3",
			"language_3": "PORTUGUES",
			"listen_3": "6",
			"talk_3": "6",
			"read_3": "6",
			"write_3": "5"
		},
		"trial_type": "survey-html-form",
		"trial_index": 14,
		"time_elapsed": 2463602,
		"internal_node_id": "0.0-14.0"
	},
	{
		"rt": 343559,
		"response": {
			"language_0": "CRIOLO",
			"tv_0": "-",
			"radio_0": "-",
			"read_fun_0": "1",
			"read_work_0": "-",
			"write_0": "-",
			"social_nets_0": "1",
			"language_1": "FRANCES",
			"tv_1": "-",
			"radio_1": "-",
			"read_fun_1": "1",
			"read_work_1": "-",
			"write_1": "-",
			"social_nets_1": "1",
			"language_2": "ESPANHOL",
			"tv_2": "-",
			"radio_2": "-",
			"read_fun_2": "-",
			"read_work_2": "-",
			"write_2": "-",
			"social_nets_2": "-",
			"language_3": "PORTUGUES",
			"tv_3": "3",
			"radio_3": "5",
			"read_fun_3": "6",
			"read_work_3": "1",
			"write_3": "1",
			"social_nets_3": "8"
		},
		"trial_type": "survey-html-form",
		"trial_index": 15,
		"time_elapsed": 2807265,
		"internal_node_id": "0.0-15.0"
	},
	{
		"rt": 230839,
		"response": {
			"language_0": "CRIOLO",
			"family_0": "2",
			"friends_0": "2",
			"work_0": "-",
			"school_0": "-",
			"language_1": "FR",
			"family_1": "2",
			"friends_1": "2",
			"work_1": "-",
			"school_1": "-",
			"language_2": "ESP",
			"family_2": "-",
			"friends_2": "-",
			"work_2": "-",
			"school_2": "-",
			"language_3": "POR",
			"family_3": "8",
			"friends_3": "10",
			"work_3": "10",
			"school_3": "2"
		},
		"trial_type": "survey-html-form",
		"trial_index": 16,
		"time_elapsed": 3038209,
		"internal_node_id": "0.0-16.0"
	},
	{
		"rt": 244567,
		"response": {
			"language_0_0": "POR",
			"language_0_1": "POR FR CR ",
			"language_0_2": "POR FR CR",
			"language_0_3": "POR FR CR ",
			"language_1_0": "POR",
			"language_1_1": "POR CR",
			"language_1_2": "POR CR FR",
			"language_1_3": "POR CR",
			"language_2_0": "-",
			"language_2_1": "-",
			"language_2_2": "-",
			"language_2_3": "-",
			"language_3_0": "POR",
			"language_3_1": "POR",
			"language_3_2": "POR",
			"language_3_3": "POR"
		},
		"trial_type": "survey-html-form",
		"trial_index": 17,
		"time_elapsed": 3282879,
		"internal_node_id": "0.0-17.0"
	},
	{
		"rt": 265067,
		"response": {
			"language_2": "ESP",
			"think_2": "1",
			"selftalk_2": "1",
			"emotions_2": "1",
			"dream_2": "1",
			"math_2": "1",
			"remember_2": "2",
			"pray_2": "1",
			"language_1": "FR",
			"think_1": "4",
			"selftalk_1": "3",
			"emotions_1": "2",
			"dream_1": "3",
			"math_1": "6",
			"remember_1": "5",
			"pray_1": "3",
			"language_3": "POR",
			"think_3": "7",
			"selftalk_3": "7",
			"emotions_3": "7",
			"dream_3": "7",
			"math_3": "6",
			"remember_3": "6",
			"pray_3": "7"
		},
		"trial_type": "survey-html-form",
		"trial_index": 18,
		"time_elapsed": 3548055,
		"internal_node_id": "0.0-18.0"
	},
	{
		"rt": 29728,
		"response": {
			"dificuldade_visao_ou_audicao": "Não"
		},
		"question_order": [
			0
		],
		"trial_type": "survey-multi-choice",
		"trial_index": 19,
		"time_elapsed": 3577886,
		"internal_node_id": "0.0-19.0"
	},
	{
		"rt": 110841,
		"response": {
			"detalhes_dificuldades_audicao_ou_visao": "TENHO PERDA DE AUDITIVA DO OUVIDO DIREITTO"
		},
		"trial_type": "survey-text",
		"trial_index": 20,
		"time_elapsed": 3688847,
		"internal_node_id": "0.0-20.0"
	},
	{
		"rt": 194359,
		"response": {
			"additional_info": "USO AS LINGUAS CONFORME AS PESSOAS OU ANBIENTE"
		},
		"trial_type": "survey-text",
		"trial_index": 21,
		"time_elapsed": 3883310,
		"internal_node_id": "0.0-21.0"
	}
]