[
	{
		"view_history": [
			{
				"page_index": 0,
				"viewing_time": 37111
			},
			{
				"page_index": 1,
				"viewing_time": 22896
			}
		],
		"rt": 60008,
		"trial_type": "instructions",
		"trial_index": 0,
		"time_elapsed": 60009,
		"internal_node_id": "0.0-0.0"
	},
	{
		"rt": null,
		"stimulus": "<span style= \"font-size:30px; font-family: monospace\">+</span>",
		"response": null,
		"trial_part": "fixation",
		"trial_type": "html-keyboard-response",
		"trial_index": 1,
		"time_elapsed": 61113,
		"internal_node_id": "0.0-1.0-0.0-0.0"
	},
	{
		"rt": 3086,
		"stimulus": "<span style=\"font-size:30px; font-family: monospace\">O</span>",
		"response": " ",
		"trial": "prac-sent",
		"word": "O",
		"trial_type": "html-keyboard-response",
		"trial_index": 2,
		"time_elapsed": 64451,
		"internal_node_id": "0.0-1.0-1.0"
	},
	{
		"rt": 2016,
		"stimulus": "<span style=\"font-size:30px; font-family: monospace\">dia</span>",
		"response": " ",
		"trial": "prac-sent",
		"word": "dia",
		"trial_type": "html-keyboard-response",
		"trial_index": 3,
		"time_elapsed": 66721,
		"internal_node_id": "0.0-1.0-1.1"
	},
	{
		"rt": 1644,
		"stimulus": "<span style=\"font-size:30px; font-family: monospace\">estará</span>",
		"response": " ",
		"trial": "prac-sent",
		"word": "estará",
		"trial_type": "html-keyboard-response",
		"trial_index": 4,
		"time_elapsed": 68617,
		"internal_node_id": "0.0-1.0-1.2"
	},
	{
		"rt": 1236,
		"stimulus": "<span style=\"font-size:30px; font-family: monospace\">cheio</span>",
		"response": " ",
		"trial": "prac-sent",
		"word": "cheio",
		"trial_type": "html-keyboard-response",
		"trial_index": 5,
		"time_elapsed": 70105,
		"internal_node_id": "0.0-1.0-1.3"
	},
	{
		"rt": 892,
		"stimulus": "<span style=\"font-size:30px; font-family: monospace\">de</span>",
		"response": " ",
		"trial": "prac-sent",
		"word": "de",
		"trial_type": "html-keyboard-response",
		"trial_index": 6,
		"time_elapsed": 71249,
		"internal_node_id": "0.0-1.0-1.4"
	},
	{
		"rt": 1277,
		"stimulus": "<span style=\"font-size:30px; font-family: monospace\">nuvens</span>",
		"response": " ",
		"trial": "prac-sent",
		"word": "nuvens",
		"trial_type": "html-keyboard-response",
		"trial_index": 7,
		"time_elapsed": 72777,
		"internal_node_id": "0.0-1.0-1.5"
	},
	{
		"rt": 1028,
		"stimulus": "<span style=\"font-size:30px; font-family: monospace\">hoje.</span>",
		"response": " ",
		"trial": "prac-sent",
		"word": "hoje.",
		"trial_type": "html-keyboard-response",
		"trial_index": 8,
		"time_elapsed": 74057,
		"internal_node_id": "0.0-1.0-1.6"
	},
	{
		"rt": null,
		"stimulus": "<span style= \"font-size:30px; font-family: monospace\">+</span>",
		"response": null,
		"trial_part": "fixation",
		"trial_type": "html-keyboard-response",
		"trial_index": 9,
		"time_elapsed": 75308,
		"internal_node_id": "0.0-1.0-0.7-0.7"
	},
	{
		"rt": 6328,
		"stimulus": "<span style=\"font-size:30px; font-family: monospace\">A</span>",
		"response": " ",
		"trial": "prac-sent",
		"word": "A",
		"trial_type": "html-keyboard-response",
		"trial_index": 10,
		"time_elapsed": 81889,
		"internal_node_id": "0.0-1.0-1.7"
	},
	{
		"rt": 4604,
		"stimulus": "<span style=\"font-size:30px; font-family: monospace\">caneca</span>",
		"response": " ",
		"trial": "prac-sent",
		"word": "caneca",
		"trial_type": "html-keyboard-response",
		"trial_index": 11,
		"time_elapsed": 86744,
		"internal_node_id": "0.0-1.0-1.8"
	},
	{
		"rt": 2156,
		"stimulus": "<span style=\"font-size:30px; font-family: monospace\">colorida</span>",
		"response": " ",
		"trial": "prac-sent",
		"word": "colorida",
		"trial_type": "html-keyboard-response",
		"trial_index": 12,
		"time_elapsed": 89153,
		"internal_node_id": "0.0-1.0-1.9"
	},
	{
		"rt": 4197,
		"stimulus": "<span style=\"font-size:30px; font-family: monospace\">caiu</span>",
		"response": " ",
		"trial": "prac-sent",
		"word": "caiu",
		"trial_type": "html-keyboard-response",
		"trial_index": 13,
		"time_elapsed": 93602,
		"internal_node_id": "0.0-1.0-1.10"
	},
	{
		"rt": 1059,
		"stimulus": "<span style=\"font-size:30px; font-family: monospace\">da</span>",
		"response": " ",
		"trial": "prac-sent",
		"word": "da",
		"trial_type": "html-keyboard-response",
		"trial_index": 14,
		"time_elapsed": 94913,
		"internal_node_id": "0.0-1.0-1.11"
	},
	{
		"rt": 1421,
		"stimulus": "<span style=\"font-size:30px; font-family: monospace\">mesa</span>",
		"response": " ",
		"trial": "prac-sent",
		"word": "mesa",
		"trial_type": "html-keyboard-response",
		"trial_index": 15,
		"time_elapsed": 96585,
		"internal_node_id": "0.0-1.0-1.12"
	},
	{
		"rt": 1141,
		"stimulus": "<span style=\"font-size:30px; font-family: monospace\">de</span>",
		"response": " ",
		"trial": "prac-sent",
		"word": "de",
		"trial_type": "html-keyboard-response",
		"trial_index": 16,
		"time_elapsed": 97977,
		"internal_node_id": "0.0-1.0-1.13"
	},
	{
		"rt": 3004,
		"stimulus": "<span style=\"font-size:30px; font-family: monospace\">jantar.</span>",
		"response": " ",
		"trial": "prac-comp",
		"word": "jantar.",
		"trial_type": "html-keyboard-response",
		"trial_index": 17,
		"time_elapsed": 101233,
		"internal_node_id": "0.0-1.0-1.14"
	},
	{
		"rt": 19829,
		"stimulus": "<span style=\"font-size:30px; font-family: monospace\">A caneca permaneceu na mesa?</span>",
		"response": "n",
		"question": "A caneca permaneceu na mesa?",
		"answer": "não",
		"trial": "prac-comp",
		"trial_type": "html-keyboard-response",
		"trial_index": 18,
		"time_elapsed": 121314,
		"internal_node_id": "0.0-1.0-2.14-0.14",
		"accuracy": false
	},
	{
		"view_history": [
			{
				"page_index": 0,
				"viewing_time": 32793
			}
		],
		"rt": 32793,
		"trial_type": "instructions",
		"trial_index": 19,
		"time_elapsed": 154608,
		"internal_node_id": "0.0-2.0"
	},
	{
		"rt": null,
		"stimulus": "<span style= \"font-size:30px; font-family: monospace\">+</span>",
		"response": null,
		"trial_part": "fixation",
		"trial_type": "html-keyboard-response",
		"trial_index": 20,
		"time_elapsed": 155711,
		"internal_node_id": "0.0-3.0-0.0-0.0"
	},
	{
		"rt": 2270,
		"stimulus": "<span style=\"font-size:30px; font-family: monospace\">A</span>",
		"response": " ",
		"trial": "exp-sent",
		"word": "A",
		"trial_type": "html-keyboard-response",
		"trial_index": 21,
		"time_elapsed": 158233,
		"internal_node_id": "0.0-3.0-1.0"
	},
	{
		"rt": 2429,
		"stimulus": "<span style=\"font-size:30px; font-family: monospace\">força</span>",
		"response": " ",
		"trial": "exp-sent",
		"word": "força",
		"trial_type": "html-keyboard-response",
		"trial_index": 22,
		"time_elapsed": 160913,
		"internal_node_id": "0.0-3.0-1.1"
	},
	{
		"rt": 1461,
		"stimulus": "<span style=\"font-size:30px; font-family: monospace\">d'água</span>",
		"response": " ",
		"trial": "exp-sent",
		"word": "d'água",
		"trial_type": "html-keyboard-response",
		"trial_index": 23,
		"time_elapsed": 162625,
		"internal_node_id": "0.0-3.0-1.2"
	},
	{
		"rt": 1885,
		"stimulus": "<span style=\"font-size:30px; font-family: monospace\">estava</span>",
		"response": " ",
		"trial": "exp-sent",
		"word": "estava",
		"trial_type": "html-keyboard-response",
		"trial_index": 24,
		"time_elapsed": 164761,
		"internal_node_id": "0.0-3.0-1.3"
	},
	{
		"rt": 2852,
		"stimulus": "<span style=\"font-size:30px; font-family: monospace\">normal</span>",
		"response": " ",
		"trial": "exp-sent",
		"word": "normal",
		"trial_type": "html-keyboard-response",
		"trial_index": 25,
		"time_elapsed": 167865,
		"internal_node_id": "0.0-3.0-1.4"
	},
	{
		"rt": 1645,
		"stimulus": "<span style=\"font-size:30px; font-family: monospace\">naquele</span>",
		"response": " ",
		"trial": "exp-sent",
		"word": "naquele",
		"trial_type": "html-keyboard-response",
		"trial_index": 26,
		"time_elapsed": 169761,
		"internal_node_id": "0.0-3.0-1.5"
	},
	{
		"rt": 4396,
		"stimulus": "<span style=\"font-size:30px; font-family: monospace\">dia.</span>",
		"response": " ",
		"trial": "exp-sent",
		"word": "dia.",
		"trial_type": "html-keyboard-response",
		"trial_index": 27,
		"time_elapsed": 174408,
		"internal_node_id": "0.0-3.0-1.6"
	},
	{
		"rt": null,
		"stimulus": "<span style= \"font-size:30px; font-family: monospace\">+</span>",
		"response": null,
		"trial_part": "fixation",
		"trial_type": "html-keyboard-response",
		"trial_index": 28,
		"time_elapsed": 175660,
		"internal_node_id": "0.0-3.0-0.7-0.7"
	},
	{
		"rt": 98,
		"stimulus": "<span style=\"font-size:30px; font-family: monospace\">A</span>",
		"response": " ",
		"trial": "exp-sent",
		"word": "A",
		"trial_type": "html-keyboard-response",
		"trial_index": 29,
		"time_elapsed": 176009,
		"internal_node_id": "0.0-3.0-1.7"
	},
	{
		"rt": 3452,
		"stimulus": "<span style=\"font-size:30px; font-family: monospace\">médica</span>",
		"response": " ",
		"trial": "exp-sent",
		"word": "médica",
		"trial_type": "html-keyboard-response",
		"trial_index": 30,
		"time_elapsed": 179713,
		"internal_node_id": "0.0-3.0-1.8"
	},
	{
		"rt": 1547,
		"stimulus": "<span style=\"font-size:30px; font-family: monospace\">ofereceu</span>",
		"response": " ",
		"trial": "exp-sent",
		"word": "ofereceu",
		"trial_type": "html-keyboard-response",
		"trial_index": 31,
		"time_elapsed": 181513,
		"internal_node_id": "0.0-3.0-1.9"
	},
	{
		"rt": 1300,
		"stimulus": "<span style=\"font-size:30px; font-family: monospace\">a</span>",
		"response": " ",
		"trial": "exp-sent",
		"word": "a",
		"trial_type": "html-keyboard-response",
		"trial_index": 32,
		"time_elapsed": 183064,
		"internal_node_id": "0.0-3.0-1.10"
	},
	{
		"rt": 1829,
		"stimulus": "<span style=\"font-size:30px; font-family: monospace\">pomada</span>",
		"response": " ",
		"trial": "exp-sent",
		"word": "pomada",
		"trial_type": "html-keyboard-response",
		"trial_index": 33,
		"time_elapsed": 185144,
		"internal_node_id": "0.0-3.0-1.11"
	},
	{
		"rt": 3301,
		"stimulus": "<span style=\"font-size:30px; font-family: monospace\">para</span>",
		"response": " ",
		"trial": "exp-sent",
		"word": "para",
		"trial_type": "html-keyboard-response",
		"trial_index": 34,
		"time_elapsed": 188697,
		"internal_node_id": "0.0-3.0-1.12"
	},
	{
		"rt": 708,
		"stimulus": "<span style=\"font-size:30px; font-family: monospace\">o</span>",
		"response": " ",
		"trial": "exp-sent",
		"word": "o",
		"trial_type": "html-keyboard-response",
		"trial_index": 35,
		"time_elapsed": 189656,
		"internal_node_id": "0.0-3.0-1.13"
	},
	{
		"rt": 1668,
		"stimulus": "<span style=\"font-size:30px; font-family: monospace\">avô.</span>",
		"response": " ",
		"trial": "exp-sent",
		"word": "avô.",
		"trial_type": "html-keyboard-response",
		"trial_index": 36,
		"time_elapsed": 191576,
		"internal_node_id": "0.0-3.0-1.14"
	},
	{
		"rt": null,
		"stimulus": "<span style= \"font-size:30px; font-family: monospace\">+</span>",
		"response": null,
		"trial_part": "fixation",
		"trial_type": "html-keyboard-response",
		"trial_index": 37,
		"time_elapsed": 192828,
		"internal_node_id": "0.0-3.0-0.15-0.15"
	},
	{
		"rt": 1953,
		"stimulus": "<span style=\"font-size:30px; font-family: monospace\">Ele</span>",
		"response": " ",
		"trial": "exp-sent",
		"word": "Ele",
		"trial_type": "html-keyboard-response",
		"trial_index": 38,
		"time_elapsed": 195033,
		"internal_node_id": "0.0-3.0-1.15"
	},
	{
		"rt": 1797,
		"stimulus": "<span style=\"font-size:30px; font-family: monospace\">conversou</span>",
		"response": " ",
		"trial": "exp-sent",
		"word": "conversou",
		"trial_type": "html-keyboard-response",
		"trial_index": 39,
		"time_elapsed": 197080,
		"internal_node_id": "0.0-3.0-1.16"
	},
	{
		"rt": 781,
		"stimulus": "<span style=\"font-size:30px; font-family: monospace\">com</span>",
		"response": " ",
		"trial": "exp-sent",
		"word": "com",
		"trial_type": "html-keyboard-response",
		"trial_index": 40,
		"time_elapsed": 198113,
		"internal_node_id": "0.0-3.0-1.17"
	},
	{
		"rt": 892,
		"stimulus": "<span style=\"font-size:30px; font-family: monospace\">o</span>",
		"response": " ",
		"trial": "exp-sent",
		"word": "o",
		"trial_type": "html-keyboard-response",
		"trial_index": 41,
		"time_elapsed": 199257,
		"internal_node_id": "0.0-3.0-1.18"
	},
	{
		"rt": 1884,
		"stimulus": "<span style=\"font-size:30px; font-family: monospace\">patrão</span>",
		"response": " ",
		"trial": "exp-sent",
		"word": "patrão",
		"trial_type": "html-keyboard-response",
		"trial_index": 42,
		"time_elapsed": 201392,
		"internal_node_id": "0.0-3.0-1.19"
	},
	{
		"rt": 1141,
		"stimulus": "<span style=\"font-size:30px; font-family: monospace\">durante</span>",
		"response": " ",
		"trial": "exp-sent",
		"word": "durante",
		"trial_type": "html-keyboard-response",
		"trial_index": 43,
		"time_elapsed": 202784,
		"internal_node_id": "0.0-3.0-1.20"
	},
	{
		"rt": 565,
		"stimulus": "<span style=\"font-size:30px; font-family: monospace\">a</span>",
		"response": " ",
		"trial": "exp-sent",
		"word": "a",
		"trial_type": "html-keyboard-response",
		"trial_index": 44,
		"time_elapsed": 203600,
		"internal_node_id": "0.0-3.0-1.21"
	},
	{
		"rt": 797,
		"stimulus": "<span style=\"font-size:30px; font-family: monospace\">tarde.</span>",
		"response": " ",
		"trial": "exp-sent",
		"word": "tarde.",
		"trial_type": "html-keyboard-response",
		"trial_index": 45,
		"time_elapsed": 204648,
		"internal_node_id": "0.0-3.0-1.22"
	},
	{
		"rt": null,
		"stimulus": "<span style= \"font-size:30px; font-family: monospace\">+</span>",
		"response": null,
		"trial_part": "fixation",
		"trial_type": "html-keyboard-response",
		"trial_index": 46,
		"time_elapsed": 205900,
		"internal_node_id": "0.0-3.0-0.23-0.23"
	},
	{
		"rt": 3215,
		"stimulus": "<span style=\"font-size:30px; font-family: monospace\">Algumas</span>",
		"response": " ",
		"trial": "exp-sent",
		"word": "Algumas",
		"trial_type": "html-keyboard-response",
		"trial_index": 47,
		"time_elapsed": 209369,
		"internal_node_id": "0.0-3.0-1.23"
	},
	{
		"rt": 1092,
		"stimulus": "<span style=\"font-size:30px; font-family: monospace\">pessoas</span>",
		"response": " ",
		"trial": "exp-sent",
		"word": "pessoas",
		"trial_type": "html-keyboard-response",
		"trial_index": 48,
		"time_elapsed": 210712,
		"internal_node_id": "0.0-3.0-1.24"
	},
	{
		"rt": 1740,
		"stimulus": "<span style=\"font-size:30px; font-family: monospace\">acreditam</span>",
		"response": " ",
		"trial": "exp-sent",
		"word": "acreditam",
		"trial_type": "html-keyboard-response",
		"trial_index": 49,
		"time_elapsed": 212704,
		"internal_node_id": "0.0-3.0-1.25"
	},
	{
		"rt": 884,
		"stimulus": "<span style=\"font-size:30px; font-family: monospace\">em</span>",
		"response": " ",
		"trial": "exp-sent",
		"word": "em",
		"trial_type": "html-keyboard-response",
		"trial_index": 50,
		"time_elapsed": 213840,
		"internal_node_id": "0.0-3.0-1.26"
	},
	{
		"rt": 7780,
		"stimulus": "<span style=\"font-size:30px; font-family: monospace\">espíritos</span>",
		"response": " ",
		"trial": "exp-sent",
		"word": "espíritos",
		"trial_type": "html-keyboard-response",
		"trial_index": 51,
		"time_elapsed": 221872,
		"internal_node_id": "0.0-3.0-1.27"
	},
	{
		"rt": 652,
		"stimulus": "<span style=\"font-size:30px; font-family: monospace\">e</span>",
		"response": " ",
		"trial": "exp-sent",
		"word": "e",
		"trial_type": "html-keyboard-response",
		"trial_index": 52,
		"time_elapsed": 222776,
		"internal_node_id": "0.0-3.0-1.28"
	},
	{
		"rt": 629,
		"stimulus": "<span style=\"font-size:30px; font-family: monospace\">em</span>",
		"response": " ",
		"trial": "exp-sent",
		"word": "em",
		"trial_type": "html-keyboard-response",
		"trial_index": 53,
		"time_elapsed": 223656,
		"internal_node_id": "0.0-3.0-1.29"
	},
	{
		"rt": 995,
		"stimulus": "<span style=\"font-size:30px; font-family: monospace\">outras</span>",
		"response": " ",
		"trial": "exp-sent",
		"word": "outras",
		"trial_type": "html-keyboard-response",
		"trial_index": 54,
		"time_elapsed": 224904,
		"internal_node_id": "0.0-3.0-1.30"
	},
	{
		"rt": 1605,
		"stimulus": "<span style=\"font-size:30px; font-family: monospace\">vidas.</span>",
		"response": " ",
		"trial": "exp-sent",
		"word": "vidas.",
		"trial_type": "html-keyboard-response",
		"trial_index": 55,
		"time_elapsed": 226760,
		"internal_node_id": "0.0-3.0-1.31"
	},
	{
		"rt": null,
		"stimulus": "<span style= \"font-size:30px; font-family: monospace\">+</span>",
		"response": null,
		"trial_part": "fixation",
		"trial_type": "html-keyboard-response",
		"trial_index": 56,
		"time_elapsed": 228013,
		"internal_node_id": "0.0-3.0-0.32-0.32"
	},
	{
		"rt": 6248,
		"stimulus": "<span style=\"font-size:30px; font-family: monospace\">Ela</span>",
		"response": " ",
		"trial": "exp-sent",
		"word": "Ela",
		"trial_type": "html-keyboard-response",
		"trial_index": 57,
		"time_elapsed": 234512,
		"internal_node_id": "0.0-3.0-1.32"
	},
	{
		"rt": 940,
		"stimulus": "<span style=\"font-size:30px; font-family: monospace\">gosta</span>",
		"response": " ",
		"trial": "exp-sent",
		"word": "gosta",
		"trial_type": "html-keyboard-response",
		"trial_index": 58,
		"time_elapsed": 235704,
		"internal_node_id": "0.0-3.0-1.33"
	},
	{
		"rt": 637,
		"stimulus": "<span style=\"font-size:30px; font-family: monospace\">de</span>",
		"response": " ",
		"trial": "exp-sent",
		"word": "de",
		"trial_type": "html-keyboard-response",
		"trial_index": 59,
		"time_elapsed": 236592,
		"internal_node_id": "0.0-3.0-1.34"
	},
	{
		"rt": 1788,
		"stimulus": "<span style=\"font-size:30px; font-family: monospace\">estudar</span>",
		"response": " ",
		"trial": "exp-sent",
		"word": "estudar",
		"trial_type": "html-keyboard-response",
		"trial_index": 60,
		"time_elapsed": 238632,
		"internal_node_id": "0.0-3.0-1.35"
	},
	{
		"rt": 2468,
		"stimulus": "<span style=\"font-size:30px; font-family: monospace\">matemática</span>",
		"response": " ",
		"trial": "exp-sent",
		"word": "matemática",
		"trial_type": "html-keyboard-response",
		"trial_index": 61,
		"time_elapsed": 241352,
		"internal_node_id": "0.0-3.0-1.36"
	},
	{
		"rt": 781,
		"stimulus": "<span style=\"font-size:30px; font-family: monospace\">com</span>",
		"response": " ",
		"trial": "exp-sent",
		"word": "com",
		"trial_type": "html-keyboard-response",
		"trial_index": 62,
		"time_elapsed": 242384,
		"internal_node_id": "0.0-3.0-1.37"
	},
	{
		"rt": 1845,
		"stimulus": "<span style=\"font-size:30px; font-family: monospace\">colegas.</span>",
		"response": " ",
		"trial": "comp",
		"word": "colegas.",
		"trial_type": "html-keyboard-response",
		"trial_index": 63,
		"time_elapsed": 244480,
		"internal_node_id": "0.0-3.0-1.38"
	},
	{
		"rt": 10460,
		"stimulus": "<span style=\"font-size:30px; font-family: monospace\">Ela gosta de estudar física?</span>",
		"response": "n",
		"question": "Ela gosta de estudar física?",
		"answer": "não",
		"trial": "comp",
		"trial_type": "html-keyboard-response",
		"trial_index": 64,
		"time_elapsed": 255192,
		"internal_node_id": "0.0-3.0-2.38-0.38",
		"accuracy": false
	},
	{
		"rt": null,
		"stimulus": "<span style= \"font-size:30px; font-family: monospace\">+</span>",
		"response": null,
		"trial_part": "fixation",
		"trial_type": "html-keyboard-response",
		"trial_index": 65,
		"time_elapsed": 256694,
		"internal_node_id": "0.0-3.0-0.39-0.39"
	},
	{
		"rt": 2190,
		"stimulus": "<span style=\"font-size:30px; font-family: monospace\">O</span>",
		"response": " ",
		"trial": "exp-sent",
		"word": "O",
		"trial_type": "html-keyboard-response",
		"trial_index": 66,
		"time_elapsed": 259136,
		"internal_node_id": "0.0-3.0-1.39"
	},
	{
		"rt": 1933,
		"stimulus": "<span style=\"font-size:30px; font-family: monospace\">texto</span>",
		"response": " ",
		"trial": "exp-sent",
		"word": "texto",
		"trial_type": "html-keyboard-response",
		"trial_index": 67,
		"time_elapsed": 261320,
		"internal_node_id": "0.0-3.0-1.40"
	},
	{
		"rt": 5645,
		"stimulus": "<span style=\"font-size:30px; font-family: monospace\">trazia</span>",
		"response": " ",
		"trial": "exp-sent",
		"word": "trazia",
		"trial_type": "html-keyboard-response",
		"trial_index": 68,
		"time_elapsed": 267216,
		"internal_node_id": "0.0-3.0-1.41"
	},
	{
		"rt": 764,
		"stimulus": "<span style=\"font-size:30px; font-family: monospace\">um</span>",
		"response": " ",
		"trial": "exp-sent",
		"word": "um",
		"trial_type": "html-keyboard-response",
		"trial_index": 69,
		"time_elapsed": 268232,
		"internal_node_id": "0.0-3.0-1.42"
	},
	{
		"rt": 2372,
		"stimulus": "<span style=\"font-size:30px; font-family: monospace\">argumento</span>",
		"response": " ",
		"trial": "exp-sent",
		"word": "argumento",
		"trial_type": "html-keyboard-response",
		"trial_index": 70,
		"time_elapsed": 270856,
		"internal_node_id": "0.0-3.0-1.43"
	},
	{
		"rt": 2133,
		"stimulus": "<span style=\"font-size:30px; font-family: monospace\">central</span>",
		"response": " ",
		"trial": "exp-sent",
		"word": "central",
		"trial_type": "html-keyboard-response",
		"trial_index": 71,
		"time_elapsed": 273240,
		"internal_node_id": "0.0-3.0-1.44"
	},
	{
		"rt": 877,
		"stimulus": "<span style=\"font-size:30px; font-family: monospace\">para</span>",
		"response": " ",
		"trial": "exp-sent",
		"word": "para",
		"trial_type": "html-keyboard-response",
		"trial_index": 72,
		"time_elapsed": 274368,
		"internal_node_id": "0.0-3.0-1.45"
	},
	{
		"rt": 5460,
		"stimulus": "<span style=\"font-size:30px; font-family: monospace\">a</span>",
		"response": " ",
		"trial": "exp-sent",
		"word": "a",
		"trial_type": "html-keyboard-response",
		"trial_index": 73,
		"time_elapsed": 280080,
		"internal_node_id": "0.0-3.0-1.46"
	},
	{
		"rt": 2509,
		"stimulus": "<span style=\"font-size:30px; font-family: monospace\">conversa.</span>",
		"response": " ",
		"trial": "exp-sent",
		"word": "conversa.",
		"trial_type": "html-keyboard-response",
		"trial_index": 74,
		"time_elapsed": 282840,
		"internal_node_id": "0.0-3.0-1.47"
	},
	{
		"rt": null,
		"stimulus": "<span style= \"font-size:30px; font-family: monospace\">+</span>",
		"response": null,
		"trial_part": "fixation",
		"trial_type": "html-keyboard-response",
		"trial_index": 75,
		"time_elapsed": 284092,
		"internal_node_id": "0.0-3.0-0.48-0.48"
	},
	{
		"rt": 3008,
		"stimulus": "<span style=\"font-size:30px; font-family: monospace\">Ontem</span>",
		"response": " ",
		"trial": "exp-sent",
		"word": "Ontem",
		"trial_type": "html-keyboard-response",
		"trial_index": 76,
		"time_elapsed": 287352,
		"internal_node_id": "0.0-3.0-1.48"
	},
	{
		"rt": 756,
		"stimulus": "<span style=\"font-size:30px; font-family: monospace\">a</span>",
		"response": " ",
		"trial": "exp-sent",
		"word": "a",
		"trial_type": "html-keyboard-response",
		"trial_index": 77,
		"time_elapsed": 288360,
		"internal_node_id": "0.0-3.0-1.49"
	},
	{
		"rt": 1717,
		"stimulus": "<span style=\"font-size:30px; font-family: monospace\">temperatura</span>",
		"response": " ",
		"trial": "exp-sent",
		"word": "temperatura",
		"trial_type": "html-keyboard-response",
		"trial_index": 78,
		"time_elapsed": 290328,
		"internal_node_id": "0.0-3.0-1.50"
	},
	{
		"rt": 1004,
		"stimulus": "<span style=\"font-size:30px; font-family: monospace\">estava</span>",
		"response": " ",
		"trial": "exp-sent",
		"word": "estava",
		"trial_type": "html-keyboard-response",
		"trial_index": 79,
		"time_elapsed": 291584,
		"internal_node_id": "0.0-3.0-1.51"
	},
	{
		"rt": 6692,
		"stimulus": "<span style=\"font-size:30px; font-family: monospace\">amena</span>",
		"response": " ",
		"trial": "exp-sent",
		"word": "amena",
		"trial_type": "html-keyboard-response",
		"trial_index": 80,
		"time_elapsed": 298528,
		"internal_node_id": "0.0-3.0-1.52"
	},
	{
		"rt": 1061,
		"stimulus": "<span style=\"font-size:30px; font-family: monospace\">durante</span>",
		"response": " ",
		"trial": "exp-sent",
		"word": "durante",
		"trial_type": "html-keyboard-response",
		"trial_index": 81,
		"time_elapsed": 299840,
		"internal_node_id": "0.0-3.0-1.53"
	},
	{
		"rt": 517,
		"stimulus": "<span style=\"font-size:30px; font-family: monospace\">o</span>",
		"response": " ",
		"trial": "exp-sent",
		"word": "o",
		"trial_type": "html-keyboard-response",
		"trial_index": 82,
		"time_elapsed": 300608,
		"internal_node_id": "0.0-3.0-1.54"
	},
	{
		"rt": 1396,
		"stimulus": "<span style=\"font-size:30px; font-family: monospace\">dia.</span>",
		"response": " ",
		"trial": "exp-sent",
		"word": "dia.",
		"trial_type": "html-keyboard-response",
		"trial_index": 83,
		"time_elapsed": 302256,
		"internal_node_id": "0.0-3.0-1.55"
	},
	{
		"rt": null,
		"stimulus": "<span style= \"font-size:30px; font-family: monospace\">+</span>",
		"response": null,
		"trial_part": "fixation",
		"trial_type": "html-keyboard-response",
		"trial_index": 84,
		"time_elapsed": 303508,
		"internal_node_id": "0.0-3.0-0.56-0.56"
	},
	{
		"rt": 5681,
		"stimulus": "<span style=\"font-size:30px; font-family: monospace\">Havia</span>",
		"response": " ",
		"trial": "exp-sent",
		"word": "Havia",
		"trial_type": "html-keyboard-response",
		"trial_index": 85,
		"time_elapsed": 309440,
		"internal_node_id": "0.0-3.0-1.56"
	},
	{
		"rt": 773,
		"stimulus": "<span style=\"font-size:30px; font-family: monospace\">um</span>",
		"response": " ",
		"trial": "exp-sent",
		"word": "um",
		"trial_type": "html-keyboard-response",
		"trial_index": 86,
		"time_elapsed": 310464,
		"internal_node_id": "0.0-3.0-1.57"
	},
	{
		"rt": 1709,
		"stimulus": "<span style=\"font-size:30px; font-family: monospace\">machucado</span>",
		"response": " ",
		"trial": "exp-sent",
		"word": "machucado",
		"trial_type": "html-keyboard-response",
		"trial_index": 87,
		"time_elapsed": 312424,
		"internal_node_id": "0.0-3.0-1.58"
	},
	{
		"rt": 628,
		"stimulus": "<span style=\"font-size:30px; font-family: monospace\">no</span>",
		"response": " ",
		"trial": "exp-sent",
		"word": "no",
		"trial_type": "html-keyboard-response",
		"trial_index": 88,
		"time_elapsed": 313304,
		"internal_node_id": "0.0-3.0-1.59"
	},
	{
		"rt": 1356,
		"stimulus": "<span style=\"font-size:30px; font-family: monospace\">dedo</span>",
		"response": " ",
		"trial": "exp-sent",
		"word": "dedo",
		"trial_type": "html-keyboard-response",
		"trial_index": 89,
		"time_elapsed": 314912,
		"internal_node_id": "0.0-3.0-1.60"
	},
	{
		"rt": 689,
		"stimulus": "<span style=\"font-size:30px; font-family: monospace\">da</span>",
		"response": " ",
		"trial": "exp-sent",
		"word": "da",
		"trial_type": "html-keyboard-response",
		"trial_index": 90,
		"time_elapsed": 315864,
		"internal_node_id": "0.0-3.0-1.61"
	},
	{
		"rt": 2037,
		"stimulus": "<span style=\"font-size:30px; font-family: monospace\">criança.</span>",
		"response": " ",
		"trial": "exp-sent",
		"word": "criança.",
		"trial_type": "html-keyboard-response",
		"trial_index": 91,
		"time_elapsed": 318152,
		"internal_node_id": "0.0-3.0-1.62"
	},
	{
		"rt": null,
		"stimulus": "<span style= \"font-size:30px; font-family: monospace\">+</span>",
		"response": null,
		"trial_part": "fixation",
		"trial_type": "html-keyboard-response",
		"trial_index": 92,
		"time_elapsed": 319404,
		"internal_node_id": "0.0-3.0-0.63-0.63"
	},
	{
		"rt": 777,
		"stimulus": "<span style=\"font-size:30px; font-family: monospace\">A</span>",
		"response": " ",
		"trial": "exp-sent",
		"word": "A",
		"trial_type": "html-keyboard-response",
		"trial_index": 93,
		"time_elapsed": 320432,
		"internal_node_id": "0.0-3.0-1.63"
	},
	{
		"rt": 2620,
		"stimulus": "<span style=\"font-size:30px; font-family: monospace\">borboleta</span>",
		"response": " ",
		"trial": "exp-sent",
		"word": "borboleta",
		"trial_type": "html-keyboard-response",
		"trial_index": 94,
		"time_elapsed": 323304,
		"internal_node_id": "0.0-3.0-1.64"
	},
	{
		"rt": 1109,
		"stimulus": "<span style=\"font-size:30px; font-family: monospace\">pousou</span>",
		"response": " ",
		"trial": "exp-sent",
		"word": "pousou",
		"trial_type": "html-keyboard-response",
		"trial_index": 95,
		"time_elapsed": 324664,
		"internal_node_id": "0.0-3.0-1.65"
	},
	{
		"rt": 461,
		"stimulus": "<span style=\"font-size:30px; font-family: monospace\">no</span>",
		"response": " ",
		"trial": "exp-sent",
		"word": "no",
		"trial_type": "html-keyboard-response",
		"trial_index": 96,
		"time_elapsed": 325376,
		"internal_node_id": "0.0-3.0-1.66"
	},
	{
		"rt": 957,
		"stimulus": "<span style=\"font-size:30px; font-family: monospace\">ombro</span>",
		"response": " ",
		"trial": "exp-sent",
		"word": "ombro",
		"trial_type": "html-keyboard-response",
		"trial_index": 97,
		"time_elapsed": 326584,
		"internal_node_id": "0.0-3.0-1.67"
	},
	{
		"rt": 1581,
		"stimulus": "<span style=\"font-size:30px; font-family: monospace\">daquela</span>",
		"response": " ",
		"trial": "exp-sent",
		"word": "daquela",
		"trial_type": "html-keyboard-response",
		"trial_index": 98,
		"time_elapsed": 328416,
		"internal_node_id": "0.0-3.0-1.68"
	},
	{
		"rt": 3741,
		"stimulus": "<span style=\"font-size:30px; font-family: monospace\">moça.</span>",
		"response": " ",
		"trial": "exp-sent",
		"word": "moça.",
		"trial_type": "html-keyboard-response",
		"trial_index": 99,
		"time_elapsed": 332408,
		"internal_node_id": "0.0-3.0-1.69"
	},
	{
		"rt": null,
		"stimulus": "<span style= \"font-size:30px; font-family: monospace\">+</span>",
		"response": null,
		"trial_part": "fixation",
		"trial_type": "html-keyboard-response",
		"trial_index": 100,
		"time_elapsed": 333660,
		"internal_node_id": "0.0-3.0-0.70-0.70"
	},
	{
		"rt": 1169,
		"stimulus": "<span style=\"font-size:30px; font-family: monospace\">Eu</span>",
		"response": " ",
		"trial": "exp-sent",
		"word": "Eu",
		"trial_type": "html-keyboard-response",
		"trial_index": 101,
		"time_elapsed": 335080,
		"internal_node_id": "0.0-3.0-1.70"
	},
	{
		"rt": 884,
		"stimulus": "<span style=\"font-size:30px; font-family: monospace\">quero</span>",
		"response": " ",
		"trial": "exp-sent",
		"word": "quero",
		"trial_type": "html-keyboard-response",
		"trial_index": 102,
		"time_elapsed": 336216,
		"internal_node_id": "0.0-3.0-1.71"
	},
	{
		"rt": 573,
		"stimulus": "<span style=\"font-size:30px; font-family: monospace\">um</span>",
		"response": " ",
		"trial": "exp-sent",
		"word": "um",
		"trial_type": "html-keyboard-response",
		"trial_index": 103,
		"time_elapsed": 337040,
		"internal_node_id": "0.0-3.0-1.72"
	},
	{
		"rt": 4917,
		"stimulus": "<span style=\"font-size:30px; font-family: monospace\">namorado</span>",
		"response": " ",
		"trial": "exp-sent",
		"word": "namorado",
		"trial_type": "html-keyboard-response",
		"trial_index": 104,
		"time_elapsed": 342208,
		"internal_node_id": "0.0-3.0-1.73"
	},
	{
		"rt": 1989,
		"stimulus": "<span style=\"font-size:30px; font-family: monospace\">honesto</span>",
		"response": " ",
		"trial": "exp-sent",
		"word": "honesto",
		"trial_type": "html-keyboard-response",
		"trial_index": 105,
		"time_elapsed": 344448,
		"internal_node_id": "0.0-3.0-1.74"
	},
	{
		"rt": 571,
		"stimulus": "<span style=\"font-size:30px; font-family: monospace\">e</span>",
		"response": " ",
		"trial": "exp-sent",
		"word": "e",
		"trial_type": "html-keyboard-response",
		"trial_index": 106,
		"time_elapsed": 345272,
		"internal_node_id": "0.0-3.0-1.75"
	},
	{
		"rt": 1428,
		"stimulus": "<span style=\"font-size:30px; font-family: monospace\">compreensivo.</span>",
		"response": " ",
		"trial": "comp",
		"word": "compreensivo.",
		"trial_type": "html-keyboard-response",
		"trial_index": 107,
		"time_elapsed": 346952,
		"internal_node_id": "0.0-3.0-1.76"
	},
	{
		"rt": 50820,
		"stimulus": "<span style=\"font-size:30px; font-family: monospace\">Eu quero um namorado honesto?</span>",
		"response": "s",
		"question": "Eu quero um namorado honesto?",
		"answer": "sim",
		"trial": "comp",
		"trial_type": "html-keyboard-response",
		"trial_index": 108,
		"time_elapsed": 398024,
		"internal_node_id": "0.0-3.0-2.76-0.76",
		"accuracy": false
	},
	{
		"rt": null,
		"stimulus": "<span style= \"font-size:30px; font-family: monospace\">+</span>",
		"response": null,
		"trial_part": "fixation",
		"trial_type": "html-keyboard-response",
		"trial_index": 109,
		"time_elapsed": 399526,
		"internal_node_id": "0.0-3.0-0.77-0.77"
	},
	{
		"rt": 710,
		"stimulus": "<span style=\"font-size:30px; font-family: monospace\">A</span>",
		"response": " ",
		"trial": "exp-sent",
		"word": "A",
		"trial_type": "html-keyboard-response",
		"trial_index": 110,
		"time_elapsed": 400488,
		"internal_node_id": "0.0-3.0-1.77"
	},
	{
		"rt": 1580,
		"stimulus": "<span style=\"font-size:30px; font-family: monospace\">motorista</span>",
		"response": " ",
		"trial": "exp-sent",
		"word": "motorista",
		"trial_type": "html-keyboard-response",
		"trial_index": 111,
		"time_elapsed": 402320,
		"internal_node_id": "0.0-3.0-1.78"
	},
	{
		"rt": 578,
		"stimulus": "<span style=\"font-size:30px; font-family: monospace\">fez</span>",
		"response": " ",
		"trial": "exp-sent",
		"word": "fez",
		"trial_type": "html-keyboard-response",
		"trial_index": 112,
		"time_elapsed": 403152,
		"internal_node_id": "0.0-3.0-1.79"
	},
	{
		"rt": 619,
		"stimulus": "<span style=\"font-size:30px; font-family: monospace\">o</span>",
		"response": " ",
		"trial": "exp-sent",
		"word": "o",
		"trial_type": "html-keyboard-response",
		"trial_index": 113,
		"time_elapsed": 404024,
		"internal_node_id": "0.0-3.0-1.80"
	},
	{
		"rt": 2132,
		"stimulus": "<span style=\"font-size:30px; font-family: monospace\">retorno</span>",
		"response": " ",
		"trial": "exp-sent",
		"word": "retorno",
		"trial_type": "html-keyboard-response",
		"trial_index": 114,
		"time_elapsed": 406408,
		"internal_node_id": "0.0-3.0-1.81"
	},
	{
		"rt": 1356,
		"stimulus": "<span style=\"font-size:30px; font-family: monospace\">com</span>",
		"response": " ",
		"trial": "exp-sent",
		"word": "com",
		"trial_type": "html-keyboard-response",
		"trial_index": 115,
		"time_elapsed": 408016,
		"internal_node_id": "0.0-3.0-1.82"
	},
	{
		"rt": 1245,
		"stimulus": "<span style=\"font-size:30px; font-family: monospace\">cuidado.</span>",
		"response": " ",
		"trial": "exp-sent",
		"word": "cuidado.",
		"trial_type": "html-keyboard-response",
		"trial_index": 116,
		"time_elapsed": 409512,
		"internal_node_id": "0.0-3.0-1.83"
	},
	{
		"rt": null,
		"stimulus": "<span style= \"font-size:30px; font-family: monospace\">+</span>",
		"response": null,
		"trial_part": "fixation",
		"trial_type": "html-keyboard-response",
		"trial_index": 117,
		"time_elapsed": 410765,
		"internal_node_id": "0.0-3.0-0.84-0.84"
	},
	{
		"rt": 2544,
		"stimulus": "<span style=\"font-size:30px; font-family: monospace\">Contos</span>",
		"response": " ",
		"trial": "exp-sent",
		"word": "Contos",
		"trial_type": "html-keyboard-response",
		"trial_index": 118,
		"time_elapsed": 413560,
		"internal_node_id": "0.0-3.0-1.84"
	},
	{
		"rt": 565,
		"stimulus": "<span style=\"font-size:30px; font-family: monospace\">de</span>",
		"response": " ",
		"trial": "exp-sent",
		"word": "de",
		"trial_type": "html-keyboard-response",
		"trial_index": 119,
		"time_elapsed": 414376,
		"internal_node_id": "0.0-3.0-1.85"
	},
	{
		"rt": 1500,
		"stimulus": "<span style=\"font-size:30px; font-family: monospace\">ação</span>",
		"response": " ",
		"trial": "exp-sent",
		"word": "ação",
		"trial_type": "html-keyboard-response",
		"trial_index": 120,
		"time_elapsed": 416127,
		"internal_node_id": "0.0-3.0-1.86"
	},
	{
		"rt": 629,
		"stimulus": "<span style=\"font-size:30px; font-family: monospace\">têm</span>",
		"response": " ",
		"trial": "exp-sent",
		"word": "têm",
		"trial_type": "html-keyboard-response",
		"trial_index": 121,
		"time_elapsed": 417008,
		"internal_node_id": "0.0-3.0-1.87"
	},
	{
		"rt": 3940,
		"stimulus": "<span style=\"font-size:30px; font-family: monospace\">chantagem</span>",
		"response": " ",
		"trial": "exp-sent",
		"word": "chantagem",
		"trial_type": "html-keyboard-response",
		"trial_index": 122,
		"time_elapsed": 421208,
		"internal_node_id": "0.0-3.0-1.88"
	},
	{
		"rt": 652,
		"stimulus": "<span style=\"font-size:30px; font-family: monospace\">e</span>",
		"response": " ",
		"trial": "exp-sent",
		"word": "e",
		"trial_type": "html-keyboard-response",
		"trial_index": 123,
		"time_elapsed": 422112,
		"internal_node_id": "0.0-3.0-1.89"
	},
	{
		"rt": 1340,
		"stimulus": "<span style=\"font-size:30px; font-family: monospace\">muita</span>",
		"response": " ",
		"trial": "exp-sent",
		"word": "muita",
		"trial_type": "html-keyboard-response",
		"trial_index": 124,
		"time_elapsed": 423704,
		"internal_node_id": "0.0-3.0-1.90"
	},
	{
		"rt": 11805,
		"stimulus": "<span style=\"font-size:30px; font-family: monospace\">luta.</span>",
		"response": " ",
		"trial": "exp-sent",
		"word": "luta.",
		"trial_type": "html-keyboard-response",
		"trial_index": 125,
		"time_elapsed": 435760,
		"internal_node_id": "0.0-3.0-1.91"
	},
	{
		"rt": null,
		"stimulus": "<span style= \"font-size:30px; font-family: monospace\">+</span>",
		"response": null,
		"trial_part": "fixation",
		"trial_type": "html-keyboard-response",
		"trial_index": 126,
		"time_elapsed": 437011,
		"internal_node_id": "0.0-3.0-0.92-0.92"
	},
	{
		"rt": 897,
		"stimulus": "<span style=\"font-size:30px; font-family: monospace\">A</span>",
		"response": " ",
		"trial": "exp-sent",
		"word": "A",
		"trial_type": "html-keyboard-response",
		"trial_index": 127,
		"time_elapsed": 438160,
		"internal_node_id": "0.0-3.0-1.92"
	},
	{
		"rt": 3437,
		"stimulus": "<span style=\"font-size:30px; font-family: monospace\">bisavó</span>",
		"response": " ",
		"trial": "exp-sent",
		"word": "bisavó",
		"trial_type": "html-keyboard-response",
		"trial_index": 128,
		"time_elapsed": 441848,
		"internal_node_id": "0.0-3.0-1.93"
	},
	{
		"rt": 1277,
		"stimulus": "<span style=\"font-size:30px; font-family: monospace\">recebeu</span>",
		"response": " ",
		"trial": "exp-sent",
		"word": "recebeu",
		"trial_type": "html-keyboard-response",
		"trial_index": 129,
		"time_elapsed": 443376,
		"internal_node_id": "0.0-3.0-1.94"
	},
	{
		"rt": 1012,
		"stimulus": "<span style=\"font-size:30px; font-family: monospace\">um</span>",
		"response": " ",
		"trial": "exp-sent",
		"word": "um",
		"trial_type": "html-keyboard-response",
		"trial_index": 130,
		"time_elapsed": 444640,
		"internal_node_id": "0.0-3.0-1.95"
	},
	{
		"rt": 1437,
		"stimulus": "<span style=\"font-size:30px; font-family: monospace\">benefício</span>",
		"response": " ",
		"trial": "exp-sent",
		"word": "benefício",
		"trial_type": "html-keyboard-response",
		"trial_index": 131,
		"time_elapsed": 446328,
		"internal_node_id": "0.0-3.0-1.96"
	},
	{
		"rt": 1413,
		"stimulus": "<span style=\"font-size:30px; font-family: monospace\">temporário</span>",
		"response": " ",
		"trial": "exp-sent",
		"word": "temporário",
		"trial_type": "html-keyboard-response",
		"trial_index": 132,
		"time_elapsed": 447992,
		"internal_node_id": "0.0-3.0-1.97"
	},
	{
		"rt": 573,
		"stimulus": "<span style=\"font-size:30px; font-family: monospace\">do</span>",
		"response": " ",
		"trial": "exp-sent",
		"word": "do",
		"trial_type": "html-keyboard-response",
		"trial_index": 133,
		"time_elapsed": 448816,
		"internal_node_id": "0.0-3.0-1.98"
	},
	{
		"rt": 1044,
		"stimulus": "<span style=\"font-size:30px; font-family: monospace\">governo.</span>",
		"response": " ",
		"trial": "exp-sent",
		"word": "governo.",
		"trial_type": "html-keyboard-response",
		"trial_index": 134,
		"time_elapsed": 450112,
		"internal_node_id": "0.0-3.0-1.99"
	},
	{
		"rt": null,
		"stimulus": "<span style= \"font-size:30px; font-family: monospace\">+</span>",
		"response": null,
		"trial_part": "fixation",
		"trial_type": "html-keyboard-response",
		"trial_index": 135,
		"time_elapsed": 451376,
		"internal_node_id": "0.0-3.0-0.100-0.100"
	},
	{
		"rt": 965,
		"stimulus": "<span style=\"font-size:30px; font-family: monospace\">As</span>",
		"response": " ",
		"trial": "exp-sent",
		"word": "As",
		"trial_type": "html-keyboard-response",
		"trial_index": 136,
		"time_elapsed": 452592,
		"internal_node_id": "0.0-3.0-1.100"
	},
	{
		"rt": 957,
		"stimulus": "<span style=\"font-size:30px; font-family: monospace\">crianças</span>",
		"response": " ",
		"trial": "exp-sent",
		"word": "crianças",
		"trial_type": "html-keyboard-response",
		"trial_index": 137,
		"time_elapsed": 453800,
		"internal_node_id": "0.0-3.0-1.101"
	},
	{
		"rt": 1509,
		"stimulus": "<span style=\"font-size:30px; font-family: monospace\">brincaram</span>",
		"response": " ",
		"trial": "exp-sent",
		"word": "brincaram",
		"trial_type": "html-keyboard-response",
		"trial_index": 138,
		"time_elapsed": 455560,
		"internal_node_id": "0.0-3.0-1.102"
	},
	{
		"rt": 549,
		"stimulus": "<span style=\"font-size:30px; font-family: monospace\">no</span>",
		"response": " ",
		"trial": "exp-sent",
		"word": "no",
		"trial_type": "html-keyboard-response",
		"trial_index": 139,
		"time_elapsed": 456360,
		"internal_node_id": "0.0-3.0-1.103"
	},
	{
		"rt": 1868,
		"stimulus": "<span style=\"font-size:30px; font-family: monospace\">balanço</span>",
		"response": " ",
		"trial": "exp-sent",
		"word": "balanço",
		"trial_type": "html-keyboard-response",
		"trial_index": 140,
		"time_elapsed": 458480,
		"internal_node_id": "0.0-3.0-1.104"
	},
	{
		"rt": 1180,
		"stimulus": "<span style=\"font-size:30px; font-family: monospace\">a</span>",
		"response": " ",
		"trial": "exp-sent",
		"word": "a",
		"trial_type": "html-keyboard-response",
		"trial_index": 141,
		"time_elapsed": 459912,
		"internal_node_id": "0.0-3.0-1.105"
	},
	{
		"rt": 1613,
		"stimulus": "<span style=\"font-size:30px; font-family: monospace\">tarde</span>",
		"response": " ",
		"trial": "exp-sent",
		"word": "tarde",
		"trial_type": "html-keyboard-response",
		"trial_index": 142,
		"time_elapsed": 461776,
		"internal_node_id": "0.0-3.0-1.106"
	},
	{
		"rt": 3861,
		"stimulus": "<span style=\"font-size:30px; font-family: monospace\">toda.</span>",
		"response": " ",
		"trial": "exp-sent",
		"word": "toda.",
		"trial_type": "html-keyboard-response",
		"trial_index": 143,
		"time_elapsed": 465888,
		"internal_node_id": "0.0-3.0-1.107"
	},
	{
		"rt": null,
		"stimulus": "<span style= \"font-size:30px; font-family: monospace\">+</span>",
		"response": null,
		"trial_part": "fixation",
		"trial_type": "html-keyboard-response",
		"trial_index": 144,
		"time_elapsed": 467140,
		"internal_node_id": "0.0-3.0-0.108-0.108"
	},
	{
		"rt": 897,
		"stimulus": "<span style=\"font-size:30px; font-family: monospace\">Ela</span>",
		"response": " ",
		"trial": "exp-sent",
		"word": "Ela",
		"trial_type": "html-keyboard-response",
		"trial_index": 145,
		"time_elapsed": 468288,
		"internal_node_id": "0.0-3.0-1.108"
	},
	{
		"rt": 1066,
		"stimulus": "<span style=\"font-size:30px; font-family: monospace\">gosta</span>",
		"response": " ",
		"trial": "exp-sent",
		"word": "gosta",
		"trial_type": "html-keyboard-response",
		"trial_index": 146,
		"time_elapsed": 469616,
		"internal_node_id": "0.0-3.0-1.109"
	},
	{
		"rt": 533,
		"stimulus": "<span style=\"font-size:30px; font-family: monospace\">de</span>",
		"response": " ",
		"trial": "exp-sent",
		"word": "de",
		"trial_type": "html-keyboard-response",
		"trial_index": 147,
		"time_elapsed": 470400,
		"internal_node_id": "0.0-3.0-1.110"
	},
	{
		"rt": 1557,
		"stimulus": "<span style=\"font-size:30px; font-family: monospace\">comida</span>",
		"response": " ",
		"trial": "exp-sent",
		"word": "comida",
		"trial_type": "html-keyboard-response",
		"trial_index": 148,
		"time_elapsed": 472208,
		"internal_node_id": "0.0-3.0-1.111"
	},
	{
		"rt": 2373,
		"stimulus": "<span style=\"font-size:30px; font-family: monospace\">natural</span>",
		"response": " ",
		"trial": "exp-sent",
		"word": "natural",
		"trial_type": "html-keyboard-response",
		"trial_index": 149,
		"time_elapsed": 474832,
		"internal_node_id": "0.0-3.0-1.112"
	},
	{
		"rt": 580,
		"stimulus": "<span style=\"font-size:30px; font-family: monospace\">no</span>",
		"response": " ",
		"trial": "exp-sent",
		"word": "no",
		"trial_type": "html-keyboard-response",
		"trial_index": 150,
		"time_elapsed": 475664,
		"internal_node_id": "0.0-3.0-1.113"
	},
	{
		"rt": 1565,
		"stimulus": "<span style=\"font-size:30px; font-family: monospace\">almoço.</span>",
		"response": " ",
		"trial": "comp",
		"word": "almoço.",
		"trial_type": "html-keyboard-response",
		"trial_index": 151,
		"time_elapsed": 477480,
		"internal_node_id": "0.0-3.0-1.114"
	},
	{
		"rt": 8820,
		"stimulus": "<span style=\"font-size:30px; font-family: monospace\">Ela gosta de comida natural no almoço?</span>",
		"response": "s",
		"question": "Ela gosta de comida natural no almoço?",
		"answer": "sim",
		"trial": "comp",
		"trial_type": "html-keyboard-response",
		"trial_index": 152,
		"time_elapsed": 486552,
		"internal_node_id": "0.0-3.0-2.114-0.114",
		"accuracy": false
	},
	{
		"rt": null,
		"stimulus": "<span style= \"font-size:30px; font-family: monospace\">+</span>",
		"response": null,
		"trial_part": "fixation",
		"trial_type": "html-keyboard-response",
		"trial_index": 153,
		"time_elapsed": 488055,
		"internal_node_id": "0.0-3.0-0.115-0.115"
	},
	{
		"rt": 7102,
		"stimulus": "<span style=\"font-size:30px; font-family: monospace\">Barulho</span>",
		"response": " ",
		"trial": "exp-sent",
		"word": "Barulho",
		"trial_type": "html-keyboard-response",
		"trial_index": 154,
		"time_elapsed": 495408,
		"internal_node_id": "0.0-3.0-1.115"
	},
	{
		"rt": 788,
		"stimulus": "<span style=\"font-size:30px; font-family: monospace\">de</span>",
		"response": " ",
		"trial": "exp-sent",
		"word": "de",
		"trial_type": "html-keyboard-response",
		"trial_index": 155,
		"time_elapsed": 496448,
		"internal_node_id": "0.0-3.0-1.116"
	},
	{
		"rt": 1485,
		"stimulus": "<span style=\"font-size:30px; font-family: monospace\">carros</span>",
		"response": " ",
		"trial": "exp-sent",
		"word": "carros",
		"trial_type": "html-keyboard-response",
		"trial_index": 156,
		"time_elapsed": 498184,
		"internal_node_id": "0.0-3.0-1.117"
	},
	{
		"rt": 556,
		"stimulus": "<span style=\"font-size:30px; font-family: monospace\">é</span>",
		"response": " ",
		"trial": "exp-sent",
		"word": "é",
		"trial_type": "html-keyboard-response",
		"trial_index": 157,
		"time_elapsed": 498992,
		"internal_node_id": "0.0-3.0-1.118"
	},
	{
		"rt": 1291,
		"stimulus": "<span style=\"font-size:30px; font-family: monospace\">irritante</span>",
		"response": " ",
		"trial": "exp-sent",
		"word": "irritante",
		"trial_type": "html-keyboard-response",
		"trial_index": 158,
		"time_elapsed": 500536,
		"internal_node_id": "0.0-3.0-1.119"
	},
	{
		"rt": 525,
		"stimulus": "<span style=\"font-size:30px; font-family: monospace\">para</span>",
		"response": " ",
		"trial": "exp-sent",
		"word": "para",
		"trial_type": "html-keyboard-response",
		"trial_index": 159,
		"time_elapsed": 501312,
		"internal_node_id": "0.0-3.0-1.120"
	},
	{
		"rt": 515,
		"stimulus": "<span style=\"font-size:30px; font-family: monospace\">a</span>",
		"response": " ",
		"trial": "exp-sent",
		"word": "a",
		"trial_type": "html-keyboard-response",
		"trial_index": 160,
		"time_elapsed": 502080,
		"internal_node_id": "0.0-3.0-1.121"
	},
	{
		"rt": 741,
		"stimulus": "<span style=\"font-size:30px; font-family: monospace\">moça.</span>",
		"response": " ",
		"trial": "exp-sent",
		"word": "moça.",
		"trial_type": "html-keyboard-response",
		"trial_index": 161,
		"time_elapsed": 503072,
		"internal_node_id": "0.0-3.0-1.122"
	},
	{
		"rt": null,
		"stimulus": "<span style= \"font-size:30px; font-family: monospace\">+</span>",
		"response": null,
		"trial_part": "fixation",
		"trial_type": "html-keyboard-response",
		"trial_index": 162,
		"time_elapsed": 504324,
		"internal_node_id": "0.0-3.0-0.123-0.123"
	},
	{
		"rt": 49,
		"stimulus": "<span style=\"font-size:30px; font-family: monospace\">A</span>",
		"response": " ",
		"trial": "exp-sent",
		"word": "A",
		"trial_type": "html-keyboard-response",
		"trial_index": 163,
		"time_elapsed": 504624,
		"internal_node_id": "0.0-3.0-1.123"
	},
	{
		"rt": 1972,
		"stimulus": "<span style=\"font-size:30px; font-family: monospace\">loja</span>",
		"response": " ",
		"trial": "exp-sent",
		"word": "loja",
		"trial_type": "html-keyboard-response",
		"trial_index": 164,
		"time_elapsed": 506848,
		"internal_node_id": "0.0-3.0-1.124"
	},
	{
		"rt": 1076,
		"stimulus": "<span style=\"font-size:30px; font-family: monospace\">também</span>",
		"response": " ",
		"trial": "exp-sent",
		"word": "também",
		"trial_type": "html-keyboard-response",
		"trial_index": 165,
		"time_elapsed": 508176,
		"internal_node_id": "0.0-3.0-1.125"
	},
	{
		"rt": 1333,
		"stimulus": "<span style=\"font-size:30px; font-family: monospace\">vende</span>",
		"response": " ",
		"trial": "exp-sent",
		"word": "vende",
		"trial_type": "html-keyboard-response",
		"trial_index": 166,
		"time_elapsed": 509760,
		"internal_node_id": "0.0-3.0-1.126"
	},
	{
		"rt": 1237,
		"stimulus": "<span style=\"font-size:30px; font-family: monospace\">taça</span>",
		"response": " ",
		"trial": "exp-sent",
		"word": "taça",
		"trial_type": "html-keyboard-response",
		"trial_index": 167,
		"time_elapsed": 511248,
		"internal_node_id": "0.0-3.0-1.127"
	},
	{
		"rt": 645,
		"stimulus": "<span style=\"font-size:30px; font-family: monospace\">de</span>",
		"response": " ",
		"trial": "exp-sent",
		"word": "de",
		"trial_type": "html-keyboard-response",
		"trial_index": 168,
		"time_elapsed": 512144,
		"internal_node_id": "0.0-3.0-1.128"
	},
	{
		"rt": 717,
		"stimulus": "<span style=\"font-size:30px; font-family: monospace\">vinho</span>",
		"response": " ",
		"trial": "exp-sent",
		"word": "vinho",
		"trial_type": "html-keyboard-response",
		"trial_index": 169,
		"time_elapsed": 513112,
		"internal_node_id": "0.0-3.0-1.129"
	},
	{
		"rt": 580,
		"stimulus": "<span style=\"font-size:30px; font-family: monospace\">e</span>",
		"response": " ",
		"trial": "exp-sent",
		"word": "e",
		"trial_type": "html-keyboard-response",
		"trial_index": 170,
		"time_elapsed": 513944,
		"internal_node_id": "0.0-3.0-1.130"
	},
	{
		"rt": 4901,
		"stimulus": "<span style=\"font-size:30px; font-family: monospace\">espumante.</span>",
		"response": " ",
		"trial": "exp-sent",
		"word": "espumante.",
		"trial_type": "html-keyboard-response",
		"trial_index": 171,
		"time_elapsed": 519096,
		"internal_node_id": "0.0-3.0-1.131"
	},
	{
		"rt": null,
		"stimulus": "<span style= \"font-size:30px; font-family: monospace\">+</span>",
		"response": null,
		"trial_part": "fixation",
		"trial_type": "html-keyboard-response",
		"trial_index": 172,
		"time_elapsed": 520348,
		"internal_node_id": "0.0-3.0-0.132-0.132"
	},
	{
		"rt": 777,
		"stimulus": "<span style=\"font-size:30px; font-family: monospace\">A</span>",
		"response": " ",
		"trial": "exp-sent",
		"word": "A",
		"trial_type": "html-keyboard-response",
		"trial_index": 173,
		"time_elapsed": 521376,
		"internal_node_id": "0.0-3.0-1.132"
	},
	{
		"rt": 1220,
		"stimulus": "<span style=\"font-size:30px; font-family: monospace\">bruxa</span>",
		"response": " ",
		"trial": "exp-sent",
		"word": "bruxa",
		"trial_type": "html-keyboard-response",
		"trial_index": 174,
		"time_elapsed": 522848,
		"internal_node_id": "0.0-3.0-1.133"
	},
	{
		"rt": 1997,
		"stimulus": "<span style=\"font-size:30px; font-family: monospace\">tinha</span>",
		"response": " ",
		"trial": "exp-sent",
		"word": "tinha",
		"trial_type": "html-keyboard-response",
		"trial_index": 175,
		"time_elapsed": 525096,
		"internal_node_id": "0.0-3.0-1.134"
	},
	{
		"rt": 989,
		"stimulus": "<span style=\"font-size:30px; font-family: monospace\">uma</span>",
		"response": " ",
		"trial": "exp-sent",
		"word": "uma",
		"trial_type": "html-keyboard-response",
		"trial_index": 176,
		"time_elapsed": 526336,
		"internal_node_id": "0.0-3.0-1.135"
	},
	{
		"rt": 2085,
		"stimulus": "<span style=\"font-size:30px; font-family: monospace\">vassoura</span>",
		"response": " ",
		"trial": "exp-sent",
		"word": "vassoura",
		"trial_type": "html-keyboard-response",
		"trial_index": 177,
		"time_elapsed": 528672,
		"internal_node_id": "0.0-3.0-1.136"
	},
	{
		"rt": 533,
		"stimulus": "<span style=\"font-size:30px; font-family: monospace\">e</span>",
		"response": " ",
		"trial": "exp-sent",
		"word": "e",
		"trial_type": "html-keyboard-response",
		"trial_index": 178,
		"time_elapsed": 529456,
		"internal_node_id": "0.0-3.0-1.137"
	},
	{
		"rt": 1029,
		"stimulus": "<span style=\"font-size:30px; font-family: monospace\">um</span>",
		"response": " ",
		"trial": "exp-sent",
		"word": "um",
		"trial_type": "html-keyboard-response",
		"trial_index": 179,
		"time_elapsed": 530736,
		"internal_node_id": "0.0-3.0-1.138"
	},
	{
		"rt": 4140,
		"stimulus": "<span style=\"font-size:30px; font-family: monospace\">gato.</span>",
		"response": " ",
		"trial": "exp-sent",
		"word": "gato.",
		"trial_type": "html-keyboard-response",
		"trial_index": 180,
		"time_elapsed": 535127,
		"internal_node_id": "0.0-3.0-1.139"
	},
	{
		"rt": null,
		"stimulus": "<span style= \"font-size:30px; font-family: monospace\">+</span>",
		"response": null,
		"trial_part": "fixation",
		"trial_type": "html-keyboard-response",
		"trial_index": 181,
		"time_elapsed": 536380,
		"internal_node_id": "0.0-3.0-0.140-0.140"
	},
	{
		"rt": 712,
		"stimulus": "<span style=\"font-size:30px; font-family: monospace\">Eu</span>",
		"response": " ",
		"trial": "exp-sent",
		"word": "Eu",
		"trial_type": "html-keyboard-response",
		"trial_index": 182,
		"time_elapsed": 537344,
		"internal_node_id": "0.0-3.0-1.140"
	},
	{
		"rt": 733,
		"stimulus": "<span style=\"font-size:30px; font-family: monospace\">me</span>",
		"response": " ",
		"trial": "exp-sent",
		"word": "me",
		"trial_type": "html-keyboard-response",
		"trial_index": 183,
		"time_elapsed": 538328,
		"internal_node_id": "0.0-3.0-1.141"
	},
	{
		"rt": 1628,
		"stimulus": "<span style=\"font-size:30px; font-family: monospace\">divirto</span>",
		"response": " ",
		"trial": "exp-sent",
		"word": "divirto",
		"trial_type": "html-keyboard-response",
		"trial_index": 184,
		"time_elapsed": 540208,
		"internal_node_id": "0.0-3.0-1.142"
	},
	{
		"rt": 589,
		"stimulus": "<span style=\"font-size:30px; font-family: monospace\">em</span>",
		"response": " ",
		"trial": "exp-sent",
		"word": "em",
		"trial_type": "html-keyboard-response",
		"trial_index": 185,
		"time_elapsed": 541048,
		"internal_node_id": "0.0-3.0-1.143"
	},
	{
		"rt": 2156,
		"stimulus": "<span style=\"font-size:30px; font-family: monospace\">festas</span>",
		"response": " ",
		"trial": "exp-sent",
		"word": "festas",
		"trial_type": "html-keyboard-response",
		"trial_index": 186,
		"time_elapsed": 543455,
		"internal_node_id": "0.0-3.0-1.144"
	},
	{
		"rt": 645,
		"stimulus": "<span style=\"font-size:30px; font-family: monospace\">de</span>",
		"response": " ",
		"trial": "exp-sent",
		"word": "de",
		"trial_type": "html-keyboard-response",
		"trial_index": 187,
		"time_elapsed": 544351,
		"internal_node_id": "0.0-3.0-1.145"
	},
	{
		"rt": 2044,
		"stimulus": "<span style=\"font-size:30px; font-family: monospace\">criança.</span>",
		"response": " ",
		"trial": "exp-sent",
		"word": "criança.",
		"trial_type": "html-keyboard-response",
		"trial_index": 188,
		"time_elapsed": 546647,
		"internal_node_id": "0.0-3.0-1.146"
	},
	{
		"rt": null,
		"stimulus": "<span style= \"font-size:30px; font-family: monospace\">+</span>",
		"response": null,
		"trial_part": "fixation",
		"trial_type": "html-keyboard-response",
		"trial_index": 189,
		"time_elapsed": 547914,
		"internal_node_id": "0.0-3.0-0.147-0.147"
	},
	{
		"rt": 826,
		"stimulus": "<span style=\"font-size:30px; font-family: monospace\">A</span>",
		"response": " ",
		"trial": "exp-sent",
		"word": "A",
		"trial_type": "html-keyboard-response",
		"trial_index": 190,
		"time_elapsed": 548991,
		"internal_node_id": "0.0-3.0-1.147"
	},
	{
		"rt": 2996,
		"stimulus": "<span style=\"font-size:30px; font-family: monospace\">janela</span>",
		"response": " ",
		"trial": "exp-sent",
		"word": "janela",
		"trial_type": "html-keyboard-response",
		"trial_index": 191,
		"time_elapsed": 552240,
		"internal_node_id": "0.0-3.0-1.148"
	},
	{
		"rt": 1276,
		"stimulus": "<span style=\"font-size:30px; font-family: monospace\">alta</span>",
		"response": " ",
		"trial": "exp-sent",
		"word": "alta",
		"trial_type": "html-keyboard-response",
		"trial_index": 192,
		"time_elapsed": 553767,
		"internal_node_id": "0.0-3.0-1.149"
	},
	{
		"rt": 1500,
		"stimulus": "<span style=\"font-size:30px; font-family: monospace\">estava</span>",
		"response": " ",
		"trial": "exp-sent",
		"word": "estava",
		"trial_type": "html-keyboard-response",
		"trial_index": 193,
		"time_elapsed": 555520,
		"internal_node_id": "0.0-3.0-1.150"
	},
	{
		"rt": 1748,
		"stimulus": "<span style=\"font-size:30px; font-family: monospace\">quebrada</span>",
		"response": " ",
		"trial": "exp-sent",
		"word": "quebrada",
		"trial_type": "html-keyboard-response",
		"trial_index": 194,
		"time_elapsed": 557519,
		"internal_node_id": "0.0-3.0-1.151"
	},
	{
		"rt": 1309,
		"stimulus": "<span style=\"font-size:30px; font-family: monospace\">desde</span>",
		"response": " ",
		"trial": "exp-sent",
		"word": "desde",
		"trial_type": "html-keyboard-response",
		"trial_index": 195,
		"time_elapsed": 559080,
		"internal_node_id": "0.0-3.0-1.152"
	},
	{
		"rt": 1325,
		"stimulus": "<span style=\"font-size:30px; font-family: monospace\">ontem.</span>",
		"response": " ",
		"trial": "comp",
		"word": "ontem.",
		"trial_type": "html-keyboard-response",
		"trial_index": 196,
		"time_elapsed": 560655,
		"internal_node_id": "0.0-3.0-1.153"
	},
	{
		"rt": 7957,
		"stimulus": "<span style=\"font-size:30px; font-family: monospace\">A janela alta estava quebrada?</span>",
		"response": "s",
		"question": "A janela alta estava quebrada?",
		"answer": "sim",
		"trial": "comp",
		"trial_type": "html-keyboard-response",
		"trial_index": 197,
		"time_elapsed": 568864,
		"internal_node_id": "0.0-3.0-2.153-0.153",
		"accuracy": false
	},
	{
		"rt": null,
		"stimulus": "<span style= \"font-size:30px; font-family: monospace\">+</span>",
		"response": null,
		"trial_part": "fixation",
		"trial_type": "html-keyboard-response",
		"trial_index": 198,
		"time_elapsed": 570377,
		"internal_node_id": "0.0-3.0-0.154-0.154"
	},
	{
		"rt": 4,
		"stimulus": "<span style=\"font-size:30px; font-family: monospace\">O</span>",
		"response": " ",
		"trial": "exp-sent",
		"word": "O",
		"trial_type": "html-keyboard-response",
		"trial_index": 199,
		"time_elapsed": 570632,
		"internal_node_id": "0.0-3.0-1.154"
	},
	{
		"rt": 1077,
		"stimulus": "<span style=\"font-size:30px; font-family: monospace\">moço</span>",
		"response": " ",
		"trial": "exp-sent",
		"word": "moço",
		"trial_type": "html-keyboard-response",
		"trial_index": 200,
		"time_elapsed": 571959,
		"internal_node_id": "0.0-3.0-1.155"
	},
	{
		"rt": 989,
		"stimulus": "<span style=\"font-size:30px; font-family: monospace\">usou</span>",
		"response": " ",
		"trial": "exp-sent",
		"word": "usou",
		"trial_type": "html-keyboard-response",
		"trial_index": 201,
		"time_elapsed": 573199,
		"internal_node_id": "0.0-3.0-1.156"
	},
	{
		"rt": 2005,
		"stimulus": "<span style=\"font-size:30px; font-family: monospace\">várias</span>",
		"response": " ",
		"trial": "exp-sent",
		"word": "várias",
		"trial_type": "html-keyboard-response",
		"trial_index": 202,
		"time_elapsed": 575455,
		"internal_node_id": "0.0-3.0-1.157"
	},
	{
		"rt": 717,
		"stimulus": "<span style=\"font-size:30px; font-family: monospace\">velas</span>",
		"response": " ",
		"trial": "exp-sent",
		"word": "velas",
		"trial_type": "html-keyboard-response",
		"trial_index": 203,
		"time_elapsed": 576424,
		"internal_node_id": "0.0-3.0-1.158"
	},
	{
		"rt": 2869,
		"stimulus": "<span style=\"font-size:30px; font-family: monospace\">no</span>",
		"response": " ",
		"trial": "exp-sent",
		"word": "no",
		"trial_type": "html-keyboard-response",
		"trial_index": 204,
		"time_elapsed": 579544,
		"internal_node_id": "0.0-3.0-1.159"
	},
	{
		"rt": 1852,
		"stimulus": "<span style=\"font-size:30px; font-family: monospace\">enfeite</span>",
		"response": " ",
		"trial": "exp-sent",
		"word": "enfeite",
		"trial_type": "html-keyboard-response",
		"trial_index": 205,
		"time_elapsed": 581647,
		"internal_node_id": "0.0-3.0-1.160"
	},
	{
		"rt": 556,
		"stimulus": "<span style=\"font-size:30px; font-family: monospace\">de</span>",
		"response": " ",
		"trial": "exp-sent",
		"word": "de",
		"trial_type": "html-keyboard-response",
		"trial_index": 206,
		"time_elapsed": 582455,
		"internal_node_id": "0.0-3.0-1.161"
	},
	{
		"rt": 2164,
		"stimulus": "<span style=\"font-size:30px; font-family: monospace\">mesa.</span>",
		"response": " ",
		"trial": "exp-sent",
		"word": "mesa.",
		"trial_type": "html-keyboard-response",
		"trial_index": 207,
		"time_elapsed": 584871,
		"internal_node_id": "0.0-3.0-1.162"
	},
	{
		"rt": null,
		"stimulus": "<span style= \"font-size:30px; font-family: monospace\">+</span>",
		"response": null,
		"trial_part": "fixation",
		"trial_type": "html-keyboard-response",
		"trial_index": 208,
		"time_elapsed": 586124,
		"internal_node_id": "0.0-3.0-0.163-0.163"
	},
	{
		"rt": 1632,
		"stimulus": "<span style=\"font-size:30px; font-family: monospace\">Gostamos</span>",
		"response": " ",
		"trial": "exp-sent",
		"word": "Gostamos",
		"trial_type": "html-keyboard-response",
		"trial_index": 209,
		"time_elapsed": 588007,
		"internal_node_id": "0.0-3.0-1.163"
	},
	{
		"rt": 604,
		"stimulus": "<span style=\"font-size:30px; font-family: monospace\">de</span>",
		"response": " ",
		"trial": "exp-sent",
		"word": "de",
		"trial_type": "html-keyboard-response",
		"trial_index": 210,
		"time_elapsed": 588863,
		"internal_node_id": "0.0-3.0-1.164"
	},
	{
		"rt": 965,
		"stimulus": "<span style=\"font-size:30px; font-family: monospace\">suco</span>",
		"response": " ",
		"trial": "exp-sent",
		"word": "suco",
		"trial_type": "html-keyboard-response",
		"trial_index": 211,
		"time_elapsed": 590079,
		"internal_node_id": "0.0-3.0-1.165"
	},
	{
		"rt": 627,
		"stimulus": "<span style=\"font-size:30px; font-family: monospace\">em</span>",
		"response": " ",
		"trial": "exp-sent",
		"word": "em",
		"trial_type": "html-keyboard-response",
		"trial_index": 212,
		"time_elapsed": 590959,
		"internal_node_id": "0.0-3.0-1.166"
	},
	{
		"rt": 4916,
		"stimulus": "<span style=\"font-size:30px; font-family: monospace\">garrafa</span>",
		"response": " ",
		"trial": "exp-sent",
		"word": "garrafa",
		"trial_type": "html-keyboard-response",
		"trial_index": 213,
		"time_elapsed": 596126,
		"internal_node_id": "0.0-3.0-1.167"
	},
	{
		"rt": 582,
		"stimulus": "<span style=\"font-size:30px; font-family: monospace\">de</span>",
		"response": " ",
		"trial": "exp-sent",
		"word": "de",
		"trial_type": "html-keyboard-response",
		"trial_index": 214,
		"time_elapsed": 596959,
		"internal_node_id": "0.0-3.0-1.168"
	},
	{
		"rt": 3245,
		"stimulus": "<span style=\"font-size:30px; font-family: monospace\">tamanho</span>",
		"response": " ",
		"trial": "exp-sent",
		"word": "tamanho",
		"trial_type": "html-keyboard-response",
		"trial_index": 215,
		"time_elapsed": 600455,
		"internal_node_id": "0.0-3.0-1.169"
	},
	{
		"rt": 1437,
		"stimulus": "<span style=\"font-size:30px; font-family: monospace\">pequeno.</span>",
		"response": " ",
		"trial": "exp-sent",
		"word": "pequeno.",
		"trial_type": "html-keyboard-response",
		"trial_index": 216,
		"time_elapsed": 602143,
		"internal_node_id": "0.0-3.0-1.170"
	},
	{
		"rt": null,
		"stimulus": "<span style= \"font-size:30px; font-family: monospace\">+</span>",
		"response": null,
		"trial_part": "fixation",
		"trial_type": "html-keyboard-response",
		"trial_index": 217,
		"time_elapsed": 603395,
		"internal_node_id": "0.0-3.0-0.171-0.171"
	},
	{
		"rt": 5545,
		"stimulus": "<span style=\"font-size:30px; font-family: monospace\">Sua</span>",
		"response": " ",
		"trial": "exp-sent",
		"word": "Sua",
		"trial_type": "html-keyboard-response",
		"trial_index": 218,
		"time_elapsed": 609191,
		"internal_node_id": "0.0-3.0-1.171"
	},
	{
		"rt": 1101,
		"stimulus": "<span style=\"font-size:30px; font-family: monospace\">filha</span>",
		"response": " ",
		"trial": "exp-sent",
		"word": "filha",
		"trial_type": "html-keyboard-response",
		"trial_index": 219,
		"time_elapsed": 610543,
		"internal_node_id": "0.0-3.0-1.172"
	},
	{
		"rt": 588,
		"stimulus": "<span style=\"font-size:30px; font-family: monospace\">é</span>",
		"response": " ",
		"trial": "exp-sent",
		"word": "é",
		"trial_type": "html-keyboard-response",
		"trial_index": 220,
		"time_elapsed": 611383,
		"internal_node_id": "0.0-3.0-1.173"
	},
	{
		"rt": 933,
		"stimulus": "<span style=\"font-size:30px; font-family: monospace\">muito</span>",
		"response": " ",
		"trial": "exp-sent",
		"word": "muito",
		"trial_type": "html-keyboard-response",
		"trial_index": 221,
		"time_elapsed": 612567,
		"internal_node_id": "0.0-3.0-1.174"
	},
	{
		"rt": 3404,
		"stimulus": "<span style=\"font-size:30px; font-family: monospace\">capaz</span>",
		"response": " ",
		"trial": "exp-sent",
		"word": "capaz",
		"trial_type": "html-keyboard-response",
		"trial_index": 222,
		"time_elapsed": 616223,
		"internal_node_id": "0.0-3.0-1.175"
	},
	{
		"rt": 1204,
		"stimulus": "<span style=\"font-size:30px; font-family: monospace\">e</span>",
		"response": " ",
		"trial": "exp-sent",
		"word": "e",
		"trial_type": "html-keyboard-response",
		"trial_index": 223,
		"time_elapsed": 617679,
		"internal_node_id": "0.0-3.0-1.176"
	},
	{
		"rt": 4133,
		"stimulus": "<span style=\"font-size:30px; font-family: monospace\">esforçada.</span>",
		"response": " ",
		"trial": "exp-sent",
		"word": "esforçada.",
		"trial_type": "html-keyboard-response",
		"trial_index": 224,
		"time_elapsed": 622063,
		"internal_node_id": "0.0-3.0-1.177"
	},
	{
		"rt": null,
		"stimulus": "<span style= \"font-size:30px; font-family: monospace\">+</span>",
		"response": null,
		"trial_part": "fixation",
		"trial_type": "html-keyboard-response",
		"trial_index": 225,
		"time_elapsed": 623316,
		"internal_node_id": "0.0-3.0-0.178-0.178"
	},
	{
		"rt": 689,
		"stimulus": "<span style=\"font-size:30px; font-family: monospace\">A</span>",
		"response": " ",
		"trial": "exp-sent",
		"word": "A",
		"trial_type": "html-keyboard-response",
		"trial_index": 226,
		"time_elapsed": 624255,
		"internal_node_id": "0.0-3.0-1.178"
	},
	{
		"rt": 2077,
		"stimulus": "<span style=\"font-size:30px; font-family: monospace\">batida</span>",
		"response": " ",
		"trial": "exp-sent",
		"word": "batida",
		"trial_type": "html-keyboard-response",
		"trial_index": 227,
		"time_elapsed": 626583,
		"internal_node_id": "0.0-3.0-1.179"
	},
	{
		"rt": 3372,
		"stimulus": "<span style=\"font-size:30px; font-family: monospace\">causou</span>",
		"response": " ",
		"trial": "exp-sent",
		"word": "causou",
		"trial_type": "html-keyboard-response",
		"trial_index": 228,
		"time_elapsed": 630207,
		"internal_node_id": "0.0-3.0-1.180"
	},
	{
		"rt": 1021,
		"stimulus": "<span style=\"font-size:30px; font-family: monospace\">muita</span>",
		"response": " ",
		"trial": "exp-sent",
		"word": "muita",
		"trial_type": "html-keyboard-response",
		"trial_index": 229,
		"time_elapsed": 631479,
		"internal_node_id": "0.0-3.0-1.181"
	},
	{
		"rt": 2805,
		"stimulus": "<span style=\"font-size:30px; font-family: monospace\">confusão</span>",
		"response": " ",
		"trial": "exp-sent",
		"word": "confusão",
		"trial_type": "html-keyboard-response",
		"trial_index": 230,
		"time_elapsed": 634536,
		"internal_node_id": "0.0-3.0-1.182"
	},
	{
		"rt": 868,
		"stimulus": "<span style=\"font-size:30px; font-family: monospace\">na</span>",
		"response": " ",
		"trial": "exp-sent",
		"word": "na",
		"trial_type": "html-keyboard-response",
		"trial_index": 231,
		"time_elapsed": 635655,
		"internal_node_id": "0.0-3.0-1.183"
	},
	{
		"rt": 14197,
		"stimulus": "<span style=\"font-size:30px; font-family: monospace\">estrada.</span>",
		"response": " ",
		"trial": "exp-sent",
		"word": "estrada.",
		"trial_type": "html-keyboard-response",
		"trial_index": 232,
		"time_elapsed": 650104,
		"internal_node_id": "0.0-3.0-1.184"
	},
	{
		"rt": null,
		"stimulus": "<span style= \"font-size:30px; font-family: monospace\">+</span>",
		"response": null,
		"trial_part": "fixation",
		"trial_type": "html-keyboard-response",
		"trial_index": 233,
		"time_elapsed": 651356,
		"internal_node_id": "0.0-3.0-0.185-0.185"
	},
	{
		"rt": 1520,
		"stimulus": "<span style=\"font-size:30px; font-family: monospace\">Eu</span>",
		"response": " ",
		"trial": "exp-sent",
		"word": "Eu",
		"trial_type": "html-keyboard-response",
		"trial_index": 234,
		"time_elapsed": 653127,
		"internal_node_id": "0.0-3.0-1.185"
	},
	{
		"rt": 2373,
		"stimulus": "<span style=\"font-size:30px; font-family: monospace\">cozinhei</span>",
		"response": " ",
		"trial": "exp-sent",
		"word": "cozinhei",
		"trial_type": "html-keyboard-response",
		"trial_index": 235,
		"time_elapsed": 655751,
		"internal_node_id": "0.0-3.0-1.186"
	},
	{
		"rt": 925,
		"stimulus": "<span style=\"font-size:30px; font-family: monospace\">um</span>",
		"response": " ",
		"trial": "exp-sent",
		"word": "um",
		"trial_type": "html-keyboard-response",
		"trial_index": 236,
		"time_elapsed": 656927,
		"internal_node_id": "0.0-3.0-1.187"
	},
	{
		"rt": 1429,
		"stimulus": "<span style=\"font-size:30px; font-family: monospace\">almoço</span>",
		"response": " ",
		"trial": "exp-sent",
		"word": "almoço",
		"trial_type": "html-keyboard-response",
		"trial_index": 237,
		"time_elapsed": 658607,
		"internal_node_id": "0.0-3.0-1.188"
	},
	{
		"rt": 1821,
		"stimulus": "<span style=\"font-size:30px; font-family: monospace\">nutritivo</span>",
		"response": " ",
		"trial": "exp-sent",
		"word": "nutritivo",
		"trial_type": "html-keyboard-response",
		"trial_index": 238,
		"time_elapsed": 660679,
		"internal_node_id": "0.0-3.0-1.189"
	},
	{
		"rt": 653,
		"stimulus": "<span style=\"font-size:30px; font-family: monospace\">para</span>",
		"response": " ",
		"trial": "exp-sent",
		"word": "para",
		"trial_type": "html-keyboard-response",
		"trial_index": 239,
		"time_elapsed": 661583,
		"internal_node_id": "0.0-3.0-1.190"
	},
	{
		"rt": 1188,
		"stimulus": "<span style=\"font-size:30px; font-family: monospace\">hoje.</span>",
		"response": " ",
		"trial": "comp",
		"word": "hoje.",
		"trial_type": "html-keyboard-response",
		"trial_index": 240,
		"time_elapsed": 663023,
		"internal_node_id": "0.0-3.0-1.191"
	},
	{
		"rt": 9069,
		"stimulus": "<span style=\"font-size:30px; font-family: monospace\">O almoço era nutritivo?</span>",
		"response": "s",
		"question": "O almoço era nutritivo?",
		"answer": "sim",
		"trial": "comp",
		"trial_type": "html-keyboard-response",
		"trial_index": 241,
		"time_elapsed": 672344,
		"internal_node_id": "0.0-3.0-2.191-0.191",
		"accuracy": false
	},
	{
		"rt": null,
		"stimulus": "<span style= \"font-size:30px; font-family: monospace\">+</span>",
		"response": null,
		"trial_part": "fixation",
		"trial_type": "html-keyboard-response",
		"trial_index": 242,
		"time_elapsed": 673846,
		"internal_node_id": "0.0-3.0-0.192-0.192"
	},
	{
		"rt": 1750,
		"stimulus": "<span style=\"font-size:30px; font-family: monospace\">Ursos</span>",
		"response": " ",
		"trial": "exp-sent",
		"word": "Ursos",
		"trial_type": "html-keyboard-response",
		"trial_index": 243,
		"time_elapsed": 675847,
		"internal_node_id": "0.0-3.0-1.192"
	},
	{
		"rt": 828,
		"stimulus": "<span style=\"font-size:30px; font-family: monospace\">têm</span>",
		"response": " ",
		"trial": "exp-sent",
		"word": "têm",
		"trial_type": "html-keyboard-response",
		"trial_index": 244,
		"time_elapsed": 676927,
		"internal_node_id": "0.0-3.0-1.193"
	},
	{
		"rt": 1221,
		"stimulus": "<span style=\"font-size:30px; font-family: monospace\">uma</span>",
		"response": " ",
		"trial": "exp-sent",
		"word": "uma",
		"trial_type": "html-keyboard-response",
		"trial_index": 245,
		"time_elapsed": 678399,
		"internal_node_id": "0.0-3.0-1.194"
	},
	{
		"rt": 2492,
		"stimulus": "<span style=\"font-size:30px; font-family: monospace\">patada</span>",
		"response": " ",
		"trial": "exp-sent",
		"word": "patada",
		"trial_type": "html-keyboard-response",
		"trial_index": 246,
		"time_elapsed": 681143,
		"internal_node_id": "0.0-3.0-1.195"
	},
	{
		"rt": 1597,
		"stimulus": "<span style=\"font-size:30px; font-family: monospace\">brutal</span>",
		"response": " ",
		"trial": "exp-sent",
		"word": "brutal",
		"trial_type": "html-keyboard-response",
		"trial_index": 247,
		"time_elapsed": 682991,
		"internal_node_id": "0.0-3.0-1.196"
	},
	{
		"rt": 540,
		"stimulus": "<span style=\"font-size:30px; font-family: monospace\">e</span>",
		"response": " ",
		"trial": "exp-sent",
		"word": "e",
		"trial_type": "html-keyboard-response",
		"trial_index": 248,
		"time_elapsed": 683783,
		"internal_node_id": "0.0-3.0-1.197"
	},
	{
		"rt": 7180,
		"stimulus": "<span style=\"font-size:30px; font-family: monospace\">poderosa.</span>",
		"response": " ",
		"trial": "exp-sent",
		"word": "poderosa.",
		"trial_type": "html-keyboard-response",
		"trial_index": 249,
		"time_elapsed": 691215,
		"internal_node_id": "0.0-3.0-1.198"
	},
	{
		"rt": null,
		"stimulus": "<span style= \"font-size:30px; font-family: monospace\">+</span>",
		"response": null,
		"trial_part": "fixation",
		"trial_type": "html-keyboard-response",
		"trial_index": 250,
		"time_elapsed": 692467,
		"internal_node_id": "0.0-3.0-0.199-0.199"
	},
	{
		"rt": 817,
		"stimulus": "<span style=\"font-size:30px; font-family: monospace\">Eu</span>",
		"response": " ",
		"trial": "exp-sent",
		"word": "Eu",
		"trial_type": "html-keyboard-response",
		"trial_index": 251,
		"time_elapsed": 693535,
		"internal_node_id": "0.0-3.0-1.199"
	},
	{
		"rt": 828,
		"stimulus": "<span style=\"font-size:30px; font-family: monospace\">fiz</span>",
		"response": " ",
		"trial": "exp-sent",
		"word": "fiz",
		"trial_type": "html-keyboard-response",
		"trial_index": 252,
		"time_elapsed": 694615,
		"internal_node_id": "0.0-3.0-1.200"
	},
	{
		"rt": 2232,
		"stimulus": "<span style=\"font-size:30px; font-family: monospace\">aulas</span>",
		"response": " ",
		"trial": "exp-sent",
		"word": "aulas",
		"trial_type": "html-keyboard-response",
		"trial_index": 253,
		"time_elapsed": 697111,
		"internal_node_id": "0.0-3.0-1.201"
	},
	{
		"rt": 676,
		"stimulus": "<span style=\"font-size:30px; font-family: monospace\">de</span>",
		"response": " ",
		"trial": "exp-sent",
		"word": "de",
		"trial_type": "html-keyboard-response",
		"trial_index": 254,
		"time_elapsed": 698039,
		"internal_node_id": "0.0-3.0-1.202"
	},
	{
		"rt": 1637,
		"stimulus": "<span style=\"font-size:30px; font-family: monospace\">espanhol</span>",
		"response": " ",
		"trial": "exp-sent",
		"word": "espanhol",
		"trial_type": "html-keyboard-response",
		"trial_index": 255,
		"time_elapsed": 699927,
		"internal_node_id": "0.0-3.0-1.203"
	},
	{
		"rt": 1069,
		"stimulus": "<span style=\"font-size:30px; font-family: monospace\">nesta</span>",
		"response": " ",
		"trial": "exp-sent",
		"word": "nesta",
		"trial_type": "html-keyboard-response",
		"trial_index": 256,
		"time_elapsed": 701247,
		"internal_node_id": "0.0-3.0-1.204"
	},
	{
		"rt": 4460,
		"stimulus": "<span style=\"font-size:30px; font-family: monospace\">cidade.</span>",
		"response": " ",
		"trial": "exp-sent",
		"word": "cidade.",
		"trial_type": "html-keyboard-response",
		"trial_index": 257,
		"time_elapsed": 705959,
		"internal_node_id": "0.0-3.0-1.205"
	},
	{
		"rt": null,
		"stimulus": "<span style= \"font-size:30px; font-family: monospace\">+</span>",
		"response": null,
		"trial_part": "fixation",
		"trial_type": "html-keyboard-response",
		"trial_index": 258,
		"time_elapsed": 707212,
		"internal_node_id": "0.0-3.0-0.206-0.206"
	},
	{
		"rt": 879,
		"stimulus": "<span style=\"font-size:30px; font-family: monospace\">Ele</span>",
		"response": " ",
		"trial": "exp-sent",
		"word": "Ele",
		"trial_type": "html-keyboard-response",
		"trial_index": 259,
		"time_elapsed": 708343,
		"internal_node_id": "0.0-3.0-1.206"
	},
	{
		"rt": 1005,
		"stimulus": "<span style=\"font-size:30px; font-family: monospace\">comprou</span>",
		"response": " ",
		"trial": "exp-sent",
		"word": "comprou",
		"trial_type": "html-keyboard-response",
		"trial_index": 260,
		"time_elapsed": 709599,
		"internal_node_id": "0.0-3.0-1.207"
	},
	{
		"rt": 765,
		"stimulus": "<span style=\"font-size:30px; font-family: monospace\">mais</span>",
		"response": " ",
		"trial": "exp-sent",
		"word": "mais",
		"trial_type": "html-keyboard-response",
		"trial_index": 261,
		"time_elapsed": 710615,
		"internal_node_id": "0.0-3.0-1.208"
	},
	{
		"rt": 757,
		"stimulus": "<span style=\"font-size:30px; font-family: monospace\">uma</span>",
		"response": " ",
		"trial": "exp-sent",
		"word": "uma",
		"trial_type": "html-keyboard-response",
		"trial_index": 262,
		"time_elapsed": 711623,
		"internal_node_id": "0.0-3.0-1.209"
	},
	{
		"rt": 4693,
		"stimulus": "<span style=\"font-size:30px; font-family: monospace\">esponja</span>",
		"response": " ",
		"trial": "exp-sent",
		"word": "esponja",
		"trial_type": "html-keyboard-response",
		"trial_index": 263,
		"time_elapsed": 716568,
		"internal_node_id": "0.0-3.0-1.210"
	},
	{
		"rt": 627,
		"stimulus": "<span style=\"font-size:30px; font-family: monospace\">para</span>",
		"response": " ",
		"trial": "exp-sent",
		"word": "para",
		"trial_type": "html-keyboard-response",
		"trial_index": 264,
		"time_elapsed": 717446,
		"internal_node_id": "0.0-3.0-1.211"
	},
	{
		"rt": 582,
		"stimulus": "<span style=\"font-size:30px; font-family: monospace\">a</span>",
		"response": " ",
		"trial": "exp-sent",
		"word": "a",
		"trial_type": "html-keyboard-response",
		"trial_index": 265,
		"time_elapsed": 718279,
		"internal_node_id": "0.0-3.0-1.212"
	},
	{
		"rt": 9981,
		"stimulus": "<span style=\"font-size:30px; font-family: monospace\">cozinha.</span>",
		"response": " ",
		"trial": "exp-sent",
		"word": "cozinha.",
		"trial_type": "html-keyboard-response",
		"trial_index": 266,
		"time_elapsed": 728511,
		"internal_node_id": "0.0-3.0-1.213"
	},
	{
		"rt": null,
		"stimulus": "<span style= \"font-size:30px; font-family: monospace\">+</span>",
		"response": null,
		"trial_part": "fixation",
		"trial_type": "html-keyboard-response",
		"trial_index": 267,
		"time_elapsed": 729764,
		"internal_node_id": "0.0-3.0-0.214-0.214"
	},
	{
		"rt": 2872,
		"stimulus": "<span style=\"font-size:30px; font-family: monospace\">Ele</span>",
		"response": " ",
		"trial": "exp-sent",
		"word": "Ele",
		"trial_type": "html-keyboard-response",
		"trial_index": 268,
		"time_elapsed": 732887,
		"internal_node_id": "0.0-3.0-1.214"
	},
	{
		"rt": 1173,
		"stimulus": "<span style=\"font-size:30px; font-family: monospace\">teve</span>",
		"response": " ",
		"trial": "exp-sent",
		"word": "teve",
		"trial_type": "html-keyboard-response",
		"trial_index": 269,
		"time_elapsed": 734311,
		"internal_node_id": "0.0-3.0-1.215"
	},
	{
		"rt": 524,
		"stimulus": "<span style=\"font-size:30px; font-family: monospace\">um</span>",
		"response": " ",
		"trial": "exp-sent",
		"word": "um",
		"trial_type": "html-keyboard-response",
		"trial_index": 270,
		"time_elapsed": 735087,
		"internal_node_id": "0.0-3.0-1.216"
	},
	{
		"rt": 1500,
		"stimulus": "<span style=\"font-size:30px; font-family: monospace\">sono</span>",
		"response": " ",
		"trial": "exp-sent",
		"word": "sono",
		"trial_type": "html-keyboard-response",
		"trial_index": 271,
		"time_elapsed": 736839,
		"internal_node_id": "0.0-3.0-1.217"
	},
	{
		"rt": 1701,
		"stimulus": "<span style=\"font-size:30px; font-family: monospace\">bizarro</span>",
		"response": " ",
		"trial": "exp-sent",
		"word": "bizarro",
		"trial_type": "html-keyboard-response",
		"trial_index": 272,
		"time_elapsed": 738791,
		"internal_node_id": "0.0-3.0-1.218"
	},
	{
		"rt": 493,
		"stimulus": "<span style=\"font-size:30px; font-family: monospace\">sem</span>",
		"response": " ",
		"trial": "exp-sent",
		"word": "sem",
		"trial_type": "html-keyboard-response",
		"trial_index": 273,
		"time_elapsed": 739535,
		"internal_node_id": "0.0-3.0-1.219"
	},
	{
		"rt": 902,
		"stimulus": "<span style=\"font-size:30px; font-family: monospace\">nenhum</span>",
		"response": " ",
		"trial": "exp-sent",
		"word": "nenhum",
		"trial_type": "html-keyboard-response",
		"trial_index": 274,
		"time_elapsed": 740703,
		"internal_node_id": "0.0-3.0-1.220"
	},
	{
		"rt": 636,
		"stimulus": "<span style=\"font-size:30px; font-family: monospace\">motivo.</span>",
		"response": " ",
		"trial": "exp-sent",
		"word": "motivo.",
		"trial_type": "html-keyboard-response",
		"trial_index": 275,
		"time_elapsed": 741591,
		"internal_node_id": "0.0-3.0-1.221"
	},
	{
		"rt": null,
		"stimulus": "<span style= \"font-size:30px; font-family: monospace\">+</span>",
		"response": null,
		"trial_part": "fixation",
		"trial_type": "html-keyboard-response",
		"trial_index": 276,
		"time_elapsed": 742844,
		"internal_node_id": "0.0-3.0-0.222-0.222"
	},
	{
		"rt": 1311,
		"stimulus": "<span style=\"font-size:30px; font-family: monospace\">A</span>",
		"response": " ",
		"trial": "exp-sent",
		"word": "A",
		"trial_type": "html-keyboard-response",
		"trial_index": 277,
		"time_elapsed": 744407,
		"internal_node_id": "0.0-3.0-1.222"
	},
	{
		"rt": 645,
		"stimulus": "<span style=\"font-size:30px; font-family: monospace\">moça</span>",
		"response": " ",
		"trial": "exp-sent",
		"word": "moça",
		"trial_type": "html-keyboard-response",
		"trial_index": 278,
		"time_elapsed": 745303,
		"internal_node_id": "0.0-3.0-1.223"
	},
	{
		"rt": 1717,
		"stimulus": "<span style=\"font-size:30px; font-family: monospace\">comprou</span>",
		"response": " ",
		"trial": "exp-sent",
		"word": "comprou",
		"trial_type": "html-keyboard-response",
		"trial_index": 279,
		"time_elapsed": 747271,
		"internal_node_id": "0.0-3.0-1.224"
	},
	{
		"rt": 708,
		"stimulus": "<span style=\"font-size:30px; font-family: monospace\">um</span>",
		"response": " ",
		"trial": "exp-sent",
		"word": "um",
		"trial_type": "html-keyboard-response",
		"trial_index": 280,
		"time_elapsed": 748231,
		"internal_node_id": "0.0-3.0-1.225"
	},
	{
		"rt": 1925,
		"stimulus": "<span style=\"font-size:30px; font-family: monospace\">diamante</span>",
		"response": " ",
		"trial": "exp-sent",
		"word": "diamante",
		"trial_type": "html-keyboard-response",
		"trial_index": 281,
		"time_elapsed": 750407,
		"internal_node_id": "0.0-3.0-1.226"
	},
	{
		"rt": 1165,
		"stimulus": "<span style=\"font-size:30px; font-family: monospace\">para</span>",
		"response": " ",
		"trial": "exp-sent",
		"word": "para",
		"trial_type": "html-keyboard-response",
		"trial_index": 282,
		"time_elapsed": 751823,
		"internal_node_id": "0.0-3.0-1.227"
	},
	{
		"rt": 493,
		"stimulus": "<span style=\"font-size:30px; font-family: monospace\">sua</span>",
		"response": " ",
		"trial": "exp-sent",
		"word": "sua",
		"trial_type": "html-keyboard-response",
		"trial_index": 283,
		"time_elapsed": 752567,
		"internal_node_id": "0.0-3.0-1.228"
	},
	{
		"rt": 1213,
		"stimulus": "<span style=\"font-size:30px; font-family: monospace\">prima.</span>",
		"response": " ",
		"trial": "comp",
		"word": "prima.",
		"trial_type": "html-keyboard-response",
		"trial_index": 284,
		"time_elapsed": 754031,
		"internal_node_id": "0.0-3.0-1.229"
	},
	{
		"rt": 7141,
		"stimulus": "<span style=\"font-size:30px; font-family: monospace\">A moça comprou um diamante?</span>",
		"response": "s",
		"question": "A moça comprou um diamante?",
		"answer": "sim",
		"trial": "comp",
		"trial_type": "html-keyboard-response",
		"trial_index": 285,
		"time_elapsed": 761423,
		"internal_node_id": "0.0-3.0-2.229-0.229",
		"accuracy": false
	},
	{
		"rt": null,
		"stimulus": "<span style= \"font-size:30px; font-family: monospace\">+</span>",
		"response": null,
		"trial_part": "fixation",
		"trial_type": "html-keyboard-response",
		"trial_index": 286,
		"time_elapsed": 762925,
		"internal_node_id": "0.0-3.0-0.230-0.230"
	},
	{
		"rt": 1287,
		"stimulus": "<span style=\"font-size:30px; font-family: monospace\">Preciso</span>",
		"response": " ",
		"trial": "exp-sent",
		"word": "Preciso",
		"trial_type": "html-keyboard-response",
		"trial_index": 287,
		"time_elapsed": 764463,
		"internal_node_id": "0.0-3.0-1.230"
	},
	{
		"rt": 461,
		"stimulus": "<span style=\"font-size:30px; font-family: monospace\">de</span>",
		"response": " ",
		"trial": "exp-sent",
		"word": "de",
		"trial_type": "html-keyboard-response",
		"trial_index": 288,
		"time_elapsed": 765175,
		"internal_node_id": "0.0-3.0-1.231"
	},
	{
		"rt": 556,
		"stimulus": "<span style=\"font-size:30px; font-family: monospace\">um</span>",
		"response": " ",
		"trial": "exp-sent",
		"word": "um",
		"trial_type": "html-keyboard-response",
		"trial_index": 289,
		"time_elapsed": 765983,
		"internal_node_id": "0.0-3.0-1.232"
	},
	{
		"rt": 1725,
		"stimulus": "<span style=\"font-size:30px; font-family: monospace\">relatório</span>",
		"response": " ",
		"trial": "exp-sent",
		"word": "relatório",
		"trial_type": "html-keyboard-response",
		"trial_index": 290,
		"time_elapsed": 767959,
		"internal_node_id": "0.0-3.0-1.233"
	},
	{
		"rt": 1028,
		"stimulus": "<span style=\"font-size:30px; font-family: monospace\">oficial</span>",
		"response": " ",
		"trial": "exp-sent",
		"word": "oficial",
		"trial_type": "html-keyboard-response",
		"trial_index": 291,
		"time_elapsed": 769239,
		"internal_node_id": "0.0-3.0-1.234"
	},
	{
		"rt": 613,
		"stimulus": "<span style=\"font-size:30px; font-family: monospace\">para</span>",
		"response": " ",
		"trial": "exp-sent",
		"word": "para",
		"trial_type": "html-keyboard-response",
		"trial_index": 292,
		"time_elapsed": 770103,
		"internal_node_id": "0.0-3.0-1.235"
	},
	{
		"rt": 4389,
		"stimulus": "<span style=\"font-size:30px; font-family: monospace\">amanhã.</span>",
		"response": " ",
		"trial": "exp-sent",
		"word": "amanhã.",
		"trial_type": "html-keyboard-response",
		"trial_index": 293,
		"time_elapsed": 774744,
		"internal_node_id": "0.0-3.0-1.236"
	},
	{
		"rt": null,
		"stimulus": "<span style= \"font-size:30px; font-family: monospace\">+</span>",
		"response": null,
		"trial_part": "fixation",
		"trial_type": "html-keyboard-response",
		"trial_index": 294,
		"time_elapsed": 775997,
		"internal_node_id": "0.0-3.0-0.237-0.237"
	},
	{
		"rt": 1463,
		"stimulus": "<span style=\"font-size:30px; font-family: monospace\">Ele</span>",
		"response": " ",
		"trial": "exp-sent",
		"word": "Ele",
		"trial_type": "html-keyboard-response",
		"trial_index": 295,
		"time_elapsed": 777711,
		"internal_node_id": "0.0-3.0-1.237"
	},
	{
		"rt": 868,
		"stimulus": "<span style=\"font-size:30px; font-family: monospace\">viu</span>",
		"response": " ",
		"trial": "exp-sent",
		"word": "viu",
		"trial_type": "html-keyboard-response",
		"trial_index": 296,
		"time_elapsed": 778831,
		"internal_node_id": "0.0-3.0-1.238"
	},
	{
		"rt": 477,
		"stimulus": "<span style=\"font-size:30px; font-family: monospace\">um</span>",
		"response": " ",
		"trial": "exp-sent",
		"word": "um",
		"trial_type": "html-keyboard-response",
		"trial_index": 297,
		"time_elapsed": 779559,
		"internal_node_id": "0.0-3.0-1.239"
	},
	{
		"rt": 2213,
		"stimulus": "<span style=\"font-size:30px; font-family: monospace\">inseto</span>",
		"response": " ",
		"trial": "exp-sent",
		"word": "inseto",
		"trial_type": "html-keyboard-response",
		"trial_index": 298,
		"time_elapsed": 782023,
		"internal_node_id": "0.0-3.0-1.240"
	},
	{
		"rt": 1581,
		"stimulus": "<span style=\"font-size:30px; font-family: monospace\">marrom</span>",
		"response": " ",
		"trial": "exp-sent",
		"word": "marrom",
		"trial_type": "html-keyboard-response",
		"trial_index": 299,
		"time_elapsed": 783855,
		"internal_node_id": "0.0-3.0-1.241"
	},
	{
		"rt": 564,
		"stimulus": "<span style=\"font-size:30px; font-family: monospace\">na</span>",
		"response": " ",
		"trial": "exp-sent",
		"word": "na",
		"trial_type": "html-keyboard-response",
		"trial_index": 300,
		"time_elapsed": 784671,
		"internal_node_id": "0.0-3.0-1.242"
	},
	{
		"rt": 6572,
		"stimulus": "<span style=\"font-size:30px; font-family: monospace\">parede.</span>",
		"response": " ",
		"trial": "exp-sent",
		"word": "parede.",
		"trial_type": "html-keyboard-response",
		"trial_index": 301,
		"time_elapsed": 791495,
		"internal_node_id": "0.0-3.0-1.243"
	},
	{
		"rt": null,
		"stimulus": "<span style= \"font-size:30px; font-family: monospace\">+</span>",
		"response": null,
		"trial_part": "fixation",
		"trial_type": "html-keyboard-response",
		"trial_index": 302,
		"time_elapsed": 792747,
		"internal_node_id": "0.0-3.0-0.244-0.244"
	},
	{
		"rt": 1297,
		"stimulus": "<span style=\"font-size:30px; font-family: monospace\">O</span>",
		"response": " ",
		"trial": "exp-sent",
		"word": "O",
		"trial_type": "html-keyboard-response",
		"trial_index": 303,
		"time_elapsed": 794295,
		"internal_node_id": "0.0-3.0-1.244"
	},
	{
		"rt": 1197,
		"stimulus": "<span style=\"font-size:30px; font-family: monospace\">avô</span>",
		"response": " ",
		"trial": "exp-sent",
		"word": "avô",
		"trial_type": "html-keyboard-response",
		"trial_index": 304,
		"time_elapsed": 795743,
		"internal_node_id": "0.0-3.0-1.245"
	},
	{
		"rt": 1453,
		"stimulus": "<span style=\"font-size:30px; font-family: monospace\">fez</span>",
		"response": " ",
		"trial": "exp-sent",
		"word": "fez",
		"trial_type": "html-keyboard-response",
		"trial_index": 305,
		"time_elapsed": 797447,
		"internal_node_id": "0.0-3.0-1.246"
	},
	{
		"rt": 620,
		"stimulus": "<span style=\"font-size:30px; font-family: monospace\">uma</span>",
		"response": " ",
		"trial": "exp-sent",
		"word": "uma",
		"trial_type": "html-keyboard-response",
		"trial_index": 306,
		"time_elapsed": 798319,
		"internal_node_id": "0.0-3.0-1.247"
	},
	{
		"rt": 773,
		"stimulus": "<span style=\"font-size:30px; font-family: monospace\">lista</span>",
		"response": " ",
		"trial": "exp-sent",
		"word": "lista",
		"trial_type": "html-keyboard-response",
		"trial_index": 307,
		"time_elapsed": 799343,
		"internal_node_id": "0.0-3.0-1.248"
	},
	{
		"rt": 484,
		"stimulus": "<span style=\"font-size:30px; font-family: monospace\">de</span>",
		"response": " ",
		"trial": "exp-sent",
		"word": "de",
		"trial_type": "html-keyboard-response",
		"trial_index": 308,
		"time_elapsed": 800079,
		"internal_node_id": "0.0-3.0-1.249"
	},
	{
		"rt": 1068,
		"stimulus": "<span style=\"font-size:30px; font-family: monospace\">compras</span>",
		"response": " ",
		"trial": "exp-sent",
		"word": "compras",
		"trial_type": "html-keyboard-response",
		"trial_index": 309,
		"time_elapsed": 801399,
		"internal_node_id": "0.0-3.0-1.250"
	},
	{
		"rt": 541,
		"stimulus": "<span style=\"font-size:30px; font-family: monospace\">do</span>",
		"response": " ",
		"trial": "exp-sent",
		"word": "do",
		"trial_type": "html-keyboard-response",
		"trial_index": 310,
		"time_elapsed": 802191,
		"internal_node_id": "0.0-3.0-1.251"
	},
	{
		"rt": 5068,
		"stimulus": "<span style=\"font-size:30px; font-family: monospace\">mercado.</span>",
		"response": " ",
		"trial": "exp-sent",
		"word": "mercado.",
		"trial_type": "html-keyboard-response",
		"trial_index": 311,
		"time_elapsed": 807511,
		"internal_node_id": "0.0-3.0-1.252"
	},
	{
		"rt": null,
		"stimulus": "<span style= \"font-size:30px; font-family: monospace\">+</span>",
		"response": null,
		"trial_part": "fixation",
		"trial_type": "html-keyboard-response",
		"trial_index": 312,
		"time_elapsed": 808764,
		"internal_node_id": "0.0-3.0-0.253-0.253"
	},
	{
		"rt": 664,
		"stimulus": "<span style=\"font-size:30px; font-family: monospace\">As</span>",
		"response": " ",
		"trial": "exp-sent",
		"word": "As",
		"trial_type": "html-keyboard-response",
		"trial_index": 313,
		"time_elapsed": 809679,
		"internal_node_id": "0.0-3.0-1.253"
	},
	{
		"rt": 949,
		"stimulus": "<span style=\"font-size:30px; font-family: monospace\">pessoas</span>",
		"response": " ",
		"trial": "exp-sent",
		"word": "pessoas",
		"trial_type": "html-keyboard-response",
		"trial_index": 314,
		"time_elapsed": 810879,
		"internal_node_id": "0.0-3.0-1.254"
	},
	{
		"rt": 460,
		"stimulus": "<span style=\"font-size:30px; font-family: monospace\">não</span>",
		"response": " ",
		"trial": "exp-sent",
		"word": "não",
		"trial_type": "html-keyboard-response",
		"trial_index": 315,
		"time_elapsed": 811591,
		"internal_node_id": "0.0-3.0-1.255"
	},
	{
		"rt": 885,
		"stimulus": "<span style=\"font-size:30px; font-family: monospace\">enviam</span>",
		"response": " ",
		"trial": "exp-sent",
		"word": "enviam",
		"trial_type": "html-keyboard-response",
		"trial_index": 316,
		"time_elapsed": 812727,
		"internal_node_id": "0.0-3.0-1.256"
	},
	{
		"rt": 1685,
		"stimulus": "<span style=\"font-size:30px; font-family: monospace\">telegrama</span>",
		"response": " ",
		"trial": "exp-sent",
		"word": "telegrama",
		"trial_type": "html-keyboard-response",
		"trial_index": 317,
		"time_elapsed": 814663,
		"internal_node_id": "0.0-3.0-1.257"
	},
	{
		"rt": 500,
		"stimulus": "<span style=\"font-size:30px; font-family: monospace\">nos</span>",
		"response": " ",
		"trial": "exp-sent",
		"word": "nos",
		"trial_type": "html-keyboard-response",
		"trial_index": 318,
		"time_elapsed": 815415,
		"internal_node_id": "0.0-3.0-1.258"
	},
	{
		"rt": 748,
		"stimulus": "<span style=\"font-size:30px; font-family: monospace\">dias</span>",
		"response": " ",
		"trial": "exp-sent",
		"word": "dias",
		"trial_type": "html-keyboard-response",
		"trial_index": 319,
		"time_elapsed": 816415,
		"internal_node_id": "0.0-3.0-1.259"
	},
	{
		"rt": 589,
		"stimulus": "<span style=\"font-size:30px; font-family: monospace\">de</span>",
		"response": " ",
		"trial": "exp-sent",
		"word": "de",
		"trial_type": "html-keyboard-response",
		"trial_index": 320,
		"time_elapsed": 817255,
		"internal_node_id": "0.0-3.0-1.260"
	},
	{
		"rt": 4548,
		"stimulus": "<span style=\"font-size:30px; font-family: monospace\">hoje.</span>",
		"response": " ",
		"trial": "exp-sent",
		"word": "hoje.",
		"trial_type": "html-keyboard-response",
		"trial_index": 321,
		"time_elapsed": 822055,
		"internal_node_id": "0.0-3.0-1.261"
	},
	{
		"rt": null,
		"stimulus": "<span style= \"font-size:30px; font-family: monospace\">+</span>",
		"response": null,
		"trial_part": "fixation",
		"trial_type": "html-keyboard-response",
		"trial_index": 322,
		"time_elapsed": 823307,
		"internal_node_id": "0.0-3.0-0.262-0.262"
	},
	{
		"rt": 904,
		"stimulus": "<span style=\"font-size:30px; font-family: monospace\">Ele</span>",
		"response": " ",
		"trial": "exp-sent",
		"word": "Ele",
		"trial_type": "html-keyboard-response",
		"trial_index": 323,
		"time_elapsed": 824463,
		"internal_node_id": "0.0-3.0-1.262"
	},
	{
		"rt": 565,
		"stimulus": "<span style=\"font-size:30px; font-family: monospace\">não</span>",
		"response": " ",
		"trial": "exp-sent",
		"word": "não",
		"trial_type": "html-keyboard-response",
		"trial_index": 324,
		"time_elapsed": 825279,
		"internal_node_id": "0.0-3.0-1.263"
	},
	{
		"rt": 468,
		"stimulus": "<span style=\"font-size:30px; font-family: monospace\">gosta</span>",
		"response": " ",
		"trial": "exp-sent",
		"word": "gosta",
		"trial_type": "html-keyboard-response",
		"trial_index": 325,
		"time_elapsed": 825999,
		"internal_node_id": "0.0-3.0-1.264"
	},
	{
		"rt": 525,
		"stimulus": "<span style=\"font-size:30px; font-family: monospace\">de</span>",
		"response": " ",
		"trial": "exp-sent",
		"word": "de",
		"trial_type": "html-keyboard-response",
		"trial_index": 326,
		"time_elapsed": 826775,
		"internal_node_id": "0.0-3.0-1.265"
	},
	{
		"rt": 1144,
		"stimulus": "<span style=\"font-size:30px; font-family: monospace\">tomate</span>",
		"response": " ",
		"trial": "exp-sent",
		"word": "tomate",
		"trial_type": "html-keyboard-response",
		"trial_index": 327,
		"time_elapsed": 828175,
		"internal_node_id": "0.0-3.0-1.266"
	},
	{
		"rt": 2085,
		"stimulus": "<span style=\"font-size:30px; font-family: monospace\">misturado</span>",
		"response": " ",
		"trial": "exp-sent",
		"word": "misturado",
		"trial_type": "html-keyboard-response",
		"trial_index": 328,
		"time_elapsed": 830511,
		"internal_node_id": "0.0-3.0-1.267"
	},
	{
		"rt": 613,
		"stimulus": "<span style=\"font-size:30px; font-family: monospace\">na</span>",
		"response": " ",
		"trial": "exp-sent",
		"word": "na",
		"trial_type": "html-keyboard-response",
		"trial_index": 329,
		"time_elapsed": 831375,
		"internal_node_id": "0.0-3.0-1.268"
	},
	{
		"rt": 1045,
		"stimulus": "<span style=\"font-size:30px; font-family: monospace\">comida.</span>",
		"response": " ",
		"trial": "comp",
		"word": "comida.",
		"trial_type": "html-keyboard-response",
		"trial_index": 330,
		"time_elapsed": 832671,
		"internal_node_id": "0.0-3.0-1.269"
	},
	{
		"rt": 5085,
		"stimulus": "<span style=\"font-size:30px; font-family: monospace\">Ele gosta de tomate na comida?</span>",
		"response": "n",
		"question": "Ele gosta de tomate na comida?",
		"answer": "não",
		"trial": "comp",
		"trial_type": "html-keyboard-response",
		"trial_index": 331,
		"time_elapsed": 838008,
		"internal_node_id": "0.0-3.0-2.269-0.269",
		"accuracy": false
	},
	{
		"rt": null,
		"stimulus": "<span style= \"font-size:30px; font-family: monospace\">+</span>",
		"response": null,
		"trial_part": "fixation",
		"trial_type": "html-keyboard-response",
		"trial_index": 332,
		"time_elapsed": 839509,
		"internal_node_id": "0.0-3.0-0.270-0.270"
	},
	{
		"rt": 1678,
		"stimulus": "<span style=\"font-size:30px; font-family: monospace\">A</span>",
		"response": " ",
		"trial": "exp-sent",
		"word": "A",
		"trial_type": "html-keyboard-response",
		"trial_index": 333,
		"time_elapsed": 841439,
		"internal_node_id": "0.0-3.0-1.270"
	},
	{
		"rt": 981,
		"stimulus": "<span style=\"font-size:30px; font-family: monospace\">senhora</span>",
		"response": " ",
		"trial": "exp-sent",
		"word": "senhora",
		"trial_type": "html-keyboard-response",
		"trial_index": 334,
		"time_elapsed": 842671,
		"internal_node_id": "0.0-3.0-1.271"
	},
	{
		"rt": 1971,
		"stimulus": "<span style=\"font-size:30px; font-family: monospace\">cumprimentou</span>",
		"response": " ",
		"trial": "exp-sent",
		"word": "cumprimentou",
		"trial_type": "html-keyboard-response",
		"trial_index": 335,
		"time_elapsed": 844895,
		"internal_node_id": "0.0-3.0-1.272"
	},
	{
		"rt": 437,
		"stimulus": "<span style=\"font-size:30px; font-family: monospace\">o</span>",
		"response": " ",
		"trial": "exp-sent",
		"word": "o",
		"trial_type": "html-keyboard-response",
		"trial_index": 336,
		"time_elapsed": 845583,
		"internal_node_id": "0.0-3.0-1.273"
	},
	{
		"rt": 2773,
		"stimulus": "<span style=\"font-size:30px; font-family: monospace\">operador</span>",
		"response": " ",
		"trial": "exp-sent",
		"word": "operador",
		"trial_type": "html-keyboard-response",
		"trial_index": 337,
		"time_elapsed": 848608,
		"internal_node_id": "0.0-3.0-1.274"
	},
	{
		"rt": 484,
		"stimulus": "<span style=\"font-size:30px; font-family: monospace\">de</span>",
		"response": " ",
		"trial": "exp-sent",
		"word": "de",
		"trial_type": "html-keyboard-response",
		"trial_index": 338,
		"time_elapsed": 849343,
		"internal_node_id": "0.0-3.0-1.275"
	},
	{
		"rt": 3829,
		"stimulus": "<span style=\"font-size:30px; font-family: monospace\">caixa.</span>",
		"response": " ",
		"trial": "exp-sent",
		"word": "caixa.",
		"trial_type": "html-keyboard-response",
		"trial_index": 339,
		"time_elapsed": 853423,
		"internal_node_id": "0.0-3.0-1.276"
	},
	{
		"rt": null,
