"view_history","rt","trial_type","trial_index","time_elapsed","internal_node_id","stimulus","response","class","status","answer","correct","trial","letters"
"[{""page_index"":0,""viewing_time"":30150}]","30150","instructions","0","30150","0.0-0.0","","","","","","","",""
"","null","html-keyboard-response","1","30755","0.0-1.0-0.0","+","null","","","","","",""
"","4659","html-keyboard-response","2","35417","0.0-1.0-1.0","órgão","s","null","noncog","word","S","prac","null"
"","null","html-keyboard-response","3","35920","0.0-1.0-0.1","+","null","","","","","",""
"","1949","html-keyboard-response","4","37870","0.0-1.0-1.1","crante","s","null","noncog","pseudo","N","prac","null"
"","null","html-keyboard-response","5","38372","0.0-1.0-0.2","+","null","","","","","",""
"","8016","html-keyboard-response","6","46390","0.0-1.0-1.2","plibar","n","null","noncog","pseudo","N","prac","null"
"","null","html-keyboard-response","7","46892","0.0-1.0-0.3","+","null","","","","","",""
"","3072","html-keyboard-response","8","49966","0.0-1.0-1.3","chassi","s","null","cog","word","S","prac","null"
"","null","html-keyboard-response","9","50469","0.0-1.0-0.4","+","null","","","","","",""
"","11488","html-keyboard-response","10","61959","0.0-1.0-1.4","oliva","n","null","cog","word","S","prac","null"
"","null","html-keyboard-response","11","62461","0.0-1.0-0.5","+","null","","","","","",""
"","2143","html-keyboard-response","12","64606","0.0-1.0-1.5","calmaria","s","null","noncog","word","S","prac","null"
"","null","html-keyboard-response","13","65109","0.0-1.0-0.6","+","null","","","","","",""
"","4791","html-keyboard-response","14","69902","0.0-1.0-1.6","daja","n","null","noncog","pseudo","N","prac","null"
"[{""page_index"":0,""viewing_time"":36382}]","36382","instructions","15","106286","0.0-2.0","","","","","","","",""
"","null","html-keyboard-response","16","106889","0.0-3.0-0.0","+","null","","","","","",""
"","5589","html-keyboard-response","17","112479","0.0-3.0-1.0","motre","n","null","noncog","pseudo","N","exp","null"
"","null","html-keyboard-response","18","112987","0.0-3.0-0.1","+","null","","","","","",""
"","5732","html-keyboard-response","19","118720","0.0-3.0-1.1","suipestar","n","null","noncog","pseudo","N","exp","null"
"","null","html-keyboard-response","20","119221","0.0-3.0-0.2","+","null","","","","","",""
"","2328","html-keyboard-response","21","121551","0.0-3.0-1.2","delirar","s","v","noncog","word","S","exp","7"
"","null","html-keyboard-response","22","122060","0.0-3.0-0.3","+","null","","","","","",""
"","2593","html-keyboard-response","23","124655","0.0-3.0-1.3","protas","s","null","noncog","pseudo","N","exp","null"
"","null","html-keyboard-response","24","125157","0.0-3.0-0.4","+","null","","","","","",""
"","1457","html-keyboard-response","25","126615","0.0-3.0-1.4","grave","s","a","cog","word","S","exp","5"
"","null","html-keyboard-response","26","127121","0.0-3.0-0.5","+","null","","","","","",""
"","1365","html-keyboard-response","27","128487","0.0-3.0-1.5","trair","s","v","cog","word","S","exp","5"
"","null","html-keyboard-response","28","128988","0.0-3.0-0.6","+","null","","","","","",""
"","1665","html-keyboard-response","29","130655","0.0-3.0-1.6","morno","s","a","noncog","word","S","exp","5"
"","null","html-keyboard-response","30","131157","0.0-3.0-0.7","+","null","","","","","",""
"","1544","html-keyboard-response","31","132703","0.0-3.0-1.7","prantal","s","null","noncog","pseudo","N","exp","null"
"","null","html-keyboard-response","32","133205","0.0-3.0-0.8","+","null","","","","","",""
"","1232","html-keyboard-response","33","134439","0.0-3.0-1.8","glória","s","n","cog","word","S","exp","6"
"","null","html-keyboard-response","34","134955","0.0-3.0-0.9","+","null","","","","","",""
"","2026","html-keyboard-response","35","136983","0.0-3.0-1.9","sintonizar","s","v","noncog","word","S","exp","10"
"","null","html-keyboard-response","36","137484","0.0-3.0-0.10","+","null","","","","","",""
"","801","html-keyboard-response","37","138287","0.0-3.0-1.10","azul","s","n","noncog","word","S","exp","4"
"","null","html-keyboard-response","38","138790","0.0-3.0-0.11","+","null","","","","","",""
"","3983","html-keyboard-response","39","142775","0.0-3.0-1.11","manais","s","null","noncog","pseudo","N","exp","null"
"","null","html-keyboard-response","40","143277","0.0-3.0-0.12","+","null","","","","","",""
"","1952","html-keyboard-response","41","145231","0.0-3.0-1.12","comércio","s","n","noncog","word","S","exp","8"
"","null","html-keyboard-response","42","145733","0.0-3.0-0.13","+","null","","","","","",""
"","4016","html-keyboard-response","43","149751","0.0-3.0-1.13","enedro","n","null","noncog","pseudo","N","exp","null"
"","null","html-keyboard-response","44","150253","0.0-3.0-0.14","+","null","","","","","",""
"","1137","html-keyboard-response","45","151391","0.0-3.0-1.14","fogão","s","n","noncog","word","S","exp","5"
"","null","html-keyboard-response","46","151893","0.0-3.0-0.15","+","null","","","","","",""
"","1313","html-keyboard-response","47","153207","0.0-3.0-1.15","pimada","s","null","noncog","pseudo","N","exp","null"
"","null","html-keyboard-response","48","153709","0.0-3.0-0.16","+","null","","","","","",""
"","689","html-keyboard-response","49","154399","0.0-3.0-1.16","mal","s","a","cog","word","S","exp","3"
"","null","html-keyboard-response","50","154902","0.0-3.0-0.17","+","null","","","","","",""
"","1487","html-keyboard-response","51","156391","0.0-3.0-1.17","espinho","s","n","noncog","word","S","exp","7"
"","null","html-keyboard-response","52","156893","0.0-3.0-0.18","+","null","","","","","",""
"","2497","html-keyboard-response","53","159391","0.0-3.0-1.18","faínas","s","null","noncog","pseudo","N","exp","null"
"","null","html-keyboard-response","54","159894","0.0-3.0-0.19","+","null","","","","","",""
"","4256","html-keyboard-response","55","164152","0.0-3.0-1.19","costra","s","null","noncog","pseudo","N","exp","null"
"","null","html-keyboard-response","56","164667","0.0-3.0-0.20","+","null","","","","","",""
"","2227","html-keyboard-response","57","166895","0.0-3.0-1.20","francês","s","a","cog","word","S","exp","7"
"","null","html-keyboard-response","58","167397","0.0-3.0-0.21","+","null","","","","","",""
"","3264","html-keyboard-response","59","170663","0.0-3.0-1.21","ênclio","s","null","noncog","pseudo","N","exp","null"
"","null","html-keyboard-response","60","171165","0.0-3.0-0.22","+","null","","","","","",""
"","1105","html-keyboard-response","61","172271","0.0-3.0-1.22","jantar","s","v","noncog","word","S","exp","6"
"","null","html-keyboard-response","62","172773","0.0-3.0-0.23","+","null","","","","","",""
"","4274","html-keyboard-response","63","177047","0.0-3.0-1.23","alpica","s","null","noncog","pseudo","N","exp","null"
"","null","html-keyboard-response","64","177550","0.0-3.0-0.24","+","null","","","","","",""
"","6184","html-keyboard-response","65","183735","0.0-3.0-1.24","burtos","s","null","noncog","pseudo","N","exp","null"
"","null","html-keyboard-response","66","184237","0.0-3.0-0.25","+","null","","","","","",""
"","1585","html-keyboard-response","67","185823","0.0-3.0-1.25","sábio","s","n","noncog","word","S","exp","5"
"","null","html-keyboard-response","68","186325","0.0-3.0-0.26","+","null","","","","","",""
"","1041","html-keyboard-response","69","187367","0.0-3.0-1.26","civil","s","a","cog","word","S","exp","5"
"","null","html-keyboard-response","70","187869","0.0-3.0-0.27","+","null","","","","","",""
"","1504","html-keyboard-response","71","189375","0.0-3.0-1.27","nacional","s","a","cog","word","S","exp","8"
"","null","html-keyboard-response","72","189877","0.0-3.0-0.28","+","null","","","","","",""
"","1521","html-keyboard-response","73","191399","0.0-3.0-1.28","sustentar","s","v","noncog","word","S","exp","9"
"","null","html-keyboard-response","74","191901","0.0-3.0-0.29","+","null","","","","","",""
"","2049","html-keyboard-response","75","193951","0.0-3.0-1.29","macras","s","null","noncog","pseudo","N","exp","null"
"","null","html-keyboard-response","76","194466","0.0-3.0-0.30","+","null","","","","","",""
"","6740","html-keyboard-response","77","201207","0.0-3.0-1.30","uchães","n","null","noncog","pseudo","N","exp","null"
"","null","html-keyboard-response","78","201709","0.0-3.0-0.31","+","null","","","","","",""
"","1097","html-keyboard-response","79","202807","0.0-3.0-1.31","socorro","s","n","noncog","word","S","exp","7"
"","null","html-keyboard-response","80","203309","0.0-3.0-0.32","+","null","","","","","",""
"","2649","html-keyboard-response","81","205959","0.0-3.0-1.32","atrasar","s","v","noncog","word","S","exp","7"
"","null","html-keyboard-response","82","206475","0.0-3.0-0.33","+","null","","","","","",""
"","4330","html-keyboard-response","83","210807","0.0-3.0-1.33","dipata","n","null","noncog","pseudo","N","exp","null"
"","null","html-keyboard-response","84","211308","0.0-3.0-0.34","+","null","","","","","",""
"","2050","html-keyboard-response","85","213359","0.0-3.0-1.34","independente","s","a","noncog","word","S","exp","12"
"","null","html-keyboard-response","86","213861","0.0-3.0-0.35","+","null","","","","","",""
"","4161","html-keyboard-response","87","218023","0.0-3.0-1.35","bagunceira","s","a","noncog","word","S","exp","10"
"","null","html-keyboard-response","88","218525","0.0-3.0-0.36","+","null","","","","","",""
"","896","html-keyboard-response","89","219423","0.0-3.0-1.36","carro","s","n","noncog","word","S","exp","5"
"","null","html-keyboard-response","90","219924","0.0-3.0-0.37","+","null","","","","","",""
"","1353","html-keyboard-response","91","221279","0.0-3.0-1.37","drama","s","n","cog","word","S","exp","5"
"","null","html-keyboard-response","92","221780","0.0-3.0-0.38","+","null","","","","","",""
"","1049","html-keyboard-response","93","222831","0.0-3.0-1.38","raspar","s","v","noncog","word","S","exp","6"
"","null","html-keyboard-response","94","223332","0.0-3.0-0.39","+","null","","","","","",""
"","1866","html-keyboard-response","95","225199","0.0-3.0-1.39","sanque","s","null","noncog","pseudo","N","exp","null"
"","null","html-keyboard-response","96","225702","0.0-3.0-0.40","+","null","","","","","",""
"","5023","html-keyboard-response","97","230726","0.0-3.0-1.40","verde","s","a","noncog","word","S","exp","5"
"","null","html-keyboard-response","98","231228","0.0-3.0-0.41","+","null","","","","","",""
"","1673","html-keyboard-response","99","232902","0.0-3.0-1.41","cirado","s","null","noncog","pseudo","N","exp","null"
"","null","html-keyboard-response","100","233404","0.0-3.0-0.42","+","null","","","","","",""
"","5345","html-keyboard-response","101","238751","0.0-3.0-1.42","nevela","s","null","noncog","pseudo","N","exp","null"
"","null","html-keyboard-response","102","239253","0.0-3.0-0.43","+","null","","","","","",""
"","2345","html-keyboard-response","103","241598","0.0-3.0-1.43","dia","s","n","noncog","word","S","exp","3"
"","null","html-keyboard-response","104","242105","0.0-3.0-0.44","+","null","","","","","",""
"","1052","html-keyboard-response","105","243158","0.0-3.0-1.44","barco","s","n","cog","word","S","exp","5"
"","null","html-keyboard-response","106","243660","0.0-3.0-0.45","+","null","","","","","",""
"","2169","html-keyboard-response","107","245830","0.0-3.0-1.45","filosofia","s","n","cog","word","S","exp","9"
"","null","html-keyboard-response","108","246332","0.0-3.0-0.46","+","null","","","","","",""
"","5626","html-keyboard-response","109","251959","0.0-3.0-1.46","rovaz","n","null","noncog","pseudo","N","exp","null"
"","null","html-keyboard-response","110","252461","0.0-3.0-0.47","+","null","","","","","",""
"","1024","html-keyboard-response","111","253486","0.0-3.0-1.47","ideisa","s","null","noncog","pseudo","N","exp","null"
"","null","html-keyboard-response","112","253988","0.0-3.0-0.48","+","null","","","","","",""
"","4041","html-keyboard-response","113","258030","0.0-3.0-1.48","franda","s","null","noncog","pseudo","N","exp","null"
"","null","html-keyboard-response","114","258534","0.0-3.0-0.49","+","null","","","","","",""
"","1527","html-keyboard-response","115","260062","0.0-3.0-1.49","memória","s","n","cog","word","S","exp","7"
"","null","html-keyboard-response","116","260565","0.0-3.0-0.50","+","null","","","","","",""
"","5953","html-keyboard-response","117","266519","0.0-3.0-1.50","casuas","s","null","noncog","pseudo","N","exp","null"
"","null","html-keyboard-response","118","267030","0.0-3.0-0.51","+","null","","","","","",""
"","2351","html-keyboard-response","119","269382","0.0-3.0-1.51","usnado","s","null","noncog","pseudo","N","exp","null"
"","null","html-keyboard-response","120","269885","0.0-3.0-0.52","+","null","","","","","",""
"","3344","html-keyboard-response","121","273230","0.0-3.0-1.52","gertas","s","null","noncog","pseudo","N","exp","null"
"","null","html-keyboard-response","122","273733","0.0-3.0-0.53","+","null","","","","","",""
"","1881","html-keyboard-response","123","275614","0.0-3.0-1.53","cascata","s","n","noncog","word","S","exp","7"
"","null","html-keyboard-response","124","276117","0.0-3.0-0.54","+","null","","","","","",""
"","1593","html-keyboard-response","125","277711","0.0-3.0-1.54","traduzir","s","v","cog","word","S","exp","8"
"","null","html-keyboard-response","126","278213","0.0-3.0-0.55","+","null","","","","","",""
"","2321","html-keyboard-response","127","280535","0.0-3.0-1.55","perbas","s","null","noncog","pseudo","N","exp","null"
"","null","html-keyboard-response","128","281037","0.0-3.0-0.56","+","null","","","","","",""
"","2864","html-keyboard-response","129","283903","0.0-3.0-1.56","dencosto","s","null","noncog","pseudo","N","exp","null"
"","null","html-keyboard-response","130","284405","0.0-3.0-0.57","+","null","","","","","",""
"","937","html-keyboard-response","131","285343","0.0-3.0-1.57","papai","s","n","cog","word","S","exp","5"
"","null","html-keyboard-response","132","285848","0.0-3.0-0.58","+","null","","","","","",""
"","2758","html-keyboard-response","133","288607","0.0-3.0-1.58","arranjar","s","v","cog","word","S","exp","8"
"","null","html-keyboard-response","134","289109","0.0-3.0-0.59","+","null","","","","","",""
"","2128","html-keyboard-response","135","291239","0.0-3.0-1.59","cenada","s","null","noncog","pseudo","N","exp","null"
"","null","html-keyboard-response","136","291740","0.0-3.0-0.60","+","null","","","","","",""
"","1753","html-keyboard-response","137","293495","0.0-3.0-1.60","montanha","s","n","cog","word","S","exp","8"
"","null","html-keyboard-response","138","293996","0.0-3.0-0.61","+","null","","","","","",""
"","1601","html-keyboard-response","139","295599","0.0-3.0-1.61","bandido","s","n","cog","word","S","exp","7"
"","null","html-keyboard-response","140","296100","0.0-3.0-0.62","+","null","","","","","",""
"","1569","html-keyboard-response","141","297671","0.0-3.0-1.62","nervoso","s","a","noncog","word","S","exp","7"
"","null","html-keyboard-response","142","298173","0.0-3.0-0.63","+","null","","","","","",""
"","1009","html-keyboard-response","143","299183","0.0-3.0-1.63","grátis","s","a","cog","word","S","exp","6"
"","null","html-keyboard-response","144","299685","0.0-3.0-0.64","+","null","","","","","",""
"","1240","html-keyboard-response","145","300926","0.0-3.0-1.64","esfoce","s","null","noncog","pseudo","N","exp","null"
"","null","html-keyboard-response","146","301428","0.0-3.0-0.65","+","null","","","","","",""
"","1170","html-keyboard-response","147","302599","0.0-3.0-1.65","uçar","s","null","noncog","pseudo","N","exp","null"
"","null","html-keyboard-response","148","303100","0.0-3.0-0.66","+","null","","","","","",""
"","1337","html-keyboard-response","149","304439","0.0-3.0-1.66","refletir","s","v","cog","word","S","exp","8"
"","null","html-keyboard-response","150","304940","0.0-3.0-0.67","+","null","","","","","",""
"","785","html-keyboard-response","151","305727","0.0-3.0-1.67","livro","s","n","cog","word","S","exp","5"
"","null","html-keyboard-response","152","306228","0.0-3.0-0.68","+","null","","","","","",""
"","2769","html-keyboard-response","153","308999","0.0-3.0-1.68","destino","s","n","cog","word","S","exp","7"
"","null","html-keyboard-response","154","309501","0.0-3.0-0.69","+","null","","","","","",""
"","2032","html-keyboard-response","155","311535","0.0-3.0-1.69","ilhure","s","null","noncog","pseudo","N","exp","null"
"","null","html-keyboard-response","156","312037","0.0-3.0-0.70","+","null","","","","","",""
"","3624","html-keyboard-response","157","315663","0.0-3.0-1.70","ofreta","n","null","noncog","pseudo","N","exp","null"
"","null","html-keyboard-response","158","316164","0.0-3.0-0.71","+","null","","","","","",""
"","2201","html-keyboard-response","159","318367","0.0-3.0-1.71","motros","n","null","noncog","pseudo","N","exp","null"
"","null","html-keyboard-response","160","318868","0.0-3.0-0.72","+","null","","","","","",""
"","1257","html-keyboard-response","161","320127","0.0-3.0-1.72","pulmão","s","n","noncog","word","S","exp","6"
"","null","html-keyboard-response","162","320629","0.0-3.0-0.73","+","null","","","","","",""
"","1673","html-keyboard-response","163","322303","0.0-3.0-1.73","cristal","s","n","cog","word","S","exp","7"
"","null","html-keyboard-response","164","322805","0.0-3.0-0.74","+","null","","","","","",""
"","3401","html-keyboard-response","165","326207","0.0-3.0-1.74","beima","n","null","noncog","pseudo","N","exp","null"
"","null","html-keyboard-response","166","326709","0.0-3.0-0.75","+","null","","","","","",""
"","1600","html-keyboard-response","167","328311","0.0-3.0-1.75","convidado","s","n","noncog","word","S","exp","9"
"","null","html-keyboard-response","168","328812","0.0-3.0-0.76","+","null","","","","","",""
"","4738","html-keyboard-response","169","333551","0.0-3.0-1.76","resmungar","s","v","noncog","word","S","exp","9"
"","null","html-keyboard-response","170","334053","0.0-3.0-0.77","+","null","","","","","",""
"","2169","html-keyboard-response","171","336223","0.0-3.0-1.77","fusbão","n","null","noncog","pseudo","N","exp","null"
"","null","html-keyboard-response","172","336724","0.0-3.0-0.78","+","null","","","","","",""
"","2217","html-keyboard-response","173","338942","0.0-3.0-1.78","cápsula","s","n","noncog","word","S","exp","7"
"","null","html-keyboard-response","174","339444","0.0-3.0-0.79","+","null","","","","","",""
"","5106","html-keyboard-response","175","344551","0.0-3.0-1.79","berquesa","s","null","noncog","pseudo","N","exp","null"
"","null","html-keyboard-response","176","345052","0.0-3.0-0.80","+","null","","","","","",""
"","3744","html-keyboard-response","177","348798","0.0-3.0-1.80","abieso","s","null","noncog","pseudo","N","exp","null"
"","null","html-keyboard-response","178","349299","0.0-3.0-0.81","+","null","","","","","",""
"","4241","html-keyboard-response","179","353542","0.0-3.0-1.81","pantufa","s","n","cog","word","S","exp","7"
"","null","html-keyboard-response","180","354043","0.0-3.0-0.82","+","null","","","","","",""
"","1050","html-keyboard-response","181","355095","0.0-3.0-1.82","filme","s","n","cog","word","S","exp","5"
"","null","html-keyboard-response","182","355596","0.0-3.0-0.83","+","null","","","","","",""
"","2425","html-keyboard-response","183","358022","0.0-3.0-1.83","taberia","s","null","noncog","pseudo","N","exp","null"
"","null","html-keyboard-response","184","358524","0.0-3.0-0.84","+","null","","","","","",""
"","2609","html-keyboard-response","185","361134","0.0-3.0-1.84","tatear","s","v","cog","word","S","exp","6"
"","null","html-keyboard-response","186","361635","0.0-3.0-0.85","+","null","","","","","",""
"","1857","html-keyboard-response","187","363494","0.0-3.0-1.85","farcas","s","null","noncog","pseudo","N","exp","null"
"","null","html-keyboard-response","188","363996","0.0-3.0-0.86","+","null","","","","","",""
"","2681","html-keyboard-response","189","366678","0.0-3.0-1.86","usfiga","s","null","noncog","pseudo","N","exp","null"
"","null","html-keyboard-response","190","367185","0.0-3.0-0.87","+","null","","","","","",""
"","827","html-keyboard-response","191","368014","0.0-3.0-1.87","tênis","s","n","cog","word","S","exp","5"
"","null","html-keyboard-response","192","368516","0.0-3.0-0.88","+","null","","","","","",""
"","2177","html-keyboard-response","193","370694","0.0-3.0-1.88","orupas","s","null","noncog","pseudo","N","exp","null"
"","null","html-keyboard-response","194","371196","0.0-3.0-0.89","+","null","","","","","",""
"","7393","html-keyboard-response","195","378590","0.0-3.0-1.89","promeção","n","null","noncog","pseudo","N","exp","null"
"","null","html-keyboard-response","196","379092","0.0-3.0-0.90","+","null","","","","","",""
"","2017","html-keyboard-response","197","381110","0.0-3.0-1.90","multiplicar","s","v","cog","word","S","exp","11"
"","null","html-keyboard-response","198","381624","0.0-3.0-0.91","+","null","","","","","",""
"","1700","html-keyboard-response","199","383326","0.0-3.0-1.91","chorão","s","a","noncog","word","S","exp","6"
"","null","html-keyboard-response","200","383828","0.0-3.0-0.92","+","null","","","","","",""
"","1768","html-keyboard-response","201","385598","0.0-3.0-1.92","adoçar","s","v","noncog","word","S","exp","6"
"","null","html-keyboard-response","202","386100","0.0-3.0-0.93","+","null","","","","","",""
"","3986","html-keyboard-response","203","390086","0.0-3.0-1.93","undivídio","s","null","noncog","pseudo","N","exp","null"
"","null","html-keyboard-response","204","390589","0.0-3.0-0.94","+","null","","","","","",""
"","1008","html-keyboard-response","205","391598","0.0-3.0-1.94","fratos","s","null","noncog","pseudo","N","exp","null"
"","null","html-keyboard-response","206","392100","0.0-3.0-0.95","+","null","","","","","",""
"","1608","html-keyboard-response","207","393710","0.0-3.0-1.95","trabalhar","s","v","noncog","word","S","exp","9"
"","null","html-keyboard-response","208","394212","0.0-3.0-0.96","+","null","","","","","",""
"","1257","html-keyboard-response","209","395470","0.0-3.0-1.96","vitrive","s","null","noncog","pseudo","N","exp","null"
"","null","html-keyboard-response","210","395973","0.0-3.0-0.97","+","null","","","","","",""
"","1239","html-keyboard-response","211","397214","0.0-3.0-1.97","açúcar","s","n","noncog","word","S","exp","6"
"","null","html-keyboard-response","212","397716","0.0-3.0-0.98","+","null","","","","","",""
"","3073","html-keyboard-response","213","400791","0.0-3.0-1.98","afual","s","null","noncog","pseudo","N","exp","null"
"","null","html-keyboard-response","214","401294","0.0-3.0-0.99","+","null","","","","","",""
"","2383","html-keyboard-response","215","403678","0.0-3.0-1.99","quenzina","s","null","noncog","pseudo","N","exp","null"
"","null","html-keyboard-response","216","404180","0.0-3.0-0.100","+","null","","","","","",""
"","617","html-keyboard-response","217","404799","0.0-3.0-1.100","país","s","n","noncog","word","S","exp","4"
"","null","html-keyboard-response","218","405301","0.0-3.0-0.101","+","null","","","","","",""
"","1432","html-keyboard-response","219","406734","0.0-3.0-1.101","árovre","s","null","noncog","pseudo","N","exp","null"
"","null","html-keyboard-response","220","407237","0.0-3.0-0.102","+","null","","","","","",""
"","2248","html-keyboard-response","221","409486","0.0-3.0-1.102","cinema","s","n","cog","word","S","exp","6"
"","null","html-keyboard-response","222","409988","0.0-3.0-0.103","+","null","","","","","",""
"","5114","html-keyboard-response","223","415103","0.0-3.0-1.103","mabras","s","null","noncog","pseudo","N","exp","null"
"","null","html-keyboard-response","224","415604","0.0-3.0-0.104","+","null","","","","","",""
"","2409","html-keyboard-response","225","418014","0.0-3.0-1.104","instruído","s","a","noncog","word","S","exp","9"
"","null","html-keyboard-response","226","418521","0.0-3.0-0.105","+","null","","","","","",""
"","3740","html-keyboard-response","227","422262","0.0-3.0-1.105","planalto","s","n","cog","word","S","exp","8"
"","null","html-keyboard-response","228","422765","0.0-3.0-0.106","+","null","","","","","",""
"","592","html-keyboard-response","229","423358","0.0-3.0-1.106","fofo","s","a","noncog","word","S","exp","4"
"","null","html-keyboard-response","230","423861","0.0-3.0-0.107","+","null","","","","","",""
"","5160","html-keyboard-response","231","429023","0.0-3.0-1.107","oecano","n","null","noncog","pseudo","N","exp","null"
"","null","html-keyboard-response","232","429524","0.0-3.0-0.108","+","null","","","","","",""
"","3145","html-keyboard-response","233","432670","0.0-3.0-1.108","lorfaz","n","null","noncog","pseudo","N","exp","null"
"","null","html-keyboard-response","234","433172","0.0-3.0-0.109","+","null","","","","","",""
"","2961","html-keyboard-response","235","436134","0.0-3.0-1.109","distraído","s","a","cog","word","S","exp","9"
"","null","html-keyboard-response","236","436636","0.0-3.0-0.110","+","null","","","","","",""
"","2442","html-keyboard-response","237","439079","0.0-3.0-1.110","alfabeto","s","n","cog","word","S","exp","8"
"","null","html-keyboard-response","238","439580","0.0-3.0-0.111","+","null","","","","","",""
"","4401","html-keyboard-response","239","443982","0.0-3.0-1.111","revista","s","n","cog","word","S","exp","7"
"","null","html-keyboard-response","240","444484","0.0-3.0-0.112","+","null","","","","","",""
"","5144","html-keyboard-response","241","449630","0.0-3.0-1.112","lagoa","s","n","cog","word","S","exp","5"
"","null","html-keyboard-response","242","450136","0.0-3.0-0.113","+","null","","","","","",""
"","8909","html-keyboard-response","243","459046","0.0-3.0-1.113","bibarconato","s","null","noncog","pseudo","N","exp","null"
"","null","html-keyboard-response","244","459548","0.0-3.0-0.114","+","null","","","","","",""
"","2289","html-keyboard-response","245","461838","0.0-3.0-1.114","euorpa","s","null","noncog","pseudo","N","exp","null"
"","null","html-keyboard-response","246","462340","0.0-3.0-0.115","+","null","","","","","",""
"","2465","html-keyboard-response","247","464806","0.0-3.0-1.115","tronca","s","null","noncog","pseudo","N","exp","null"
"","null","html-keyboard-response","248","465308","0.0-3.0-0.116","+","null","","","","","",""
"","1504","html-keyboard-response","249","466814","0.0-3.0-1.116","mania","s","n","cog","word","S","exp","5"
"","null","html-keyboard-response","250","467315","0.0-3.0-0.117","+","null","","","","","",""
"","2329","html-keyboard-response","251","469646","0.0-3.0-1.117","enxerido","s","a","noncog","word","S","exp","8"
"","null","html-keyboard-response","252","470147","0.0-3.0-0.118","+","null","","","","","",""
"","1906","html-keyboard-response","253","472054","0.0-3.0-1.118","trenos","s","null","noncog","pseudo","N","exp","null"
"","null","html-keyboard-response","254","472556","0.0-3.0-0.119","+","null","","","","","",""
"","1384","html-keyboard-response","255","473942","0.0-3.0-1.119","nivelado","s","a","cog","word","S","exp","8"
"","null","html-keyboard-response","256","474444","0.0-3.0-0.120","+","null","","","","","",""
"","1089","html-keyboard-response","257","475534","0.0-3.0-1.120","areia","s","n","noncog","word","S","exp","5"
"","null","html-keyboard-response","258","476036","0.0-3.0-0.121","+","null","","","","","",""
"","4233","html-keyboard-response","259","480270","0.0-3.0-1.121","ronronar","s","v","cog","word","S","exp","8"
"","null","html-keyboard-response","260","480772","0.0-3.0-0.122","+","null","","","","","",""
"","1489","html-keyboard-response","261","482262","0.0-3.0-1.122","prever","s","v","cog","word","S","exp","6"
"","null","html-keyboard-response","262","482764","0.0-3.0-0.123","+","null","","","","","",""
"","1033","html-keyboard-response","263","483798","0.0-3.0-1.123","viver","s","v","cog","word","S","exp","5"
"","null","html-keyboard-response","264","484299","0.0-3.0-0.124","+","null","","","","","",""
"","1593","html-keyboard-response","265","485894","0.0-3.0-1.124","verdade","s","n","cog","word","S","exp","7"
"","null","html-keyboard-response","266","486395","0.0-3.0-0.125","+","null","","","","","",""
"","3985","html-keyboard-response","267","490382","0.0-3.0-1.125","ensuas","n","null","noncog","pseudo","N","exp","null"
"","null","html-keyboard-response","268","490883","0.0-3.0-0.126","+","null","","","","","",""
"","1714","html-keyboard-response","269","492598","0.0-3.0-1.126","promessa","s","n","noncog","word","S","exp","8"
"","null","html-keyboard-response","270","493102","0.0-3.0-0.127","+","null","","","","","",""
"","3894","html-keyboard-response","271","496998","0.0-3.0-1.127","revear","n","null","noncog","pseudo","N","exp","null"
"","null","html-keyboard-response","272","497505","0.0-3.0-0.128","+","null","","","","","",""
"","2100","html-keyboard-response","273","499606","0.0-3.0-1.128","risbos","n","null","noncog","pseudo","N","exp","null"
"","null","html-keyboard-response","274","500108","0.0-3.0-0.129","+","null","","","","","",""
"","1984","html-keyboard-response","275","502094","0.0-3.0-1.129","manfa","n","null","noncog","pseudo","N","exp","null"
"","null","html-keyboard-response","276","502595","0.0-3.0-0.130","+","null","","","","","",""
"","3290","html-keyboard-response","277","505886","0.0-3.0-1.130","braras","s","null","noncog","pseudo","N","exp","null"
"","null","html-keyboard-response","278","506388","0.0-3.0-0.131","+","null","","","","","",""
"","4729","html-keyboard-response","279","511118","0.0-3.0-1.131","selir","s","null","noncog","pseudo","N","exp","null"
"","null","html-keyboard-response","280","511620","0.0-3.0-0.132","+","null","","","","","",""
"","4761","html-keyboard-response","281","516382","0.0-3.0-1.132","garastia","s","null","noncog","pseudo","N","exp","null"
"","null","html-keyboard-response","282","516884","0.0-3.0-0.133","+","null","","","","","",""
"","2504","html-keyboard-response","283","519390","0.0-3.0-1.133","atapdar","s","null","noncog","pseudo","N","exp","null"
"","null","html-keyboard-response","284","519891","0.0-3.0-0.134","+","null","","","","","",""
"","1761","html-keyboard-response","285","521654","0.0-3.0-1.134","podilo","s","null","noncog","pseudo","N","exp","null"
"","null","html-keyboard-response","286","522157","0.0-3.0-0.135","+","null","","","","","",""
"","2201","html-keyboard-response","287","524358","0.0-3.0-1.135","bancada","s","n","noncog","word","S","exp","7"
"","null","html-keyboard-response","288","524861","0.0-3.0-0.136","+","null","","","","","",""
"","3032","html-keyboard-response","289","527895","0.0-3.0-1.136","prenas","s","null","noncog","pseudo","N","exp","null"
"","null","html-keyboard-response","290","528396","0.0-3.0-0.137","+","null","","","","","",""
"","1289","html-keyboard-response","291","529686","0.0-3.0-1.137","perdão","s","n","noncog","word","S","exp","6"
"","null","html-keyboard-response","292","530188","0.0-3.0-0.138","+","null","","","","","",""
"","1969","html-keyboard-response","293","532158","0.0-3.0-1.138","cravo","s","n","noncog","word","S","exp","5"
"","null","html-keyboard-response","294","532660","0.0-3.0-0.139","+","null","","","","","",""
"","5864","html-keyboard-response","295","538527","0.0-3.0-1.139","morija","s","null","noncog","pseudo","N","exp","null"
"","null","html-keyboard-response","296","539029","0.0-3.0-0.140","+","null","","","","","",""
"","4369","html-keyboard-response","297","543399","0.0-3.0-1.140","matinal","s","a","cog","word","S","exp","7"
"","null","html-keyboard-response","298","543905","0.0-3.0-0.141","+","null","","","","","",""
"","4772","html-keyboard-response","299","548679","0.0-3.0-1.141","aparme","s","null","noncog","pseudo","N","exp","null"
"","null","html-keyboard-response","300","549186","0.0-3.0-0.142","+","null","","","","","",""
"","3387","html-keyboard-response","301","552574","0.0-3.0-1.142","bachir","s","null","noncog","pseudo","N","exp","null"
"","null","html-keyboard-response","302","553076","0.0-3.0-0.143","+","null","","","","","",""
"","2456","html-keyboard-response","303","555534","0.0-3.0-1.143","gordo","s","a","noncog","word","S","exp","5"
"","null","html-keyboard-response","304","556036","0.0-3.0-0.144","+","null","","","","","",""
"","1073","html-keyboard-response","305","557110","0.0-3.0-1.144","tinta","s","n","cog","word","S","exp","5"
"","null","html-keyboard-response","306","557613","0.0-3.0-0.145","+","null","","","","","",""
"","1649","html-keyboard-response","307","559263","0.0-3.0-1.145","carregar","s","v","noncog","word","S","exp","8"
"","null","html-keyboard-response","308","559764","0.0-3.0-0.146","+","null","","","","","",""
"","1344","html-keyboard-response","309","561110","0.0-3.0-1.146","apontar","s","v","noncog","word","S","exp","7"
"","null","html-keyboard-response","310","561611","0.0-3.0-0.147","+","null","","","","","",""
"","2858","html-keyboard-response","311","564470","0.0-3.0-1.147","deselegante","s","a","noncog","word","S","exp","11"
"","null","html-keyboard-response","312","564972","0.0-3.0-0.148","+","null","","","","","",""
"","1505","html-keyboard-response","313","566478","0.0-3.0-1.148","dilheira","s","null","noncog","pseudo","N","exp","null"
"","null","html-keyboard-response","314","566979","0.0-3.0-0.149","+","null","","","","","",""
"","1513","html-keyboard-response","315","568494","0.0-3.0-1.149","temperar","s","v","noncog","word","S","exp","8"
"","null","html-keyboard-response","316","568996","0.0-3.0-0.150","+","null","","","","","",""
"","2578","html-keyboard-response","317","571575","0.0-3.0-1.150","bracos","s","null","noncog","pseudo","N","exp","null"
"","null","html-keyboard-response","318","572076","0.0-3.0-0.151","+","null","","","","","",""
"","1577","html-keyboard-response","319","573654","0.0-3.0-1.151","medalha","s","n","cog","word","S","exp","7"
"","null","html-keyboard-response","320","574157","0.0-3.0-0.152","+","null","","","","","",""
"","4184","html-keyboard-response","321","578342","0.0-3.0-1.152","senareta","s","null","noncog","pseudo","N","exp","null"
"","null","html-keyboard-response","322","578844","0.0-3.0-0.153","+","null","","","","","",""
"","7529","html-keyboard-response","323","586375","0.0-3.0-1.153","aivões","n","null","noncog","pseudo","N","exp","null"
"","null","html-keyboard-response","324","586876","0.0-3.0-0.154","+","null","","","","","",""
"","3265","html-keyboard-response","325","590142","0.0-3.0-1.154","terdia","s","null","noncog","pseudo","N","exp","null"
"","null","html-keyboard-response","326","590644","0.0-3.0-0.155","+","null","","","","","",""
"","2841","html-keyboard-response","327","593486","0.0-3.0-1.155","extravagante","s","a","cog","word","S","exp","12"
"","null","html-keyboard-response","328","593988","0.0-3.0-0.156","+","null","","","","","",""
"","2570","html-keyboard-response","329","596559","0.0-3.0-1.156","incomodar","s","v","noncog","word","S","exp","9"
"","null","html-keyboard-response","330","597066","0.0-3.0-0.157","+","null","","","","","",""
"","2571","html-keyboard-response","331","599638","0.0-3.0-1.157","salpicado","s","a","noncog","word","S","exp","9"
"","null","html-keyboard-response","332","600140","0.0-3.0-0.158","+","null","","","","","",""
"","3977","html-keyboard-response","333","604118","0.0-3.0-1.158","dacada","n","null","noncog","pseudo","N","exp","null"
"","null","html-keyboard-response","334","604622","0.0-3.0-0.159","+","null","","","","","",""
"","1703","html-keyboard-response","335","606326","0.0-3.0-1.159","lagras","s","null","noncog","pseudo","N","exp","null"
"","null","html-keyboard-response","336","606828","0.0-3.0-0.160","+","null","","","","","",""
"","1249","html-keyboard-response","337","608079","0.0-3.0-1.160","reduzir","s","v","cog","word","S","exp","7"
"","null","html-keyboard-response","338","608581","0.0-3.0-0.161","+","null","","","","","",""
"","7016","html-keyboard-response","339","615598","0.0-3.0-1.161","aletiê","n","null","noncog","pseudo","N","exp","null"
"","null","html-keyboard-response","340","616100","0.0-3.0-0.162","+","null","","","","","",""
"","2369","html-keyboard-response","341","618471","0.0-3.0-1.162","propaganda","s","n","cog","word","S","exp","10"
"","null","html-keyboard-response","342","618972","0.0-3.0-0.163","+","null","","","","","",""
"","728","html-keyboard-response","343","619702","0.0-3.0-1.163","tio","s","n","noncog","word","S","exp","3"
"","null","html-keyboard-response","344","620203","0.0-3.0-0.164","+","null","","","","","",""
"","2154","html-keyboard-response","345","622358","0.0-3.0-1.164","crutas","s","null","noncog","pseudo","N","exp","null"
"","null","html-keyboard-response","346","622861","0.0-3.0-0.165","+","null","","","","","",""
"","1424","html-keyboard-response","347","624286","0.0-3.0-1.165","esperar","s","v","cog","word","S","exp","7"
"","null","html-keyboard-response","348","624788","0.0-3.0-0.166","+","null","","","","","",""
"","1041","html-keyboard-response","349","625830","0.0-3.0-1.166","telefone","s","n","cog","word","S","exp","8"
"","null","html-keyboard-response","350","626332","0.0-3.0-0.167","+","null","","","","","",""
"","3201","html-keyboard-response","351","629535","0.0-3.0-1.167","verceja","s","null","noncog","pseudo","N","exp","null"
"","null","html-keyboard-response","352","630036","0.0-3.0-0.168","+","null","","","","","",""
"","1689","html-keyboard-response","353","631726","0.0-3.0-1.168","hipócrita","s","a","noncog","word","S","exp","9"
"","null","html-keyboard-response","354","632228","0.0-3.0-0.169","+","null","","","","","",""
"","1288","html-keyboard-response","355","633518","0.0-3.0-1.169","liberal","s","a","cog","word","S","exp","7"
"","null","html-keyboard-response","356","634022","0.0-3.0-0.170","+","null","","","","","",""
"","1128","html-keyboard-response","357","635150","0.0-3.0-1.170","morar","s","v","noncog","word","S","exp","5"
"","null","html-keyboard-response","358","635653","0.0-3.0-0.171","+","null","","","","","",""
"","5552","html-keyboard-response","359","641207","0.0-3.0-1.171","parceter","n","null","noncog","pseudo","N","exp","null"
"","null","html-keyboard-response","360","641708","0.0-3.0-0.172","+","null","","","","","",""
"","1409","html-keyboard-response","361","643118","0.0-3.0-1.172","mudança","s","n","noncog","word","S","exp","7"
"","null","html-keyboard-response","362","643620","0.0-3.0-0.173","+","null","","","","","",""
"","4009","html-keyboard-response","363","647630","0.0-3.0-1.173","enxarto","s","null","noncog","pseudo","N","exp","null"
"","null","html-keyboard-response","364","648133","0.0-3.0-0.174","+","null","","","","","",""
"","2192","html-keyboard-response","365","650325","0.0-3.0-1.174","tartos","s","null","noncog","pseudo","N","exp","null"
"","null","html-keyboard-response","366","650828","0.0-3.0-0.175","+","null","","","","","",""
"","1113","html-keyboard-response","367","651942","0.0-3.0-1.175","pedaço","s","n","noncog","word","S","exp","6"
"","null","html-keyboard-response","368","652444","0.0-3.0-0.176","+","null","","","","","",""
"","3664","html-keyboard-response","369","656110","0.0-3.0-1.176","oper","n","null","noncog","pseudo","N","exp","null"
"","null","html-keyboard-response","370","656612","0.0-3.0-0.177","+","null","","","","","",""
"","2353","html-keyboard-response","371","658966","0.0-3.0-1.177","espionar","s","v","cog","word","S","exp","8"
"","null","html-keyboard-response","372","659467","0.0-3.0-0.178","+","null","","","","","",""
"","1666","html-keyboard-response","373","661134","0.0-3.0-1.178","tímido","s","a","cog","word","S","exp","6"
"","null","html-keyboard-response","374","661636","0.0-3.0-0.179","+","null","","","","","",""
"","2985","html-keyboard-response","375","664622","0.0-3.0-1.179","bambu","s","n","cog","word","S","exp","5"
"","null","html-keyboard-response","376","665124","0.0-3.0-0.180","+","null","","","","","",""
"","1856","html-keyboard-response","377","666981","0.0-3.0-1.180","especial","s","a","cog","word","S","exp","8"
"","null","html-keyboard-response","378","667483","0.0-3.0-0.181","+","null","","","","","",""
"","2514","html-keyboard-response","379","669998","0.0-3.0-1.181","rédesa","s","null","noncog","pseudo","N","exp","null"
"","null","html-keyboard-response","380","670505","0.0-3.0-0.182","+","null","","","","","",""
"","4987","html-keyboard-response","381","675494","0.0-3.0-1.182","lapestra","s","null","noncog","pseudo","N","exp","null"
"","null","html-keyboard-response","382","675996","0.0-3.0-0.183","+","null","","","","","",""
"","3137","html-keyboard-response","383","679134","0.0-3.0-1.183","grótis","s","null","noncog","pseudo","N","exp","null"
"","null","html-keyboard-response","384","679635","0.0-3.0-0.184","+","null","","","","","",""
"","4514","html-keyboard-response","385","684150","0.0-3.0-1.184","ocinto","s","null","noncog","pseudo","N","exp","null"
"","null","html-keyboard-response","386","684652","0.0-3.0-0.185","+","null","","","","","",""
"","3417","html-keyboard-response","387","688070","0.0-3.0-1.185","crolatário","s","null","noncog","pseudo","N","exp","null"
"","null","html-keyboard-response","388","688572","0.0-3.0-0.186","+","null","","","","","",""
"","2560","html-keyboard-response","389","691133","0.0-3.0-1.186","aemaça","s","null","noncog","pseudo","N","exp","null"
"","null","html-keyboard-response","390","691636","0.0-3.0-0.187","+","null","","","","","",""
"","1633","html-keyboard-response","391","693270","0.0-3.0-1.187","brincar","s","v","noncog","word","S","exp","7"
"","null","html-keyboard-response","392","693772","0.0-3.0-0.188","+","null","","","","","",""
"","3647","html-keyboard-response","393","697420","0.0-3.0-1.188","pritas","n","null","noncog","pseudo","N","exp","null"
"","null","html-keyboard-response","394","697922","0.0-3.0-0.189","+","null","","","","","",""
"","3659","html-keyboard-response","395","701582","0.0-3.0-1.189","pneucania","s","null","noncog","pseudo","N","exp","null"
"","null","html-keyboard-response","396","702084","0.0-3.0-0.190","+","null","","","","","",""
"","1920","html-keyboard-response","397","704005","0.0-3.0-1.190","irratinte","s","null","noncog","pseudo","N","exp","null"
"","null","html-keyboard-response","398","704508","0.0-3.0-0.191","+","null","","","","","",""
"","4153","html-keyboard-response","399","708661","0.0-3.0-1.191","avenas","n","null","noncog","pseudo","N","exp","null"
"","null","html-keyboard-response","400","709164","0.0-3.0-0.192","+","null","","","","","",""
"","6121","html-keyboard-response","401","715286","0.0-3.0-1.192","delomir","s","null","noncog","pseudo","N","exp","null"
"","null","html-keyboard-response","402","715788","0.0-3.0-0.193","+","null","","","","","",""
"","2961","html-keyboard-response","403","718750","0.0-3.0-1.193","gruja","s","null","noncog","pseudo","N","exp","null"
"","null","html-keyboard-response","404","719252","0.0-3.0-0.194","+","null","","","","","",""
"","840","html-keyboard-response","405","720093","0.0-3.0-1.194","ótimo","s","a","noncog","word","S","exp","5"
"","null","html-keyboard-response","406","720595","0.0-3.0-0.195","+","null","","","","","",""
"","1922","html-keyboard-response","407","722518","0.0-3.0-1.195","vervas","s","null","noncog","pseudo","N","exp","null"
"","null","html-keyboard-response","408","723020","0.0-3.0-0.196","+","null","","","","","",""
"","793","html-keyboard-response","409","723814","0.0-3.0-1.196","tela","s","n","noncog","word","S","exp","4"
"","null","html-keyboard-response","410","724315","0.0-3.0-0.197","+","null","","","","","",""
"","1361","html-keyboard-response","411","725678","0.0-3.0-1.197","encelhor","s","null","noncog","pseudo","N","exp","null"
"","null","html-keyboard-response","412","726180","0.0-3.0-0.198","+","null","","","","","",""
"","1049","html-keyboard-response","413","727230","0.0-3.0-1.198","imitar","s","v","cog","word","S","exp","6"
"","null","html-keyboard-response","414","727732","0.0-3.0-0.199","+","null","","","","","",""
"","672","html-keyboard-response","415","728405","0.0-3.0-1.199","fino","s","a","cog","word","S","exp","4"
"","null","html-keyboard-response","416","728908","0.0-3.0-0.200","+","null","","","","","",""
"","1128","html-keyboard-response","417","730037","0.0-3.0-1.200","mua","s","null","noncog","pseudo","N","exp","null"
"","null","html-keyboard-response","418","730539","0.0-3.0-0.201","+","null","","","","","",""
"","3202","html-keyboard-response","419","733741","0.0-3.0-1.201","plinta","s","null","noncog","pseudo","N","exp","null"
"","null","html-keyboard-response","420","734244","0.0-3.0-0.202","+","null","","","","","",""
"","3361","html-keyboard-response","421","737606","0.0-3.0-1.202","ejerro","n","null","noncog","pseudo","N","exp","null"
"","null","html-keyboard-response","422","738109","0.0-3.0-0.203","+","null","","","","","",""
"","3263","html-keyboard-response","423","741373","0.0-3.0-1.203","afonher","n","null","noncog","pseudo","N","exp","null"
"","null","html-keyboard-response","424","741875","0.0-3.0-0.204","+","null","","","","","",""
"","2825","html-keyboard-response","425","744701","0.0-3.0-1.204","animado","s","a","noncog","word","S","exp","7"
"","null","html-keyboard-response","426","745203","0.0-3.0-0.205","+","null","","","","","",""
"","1417","html-keyboard-response","427","746621","0.0-3.0-1.205","pangos","s","null","noncog","pseudo","N","exp","null"
"","null","html-keyboard-response","428","747123","0.0-3.0-0.206","+","null","","","","","",""
"","1970","html-keyboard-response","429","749094","0.0-3.0-1.206","loaco","n","null","noncog","pseudo","N","exp","null"
"","null","html-keyboard-response","430","749596","0.0-3.0-0.207","+","null","","","","","",""
"","1409","html-keyboard-response","431","751006","0.0-3.0-1.207","atitro","s","null","noncog","pseudo","N","exp","null"
"","null","html-keyboard-response","432","751508","0.0-3.0-0.208","+","null","","","","","",""
"","1457","html-keyboard-response","433","752965","0.0-3.0-1.208","chato","s","n","noncog","word","S","exp","5"
"","null","html-keyboard-response","434","753467","0.0-3.0-0.209","+","null","","","","","",""
"","1801","html-keyboard-response","435","755269","0.0-3.0-1.209","carona","s","n","noncog","word","S","exp","6"
"","null","html-keyboard-response","436","755772","0.0-3.0-0.210","+","null","","","","","",""
"","1488","html-keyboard-response","437","757261","0.0-3.0-1.210","cerca","s","n","noncog","word","S","exp","5"
"","null","html-keyboard-response","438","757763","0.0-3.0-0.211","+","null","","","","","",""
"","1057","html-keyboard-response","439","758821","0.0-3.0-1.211","anjo","s","n","cog","word","S","exp","4"
"","null","html-keyboard-response","440","759323","0.0-3.0-0.212","+","null","","","","","",""
"","2081","html-keyboard-response","441","761406","0.0-3.0-1.212","agravar","s","v","cog","word","S","exp","7"
"","null","html-keyboard-response","442","761908","0.0-3.0-0.213","+","null","","","","","",""
"","992","html-keyboard-response","443","762901","0.0-3.0-1.213","nome","s","n","cog","word","S","exp","4"
"","null","html-keyboard-response","444","763403","0.0-3.0-0.214","+","null","","","","","",""
"","3505","html-keyboard-response","445","766909","0.0-3.0-1.214","detative","s","null","noncog","pseudo","N","exp","null"
"","null","html-keyboard-response","446","767411","0.0-3.0-0.215","+","null","","","","","",""
"","2041","html-keyboard-response","447","769453","0.0-3.0-1.215","dobradiça","s","n","noncog","word","S","exp","9"
"","null","html-keyboard-response","448","769955","0.0-3.0-0.216","+","null","","","","","",""
"","3906","html-keyboard-response","449","773862","0.0-3.0-1.216","conjerto","s","null","noncog","pseudo","N","exp","null"
"","null","html-keyboard-response","450","774363","0.0-3.0-0.217","+","null","","","","","",""
"","1457","html-keyboard-response","451","775821","0.0-3.0-1.217","espaço","s","n","cog","word","S","exp","6"
"","null","html-keyboard-response","452","776323","0.0-3.0-0.218","+","null","","","","","",""
"","2969","html-keyboard-response","453","779293","0.0-3.0-1.218","oricia","s","null","noncog","pseudo","N","exp","null"
"","null","html-keyboard-response","454","779795","0.0-3.0-0.219","+","null","","","","","",""
"","1905","html-keyboard-response","455","781702","0.0-3.0-1.219","frotes","s","null","noncog","pseudo","N","exp","null"
"","null","html-keyboard-response","456","782203","0.0-3.0-0.220","+","null","","","","","",""
"","3625","html-keyboard-response","457","785830","0.0-3.0-1.220","escumo","s","null","noncog","pseudo","N","exp","null"
"","null","html-keyboard-response","458","786331","0.0-3.0-0.221","+","null","","","","","",""
"","2464","html-keyboard-response","459","788797","0.0-3.0-1.221","hébies","s","null","noncog","pseudo","N","exp","null"
"","null","html-keyboard-response","460","789299","0.0-3.0-0.222","+","null","","","","","",""
"","2441","html-keyboard-response","461","791741","0.0-3.0-1.222","aitrou","n","null","noncog","pseudo","N","exp","null"
"","null","html-keyboard-response","462","792255","0.0-3.0-0.223","+","null","","","","","",""
"","2317","html-keyboard-response","463","794573","0.0-3.0-1.223","pega-pega","s","n","noncog","word","S","exp","8"
"","null","html-keyboard-response","464","795075","0.0-3.0-0.224","+","null","","","","","",""
"","2105","html-keyboard-response","465","797182","0.0-3.0-1.224","aperor","s","null","noncog","pseudo","N","exp","null"
"","null","html-keyboard-response","466","797683","0.0-3.0-0.225","+","null","","","","","",""
"","2168","html-keyboard-response","467","799853","0.0-3.0-1.225","disbrituir","s","null","noncog","pseudo","N","exp","null"
"","null","html-keyboard-response","468","800355","0.0-3.0-0.226","+","null","","","","","",""
"","1690","html-keyboard-response","469","802045","0.0-3.0-1.226","agressivo","s","a","cog","word","S","exp","9"
"","null","html-keyboard-response","470","802547","0.0-3.0-0.227","+","null","","","","","",""
"","4921","html-keyboard-response","471","807470","0.0-3.0-1.227","esprotiar","n","null","noncog","pseudo","N","exp","null"
"","null","html-keyboard-response","472","807972","0.0-3.0-0.228","+","null","","","","","",""
"","2640","html-keyboard-response","473","810613","0.0-3.0-1.228","telafonir","s","null","noncog","pseudo","N","exp","null"
"","null","html-keyboard-response","474","811115","0.0-3.0-0.229","+","null","","","","","",""
"","1113","html-keyboard-response","475","812229","0.0-3.0-1.229","liso","s","n","noncog","word","S","exp","4"
"","null","html-keyboard-response","476","812731","0.0-3.0-0.230","+","null","","","","","",""
"","1018","html-keyboard-response","477","813749","0.0-3.0-1.230","melão","s","n","cog","word","S","exp","5"
"","null","html-keyboard-response","478","814265","0.0-3.0-0.231","+","null","","","","","",""
"","4051","html-keyboard-response","479","818318","0.0-3.0-1.231","fasdas","n","null","noncog","pseudo","N","exp","null"
"","null","html-keyboard-response","480","818819","0.0-3.0-0.232","+","null","","","","","",""
"","6048","html-keyboard-response","481","824869","0.0-3.0-1.232","âgnulo","n","null","noncog","pseudo","N","exp","null"
"","null","html-keyboard-response","482","825373","0.0-3.0-0.233","+","null","","","","","",""
"","2535","html-keyboard-response","483","827909","0.0-3.0-1.233","jastor","s","null","noncog","pseudo","N","exp","null"
"","null","html-keyboard-response","484","828411","0.0-3.0-0.234","+","null","","","","","",""
"","8329","html-keyboard-response","485","836742","0.0-3.0-1.234","candifência","s","null","noncog","pseudo","N","exp","null"
"","null","html-keyboard-response","486","837244","0.0-3.0-0.235","+","null","","","","","",""
"","1928","html-keyboard-response","487","839174","0.0-3.0-1.235","preferir","s","v","cog","word","S","exp","8"
"","null","html-keyboard-response","488","839675","0.0-3.0-0.236","+","null","","","","","",""
"","2314","html-keyboard-response","489","841990","0.0-3.0-1.236","pitada","s","n","noncog","word","S","exp","6"
"","null","html-keyboard-response","490","842492","0.0-3.0-0.237","+","null","","","","","",""
"","968","html-keyboard-response","491","843462","0.0-3.0-1.237","gilha","s","null","noncog","pseudo","N","exp","null"
"","null","html-keyboard-response","492","843963","0.0-3.0-0.238","+","null","","","","","",""
"","4330","html-keyboard-response","493","848294","0.0-3.0-1.238","hedoru","n","null","noncog","pseudo","N","exp","null"
"","null","html-keyboard-response","494","848796","0.0-3.0-0.239","+","null","","","","","",""
"","3264","html-keyboard-response","495","852061","0.0-3.0-1.239","boreta","s","null","noncog","pseudo","N","exp","null"
