"view_history","rt","trial_type","trial_index","time_elapsed","internal_node_id","stimulus","response","class","status","answer","correct","trial","letters"
"[{""page_index"":0,""viewing_time"":132535}]","132535","instructions","0","132539","0.0-0.0","","","","","","","",""
"","null","html-keyboard-response","1","133160","0.0-1.0-0.0","+","null","","","","","",""
"","4963","html-keyboard-response","2","138127","0.0-1.0-1.0","plibar","n","null","noncog","pseudo","N","prac","null"
"","null","html-keyboard-response","3","138643","0.0-1.0-0.1","+","null","","","","","",""
"","4455","html-keyboard-response","4","143100","0.0-1.0-1.1","daja","n","null","noncog","pseudo","N","prac","null"
"","null","html-keyboard-response","5","143603","0.0-1.0-0.2","+","null","","","","","",""
"","2303","html-keyboard-response","6","145906","0.0-1.0-1.2","órgão","s","null","noncog","word","S","prac","null"
"","null","html-keyboard-response","7","146422","0.0-1.0-0.3","+","null","","","","","",""
"","2480","html-keyboard-response","8","148905","0.0-1.0-1.3","oliva","s","null","cog","word","S","prac","null"
"","null","html-keyboard-response","9","149414","0.0-1.0-0.4","+","null","","","","","",""
"","2347","html-keyboard-response","10","151763","0.0-1.0-1.4","chassi","n","null","cog","word","S","prac","null"
"","null","html-keyboard-response","11","152278","0.0-1.0-0.5","+","null","","","","","",""
"","2060","html-keyboard-response","12","154338","0.0-1.0-1.5","crante","n","null","noncog","pseudo","N","prac","null"
"","null","html-keyboard-response","13","154842","0.0-1.0-0.6","+","null","","","","","",""
"","4711","html-keyboard-response","14","159555","0.0-1.0-1.6","calmaria","s","null","noncog","word","S","prac","null"
"[{""page_index"":0,""viewing_time"":89317}]","89317","instructions","15","248873","0.0-2.0","","","","","","","",""
"","null","html-keyboard-response","16","249492","0.0-3.0-0.0","+","null","","","","","",""
"","1547","html-keyboard-response","17","251041","0.0-3.0-1.0","gruja","s","null","noncog","pseudo","N","exp","null"
"","null","html-keyboard-response","18","251556","0.0-3.0-0.1","+","null","","","","","",""
"","1520","html-keyboard-response","19","253077","0.0-3.0-1.1","lagoa","s","n","cog","word","S","exp","5"
"","null","html-keyboard-response","20","253582","0.0-3.0-0.2","+","null","","","","","",""
"","1922","html-keyboard-response","21","255505","0.0-3.0-1.2","morno","s","a","noncog","word","S","exp","5"
"","null","html-keyboard-response","22","256022","0.0-3.0-0.3","+","null","","","","","",""
"","2582","html-keyboard-response","23","258606","0.0-3.0-1.3","manfa","n","null","noncog","pseudo","N","exp","null"
"","null","html-keyboard-response","24","259113","0.0-3.0-0.4","+","null","","","","","",""
"","2518","html-keyboard-response","25","261632","0.0-3.0-1.4","selir","n","null","noncog","pseudo","N","exp","null"
"","null","html-keyboard-response","26","262145","0.0-3.0-0.5","+","null","","","","","",""
"","1244","html-keyboard-response","27","263390","0.0-3.0-1.5","carro","s","n","noncog","word","S","exp","5"
"","null","html-keyboard-response","28","263892","0.0-3.0-0.6","+","null","","","","","",""
"","2553","html-keyboard-response","29","266448","0.0-3.0-1.6","senareta","s","null","noncog","pseudo","N","exp","null"
"","null","html-keyboard-response","30","266956","0.0-3.0-0.7","+","null","","","","","",""
"","2299","html-keyboard-response","31","269257","0.0-3.0-1.7","resmungar","n","v","noncog","word","S","exp","9"
"","null","html-keyboard-response","32","269759","0.0-3.0-0.8","+","null","","","","","",""
"","2939","html-keyboard-response","33","272699","0.0-3.0-1.8","pneucania","s","null","noncog","pseudo","N","exp","null"
"","null","html-keyboard-response","34","273208","0.0-3.0-0.9","+","null","","","","","",""
"","1462","html-keyboard-response","35","274671","0.0-3.0-1.9","revista","s","n","cog","word","S","exp","7"
"","null","html-keyboard-response","36","275183","0.0-3.0-0.10","+","null","","","","","",""
"","1953","html-keyboard-response","37","277137","0.0-3.0-1.10","fusbão","s","null","noncog","pseudo","N","exp","null"
"","null","html-keyboard-response","38","277651","0.0-3.0-0.11","+","null","","","","","",""
"","2632","html-keyboard-response","39","280285","0.0-3.0-1.11","berquesa","n","null","noncog","pseudo","N","exp","null"
"","null","html-keyboard-response","40","280799","0.0-3.0-0.12","+","null","","","","","",""
"","1597","html-keyboard-response","41","282398","0.0-3.0-1.12","espinho","s","n","noncog","word","S","exp","7"
"","null","html-keyboard-response","42","282903","0.0-3.0-0.13","+","null","","","","","",""
"","1959","html-keyboard-response","43","284863","0.0-3.0-1.13","jastor","n","null","noncog","pseudo","N","exp","null"
"","null","html-keyboard-response","44","285370","0.0-3.0-0.14","+","null","","","","","",""
"","1653","html-keyboard-response","45","287023","0.0-3.0-1.14","ilhure","n","null","noncog","pseudo","N","exp","null"
"","null","html-keyboard-response","46","287537","0.0-3.0-0.15","+","null","","","","","",""
"","1552","html-keyboard-response","47","289090","0.0-3.0-1.15","crolatário","s","null","noncog","pseudo","N","exp","null"
"","null","html-keyboard-response","48","289605","0.0-3.0-0.16","+","null","","","","","",""
"","1584","html-keyboard-response","49","291189","0.0-3.0-1.16","bandido","s","n","cog","word","S","exp","7"
"","null","html-keyboard-response","50","291693","0.0-3.0-0.17","+","null","","","","","",""
"","1863","html-keyboard-response","51","293557","0.0-3.0-1.17","oper","s","null","noncog","pseudo","N","exp","null"
"","null","html-keyboard-response","52","294070","0.0-3.0-0.18","+","null","","","","","",""
"","1095","html-keyboard-response","53","295165","0.0-3.0-1.18","ótimo","s","a","noncog","word","S","exp","5"
"","null","html-keyboard-response","54","295681","0.0-3.0-0.19","+","null","","","","","",""
"","1983","html-keyboard-response","55","297665","0.0-3.0-1.19","pantufa","s","n","cog","word","S","exp","7"
"","null","html-keyboard-response","56","298178","0.0-3.0-0.20","+","null","","","","","",""
"","2690","html-keyboard-response","57","300869","0.0-3.0-1.20","manais","n","null","noncog","pseudo","N","exp","null"
"","null","html-keyboard-response","58","301371","0.0-3.0-0.21","+","null","","","","","",""
"","3016","html-keyboard-response","59","304388","0.0-3.0-1.21","esprotiar","n","null","noncog","pseudo","N","exp","null"
"","null","html-keyboard-response","60","304897","0.0-3.0-0.22","+","null","","","","","",""
"","1290","html-keyboard-response","61","306188","0.0-3.0-1.22","medalha","s","n","cog","word","S","exp","7"
"","null","html-keyboard-response","62","306698","0.0-3.0-0.23","+","null","","","","","",""
"","1750","html-keyboard-response","63","308449","0.0-3.0-1.23","sustentar","s","v","noncog","word","S","exp","9"
"","null","html-keyboard-response","64","308962","0.0-3.0-0.24","+","null","","","","","",""
"","1297","html-keyboard-response","65","310260","0.0-3.0-1.24","liso","s","n","noncog","word","S","exp","4"
"","null","html-keyboard-response","66","310761","0.0-3.0-0.25","+","null","","","","","",""
"","1504","html-keyboard-response","67","312266","0.0-3.0-1.25","euorpa","s","null","noncog","pseudo","N","exp","null"
"","null","html-keyboard-response","68","312768","0.0-3.0-0.26","+","null","","","","","",""
"","1346","html-keyboard-response","69","314116","0.0-3.0-1.26","liberal","s","a","cog","word","S","exp","7"
"","null","html-keyboard-response","70","314617","0.0-3.0-0.27","+","null","","","","","",""
"","2210","html-keyboard-response","71","316828","0.0-3.0-1.27","conjerto","s","null","noncog","pseudo","N","exp","null"
"","null","html-keyboard-response","72","317334","0.0-3.0-0.28","+","null","","","","","",""
"","3232","html-keyboard-response","73","320567","0.0-3.0-1.28","bibarconato","n","null","noncog","pseudo","N","exp","null"
"","null","html-keyboard-response","74","321073","0.0-3.0-0.29","+","null","","","","","",""
"","1682","html-keyboard-response","75","322756","0.0-3.0-1.29","aparme","s","null","noncog","pseudo","N","exp","null"
"","null","html-keyboard-response","76","323270","0.0-3.0-0.30","+","null","","","","","",""
"","3381","html-keyboard-response","77","326652","0.0-3.0-1.30","casuas","s","null","noncog","pseudo","N","exp","null"
"","null","html-keyboard-response","78","327159","0.0-3.0-0.31","+","null","","","","","",""
"","1173","html-keyboard-response","79","328332","0.0-3.0-1.31","tinta","s","n","cog","word","S","exp","5"
"","null","html-keyboard-response","80","328838","0.0-3.0-0.32","+","null","","","","","",""
"","1237","html-keyboard-response","81","330076","0.0-3.0-1.32","chato","s","n","noncog","word","S","exp","5"
"","null","html-keyboard-response","82","330578","0.0-3.0-0.33","+","null","","","","","",""
"","1301","html-keyboard-response","83","331882","0.0-3.0-1.33","refletir","s","v","cog","word","S","exp","8"
"","null","html-keyboard-response","84","332383","0.0-3.0-0.34","+","null","","","","","",""
"","1865","html-keyboard-response","85","334250","0.0-3.0-1.34","rédesa","s","null","noncog","pseudo","N","exp","null"
"","null","html-keyboard-response","86","334762","0.0-3.0-0.35","+","null","","","","","",""
"","1529","html-keyboard-response","87","336292","0.0-3.0-1.35","montanha","s","n","cog","word","S","exp","8"
"","null","html-keyboard-response","88","336803","0.0-3.0-0.36","+","null","","","","","",""
"","1298","html-keyboard-response","89","338101","0.0-3.0-1.36","socorro","s","n","noncog","word","S","exp","7"
"","null","html-keyboard-response","90","338603","0.0-3.0-0.37","+","null","","","","","",""
"","1263","html-keyboard-response","91","339868","0.0-3.0-1.37","espionar","s","v","cog","word","S","exp","8"
"","null","html-keyboard-response","92","340372","0.0-3.0-0.38","+","null","","","","","",""
"","2715","html-keyboard-response","93","343088","0.0-3.0-1.38","aperor","s","null","noncog","pseudo","N","exp","null"
"","null","html-keyboard-response","94","343591","0.0-3.0-0.39","+","null","","","","","",""
"","3498","html-keyboard-response","95","347090","0.0-3.0-1.39","sanque","n","null","noncog","pseudo","N","exp","null"
"","null","html-keyboard-response","96","347595","0.0-3.0-0.40","+","null","","","","","",""
"","2082","html-keyboard-response","97","349678","0.0-3.0-1.40","farcas","s","null","noncog","pseudo","N","exp","null"
"","null","html-keyboard-response","98","350184","0.0-3.0-0.41","+","null","","","","","",""
"","1425","html-keyboard-response","99","351612","0.0-3.0-1.41","propaganda","s","n","cog","word","S","exp","10"
"","null","html-keyboard-response","100","352118","0.0-3.0-0.42","+","null","","","","","",""
"","1299","html-keyboard-response","101","353418","0.0-3.0-1.42","tênis","s","n","cog","word","S","exp","5"
"","null","html-keyboard-response","102","353930","0.0-3.0-0.43","+","null","","","","","",""
"","2473","html-keyboard-response","103","356404","0.0-3.0-1.43","atitro","s","null","noncog","pseudo","N","exp","null"
"","null","html-keyboard-response","104","356911","0.0-3.0-0.44","+","null","","","","","",""
"","2574","html-keyboard-response","105","359485","0.0-3.0-1.44","usnado","n","null","noncog","pseudo","N","exp","null"
"","null","html-keyboard-response","106","359992","0.0-3.0-0.45","+","null","","","","","",""
"","1431","html-keyboard-response","107","361424","0.0-3.0-1.45","gordo","s","a","noncog","word","S","exp","5"
"","null","html-keyboard-response","108","361937","0.0-3.0-0.46","+","null","","","","","",""
"","1980","html-keyboard-response","109","363917","0.0-3.0-1.46","protas","n","null","noncog","pseudo","N","exp","null"
"","null","html-keyboard-response","110","364432","0.0-3.0-0.47","+","null","","","","","",""
"","1413","html-keyboard-response","111","365846","0.0-3.0-1.47","uçar","s","null","noncog","pseudo","N","exp","null"
"","null","html-keyboard-response","112","366361","0.0-3.0-0.48","+","null","","","","","",""
"","2173","html-keyboard-response","113","368536","0.0-3.0-1.48","deselegante","s","a","noncog","word","S","exp","11"
"","null","html-keyboard-response","114","369045","0.0-3.0-0.49","+","null","","","","","",""
"","2303","html-keyboard-response","115","371350","0.0-3.0-1.49","aitrou","n","null","noncog","pseudo","N","exp","null"
"","null","html-keyboard-response","116","371851","0.0-3.0-0.50","+","null","","","","","",""
"","3531","html-keyboard-response","117","375383","0.0-3.0-1.50","ensuas","s","null","noncog","pseudo","N","exp","null"
"","null","html-keyboard-response","118","375894","0.0-3.0-0.51","+","null","","","","","",""
"","1148","html-keyboard-response","119","377042","0.0-3.0-1.51","preferir","s","v","cog","word","S","exp","8"
"","null","html-keyboard-response","120","377550","0.0-3.0-0.52","+","null","","","","","",""
"","1099","html-keyboard-response","121","378651","0.0-3.0-1.52","agressivo","s","a","cog","word","S","exp","9"
"","null","html-keyboard-response","122","379153","0.0-3.0-0.53","+","null","","","","","",""
"","1065","html-keyboard-response","123","380218","0.0-3.0-1.53","agravar","s","v","cog","word","S","exp","7"
"","null","html-keyboard-response","124","380721","0.0-3.0-0.54","+","null","","","","","",""
"","1789","html-keyboard-response","125","382510","0.0-3.0-1.54","mua","n","null","noncog","pseudo","N","exp","null"
"","null","html-keyboard-response","126","383011","0.0-3.0-0.55","+","null","","","","","",""
"","2363","html-keyboard-response","127","385375","0.0-3.0-1.55","francês","n","a","cog","word","S","exp","7"
"","null","html-keyboard-response","128","385882","0.0-3.0-0.56","+","null","","","","","",""
"","2641","html-keyboard-response","129","388526","0.0-3.0-1.56","memória","s","n","cog","word","S","exp","7"
"","null","html-keyboard-response","130","389037","0.0-3.0-0.57","+","null","","","","","",""
"","2666","html-keyboard-response","131","391704","0.0-3.0-1.57","escumo","n","null","noncog","pseudo","N","exp","null"
"","null","html-keyboard-response","132","392205","0.0-3.0-0.58","+","null","","","","","",""
"","1770","html-keyboard-response","133","393975","0.0-3.0-1.58","esfoce","s","null","noncog","pseudo","N","exp","null"
"","null","html-keyboard-response","134","394489","0.0-3.0-0.59","+","null","","","","","",""
"","1586","html-keyboard-response","135","396075","0.0-3.0-1.59","pega-pega","s","n","noncog","word","S","exp","8"
"","null","html-keyboard-response","136","396589","0.0-3.0-0.60","+","null","","","","","",""
"","1680","html-keyboard-response","137","398271","0.0-3.0-1.60","abieso","n","null","noncog","pseudo","N","exp","null"
"","null","html-keyboard-response","138","398782","0.0-3.0-0.61","+","null","","","","","",""
"","1242","html-keyboard-response","139","400025","0.0-3.0-1.61","carregar","s","v","noncog","word","S","exp","8"
"","null","html-keyboard-response","140","400531","0.0-3.0-0.62","+","null","","","","","",""
"","2394","html-keyboard-response","141","402925","0.0-3.0-1.62","dipata","n","null","noncog","pseudo","N","exp","null"
"","null","html-keyboard-response","142","403432","0.0-3.0-0.63","+","null","","","","","",""
"","1181","html-keyboard-response","143","404614","0.0-3.0-1.63","barco","s","n","cog","word","S","exp","5"
"","null","html-keyboard-response","144","405121","0.0-3.0-0.64","+","null","","","","","",""
"","2078","html-keyboard-response","145","407201","0.0-3.0-1.64","salpicado","n","a","noncog","word","S","exp","9"
"","null","html-keyboard-response","146","407707","0.0-3.0-0.65","+","null","","","","","",""
"","1649","html-keyboard-response","147","409357","0.0-3.0-1.65","verceja","s","null","noncog","pseudo","N","exp","null"
"","null","html-keyboard-response","148","409872","0.0-3.0-0.66","+","null","","","","","",""
"","1662","html-keyboard-response","149","411534","0.0-3.0-1.66","plinta","n","null","noncog","pseudo","N","exp","null"
"","null","html-keyboard-response","150","412040","0.0-3.0-0.67","+","null","","","","","",""
"","2518","html-keyboard-response","151","414558","0.0-3.0-1.67","irratinte","n","null","noncog","pseudo","N","exp","null"
"","null","html-keyboard-response","152","415071","0.0-3.0-0.68","+","null","","","","","",""
"","1359","html-keyboard-response","153","416432","0.0-3.0-1.68","bracos","s","null","noncog","pseudo","N","exp","null"
"","null","html-keyboard-response","154","416949","0.0-3.0-0.69","+","null","","","","","",""
"","1009","html-keyboard-response","155","417959","0.0-3.0-1.69","perdão","s","n","noncog","word","S","exp","6"
"","null","html-keyboard-response","156","418462","0.0-3.0-0.70","+","null","","","","","",""
"","1295","html-keyboard-response","157","419758","0.0-3.0-1.70","nivelado","s","a","cog","word","S","exp","8"
"","null","html-keyboard-response","158","420267","0.0-3.0-0.71","+","null","","","","","",""
"","1175","html-keyboard-response","159","421445","0.0-3.0-1.71","azul","s","n","noncog","word","S","exp","4"
"","null","html-keyboard-response","160","421950","0.0-3.0-0.72","+","null","","","","","",""
"","2118","html-keyboard-response","161","424069","0.0-3.0-1.72","bambu","s","n","cog","word","S","exp","5"
"","null","html-keyboard-response","162","424573","0.0-3.0-0.73","+","null","","","","","",""
"","2032","html-keyboard-response","163","426606","0.0-3.0-1.73","matinal","s","a","cog","word","S","exp","7"
"","null","html-keyboard-response","164","427122","0.0-3.0-0.74","+","null","","","","","",""
"","2415","html-keyboard-response","165","429537","0.0-3.0-1.74","aivões","s","null","noncog","pseudo","N","exp","null"
"","null","html-keyboard-response","166","430049","0.0-3.0-0.75","+","null","","","","","",""
"","1369","html-keyboard-response","167","431420","0.0-3.0-1.75","cápsula","s","n","noncog","word","S","exp","7"
"","null","html-keyboard-response","168","431928","0.0-3.0-0.76","+","null","","","","","",""
"","3773","html-keyboard-response","169","435704","0.0-3.0-1.76","disbrituir","s","null","noncog","pseudo","N","exp","null"
"","null","html-keyboard-response","170","436220","0.0-3.0-0.77","+","null","","","","","",""
"","1226","html-keyboard-response","171","437445","0.0-3.0-1.77","verde","s","a","noncog","word","S","exp","5"
"","null","html-keyboard-response","172","437954","0.0-3.0-0.78","+","null","","","","","",""
"","1560","html-keyboard-response","173","439515","0.0-3.0-1.78","areia","s","n","noncog","word","S","exp","5"
"","null","html-keyboard-response","174","440021","0.0-3.0-0.79","+","null","","","","","",""
"","1612","html-keyboard-response","175","441633","0.0-3.0-1.79","sintonizar","s","v","noncog","word","S","exp","10"
"","null","html-keyboard-response","176","442142","0.0-3.0-0.80","+","null","","","","","",""
"","2056","html-keyboard-response","177","444199","0.0-3.0-1.80","vitrive","n","null","noncog","pseudo","N","exp","null"
"","null","html-keyboard-response","178","444711","0.0-3.0-0.81","+","null","","","","","",""
"","1120","html-keyboard-response","179","445832","0.0-3.0-1.81","reduzir","s","v","cog","word","S","exp","7"
"","null","html-keyboard-response","180","446346","0.0-3.0-0.82","+","null","","","","","",""
"","1416","html-keyboard-response","181","447762","0.0-3.0-1.82","grave","s","a","cog","word","S","exp","5"
"","null","html-keyboard-response","182","448266","0.0-3.0-0.83","+","null","","","","","",""
"","3450","html-keyboard-response","183","451717","0.0-3.0-1.83","detative","s","null","noncog","pseudo","N","exp","null"
"","null","html-keyboard-response","184","452231","0.0-3.0-0.84","+","null","","","","","",""
"","1301","html-keyboard-response","185","453534","0.0-3.0-1.84","tronca","s","null","noncog","pseudo","N","exp","null"
"","null","html-keyboard-response","186","454035","0.0-3.0-0.85","+","null","","","","","",""
"","2959","html-keyboard-response","187","456995","0.0-3.0-1.85","tatear","n","v","cog","word","S","exp","6"
"","null","html-keyboard-response","188","457510","0.0-3.0-0.86","+","null","","","","","",""
"","1049","html-keyboard-response","189","458561","0.0-3.0-1.86","mudança","s","n","noncog","word","S","exp","7"
"","null","html-keyboard-response","190","459073","0.0-3.0-0.87","+","null","","","","","",""
"","912","html-keyboard-response","191","459987","0.0-3.0-1.87","açúcar","s","n","noncog","word","S","exp","6"
"","null","html-keyboard-response","192","460498","0.0-3.0-0.88","+","null","","","","","",""
"","1565","html-keyboard-response","193","462064","0.0-3.0-1.88","ênclio","s","null","noncog","pseudo","N","exp","null"
"","null","html-keyboard-response","194","462568","0.0-3.0-0.89","+","null","","","","","",""
"","1556","html-keyboard-response","195","464124","0.0-3.0-1.89","viver","s","v","cog","word","S","exp","5"
"","null","html-keyboard-response","196","464629","0.0-3.0-0.90","+","null","","","","","",""
"","1082","html-keyboard-response","197","465712","0.0-3.0-1.90","trenos","n","null","noncog","pseudo","N","exp","null"
"","null","html-keyboard-response","198","466222","0.0-3.0-0.91","+","null","","","","","",""
"","1269","html-keyboard-response","199","467493","0.0-3.0-1.91","hébies","n","null","noncog","pseudo","N","exp","null"
"","null","html-keyboard-response","200","468004","0.0-3.0-0.92","+","null","","","","","",""
"","1056","html-keyboard-response","201","469061","0.0-3.0-1.92","nome","s","n","cog","word","S","exp","4"
"","null","html-keyboard-response","202","469563","0.0-3.0-0.93","+","null","","","","","",""
"","2536","html-keyboard-response","203","472101","0.0-3.0-1.93","afonher","s","null","noncog","pseudo","N","exp","null"
"","null","html-keyboard-response","204","472614","0.0-3.0-0.94","+","null","","","","","",""
"","2441","html-keyboard-response","205","475055","0.0-3.0-1.94","mabras","n","null","noncog","pseudo","N","exp","null"
"","null","html-keyboard-response","206","475566","0.0-3.0-0.95","+","null","","","","","",""
"","1146","html-keyboard-response","207","476712","0.0-3.0-1.95","bancada","s","n","noncog","word","S","exp","7"
"","null","html-keyboard-response","208","477218","0.0-3.0-0.96","+","null","","","","","",""
"","1074","html-keyboard-response","209","478293","0.0-3.0-1.96","aletiê","n","null","noncog","pseudo","N","exp","null"
"","null","html-keyboard-response","210","478799","0.0-3.0-0.97","+","null","","","","","",""
"","1560","html-keyboard-response","211","480361","0.0-3.0-1.97","avenas","n","null","noncog","pseudo","N","exp","null"
"","null","html-keyboard-response","212","480868","0.0-3.0-0.98","+","null","","","","","",""
"","3117","html-keyboard-response","213","483986","0.0-3.0-1.98","telafonir","n","null","noncog","pseudo","N","exp","null"
"","null","html-keyboard-response","214","484488","0.0-3.0-0.99","+","null","","","","","",""
"","1949","html-keyboard-response","215","486438","0.0-3.0-1.99","faínas","n","null","noncog","pseudo","N","exp","null"
"","null","html-keyboard-response","216","486940","0.0-3.0-0.100","+","null","","","","","",""
"","1543","html-keyboard-response","217","488483","0.0-3.0-1.100","prantal","s","null","noncog","pseudo","N","exp","null"
"","null","html-keyboard-response","218","488994","0.0-3.0-0.101","+","null","","","","","",""
"","1305","html-keyboard-response","219","490300","0.0-3.0-1.101","motros","n","null","noncog","pseudo","N","exp","null"
"","null","html-keyboard-response","220","490805","0.0-3.0-0.102","+","null","","","","","",""
"","1059","html-keyboard-response","221","491864","0.0-3.0-1.102","tio","s","n","noncog","word","S","exp","3"
"","null","html-keyboard-response","222","492380","0.0-3.0-0.103","+","null","","","","","",""
"","1909","html-keyboard-response","223","494290","0.0-3.0-1.103","ideisa","n","null","noncog","pseudo","N","exp","null"
"","null","html-keyboard-response","224","494805","0.0-3.0-0.104","+","null","","","","","",""
"","1839","html-keyboard-response","225","496644","0.0-3.0-1.104","traduzir","s","v","cog","word","S","exp","8"
"","null","html-keyboard-response","226","497147","0.0-3.0-0.105","+","null","","","","","",""
"","1491","html-keyboard-response","227","498639","0.0-3.0-1.105","pimada","n","null","noncog","pseudo","N","exp","null"
"","null","html-keyboard-response","228","499145","0.0-3.0-0.106","+","null","","","","","",""
"","1537","html-keyboard-response","229","500684","0.0-3.0-1.106","pulmão","s","n","noncog","word","S","exp","6"
"","null","html-keyboard-response","230","501198","0.0-3.0-0.107","+","null","","","","","",""
"","911","html-keyboard-response","231","502109","0.0-3.0-1.107","melão","s","n","cog","word","S","exp","5"
"","null","html-keyboard-response","232","502621","0.0-3.0-0.108","+","null","","","","","",""
"","1232","html-keyboard-response","233","503854","0.0-3.0-1.108","macras","n","null","noncog","pseudo","N","exp","null"
"","null","html-keyboard-response","234","504358","0.0-3.0-0.109","+","null","","","","","",""
"","1107","html-keyboard-response","235","505466","0.0-3.0-1.109","fino","s","a","cog","word","S","exp","4"
"","null","html-keyboard-response","236","505969","0.0-3.0-0.110","+","null","","","","","",""
"","2386","html-keyboard-response","237","508355","0.0-3.0-1.110","braras","n","null","noncog","pseudo","N","exp","null"
"","null","html-keyboard-response","238","508871","0.0-3.0-0.111","+","null","","","","","",""
"","2918","html-keyboard-response","239","511789","0.0-3.0-1.111","árovre","n","null","noncog","pseudo","N","exp","null"
"","null","html-keyboard-response","240","512302","0.0-3.0-0.112","+","null","","","","","",""
"","1063","html-keyboard-response","241","513366","0.0-3.0-1.112","burtos","n","null","noncog","pseudo","N","exp","null"
"","null","html-keyboard-response","242","513870","0.0-3.0-0.113","+","null","","","","","",""
"","1948","html-keyboard-response","243","515820","0.0-3.0-1.113","taberia","s","null","noncog","pseudo","N","exp","null"
"","null","html-keyboard-response","244","516329","0.0-3.0-0.114","+","null","","","","","",""
"","1281","html-keyboard-response","245","517610","0.0-3.0-1.114","telefone","s","n","cog","word","S","exp","8"
"","null","html-keyboard-response","246","518121","0.0-3.0-0.115","+","null","","","","","",""
"","1370","html-keyboard-response","247","519493","0.0-3.0-1.115","encelhor","s","null","noncog","pseudo","N","exp","null"
"","null","html-keyboard-response","248","519995","0.0-3.0-0.116","+","null","","","","","",""
"","2493","html-keyboard-response","249","522489","0.0-3.0-1.116","parceter","n","null","noncog","pseudo","N","exp","null"
"","null","html-keyboard-response","250","522998","0.0-3.0-0.117","+","null","","","","","",""
"","1832","html-keyboard-response","251","524832","0.0-3.0-1.117","alpica","s","null","noncog","pseudo","N","exp","null"
"","null","html-keyboard-response","252","525348","0.0-3.0-0.118","+","null","","","","","",""
"","1889","html-keyboard-response","253","527238","0.0-3.0-1.118","temperar","s","v","noncog","word","S","exp","8"
"","null","html-keyboard-response","254","527745","0.0-3.0-0.119","+","null","","","","","",""
"","3194","html-keyboard-response","255","530940","0.0-3.0-1.119","garastia","n","null","noncog","pseudo","N","exp","null"
"","null","html-keyboard-response","256","531441","0.0-3.0-0.120","+","null","","","","","",""
"","2135","html-keyboard-response","257","533577","0.0-3.0-1.120","orupas","s","null","noncog","pseudo","N","exp","null"
"","null","html-keyboard-response","258","534084","0.0-3.0-0.121","+","null","","","","","",""
"","1474","html-keyboard-response","259","535558","0.0-3.0-1.121","perbas","n","null","noncog","pseudo","N","exp","null"
"","null","html-keyboard-response","260","536071","0.0-3.0-0.122","+","null","","","","","",""
"","2537","html-keyboard-response","261","538610","0.0-3.0-1.122","lapestra","s","null","noncog","pseudo","N","exp","null"
"","null","html-keyboard-response","262","539112","0.0-3.0-0.123","+","null","","","","","",""
"","3016","html-keyboard-response","263","542130","0.0-3.0-1.123","morija","n","null","noncog","pseudo","N","exp","null"
"","null","html-keyboard-response","264","542639","0.0-3.0-0.124","+","null","","","","","",""
"","3587","html-keyboard-response","265","546227","0.0-3.0-1.124","cirado","n","null","noncog","pseudo","N","exp","null"
"","null","html-keyboard-response","266","546738","0.0-3.0-0.125","+","null","","","","","",""
"","3383","html-keyboard-response","267","550122","0.0-3.0-1.125","afual","n","null","noncog","pseudo","N","exp","null"
"","null","html-keyboard-response","268","550628","0.0-3.0-0.126","+","null","","","","","",""
"","1400","html-keyboard-response","269","552030","0.0-3.0-1.126","trair","s","v","cog","word","S","exp","5"
"","null","html-keyboard-response","270","552532","0.0-3.0-0.127","+","null","","","","","",""
"","1693","html-keyboard-response","271","554228","0.0-3.0-1.127","crutas","s","null","noncog","pseudo","N","exp","null"
"","null","html-keyboard-response","272","554733","0.0-3.0-0.128","+","null","","","","","",""
"","2741","html-keyboard-response","273","557475","0.0-3.0-1.128","candifência","s","null","noncog","pseudo","N","exp","null"
"","null","html-keyboard-response","274","557980","0.0-3.0-0.129","+","null","","","","","",""
"","2820","html-keyboard-response","275","560802","0.0-3.0-1.129","dencosto","n","null","noncog","pseudo","N","exp","null"
"","null","html-keyboard-response","276","561305","0.0-3.0-0.130","+","null","","","","","",""
"","1537","html-keyboard-response","277","562843","0.0-3.0-1.130","dilheira","s","null","noncog","pseudo","N","exp","null"
"","null","html-keyboard-response","278","563351","0.0-3.0-0.131","+","null","","","","","",""
"","1775","html-keyboard-response","279","565126","0.0-3.0-1.131","quenzina","s","null","noncog","pseudo","N","exp","null"
"","null","html-keyboard-response","280","565638","0.0-3.0-0.132","+","null","","","","","",""
"","3046","html-keyboard-response","281","568685","0.0-3.0-1.132","enedro","n","null","noncog","pseudo","N","exp","null"
"","null","html-keyboard-response","282","569192","0.0-3.0-0.133","+","null","","","","","",""
"","1214","html-keyboard-response","283","570406","0.0-3.0-1.133","nacional","s","a","cog","word","S","exp","8"
"","null","html-keyboard-response","284","570915","0.0-3.0-0.134","+","null","","","","","",""
"","1143","html-keyboard-response","285","572059","0.0-3.0-1.134","tela","s","n","noncog","word","S","exp","4"
"","null","html-keyboard-response","286","572567","0.0-3.0-0.135","+","null","","","","","",""
"","1137","html-keyboard-response","287","573704","0.0-3.0-1.135","imitar","s","v","cog","word","S","exp","6"
"","null","html-keyboard-response","288","574211","0.0-3.0-0.136","+","null","","","","","",""
"","2348","html-keyboard-response","289","576561","0.0-3.0-1.136","multiplicar","s","v","cog","word","S","exp","11"
"","null","html-keyboard-response","290","577066","0.0-3.0-0.137","+","null","","","","","",""
"","1498","html-keyboard-response","291","578566","0.0-3.0-1.137","ronronar","n","v","cog","word","S","exp","8"
"","null","html-keyboard-response","292","579075","0.0-3.0-0.138","+","null","","","","","",""
"","1355","html-keyboard-response","293","580431","0.0-3.0-1.138","incomodar","s","v","noncog","word","S","exp","9"
"","null","html-keyboard-response","294","580938","0.0-3.0-0.139","+","null","","","","","",""
"","2688","html-keyboard-response","295","583626","0.0-3.0-1.139","ofreta","n","null","noncog","pseudo","N","exp","null"
"","null","html-keyboard-response","296","584140","0.0-3.0-0.140","+","null","","","","","",""
"","1202","html-keyboard-response","297","585342","0.0-3.0-1.140","filme","s","n","cog","word","S","exp","5"
"","null","html-keyboard-response","298","585852","0.0-3.0-0.141","+","null","","","","","",""
"","1590","html-keyboard-response","299","587442","0.0-3.0-1.141","hedoru","n","null","noncog","pseudo","N","exp","null"
"","null","html-keyboard-response","300","587949","0.0-3.0-0.142","+","null","","","","","",""
"","902","html-keyboard-response","301","588852","0.0-3.0-1.142","jantar","s","v","noncog","word","S","exp","6"
"","null","html-keyboard-response","302","589368","0.0-3.0-0.143","+","null","","","","","",""
"","1180","html-keyboard-response","303","590549","0.0-3.0-1.143","fasdas","n","null","noncog","pseudo","N","exp","null"
"","null","html-keyboard-response","304","591054","0.0-3.0-0.144","+","null","","","","","",""
"","1876","html-keyboard-response","305","592932","0.0-3.0-1.144","oecano","n","null","noncog","pseudo","N","exp","null"
"","null","html-keyboard-response","306","593444","0.0-3.0-0.145","+","null","","","","","",""
"","1000","html-keyboard-response","307","594445","0.0-3.0-1.145","papai","s","n","cog","word","S","exp","5"
"","null","html-keyboard-response","308","594954","0.0-3.0-0.146","+","null","","","","","",""
"","1614","html-keyboard-response","309","596569","0.0-3.0-1.146","prenas","n","null","noncog","pseudo","N","exp","null"
"","null","html-keyboard-response","310","597077","0.0-3.0-0.147","+","null","","","","","",""
"","2987","html-keyboard-response","311","600066","0.0-3.0-1.147","dobradiça","s","n","noncog","word","S","exp","9"
"","null","html-keyboard-response","312","600577","0.0-3.0-0.148","+","null","","","","","",""
"","1087","html-keyboard-response","313","601665","0.0-3.0-1.148","civil","s","a","cog","word","S","exp","5"
"","null","html-keyboard-response","314","602176","0.0-3.0-0.149","+","null","","","","","",""
"","2606","html-keyboard-response","315","604783","0.0-3.0-1.149","atapdar","n","null","noncog","pseudo","N","exp","null"
"","null","html-keyboard-response","316","605287","0.0-3.0-0.150","+","null","","","","","",""
"","2455","html-keyboard-response","317","607742","0.0-3.0-1.150","pangos","n","null","noncog","pseudo","N","exp","null"
"","null","html-keyboard-response","318","608253","0.0-3.0-0.151","+","null","","","","","",""
"","1134","html-keyboard-response","319","609387","0.0-3.0-1.151","glória","s","n","cog","word","S","exp","6"
"","null","html-keyboard-response","320","609893","0.0-3.0-0.152","+","null","","","","","",""
"","1173","html-keyboard-response","321","611066","0.0-3.0-1.152","grátis","s","a","cog","word","S","exp","6"
"","null","html-keyboard-response","322","611576","0.0-3.0-0.153","+","null","","","","","",""
"","1132","html-keyboard-response","323","612708","0.0-3.0-1.153","cravo","s","n","noncog","word","S","exp","5"
"","null","html-keyboard-response","324","613219","0.0-3.0-0.154","+","null","","","","","",""
"","1126","html-keyboard-response","325","614347","0.0-3.0-1.154","apontar","s","v","noncog","word","S","exp","7"
"","null","html-keyboard-response","326","614851","0.0-3.0-0.155","+","null","","","","","",""
"","3592","html-keyboard-response","327","618445","0.0-3.0-1.155","boreta","n","null","noncog","pseudo","N","exp","null"
"","null","html-keyboard-response","328","618958","0.0-3.0-0.156","+","null","","","","","",""
"","2137","html-keyboard-response","329","621096","0.0-3.0-1.156","usfiga","n","null","noncog","pseudo","N","exp","null"
"","null","html-keyboard-response","330","621599","0.0-3.0-0.157","+","null","","","","","",""
"","1046","html-keyboard-response","331","622645","0.0-3.0-1.157","grótis","s","null","noncog","pseudo","N","exp","null"
"","null","html-keyboard-response","332","623146","0.0-3.0-0.158","+","null","","","","","",""
"","1161","html-keyboard-response","333","624307","0.0-3.0-1.158","mania","s","n","cog","word","S","exp","5"
"","null","html-keyboard-response","334","624814","0.0-3.0-0.159","+","null","","","","","",""
"","2349","html-keyboard-response","335","627164","0.0-3.0-1.159","pitada","n","n","noncog","word","S","exp","6"
"","null","html-keyboard-response","336","627679","0.0-3.0-0.160","+","null","","","","","",""
"","1027","html-keyboard-response","337","628706","0.0-3.0-1.160","trabalhar","s","v","noncog","word","S","exp","9"
"","null","html-keyboard-response","338","629221","0.0-3.0-0.161","+","null","","","","","",""
"","1484","html-keyboard-response","339","630707","0.0-3.0-1.161","delirar","n","v","noncog","word","S","exp","7"
"","null","html-keyboard-response","340","631213","0.0-3.0-0.162","+","null","","","","","",""
"","974","html-keyboard-response","341","632189","0.0-3.0-1.162","verdade","s","n","cog","word","S","exp","7"
"","null","html-keyboard-response","342","632693","0.0-3.0-0.163","+","null","","","","","",""
"","1934","html-keyboard-response","343","634628","0.0-3.0-1.163","ocinto","s","null","noncog","pseudo","N","exp","null"
"","null","html-keyboard-response","344","635143","0.0-3.0-0.164","+","null","","","","","",""
"","826","html-keyboard-response","345","635969","0.0-3.0-1.164","esperar","s","v","cog","word","S","exp","7"
"","null","html-keyboard-response","346","636476","0.0-3.0-0.165","+","null","","","","","",""
"","1480","html-keyboard-response","347","637956","0.0-3.0-1.165","hipócrita","s","a","noncog","word","S","exp","9"
"","null","html-keyboard-response","348","638472","0.0-3.0-0.166","+","null","","","","","",""
"","1186","html-keyboard-response","349","639659","0.0-3.0-1.166","nervoso","s","a","noncog","word","S","exp","7"
"","null","html-keyboard-response","350","640172","0.0-3.0-0.167","+","null","","","","","",""
"","3344","html-keyboard-response","351","643517","0.0-3.0-1.167","enxerido","s","a","noncog","word","S","exp","8"
"","null","html-keyboard-response","352","644022","0.0-3.0-0.168","+","null","","","","","",""
"","901","html-keyboard-response","353","644925","0.0-3.0-1.168","mal","s","a","cog","word","S","exp","3"
"","null","html-keyboard-response","354","645427","0.0-3.0-0.169","+","null","","","","","",""
"","1012","html-keyboard-response","355","646440","0.0-3.0-1.169","cerca","s","n","noncog","word","S","exp","5"
"","null","html-keyboard-response","356","646945","0.0-3.0-0.170","+","null","","","","","",""
"","1099","html-keyboard-response","357","648044","0.0-3.0-1.170","alfabeto","s","n","cog","word","S","exp","8"
"","null","html-keyboard-response","358","648555","0.0-3.0-0.171","+","null","","","","","",""
"","1696","html-keyboard-response","359","650253","0.0-3.0-1.171","gertas","n","null","noncog","pseudo","N","exp","null"
"","null","html-keyboard-response","360","650754","0.0-3.0-0.172","+","null","","","","","",""
"","2645","html-keyboard-response","361","653399","0.0-3.0-1.172","suipestar","s","null","noncog","pseudo","N","exp","null"
"","null","html-keyboard-response","362","653904","0.0-3.0-0.173","+","null","","","","","",""
"","1532","html-keyboard-response","363","655437","0.0-3.0-1.173","nevela","s","null","noncog","pseudo","N","exp","null"
"","null","html-keyboard-response","364","655941","0.0-3.0-0.174","+","null","","","","","",""
"","1991","html-keyboard-response","365","657933","0.0-3.0-1.174","raspar","s","v","noncog","word","S","exp","6"
"","null","html-keyboard-response","366","658450","0.0-3.0-0.175","+","null","","","","","",""
"","1174","html-keyboard-response","367","659624","0.0-3.0-1.175","país","s","n","noncog","word","S","exp","4"
"","null","html-keyboard-response","368","660126","0.0-3.0-0.176","+","null","","","","","",""
"","959","html-keyboard-response","369","661087","0.0-3.0-1.176","anjo","s","n","cog","word","S","exp","4"
"","null","html-keyboard-response","370","661593","0.0-3.0-0.177","+","null","","","","","",""
"","902","html-keyboard-response","371","662497","0.0-3.0-1.177","dia","s","n","noncog","word","S","exp","3"
"","null","html-keyboard-response","372","663006","0.0-3.0-0.178","+","null","","","","","",""
"","1494","html-keyboard-response","373","664500","0.0-3.0-1.178","comércio","s","n","noncog","word","S","exp","8"
"","null","html-keyboard-response","374","665003","0.0-3.0-0.179","+","null","","","","","",""
"","1583","html-keyboard-response","375","666586","0.0-3.0-1.179","oricia","n","null","noncog","pseudo","N","exp","null"
"","null","html-keyboard-response","376","667102","0.0-3.0-0.180","+","null","","","","","",""
"","908","html-keyboard-response","377","668012","0.0-3.0-1.180","cinema","s","n","cog","word","S","exp","6"
"","null","html-keyboard-response","378","668522","0.0-3.0-0.181","+","null","","","","","",""
"","2117","html-keyboard-response","379","670639","0.0-3.0-1.181","motre","n","null","noncog","pseudo","N","exp","null"
"","null","html-keyboard-response","380","671148","0.0-3.0-0.182","+","null","","","","","",""
"","1118","html-keyboard-response","381","672267","0.0-3.0-1.182","atrasar","s","v","noncog","word","S","exp","7"
"","null","html-keyboard-response","382","672775","0.0-3.0-0.183","+","null","","","","","",""
"","1034","html-keyboard-response","383","673810","0.0-3.0-1.183","arranjar","s","v","cog","word","S","exp","8"
"","null","html-keyboard-response","384","674324","0.0-3.0-0.184","+","null","","","","","",""
"","1100","html-keyboard-response","385","675425","0.0-3.0-1.184","lorfaz","n","null","noncog","pseudo","N","exp","null"
"","null","html-keyboard-response","386","675927","0.0-3.0-0.185","+","null","","","","","",""
"","2644","html-keyboard-response","387","678572","0.0-3.0-1.185","bachir","n","null","noncog","pseudo","N","exp","null"
"","null","html-keyboard-response","388","679080","0.0-3.0-0.186","+","null","","","","","",""
"","918","html-keyboard-response","389","679999","0.0-3.0-1.186","fogão","s","n","noncog","word","S","exp","5"
"","null","html-keyboard-response","390","680503","0.0-3.0-0.187","+","null","","","","","",""
"","2029","html-keyboard-response","391","682533","0.0-3.0-1.187","fratos","s","null","noncog","pseudo","N","exp","null"
"","null","html-keyboard-response","392","683045","0.0-3.0-0.188","+","null","","","","","",""
"","2246","html-keyboard-response","393","685292","0.0-3.0-1.188","undivídio","s","null","noncog","pseudo","N","exp","null"
"","null","html-keyboard-response","394","685796","0.0-3.0-0.189","+","null","","","","","",""
"","2785","html-keyboard-response","395","688582","0.0-3.0-1.189","bagunceira","s","a","noncog","word","S","exp","10"
"","null","html-keyboard-response","396","689085","0.0-3.0-0.190","+","null","","","","","",""
"","2252","html-keyboard-response","397","691338","0.0-3.0-1.190","rovaz","n","null","noncog","pseudo","N","exp","null"
"","null","html-keyboard-response","398","691841","0.0-3.0-0.191","+","null","","","","","",""
"","1054","html-keyboard-response","399","692896","0.0-3.0-1.191","destino","s","n","cog","word","S","exp","7"
"","null","html-keyboard-response","400","693403","0.0-3.0-0.192","+","null","","","","","",""
"","919","html-keyboard-response","401","694323","0.0-3.0-1.192","frotes","n","null","noncog","pseudo","N","exp","null"
"","null","html-keyboard-response","402","694826","0.0-3.0-0.193","+","null","","","","","",""
"","2250","html-keyboard-response","403","697078","0.0-3.0-1.193","delomir","n","null","noncog","pseudo","N","exp","null"
"","null","html-keyboard-response","404","697582","0.0-3.0-0.194","+","null","","","","","",""
"","1175","html-keyboard-response","405","698760","0.0-3.0-1.194","loaco","n","null","noncog","pseudo","N","exp","null"
"","null","html-keyboard-response","406","699271","0.0-3.0-0.195","+","null","","","","","",""
"","1329","html-keyboard-response","407","700601","0.0-3.0-1.195","independente","s","a","noncog","word","S","exp","12"
"","null","html-keyboard-response","408","701103","0.0-3.0-0.196","+","null","","","","","",""
"","1265","html-keyboard-response","409","702369","0.0-3.0-1.196","filosofia","s","n","cog","word","S","exp","9"
"","null","html-keyboard-response","410","702883","0.0-3.0-0.197","+","null","","","","","",""
"","1021","html-keyboard-response","411","703906","0.0-3.0-1.197","morar","s","v","noncog","word","S","exp","5"
"","null","html-keyboard-response","412","704421","0.0-3.0-0.198","+","null","","","","","",""
"","2740","html-keyboard-response","413","707162","0.0-3.0-1.198","âgnulo","n","null","noncog","pseudo","N","exp","null"
"","null","html-keyboard-response","414","707677","0.0-3.0-0.199","+","null","","","","","",""
"","1739","html-keyboard-response","415","709417","0.0-3.0-1.199","planalto","s","n","cog","word","S","exp","8"
"","null","html-keyboard-response","416","709922","0.0-3.0-0.200","+","null","","","","","",""
"","2106","html-keyboard-response","417","712029","0.0-3.0-1.200","cascata","n","n","noncog","word","S","exp","7"
"","null","html-keyboard-response","418","712531","0.0-3.0-0.201","+","null","","","","","",""
"","1297","html-keyboard-response","419","713829","0.0-3.0-1.201","prever","s","v","cog","word","S","exp","6"
"","null","html-keyboard-response","420","714338","0.0-3.0-0.202","+","null","","","","","",""
"","1690","html-keyboard-response","421","716029","0.0-3.0-1.202","costra","n","null","noncog","pseudo","N","exp","null"
"","null","html-keyboard-response","422","716543","0.0-3.0-0.203","+","null","","","","","",""
"","2168","html-keyboard-response","423","718713","0.0-3.0-1.203","promeção","s","null","noncog","pseudo","N","exp","null"
"","null","html-keyboard-response","424","719217","0.0-3.0-0.204","+","null","","","","","",""
"","1077","html-keyboard-response","425","720295","0.0-3.0-1.204","livro","s","n","cog","word","S","exp","5"
"","null","html-keyboard-response","426","720810","0.0-3.0-0.205","+","null","","","","","",""
"","1540","html-keyboard-response","427","722352","0.0-3.0-1.205","instruído","s","a","noncog","word","S","exp","9"
"","null","html-keyboard-response","428","722862","0.0-3.0-0.206","+","null","","","","","",""
"","1038","html-keyboard-response","429","723901","0.0-3.0-1.206","animado","s","a","noncog","word","S","exp","7"
"","null","html-keyboard-response","430","724412","0.0-3.0-0.207","+","null","","","","","",""
"","1486","html-keyboard-response","431","725899","0.0-3.0-1.207","risbos","n","null","noncog","pseudo","N","exp","null"
"","null","html-keyboard-response","432","726403","0.0-3.0-0.208","+","null","","","","","",""
"","1308","html-keyboard-response","433","727710","0.0-3.0-1.208","drama","s","n","cog","word","S","exp","5"
"","null","html-keyboard-response","434","728227","0.0-3.0-0.209","+","null","","","","","",""
"","1359","html-keyboard-response","435","729588","0.0-3.0-1.209","beima","n","null","noncog","pseudo","N","exp","null"
"","null","html-keyboard-response","436","730099","0.0-3.0-0.210","+","null","","","","","",""
"","1192","html-keyboard-response","437","731294","0.0-3.0-1.210","convidado","s","n","noncog","word","S","exp","9"
"","null","html-keyboard-response","438","731797","0.0-3.0-0.211","+","null","","","","","",""
"","855","html-keyboard-response","439","732654","0.0-3.0-1.211","especial","s","a","cog","word","S","exp","8"
"","null","html-keyboard-response","440","733168","0.0-3.0-0.212","+","null","","","","","",""
"","1090","html-keyboard-response","441","734258","0.0-3.0-1.212","brincar","s","v","noncog","word","S","exp","7"
"","null","html-keyboard-response","442","734765","0.0-3.0-0.213","+","null","","","","","",""
"","1669","html-keyboard-response","443","736433","0.0-3.0-1.213","enxarto","s","null","noncog","pseudo","N","exp","null"
"","null","html-keyboard-response","444","736945","0.0-3.0-0.214","+","null","","","","","",""
"","1175","html-keyboard-response","445","738121","0.0-3.0-1.214","cenada","n","null","noncog","pseudo","N","exp","null"
"","null","html-keyboard-response","446","738623","0.0-3.0-0.215","+","null","","","","","",""
"","1343","html-keyboard-response","447","739967","0.0-3.0-1.215","extravagante","s","a","cog","word","S","exp","12"
"","null","html-keyboard-response","448","740471","0.0-3.0-0.216","+","null","","","","","",""
"","1378","html-keyboard-response","449","741850","0.0-3.0-1.216","uchães","s","null","noncog","pseudo","N","exp","null"
"","null","html-keyboard-response","450","742357","0.0-3.0-0.217","+","null","","","","","",""
"","1189","html-keyboard-response","451","743547","0.0-3.0-1.217","dacada","s","null","noncog","pseudo","N","exp","null"
"","null","html-keyboard-response","452","744049","0.0-3.0-0.218","+","null","","","","","",""
"","1113","html-keyboard-response","453","745163","0.0-3.0-1.218","carona","s","n","noncog","word","S","exp","6"
"","null","html-keyboard-response","454","745677","0.0-3.0-0.219","+","null","","","","","",""
"","1172","html-keyboard-response","455","746849","0.0-3.0-1.219","aemaça","s","null","noncog","pseudo","N","exp","null"
"","null","html-keyboard-response","456","747366","0.0-3.0-0.220","+","null","","","","","",""
"","1033","html-keyboard-response","457","748400","0.0-3.0-1.220","adoçar","s","v","noncog","word","S","exp","6"
"","null","html-keyboard-response","458","748910","0.0-3.0-0.221","+","null","","","","","",""
"","1221","html-keyboard-response","459","750134","0.0-3.0-1.221","lagras","n","null","noncog","pseudo","N","exp","null"
"","null","html-keyboard-response","460","750643","0.0-3.0-0.222","+","null","","","","","",""
"","1561","html-keyboard-response","461","752206","0.0-3.0-1.222","franda","n","null","noncog","pseudo","N","exp","null"
"","null","html-keyboard-response","462","752708","0.0-3.0-0.223","+","null","","","","","",""
"","927","html-keyboard-response","463","753636","0.0-3.0-1.223","espaço","s","n","cog","word","S","exp","6"
"","null","html-keyboard-response","464","754142","0.0-3.0-0.224","+","null","","","","","",""
"","1356","html-keyboard-response","465","755500","0.0-3.0-1.224","revear","s","null","noncog","pseudo","N","exp","null"
"","null","html-keyboard-response","466","756004","0.0-3.0-0.225","+","null","","","","","",""
"","2417","html-keyboard-response","467","758422","0.0-3.0-1.225","vervas","n","null","noncog","pseudo","N","exp","null"
"","null","html-keyboard-response","468","758934","0.0-3.0-0.226","+","null","","","","","",""
"","1213","html-keyboard-response","469","760148","0.0-3.0-1.226","tartos","n","null","noncog","pseudo","N","exp","null"
"","null","html-keyboard-response","470","760659","0.0-3.0-0.227","+","null","","","","","",""
"","1395","html-keyboard-response","471","762055","0.0-3.0-1.227","terdia","n","null","noncog","pseudo","N","exp","null"
"","null","html-keyboard-response","472","762558","0.0-3.0-0.228","+","null","","","","","",""
"","1226","html-keyboard-response","473","763785","0.0-3.0-1.228","chorão","s","a","noncog","word","S","exp","6"
"","null","html-keyboard-response","474","764299","0.0-3.0-0.229","+","null","","","","","",""
"","1020","html-keyboard-response","475","765320","0.0-3.0-1.229","pedaço","s","n","noncog","word","S","exp","6"
"","null","html-keyboard-response","476","765832","0.0-3.0-0.230","+","null","","","","","",""
"","1748","html-keyboard-response","477","767582","0.0-3.0-1.230","podilo","n","null","noncog","pseudo","N","exp","null"
"","null","html-keyboard-response","478","768086","0.0-3.0-0.231","+","null","","","","","",""
"","1056","html-keyboard-response","479","769144","0.0-3.0-1.231","promessa","s","n","noncog","word","S","exp","8"
"","null","html-keyboard-response","480","769647","0.0-3.0-0.232","+","null","","","","","",""
"","1274","html-keyboard-response","481","770922","0.0-3.0-1.232","pritas","n","null","noncog","pseudo","N","exp","null"
"","null","html-keyboard-response","482","771432","0.0-3.0-0.233","+","null","","","","","",""
"","1730","html-keyboard-response","483","773164","0.0-3.0-1.233","sábio","s","n","noncog","word","S","exp","5"
"","null","html-keyboard-response","484","773675","0.0-3.0-0.234","+","null","","","","","",""
"","1762","html-keyboard-response","485","775438","0.0-3.0-1.234","gilha","s","null","noncog","pseudo","N","exp","null"
"","null","html-keyboard-response","486","775941","0.0-3.0-0.235","+","null","","","","","",""
"","999","html-keyboard-response","487","776941","0.0-3.0-1.235","cristal","s","n","cog","word","S","exp","7"
"","null","html-keyboard-response","488","777452","0.0-3.0-0.236","+","null","","","","","",""
"","1098","html-keyboard-response","489","778550","0.0-3.0-1.236","tímido","s","a","cog","word","S","exp","6"
"","null","html-keyboard-response","490","779052","0.0-3.0-0.237","+","null","","","","","",""
"","1647","html-keyboard-response","491","780702","0.0-3.0-1.237","distraído","s","a","cog","word","S","exp","9"
"","null","html-keyboard-response","492","781217","0.0-3.0-0.238","+","null","","","","","",""
"","2482","html-keyboard-response","493","783701","0.0-3.0-1.238","ejerro","s","null","noncog","pseudo","N","exp","null"
"","null","html-keyboard-response","494","784204","0.0-3.0-0.239","+","null","","","","","",""
"","861","html-keyboard-response","495","785066","0.0-3.0-1.239","fofo","s","a","noncog","word","S","exp","4"
