"view_history","rt","trial_type","trial_index","time_elapsed","internal_node_id","stimulus","response","trial_part","word","question","answer","trial","accuracy"
"[{""page_index"":0,""viewing_time"":1155},{""page_index"":1,""viewing_time"":687}]","1842","instructions","0","1845","0.0-0.0","","","","","","","",""
"","null","html-keyboard-response","1","2973","0.0-1.0-0.0-0.0","<span style= ""font-size:30px; font-family: monospace"">+</span>","null","fixation","","","","",""
"","6531","audio-keyboard-response","2","10276","0.0-1.0-1.0","../audio/prac-question-1-1.mp3"," ","","O","","","",""
"","1491","audio-keyboard-response","3","12202","0.0-1.0-1.1","../audio/prac-question-1-2.mp3"," ","","dia","","","",""
"","1309","audio-keyboard-response","4","13879","0.0-1.0-1.2","../audio/prac-question-1-3.mp3"," ","","estará","","","",""
"","1069","audio-keyboard-response","5","15313","0.0-1.0-1.3","../audio/prac-question-1-4.mp3"," ","","cheio","","","",""
"","851","audio-keyboard-response","6","16518","0.0-1.0-1.4","../audio/prac-question-1-5.mp3"," ","","de","","","",""
"","1491","audio-keyboard-response","7","18375","0.0-1.0-1.5","../audio/prac-question-1-6.mp3"," ","","nuvens","","","",""
"","1131","audio-keyboard-response","8","19911","0.0-1.0-1.6","../audio/prac-question-1-7.mp3"," ","","hoje.","","","",""
"","null","html-keyboard-response","9","21182","0.0-1.0-0.7-0.7","<span style= ""font-size:30px; font-family: monospace"">+</span>","null","fixation","","","","",""
"","840","audio-keyboard-response","10","22490","0.0-1.0-1.7","../audio/prac-question-2-1.mp3"," ","","A","","","",""
"","1240","audio-keyboard-response","11","24090","0.0-1.0-1.8","../audio/prac-question-2-2.mp3"," ","","caneca","","","",""
"","1189","audio-keyboard-response","12","25662","0.0-1.0-1.9","../audio/prac-question-2-3.mp3"," ","","colorida","","","",""
"","1000","audio-keyboard-response","13","27019","0.0-1.0-1.10","../audio/prac-question-2-4.mp3"," ","","caiu","","","",""
"","888","audio-keyboard-response","14","28259","0.0-1.0-1.11","../audio/prac-question-2-5.mp3"," ","","da","","","",""
"","1051","audio-keyboard-response","15","29670","0.0-1.0-1.12","../audio/prac-question-2-6.mp3"," ","","mesa","","","",""
"","829","audio-keyboard-response","16","30863","0.0-1.0-1.13","../audio/prac-question-2-7.mp3"," ","","de","","","",""
"","1032","audio-keyboard-response","17","32256","0.0-1.0-1.14","../audio/prac-question-2-8.mp3"," ","","jantar.","","","",""
"","3510","html-keyboard-response","18","36027","0.0-1.0-2.14-0.14","<span style=""font-size:25px; font-family: monospace"">A caneca era colorida?</span>","s","","","A caneca era colorida?","null","prac-sent","false"
"[{""page_index"":0,""viewing_time"":5407}]","5407","instructions","19","41940","0.0-2.0","","","","","","","",""
"","null","html-keyboard-response","20","43067","0.0-3.0-0.0-0.0","<span style= ""font-size:30px; font-family: monospace"">+</span>","null","fixation","","","","",""
"","1139","audio-keyboard-response","21","44626","0.0-3.0-1.0","../audio/22-1-masc.mp3"," ","","Eu","","","",""
"","1109","audio-keyboard-response","22","46098","0.0-3.0-1.1","../audio/22-2-masc.mp3"," ","","detesto","","","",""
"","1051","audio-keyboard-response","23","47555","0.0-3.0-1.2","../audio/22-3-masc.mp3"," ","","fumaça","","","",""
"","861","audio-keyboard-response","24","48767","0.0-3.0-1.3","../audio/22-4-masc.mp3"," ","","de","","","",""
"","1181","audio-keyboard-response","25","50277","0.0-3.0-1.4","../audio/22-5-masc.mp3"," ","","cachimbo","","","",""
"","901","audio-keyboard-response","26","51534","0.0-3.0-1.5","../audio/22-6-masc.mp3"," ","","e","","","",""
"","851","audio-keyboard-response","27","52715","0.0-3.0-1.6","../audio/22-7-masc.mp3"," ","","de","","","",""
"","1061","audio-keyboard-response","28","54136","0.0-3.0-1.7","../audio/22-8-masc.mp3"," ","","cigarro.","","","",""
"","null","html-keyboard-response","29","55397","0.0-3.0-0.8-0.8","<span style= ""font-size:30px; font-family: monospace"">+</span>","null","fixation","","","","",""
"","1109","audio-keyboard-response","30","56924","0.0-3.0-1.8","../audio/24-1-fem.mp3"," ","","As","","","",""
"","960","audio-keyboard-response","31","58260","0.0-3.0-1.9","../audio/24-2-fem.mp3"," ","","crianças","","","",""
"","859","audio-keyboard-response","32","59468","0.0-3.0-1.10","../audio/24-3-fem.mp3"," ","","vão","","","",""
"","989","audio-keyboard-response","33","60950","0.0-3.0-1.11","../audio/24-4-fem.mp3"," ","","ao","","","",""
"","1520","audio-keyboard-response","34","62829","0.0-3.0-1.12","../audio/24-5-fem.mp3"," ","","cinema","","","",""
"","989","audio-keyboard-response","35","64183","0.0-3.0-1.13","../audio/24-6-fem.mp3"," ","","mais","","","",""
"","1251","audio-keyboard-response","36","65789","0.0-3.0-1.14","../audio/24-7-fem.mp3"," ","","tarde.","","","",""
"","null","html-keyboard-response","37","67056","0.0-3.0-0.15-0.15","<span style= ""font-size:30px; font-family: monospace"">+</span>","null","fixation","","","","",""
"","1360","audio-keyboard-response","38","68860","0.0-3.0-1.15","../audio/21-1-fem.mp3"," ","","Precisamos","","","",""
"","789","audio-keyboard-response","39","70022","0.0-3.0-1.16","../audio/21-2-fem.mp3"," ","","de","","","",""
"","1299","audio-keyboard-response","40","71705","0.0-3.0-1.17","../audio/21-3-fem.mp3"," ","","paciência","","","",""
"","811","audio-keyboard-response","41","72880","0.0-3.0-1.18","../audio/21-4-fem.mp3"," ","","e","","","",""
"","1051","audio-keyboard-response","42","74294","0.0-3.0-1.19","../audio/21-5-fem.mp3"," ","","bondade","","","",""
"","1021","audio-keyboard-response","43","75684","0.0-3.0-1.20","../audio/21-6-fem.mp3"," ","","para","","","",""
"","859","audio-keyboard-response","44","76912","0.0-3.0-1.21","../audio/21-7-fem.mp3"," ","","um","","","",""
"","1240","audio-keyboard-response","45","78503","0.0-3.0-1.22","../audio/21-8-fem.mp3"," ","","mundo","","","",""
"","1072","audio-keyboard-response","46","79936","0.0-3.0-1.23","../audio/21-9-fem.mp3"," ","","melhor.","","","",""
"","null","html-keyboard-response","47","81207","0.0-3.0-0.24-0.24","<span style= ""font-size:30px; font-family: monospace"">+</span>","null","fixation","","","","",""
"","1749","audio-keyboard-response","48","83389","0.0-3.0-1.24","../audio/23-1-masc.mp3"," ","","Português","","","",""
"","832","audio-keyboard-response","49","84653","0.0-3.0-1.25","../audio/23-2-masc.mp3"," ","","é","","","",""
"","840","audio-keyboard-response","50","85852","0.0-3.0-1.26","../audio/23-3-masc.mp3"," ","","um","","","",""
"","1120","audio-keyboard-response","51","87342","0.0-3.0-1.27","../audio/23-4-masc.mp3"," ","","assunto","","","",""
"","1312","audio-keyboard-response","52","89017","0.0-3.0-1.28","../audio/23-5-masc.mp3"," ","","elementar","","","",""
"","971","audio-keyboard-response","53","90350","0.0-3.0-1.29","../audio/23-6-masc.mp3"," ","","para","","","",""
"","1000","audio-keyboard-response","54","91736","0.0-3.0-1.30","../audio/23-7-masc.mp3"," ","","os","","","",""
"","920","audio-keyboard-response","55","93025","0.0-3.0-1.31","../audio/23-8-masc.mp3"," ","","alunos.","","","",""
"","null","html-keyboard-response","56","94295","0.0-3.0-0.32-0.32","<span style= ""font-size:30px; font-family: monospace"">+</span>","null","fixation","","","","",""
"","851","audio-keyboard-response","57","95597","0.0-3.0-1.32","../audio/25-1-masc.mp3"," ","","Ela","","","",""
"","811","audio-keyboard-response","58","96762","0.0-3.0-1.33","../audio/25-2-masc.mp3"," ","","faz","","","",""
"","1019","audio-keyboard-response","59","98143","0.0-3.0-1.34","../audio/25-3-masc.mp3"," ","","tanto","","","",""
"","971","audio-keyboard-response","60","99480","0.0-3.0-1.35","../audio/25-4-masc.mp3"," ","","cabelo","","","",""
"","869","audio-keyboard-response","61","100704","0.0-3.0-1.36","../audio/25-5-masc.mp3"," ","","liso","","","",""
"","901","audio-keyboard-response","62","101958","0.0-3.0-1.37","../audio/25-6-masc.mp3"," ","","quanto","","","",""
"","880","audio-keyboard-response","63","103203","0.0-3.0-1.38","../audio/25-7-masc.mp3"," ","","cacheado.","","","",""
"","4578","html-keyboard-response","64","108044","0.0-3.0-2.38-0.38","<span style=""font-size:25px; font-family: monospace"">Ela só faz cabelo cacheado?</span>","s","","","Ela só faz cabelo cacheado?","null","exp-sent","false"
"","null","html-keyboard-response","65","109565","0.0-3.0-0.39-0.39","<span style= ""font-size:30px; font-family: monospace"">+</span>","null","fixation","","","","",""
"","189","audio-keyboard-response","66","110146","0.0-3.0-1.39","../audio/61-1-fem.mp3"," ","","Aquele","","","",""
"","1371","audio-keyboard-response","67","111844","0.0-3.0-1.40","../audio/61-2-fem.mp3"," ","","senhor","","","",""
"","931","audio-keyboard-response","68","113123","0.0-3.0-1.41","../audio/61-3-fem.mp3"," ","","é","","","",""
"","1280","audio-keyboard-response","69","114748","0.0-3.0-1.42","../audio/61-4-fem.mp3"," ","","muito","","","",""
"","1189","audio-keyboard-response","70","116307","0.0-3.0-1.43","../audio/61-5-fem.mp3"," ","","sovina","","","",""
"","949","audio-keyboard-response","71","117624","0.0-3.0-1.44","../audio/61-6-fem.mp3"," ","","e","","","",""
"","2011","audio-keyboard-response","72","120010","0.0-3.0-1.45","../audio/61-7-fem.mp3"," ","","inflexível.","","","",""
"","null","html-keyboard-response","73","121268","0.0-3.0-0.46-0.46","<span style= ""font-size:30px; font-family: monospace"">+</span>","null","fixation","","","","",""
"","829","audio-keyboard-response","74","122518","0.0-3.0-1.46","../audio/63-1-fem.mp3"," ","","A","","","",""
"","1331","audio-keyboard-response","75","124206","0.0-3.0-1.47","../audio/63-2-fem.mp3"," ","","chuva","","","",""
"","1251","audio-keyboard-response","76","125816","0.0-3.0-1.48","../audio/63-3-fem.mp3"," ","","entrou","","","",""
"","1189","audio-keyboard-response","77","127380","0.0-3.0-1.49","../audio/63-4-fem.mp3"," ","","pela","","","",""
"","1531","audio-keyboard-response","78","129310","0.0-3.0-1.50","../audio/63-5-fem.mp3"," ","","abertura","","","",""
"","1160","audio-keyboard-response","79","130964","0.0-3.0-1.51","../audio/63-6-fem.mp3"," ","","na","","","",""
"","1379","audio-keyboard-response","80","132702","0.0-3.0-1.52","../audio/63-7-fem.mp3"," ","","janela.","","","",""
"","null","html-keyboard-response","81","133970","0.0-3.0-0.53-0.53","<span style= ""font-size:30px; font-family: monospace"">+</span>","null","fixation","","","","",""
"","1040","audio-keyboard-response","82","135428","0.0-3.0-1.53","../audio/64-1-masc.mp3"," ","","O","","","",""
"","989","audio-keyboard-response","83","136778","0.0-3.0-1.54","../audio/64-2-masc.mp3"," ","","dia","","","",""
"","1088","audio-keyboard-response","84","138258","0.0-3.0-1.55","../audio/64-3-masc.mp3"," ","","começou","","","",""
"","819","audio-keyboard-response","85","139460","0.0-3.0-1.56","../audio/64-4-masc.mp3"," ","","com","","","",""
"","1021","audio-keyboard-response","86","140839","0.0-3.0-1.57","../audio/64-5-masc.mp3"," ","","garoa","","","",""
"","1189","audio-keyboard-response","87","142393","0.0-3.0-1.58","../audio/64-6-masc.mp3"," ","","gelada","","","",""
"","789","audio-keyboard-response","88","143551","0.0-3.0-1.59","../audio/64-7-masc.mp3"," ","","e","","","",""
"","1131","audio-keyboard-response","89","145039","0.0-3.0-1.60","../audio/64-8-masc.mp3"," ","","leve.","","","",""
"","null","html-keyboard-response","90","146315","0.0-3.0-0.61-0.61","<span style= ""font-size:30px; font-family: monospace"">+</span>","null","fixation","","","","",""
"","1000","audio-keyboard-response","91","147737","0.0-3.0-1.61","../audio/62-1-fem.mp3"," ","","As","","","",""
"","1611","audio-keyboard-response","92","149716","0.0-3.0-1.62","../audio/62-2-fem.mp3"," ","","artesãs","","","",""
"","960","audio-keyboard-response","93","151037","0.0-3.0-1.63","../audio/62-3-fem.mp3"," ","","gostam","","","",""
"","840","audio-keyboard-response","94","152241","0.0-3.0-1.64","../audio/62-4-fem.mp3"," ","","de","","","",""
"","1371","audio-keyboard-response","95","153971","0.0-3.0-1.65","../audio/62-5-fem.mp3"," ","","maquiagem","","","",""
"","811","audio-keyboard-response","96","155165","0.0-3.0-1.66","../audio/62-6-fem.mp3"," ","","e","","","",""
"","880","audio-keyboard-response","97","156403","0.0-3.0-1.67","../audio/62-7-fem.mp3"," ","","de","","","",""
"","1181","audio-keyboard-response","98","157927","0.0-3.0-1.68","../audio/62-8-fem.mp3"," ","","crochê.","","","",""
"","null","html-keyboard-response","99","159185","0.0-3.0-0.69-0.69","<span style= ""font-size:30px; font-family: monospace"">+</span>","null","fixation","","","","",""
"","859","audio-keyboard-response","100","160476","0.0-3.0-1.69","../audio/65-1-masc.mp3"," ","","O","","","",""
"","1099","audio-keyboard-response","101","161913","0.0-3.0-1.70","../audio/65-2-masc.mp3"," ","","fantasma","","","",""
"","941","audio-keyboard-response","102","163209","0.0-3.0-1.71","../audio/65-3-masc.mp3"," ","","veio","","","",""
"","821","audio-keyboard-response","103","164400","0.0-3.0-1.72","../audio/65-4-masc.mp3"," ","","da","","","",""
"","1451","audio-keyboard-response","104","166210","0.0-3.0-1.73","../audio/65-5-masc.mp3"," ","","escuridão","","","",""
"","909","audio-keyboard-response","105","167472","0.0-3.0-1.74","../audio/65-6-masc.mp3"," ","","do","","","",""
"","1280","audio-keyboard-response","106","169112","0.0-3.0-1.75","../audio/65-7-masc.mp3"," ","","armário.","","","",""
"","3543","html-keyboard-response","107","172920","0.0-3.0-2.75-0.75","<span style=""font-size:25px; font-family: monospace"">O fantasma veio da escuridão do armário?</span>","s","","","O fantasma veio da escuridão do armário?","null","exp-sent","false"
"","null","html-keyboard-response","108","174436","0.0-3.0-0.76-0.76","<span style= ""font-size:30px; font-family: monospace"">+</span>","null","fixation","","","","",""
"","1248","audio-keyboard-response","109","176143","0.0-3.0-1.76","../audio/44-1-fem.mp3"," ","","Meus","","","",""
"","1109","audio-keyboard-response","110","177627","0.0-3.0-1.77","../audio/44-2-fem.mp3"," ","","irmãos","","","",""
"","1029","audio-keyboard-response","111","179025","0.0-3.0-1.78","../audio/44-3-fem.mp3"," ","","brigam","","","",""
"","912","audio-keyboard-response","112","180333","0.0-3.0-1.79","../audio/44-4-fem.mp3"," ","","por","","","",""
"","1200","audio-keyboard-response","113","181890","0.0-3.0-1.80","../audio/44-5-fem.mp3"," ","","bobagem","","","",""
"","949","audio-keyboard-response","114","183206","0.0-3.0-1.81","../audio/44-6-fem.mp3"," ","","todos","","","",""
"","1029","audio-keyboard-response","115","184602","0.0-3.0-1.82","../audio/44-7-fem.mp3"," ","","os","","","",""
"","880","audio-keyboard-response","116","185852","0.0-3.0-1.83","../audio/44-8-fem.mp3"," ","","dias.","","","",""
"","null","html-keyboard-response","117","187119","0.0-3.0-0.84-0.84","<span style= ""font-size:30px; font-family: monospace"">+</span>","null","fixation","","","","",""
"","771","audio-keyboard-response","118","188310","0.0-3.0-1.84","../audio/41-1-fem.mp3"," ","","A","","","",""
"","1149","audio-keyboard-response","119","189824","0.0-3.0-1.85","../audio/41-2-fem.mp3"," ","","novela","","","",""
"","931","audio-keyboard-response","120","191134","0.0-3.0-1.86","../audio/41-3-fem.mp3"," ","","falava","","","",""
"","720","audio-keyboard-response","121","192193","0.0-3.0-1.87","../audio/41-4-fem.mp3"," ","","de","","","",""
"","1320","audio-keyboard-response","122","193868","0.0-3.0-1.88","../audio/41-5-fem.mp3"," ","","paixão","","","",""
"","880","audio-keyboard-response","123","195099","0.0-3.0-1.89","../audio/41-6-fem.mp3"," ","","e","","","",""
"","1171","audio-keyboard-response","124","196634","0.0-3.0-1.90","../audio/41-7-fem.mp3"," ","","comédia.","","","",""
"","null","html-keyboard-response","125","197905","0.0-3.0-0.91-0.91","<span style= ""font-size:30px; font-family: monospace"">+</span>","null","fixation","","","","",""
"","672","audio-keyboard-response","126","199015","0.0-3.0-1.91","../audio/43-1-fem.mp3"," ","","Eu","","","",""
"","1080","audio-keyboard-response","127","200457","0.0-3.0-1.92","../audio/43-2-fem.mp3"," ","","achei","","","",""
"","789","audio-keyboard-response","128","201607","0.0-3.0-1.93","../audio/43-3-fem.mp3"," ","","um","","","",""
"","1128","audio-keyboard-response","129","203101","0.0-3.0-1.94","../audio/43-4-fem.mp3"," ","","colchão","","","",""
"","899","audio-keyboard-response","130","204350","0.0-3.0-1.95","../audio/43-5-fem.mp3"," ","","velho","","","",""
"","792","audio-keyboard-response","131","205492","0.0-3.0-1.96","../audio/43-6-fem.mp3"," ","","e","","","",""
"","1141","audio-keyboard-response","132","207044","0.0-3.0-1.97","../audio/43-7-fem.mp3"," ","","imundo","","","",""
"","920","audio-keyboard-response","133","208329","0.0-3.0-1.98","../audio/43-8-fem.mp3"," ","","na","","","",""
"","1179","audio-keyboard-response","134","209871","0.0-3.0-1.99","../audio/43-9-fem.mp3"," ","","casa.","","","",""
"","null","html-keyboard-response","135","211135","0.0-3.0-0.100-0.100","<span style= ""font-size:30px; font-family: monospace"">+</span>","null","fixation","","","","",""
"","851","audio-keyboard-response","136","212414","0.0-3.0-1.100","../audio/42-1-fem.mp3"," ","","Eu","","","",""
"","832","audio-keyboard-response","137","213611","0.0-3.0-1.101","../audio/42-2-fem.mp3"," ","","fui","","","",""
"","741","audio-keyboard-response","138","214725","0.0-3.0-1.102","../audio/42-3-fem.mp3"," ","","a","","","",""
"","989","audio-keyboard-response","139","216059","0.0-3.0-1.103","../audio/42-4-fem.mp3"," ","","uma","","","",""
"","1091","audio-keyboard-response","140","217515","0.0-3.0-1.104","../audio/42-5-fem.mp3"," ","","loja","","","",""
"","861","audio-keyboard-response","141","218720","0.0-3.0-1.105","../audio/42-6-fem.mp3"," ","","de","","","",""
"","1069","audio-keyboard-response","142","220196","0.0-3.0-1.106","../audio/42-7-fem.mp3"," ","","móveis","","","",""
"","920","audio-keyboard-response","143","221468","0.0-3.0-1.107","../audio/42-8-fem.mp3"," ","","no","","","",""
"","941","audio-keyboard-response","144","222763","0.0-3.0-1.108","../audio/42-9-fem.mp3"," ","","bairro.","","","",""
"","null","html-keyboard-response","145","224028","0.0-3.0-0.109-0.109","<span style= ""font-size:30px; font-family: monospace"">+</span>","null","fixation","","","","",""
"","749","audio-keyboard-response","146","225204","0.0-3.0-1.109","../audio/45-1-fem.mp3"," ","","O","","","",""
"","789","audio-keyboard-response","147","226347","0.0-3.0-1.110","../audio/45-2-fem.mp3"," ","","homem","","","",""
"","861","audio-keyboard-response","148","227576","0.0-3.0-1.111","../audio/45-3-fem.mp3"," ","","pagou","","","",""
"","749","audio-keyboard-response","149","228685","0.0-3.0-1.112","../audio/45-4-fem.mp3"," ","","o","","","",""
"","1240","audio-keyboard-response","150","230286","0.0-3.0-1.113","../audio/45-5-fem.mp3"," ","","aluguel","","","",""
"","800","audio-keyboard-response","151","231440","0.0-3.0-1.114","../audio/45-6-fem.mp3"," ","","com","","","",""
"","1299","audio-keyboard-response","152","233097","0.0-3.0-1.115","../audio/45-7-fem.mp3"," ","","atraso.","","","",""
"","3404","html-keyboard-response","153","236765","0.0-3.0-2.115-0.115","<span style=""font-size:25px; font-family: monospace"">O homem pagou o aluguel em dia?</span>","n","","","O homem pagou o aluguel em dia?","null","exp-sent","false"
"","null","html-keyboard-response","154","238286","0.0-3.0-0.116-0.116","<span style= ""font-size:30px; font-family: monospace"">+</span>","null","fixation","","","","",""
"","1109","audio-keyboard-response","155","239823","0.0-3.0-1.116","../audio/67-1-fem.mp3"," ","","Minha","","","",""
"","888","audio-keyboard-response","156","241065","0.0-3.0-1.117","../audio/67-2-fem.mp3"," ","","tia","","","",""
"","1120","audio-keyboard-response","157","242553","0.0-3.0-1.118","../audio/67-3-fem.mp3"," ","","comprou","","","",""
"","931","audio-keyboard-response","158","243834","0.0-3.0-1.119","../audio/67-4-fem.mp3"," ","","um","","","",""
"","1181","audio-keyboard-response","159","245370","0.0-3.0-1.120","../audio/67-5-fem.mp3"," ","","cordão","","","",""
"","989","audio-keyboard-response","160","246667","0.0-3.0-1.121","../audio/67-6-fem.mp3"," ","","para","","","",""
"","800","audio-keyboard-response","161","247833","0.0-3.0-1.122","../audio/67-7-fem.mp3"," ","","o","","","",""
"","1112","audio-keyboard-response","162","249288","0.0-3.0-1.123","../audio/67-8-fem.mp3"," ","","varal.","","","",""
"","null","html-keyboard-response","163","250549","0.0-3.0-0.124-0.124","<span style= ""font-size:30px; font-family: monospace"">+</span>","null","fixation","","","","",""
"","829","audio-keyboard-response","164","251788","0.0-3.0-1.124","../audio/66-1-fem.mp3"," ","","Não","","","",""
"","901","audio-keyboard-response","165","253053","0.0-3.0-1.125","../audio/66-2-fem.mp3"," ","","gosto","","","",""
"","789","audio-keyboard-response","166","254203","0.0-3.0-1.126","../audio/66-3-fem.mp3"," ","","de","","","",""
"","1299","audio-keyboard-response","167","255863","0.0-3.0-1.127","../audio/66-4-fem.mp3"," ","","gente","","","",""
"","1619","audio-keyboard-response","168","257867","0.0-3.0-1.128","../audio/66-5-fem.mp3"," ","","egoísta","","","",""
"","1061","audio-keyboard-response","169","259277","0.0-3.0-1.129","../audio/66-6-fem.mp3"," ","","nem","","","",""
"","1360","audio-keyboard-response","170","260995","0.0-3.0-1.130","../audio/66-7-fem.mp3"," ","","chata.","","","",""
"","null","html-keyboard-response","171","262254","0.0-3.0-0.131-0.131","<span style= ""font-size:30px; font-family: monospace"">+</span>","null","fixation","","","","",""
"","939","audio-keyboard-response","172","263618","0.0-3.0-1.131","../audio/68-1-fem.mp3"," ","","Meu","","","",""
"","1019","audio-keyboard-response","173","264994","0.0-3.0-1.132","../audio/68-2-fem.mp3"," ","","irmão","","","",""
"","851","audio-keyboard-response","174","266188","0.0-3.0-1.133","../audio/68-3-fem.mp3"," ","","teve","","","",""
"","840","audio-keyboard-response","175","267399","0.0-3.0-1.134","../audio/68-4-fem.mp3"," ","","um","","","",""
"","1131","audio-keyboard-response","176","268913","0.0-3.0-1.135","../audio/68-5-fem.mp3"," ","","noivado","","","",""
"","1200","audio-keyboard-response","177","270474","0.0-3.0-1.136","../audio/68-6-fem.mp3"," ","","longo","","","",""
"","829","audio-keyboard-response","178","271659","0.0-3.0-1.137","../audio/68-7-fem.mp3"," ","","e","","","",""
"","1741","audio-keyboard-response","179","273815","0.0-3.0-1.138","../audio/68-8-fem.mp3"," ","","maravilhoso.","","","",""
"","null","html-keyboard-response","180","275088","0.0-3.0-0.139-0.139","<span style= ""font-size:30px; font-family: monospace"">+</span>","null","fixation","","","","",""
"","941","audio-keyboard-response","181","276528","0.0-3.0-1.139","../audio/69-1-masc.mp3"," ","","A","","","",""
"","1200","audio-keyboard-response","182","278086","0.0-3.0-1.140","../audio/69-2-masc.mp3"," ","","loja","","","",""
"","1259","audio-keyboard-response","183","279708","0.0-3.0-1.141","../audio/69-3-masc.mp3"," ","","recebeu","","","",""
"","949","audio-keyboard-response","184","281001","0.0-3.0-1.142","../audio/69-4-masc.mp3"," ","","uma","","","",""
"","1221","audio-keyboard-response","185","282604","0.0-3.0-1.143","../audio/69-5-masc.mp3"," ","","poltrona","","","",""
"","811","audio-keyboard-response","186","283757","0.0-3.0-1.144","../audio/69-6-masc.mp3"," ","","de","","","",""
"","891","audio-keyboard-response","187","285003","0.0-3.0-1.145","../audio/69-7-masc.mp3"," ","","couro","","","",""
"","920","audio-keyboard-response","188","286274","0.0-3.0-1.146","../audio/69-8-masc.mp3"," ","","preto.","","","",""
"","null","html-keyboard-response","189","287547","0.0-3.0-0.147-0.147","<span style= ""font-size:30px; font-family: monospace"">+</span>","null","fixation","","","","",""
"","789","audio-keyboard-response","190","288752","0.0-3.0-1.147","../audio/70-1-fem.mp3"," ","","O","","","",""
"","931","audio-keyboard-response","191","290036","0.0-3.0-1.148","../audio/70-2-fem.mp3"," ","","meu","","","",""
"","909","audio-keyboard-response","192","291304","0.0-3.0-1.149","../audio/70-3-fem.mp3"," ","","filho","","","",""
"","749","audio-keyboard-response","193","292404","0.0-3.0-1.150","../audio/70-4-fem.mp3"," ","","tem","","","",""
"","891","audio-keyboard-response","194","293638","0.0-3.0-1.151","../audio/70-5-fem.mp3"," ","","medo","","","",""
"","851","audio-keyboard-response","195","294876","0.0-3.0-1.152","../audio/70-6-fem.mp3"," ","","de","","","",""
"","1091","audio-keyboard-response","196","296321","0.0-3.0-1.153","../audio/70-7-fem.mp3"," ","","enguia","","","",""
"","760","audio-keyboard-response","197","297441","0.0-3.0-1.154","../audio/70-8-fem.mp3"," ","","e","","","",""
"","1149","audio-keyboard-response","198","298952","0.0-3.0-1.155","../audio/70-9-fem.mp3"," ","","beija-flor.","","","",""
"","5800","html-keyboard-response","199","305014","0.0-3.0-2.155-0.155","<span style=""font-size:25px; font-family: monospace"">O filho tem medo de tigre?</span>","n","","","O filho tem medo de tigre?","null","exp-sent","false"
"","null","html-keyboard-response","200","306527","0.0-3.0-0.156-0.156","<span style= ""font-size:30px; font-family: monospace"">+</span>","null","fixation","","","","",""
"","880","audio-keyboard-response","201","307857","0.0-3.0-1.156","../audio/76-1-fem.mp3"," ","","O","","","",""
"","1131","audio-keyboard-response","202","309347","0.0-3.0-1.157","../audio/76-2-fem.mp3"," ","","bisavô","","","",""
"","1101","audio-keyboard-response","203","310804","0.0-3.0-1.158","../audio/76-3-fem.mp3"," ","","comprou","","","",""
"","861","audio-keyboard-response","204","312017","0.0-3.0-1.159","../audio/76-4-fem.mp3"," ","","um","","","",""
"","1371","audio-keyboard-response","205","313756","0.0-3.0-1.160","../audio/76-5-fem.mp3"," ","","ralador","","","",""
"","811","audio-keyboard-response","206","314919","0.0-3.0-1.161","../audio/76-6-fem.mp3"," ","","de","","","",""
"","909","audio-keyboard-response","207","316186","0.0-3.0-1.162","../audio/76-7-fem.mp3"," ","","queijo.","","","",""
"","null","html-keyboard-response","208","317450","0.0-3.0-0.163-0.163","<span style= ""font-size:30px; font-family: monospace"">+</span>","null","fixation","","","","",""
"","1181","audio-keyboard-response","209","319054","0.0-3.0-1.163","../audio/78-1-masc.mp3"," ","","Eles","","","",""
"","1131","audio-keyboard-response","210","320531","0.0-3.0-1.164","../audio/78-2-masc.mp3"," ","","trazem","","","",""
"","800","audio-keyboard-response","211","321883","0.0-3.0-1.165","../audio/78-3-masc.mp3"," ","","um","","","",""
"","979","audio-keyboard-response","212","323224","0.0-3.0-1.166","../audio/78-4-masc.mp3"," ","","fato","","","",""
"","1200","audio-keyboard-response","213","324787","0.0-3.0-1.167","../audio/78-5-masc.mp3"," ","","urgente","","","",""
"","789","audio-keyboard-response","214","325950","0.0-3.0-1.168","../audio/78-6-masc.mp3"," ","","todos","","","",""
"","851","audio-keyboard-response","215","327169","0.0-3.0-1.169","../audio/78-7-masc.mp3"," ","","os","","","",""
"","1000","audio-keyboard-response","216","328523","0.0-3.0-1.170","../audio/78-8-masc.mp3"," ","","dias.","","","",""
"","null","html-keyboard-response","217","329791","0.0-3.0-0.171-0.171","<span style= ""font-size:30px; font-family: monospace"">+</span>","null","fixation","","","","",""
"","779","audio-keyboard-response","218","331028","0.0-3.0-1.171","../audio/77-1-fem.mp3"," ","","A","","","",""
"","829","audio-keyboard-response","219","332218","0.0-3.0-1.172","../audio/77-2-fem.mp3"," ","","criança","","","",""
"","1080","audio-keyboard-response","220","333665","0.0-3.0-1.173","../audio/77-3-fem.mp3"," ","","ficou","","","",""
"","1211","audio-keyboard-response","221","335237","0.0-3.0-1.174","../audio/77-4-fem.mp3"," ","","muito","","","",""
"","1131","audio-keyboard-response","222","336728","0.0-3.0-1.175","../audio/77-5-fem.mp3"," ","","feliz","","","",""
"","861","audio-keyboard-response","223","337930","0.0-3.0-1.176","../audio/77-6-fem.mp3"," ","","com","","","",""
"","829","audio-keyboard-response","224","339111","0.0-3.0-1.177","../audio/77-7-fem.mp3"," ","","o","","","",""
"","1419","audio-keyboard-response","225","340900","0.0-3.0-1.178","../audio/77-8-fem.mp3"," ","","brinquedo.","","","",""
"","null","html-keyboard-response","226","342163","0.0-3.0-0.179-0.179","<span style= ""font-size:30px; font-family: monospace"">+</span>","null","fixation","","","","",""
"","781","audio-keyboard-response","227","343366","0.0-3.0-1.179","../audio/79-1-fem.mp3"," ","","A","","","",""
"","1091","audio-keyboard-response","228","344848","0.0-3.0-1.180","../audio/79-2-fem.mp3"," ","","médica","","","",""
"","1189","audio-keyboard-response","229","346402","0.0-3.0-1.181","../audio/79-3-fem.mp3"," ","","verificou","","","",""
"","789","audio-keyboard-response","230","347546","0.0-3.0-1.182","../audio/79-4-fem.mp3"," ","","a","","","",""
"","1320","audio-keyboard-response","231","349227","0.0-3.0-1.183","../audio/79-5-fem.mp3"," ","","gengiva","","","",""
"","899","audio-keyboard-response","232","350461","0.0-3.0-1.184","../audio/79-6-fem.mp3"," ","","por","","","",""
"","1240","audio-keyboard-response","233","352072","0.0-3.0-1.185","../audio/79-7-fem.mp3"," ","","último.","","","",""
"","null","html-keyboard-response","234","353333","0.0-3.0-0.186-0.186","<span style= ""font-size:30px; font-family: monospace"">+</span>","null","fixation","","","","",""
"","869","audio-keyboard-response","235","354619","0.0-3.0-1.186","../audio/80-1-fem.mp3"," ","","Meu","","","",""
"","960","audio-keyboard-response","236","355936","0.0-3.0-1.187","../audio/80-2-fem.mp3"," ","","primo","","","",""
"","1059","audio-keyboard-response","237","357397","0.0-3.0-1.188","../audio/80-3-fem.mp3"," ","","conheceu","","","",""
"","760","audio-keyboard-response","238","358497","0.0-3.0-1.189","../audio/80-4-fem.mp3"," ","","um","","","",""
"","1320","audio-keyboard-response","239","360176","0.0-3.0-1.190","../audio/80-5-fem.mp3"," ","","jovem","","","",""
"","1192","audio-keyboard-response","240","361732","0.0-3.0-1.191","../audio/80-6-fem.mp3"," ","","amável","","","",""
"","829","audio-keyboard-response","241","362905","0.0-3.0-1.192","../audio/80-7-fem.mp3"," ","","e","","","",""
"","1581","audio-keyboard-response","242","364847","0.0-3.0-1.193","../audio/80-8-fem.mp3"," ","","confiante.","","","",""
"","4438","html-keyboard-response","243","369545","0.0-3.0-2.193-0.193","<span style=""font-size:25px; font-family: monospace"">O primo conheceu um jovem irritante?</span>","n","","","O primo conheceu um jovem irritante?","null","exp-sent","false"
"","null","html-keyboard-response","244","371066","0.0-3.0-0.194-0.194","<span style= ""font-size:30px; font-family: monospace"">+</span>","null","fixation","","","","",""
"","1299","audio-keyboard-response","245","372859","0.0-3.0-1.194","../audio/51-1-fem.mp3"," ","","Suco","","","",""
"","829","audio-keyboard-response","246","374041","0.0-3.0-1.195","../audio/51-2-fem.mp3"," ","","de","","","",""
"","1579","audio-keyboard-response","247","375987","0.0-3.0-1.196","../audio/51-3-fem.mp3"," ","","acerola","","","",""
"","861","audio-keyboard-response","248","377208","0.0-3.0-1.197","../audio/51-4-fem.mp3"," ","","é","","","",""
"","1360","audio-keyboard-response","249","378934","0.0-3.0-1.198","../audio/51-5-fem.mp3"," ","","azedo","","","",""
"","888","audio-keyboard-response","250","380181","0.0-3.0-1.199","../audio/51-6-fem.mp3"," ","","e","","","",""
"","1131","audio-keyboard-response","251","381679","0.0-3.0-1.200","../audio/51-7-fem.mp3"," ","","até","","","",""
"","1091","audio-keyboard-response","252","383128","0.0-3.0-1.201","../audio/51-8-fem.mp3"," ","","barato.","","","",""
"","null","html-keyboard-response","253","384387","0.0-3.0-0.202-0.202","<span style= ""font-size:30px; font-family: monospace"">+</span>","null","fixation","","","","",""
"","1179","audio-keyboard-response","254","385996","0.0-3.0-1.202","../audio/54-1-fem.mp3"," ","","Estou","","","",""
"","800","audio-keyboard-response","255","387147","0.0-3.0-1.203","../audio/54-2-fem.mp3"," ","","com","","","",""
"","1160","audio-keyboard-response","256","388661","0.0-3.0-1.204","../audio/54-3-fem.mp3"," ","","medo","","","",""
"","880","audio-keyboard-response","257","389871","0.0-3.0-1.205","../audio/54-4-fem.mp3"," ","","da","","","",""
"","1331","audio-keyboard-response","258","391608","0.0-3.0-1.206","../audio/54-5-fem.mp3"," ","","atual","","","",""
"","1749","audio-keyboard-response","259","393760","0.0-3.0-1.207","../audio/54-6-fem.mp3"," ","","organização","","","",""
"","859","audio-keyboard-response","260","395035","0.0-3.0-1.208","../audio/54-7-fem.mp3"," ","","do","","","",""
"","1160","audio-keyboard-response","261","396551","0.0-3.0-1.209","../audio/54-8-fem.mp3"," ","","país.","","","",""
"","null","html-keyboard-response","262","397816","0.0-3.0-0.210-0.210","<span style= ""font-size:30px; font-family: monospace"">+</span>","null","fixation","","","","",""
"","1029","audio-keyboard-response","263","399270","0.0-3.0-1.210","../audio/52-1-masc.mp3"," ","","Às","","","",""
"","1011","audio-keyboard-response","264","400685","0.0-3.0-1.211","../audio/52-2-masc.mp3"," ","","vezes","","","",""
"","829","audio-keyboard-response","265","401863","0.0-3.0-1.212","../audio/52-3-masc.mp3"," ","","eu","","","",""
"","941","audio-keyboard-response","266","403158","0.0-3.0-1.213","../audio/52-4-masc.mp3"," ","","tenho","","","",""
"","1171","audio-keyboard-response","267","404691","0.0-3.0-1.214","../audio/52-5-masc.mp3"," ","","azia","","","",""
"","1112","audio-keyboard-response","268","406171","0.0-3.0-1.215","../audio/52-6-masc.mp3"," ","","depois","","","",""
"","829","audio-keyboard-response","269","407346","0.0-3.0-1.216","../audio/52-7-masc.mp3"," ","","da","","","",""
"","920","audio-keyboard-response","270","408625","0.0-3.0-1.217","../audio/52-8-masc.mp3"," ","","janta.","","","",""
"","null","html-keyboard-response","271","409882","0.0-3.0-0.218-0.218","<span style= ""font-size:30px; font-family: monospace"">+</span>","null","fixation","","","","",""
"","709","audio-keyboard-response","272","410997","0.0-3.0-1.218","../audio/53-1-masc.mp3"," ","","O","","","",""
"","1091","audio-keyboard-response","273","412444","0.0-3.0-1.219","../audio/53-2-masc.mp3"," ","","médico","","","",""
"","869","audio-keyboard-response","274","413677","0.0-3.0-1.220","../audio/53-3-masc.mp3"," ","","foi","","","",""
"","1181","audio-keyboard-response","275","415213","0.0-3.0-1.221","../audio/53-4-masc.mp3"," ","","bastante","","","",""
"","1181","audio-keyboard-response","276","416769","0.0-3.0-1.222","../audio/53-5-masc.mp3"," ","","preciso","","","",""
"","1120","audio-keyboard-response","277","418257","0.0-3.0-1.223","../audio/53-6-masc.mp3"," ","","durante","","","",""
"","771","audio-keyboard-response","278","419394","0.0-3.0-1.224","../audio/53-7-masc.mp3"," ","","a","","","",""
"","1331","audio-keyboard-response","279","421091","0.0-3.0-1.225","../audio/53-8-masc.mp3"," ","","cirurgia.","","","",""
"","null","html-keyboard-response","280","422363","0.0-3.0-0.226-0.226","<span style= ""font-size:30px; font-family: monospace"">+</span>","null","fixation","","","","",""
"","771","audio-keyboard-response","281","423553","0.0-3.0-1.226","../audio/55-1-masc.mp3"," ","","O","","","",""
"","1261","audio-keyboard-response","282","425174","0.0-3.0-1.227","../audio/55-2-masc.mp3"," ","","insulto","","","",""
"","1200","audio-keyboard-response","283","426727","0.0-3.0-1.228","../audio/55-3-masc.mp3"," ","","recente","","","",""
"","1128","audio-keyboard-response","284","428220","0.0-3.0-1.229","../audio/55-4-masc.mp3"," ","","causou","","","",""
"","1461","audio-keyboard-response","285","430044","0.0-3.0-1.230","../audio/55-5-masc.mp3"," ","","indignação","","","",""
"","931","audio-keyboard-response","286","431367","0.0-3.0-1.231","../audio/55-6-masc.mp3"," ","","em","","","",""
"","909","audio-keyboard-response","287","432630","0.0-3.0-1.232","../audio/55-7-masc.mp3"," ","","todos.","","","",""
"","3705","html-keyboard-response","288","436599","0.0-3.0-2.232-0.232","<span style=""font-size:25px; font-family: monospace"">O insulto causou calmaria?</span>","n","","","O insulto causou calmaria?","null","exp-sent","false"
"","null","html-keyboard-response","289","438124","0.0-3.0-0.233-0.233","<span style= ""font-size:30px; font-family: monospace"">+</span>","null","fixation","","","","",""
"","1600","audio-keyboard-response","290","440147","0.0-3.0-1.233","../audio/34-1-fem.mp3"," ","","Cobrança","","","",""
"","1699","audio-keyboard-response","291","442226","0.0-3.0-1.234","../audio/34-2-fem.mp3"," ","","excessiva","","","",""
"","880","audio-keyboard-response","292","443527","0.0-3.0-1.235","../audio/34-3-fem.mp3"," ","","é","","","",""
"","909","audio-keyboard-response","293","444796","0.0-3.0-1.236","../audio/34-4-fem.mp3"," ","","um","","","",""
"","1229","audio-keyboard-response","294","446388","0.0-3.0-1.237","../audio/34-5-fem.mp3"," ","","fardo","","","",""
"","1040","audio-keyboard-response","295","447777","0.0-3.0-1.238","../audio/34-6-fem.mp3"," ","","para","","","",""
"","829","audio-keyboard-response","296","448948","0.0-3.0-1.239","../audio/34-7-fem.mp3"," ","","a","","","",""
"","1309","audio-keyboard-response","297","450621","0.0-3.0-1.240","../audio/34-8-fem.mp3"," ","","cabeça.","","","",""
"","null","html-keyboard-response","298","451894","0.0-3.0-0.241-0.241","<span style= ""font-size:30px; font-family: monospace"">+</span>","null","fixation","","","","",""
"","720","audio-keyboard-response","299","453046","0.0-3.0-1.241","../audio/31-1-masc.mp3"," ","","O","","","",""
"","1099","audio-keyboard-response","300","454503","0.0-3.0-1.242","../audio/31-2-masc.mp3"," ","","padeiro","","","",""
"","1069","audio-keyboard-response","301","455941","0.0-3.0-1.243","../audio/31-3-masc.mp3"," ","","usou","","","",""
"","851","audio-keyboard-response","302","457162","0.0-3.0-1.244","../audio/31-4-masc.mp3"," ","","a","","","",""
"","1131","audio-keyboard-response","303","458648","0.0-3.0-1.245","../audio/31-5-masc.mp3"," ","","balança","","","",""
"","859","audio-keyboard-response","304","459876","0.0-3.0-1.246","../audio/31-6-masc.mp3"," ","","o","","","",""
"","1011","audio-keyboard-response","305","461229","0.0-3.0-1.247","../audio/31-7-masc.mp3"," ","","dia","","","",""
"","1152","audio-keyboard-response","306","462729","0.0-3.0-1.248","../audio/31-8-masc.mp3"," ","","inteiro.","","","",""
"","null","html-keyboard-response","307","464000","0.0-3.0-0.249-0.249","<span style= ""font-size:30px; font-family: monospace"">+</span>","null","fixation","","","","",""
"","789","audio-keyboard-response","308","465201","0.0-3.0-1.249","../audio/32-1-masc.mp3"," ","","A","","","",""
"","869","audio-keyboard-response","309","466439","0.0-3.0-1.250","../audio/32-2-masc.mp3"," ","","tia","","","",""
"","989","audio-keyboard-response","310","467777","0.0-3.0-1.251","../audio/32-3-masc.mp3"," ","","comprou","","","",""
"","811","audio-keyboard-response","311","468929","0.0-3.0-1.252","../audio/32-4-masc.mp3"," ","","um","","","",""
"","1040","audio-keyboard-response","312","470324","0.0-3.0-1.253","../audio/32-5-masc.mp3"," ","","pilão","","","",""
"","829","audio-keyboard-response","313","471518","0.0-3.0-1.254","../audio/32-6-masc.mp3"," ","","para","","","",""
"","811","audio-keyboard-response","314","472714","0.0-3.0-1.255","../audio/32-7-masc.mp3"," ","","a","","","",""
"","1189","audio-keyboard-response","315","474266","0.0-3.0-1.256","../audio/32-8-masc.mp3"," ","","cozinha.","","","",""
"","null","html-keyboard-response","316","475531","0.0-3.0-0.257-0.257","<span style= ""font-size:30px; font-family: monospace"">+</span>","null","fixation","","","","",""
"","960","audio-keyboard-response","317","476932","0.0-3.0-1.257","../audio/33-1-masc.mp3"," ","","Eles","","","",""
"","979","audio-keyboard-response","318","478262","0.0-3.0-1.258","../audio/33-2-masc.mp3"," ","","sabem","","","",""
"","880","audio-keyboard-response","319","479497","0.0-3.0-1.259","../audio/33-3-masc.mp3"," ","","do","","","",""
"","979","audio-keyboard-response","320","480833","0.0-3.0-1.260","../audio/33-4-masc.mp3"," ","","seu","","","",""
"","1200","audio-keyboard-response","321","482407","0.0-3.0-1.261","../audio/33-5-masc.mp3"," ","","privilégio","","","",""
"","1128","audio-keyboard-response","322","483898","0.0-3.0-1.262","../audio/33-6-masc.mp3"," ","","nessa","","","",""
"","1080","audio-keyboard-response","323","485363","0.0-3.0-1.263","../audio/33-7-masc.mp3"," ","","confusão.","","","",""
"","null","html-keyboard-response","324","486629","0.0-3.0-0.264-0.264","<span style= ""font-size:30px; font-family: monospace"">+</span>","null","fixation","","","","",""
"","760","audio-keyboard-response","325","487833","0.0-3.0-1.264","../audio/35-1-masc.mp3"," ","","A","","","",""
"","1160","audio-keyboard-response","326","489357","0.0-3.0-1.265","../audio/35-2-masc.mp3"," ","","receita","","","",""
"","869","audio-keyboard-response","327","490590","0.0-3.0-1.266","../audio/35-3-masc.mp3"," ","","para","","","",""
"","891","audio-keyboard-response","328","491841","0.0-3.0-1.267","../audio/35-4-masc.mp3"," ","","a","","","",""
"","1232","audio-keyboard-response","329","493448","0.0-3.0-1.268","../audio/35-5-masc.mp3"," ","","preparação","","","",""
"","840","audio-keyboard-response","330","494639","0.0-3.0-1.269","../audio/35-6-masc.mp3"," ","","do","","","",""
"","1091","audio-keyboard-response","331","496095","0.0-3.0-1.270","../audio/35-7-masc.mp3"," ","","bolo","","","",""
"","920","audio-keyboard-response","332","497376","0.0-3.0-1.271","../audio/35-8-masc.mp3"," ","","é","","","",""
"","1272","audio-keyboard-response","333","499016","0.0-3.0-1.272","../audio/35-9-masc.mp3"," ","","leve.","","","",""
"","3428","html-keyboard-response","334","502695","0.0-3.0-2.272-0.272","<span style=""font-size:25px; font-family: monospace"">A receita do bolo é pesada?</span>","n","","","A receita do bolo é pesada?","null","exp-sent","false"
"","null","html-keyboard-response","335","504210","0.0-3.0-0.273-0.273","<span style= ""font-size:30px; font-family: monospace"">+</span>","null","fixation","","","","",""
"","880","audio-keyboard-response","336","505515","0.0-3.0-1.273","../audio/02-2-masc.mp3"," ","","Havia","","","",""
"","869","audio-keyboard-response","337","506648","0.0-3.0-1.274","../audio/02-2-masc.mp3"," ","","um","","","",""
"","1109","audio-keyboard-response","338","508199","0.0-3.0-1.275","../audio/02-3-masc.mp3"," ","","cheiro","","","",""
"","891","audio-keyboard-response","339","509440","0.0-3.0-1.276","../audio/02-4-masc.mp3"," ","","de","","","",""
"","1219","audio-keyboard-response","340","511024","0.0-3.0-1.277","../audio/02-5-masc.mp3"," ","","gasolina","","","",""
"","949","audio-keyboard-response","341","512365","0.0-3.0-1.278","../audio/02-6-masc.mp3"," ","","na","","","",""
"","1219","audio-keyboard-response","342","513945","0.0-3.0-1.279","../audio/02-7-masc.mp3"," ","","garagem.","","","",""
"","null","html-keyboard-response","343","515213","0.0-3.0-0.280-0.280","<span style= ""font-size:30px; font-family: monospace"">+</span>","null","fixation","","","","",""
"","781","audio-keyboard-response","344","516416","0.0-3.0-1.280","../audio/01-1-masc.mp3"," ","","O","","","",""
"","952","audio-keyboard-response","345","517732","0.0-3.0-1.281","../audio/01-2-masc.mp3"," ","","menino","","","",""
"","1029","audio-keyboard-response","346","519126","0.0-3.0-1.282","../audio/01-3-masc.mp3"," ","","derrubou","","","",""
"","800","audio-keyboard-response","347","520272","0.0-3.0-1.283","../audio/01-4-masc.mp3"," ","","a","","","",""
"","1251","audio-keyboard-response","348","521884","0.0-3.0-1.284","../audio/01-5-masc.mp3"," ","","guitarra","","","",""
"","941","audio-keyboard-response","349","523172","0.0-3.0-1.285","../audio/01-6-masc.mp3"," ","","no","","","",""
"","960","audio-keyboard-response","350","524491","0.0-3.0-1.286","../audio/01-7-masc.mp3"," ","","chão.","","","",""
"","null","html-keyboard-response","351","525753","0.0-3.0-0.287-0.287","<span style= ""font-size:30px; font-family: monospace"">+</span>","null","fixation","","","","",""
"","720","audio-keyboard-response","352","526879","0.0-3.0-1.287","../audio/03-1-masc.mp3"," ","","O","","","",""
"","811","audio-keyboard-response","353","528048","0.0-3.0-1.288","../audio/03-2-masc.mp3"," ","","coelho","","","",""
"","808","audio-keyboard-response","354","529218","0.0-3.0-1.289","../audio/03-3-masc.mp3"," ","","foi","","","",""
"","1200","audio-keyboard-response","355","530773","0.0-3.0-1.290","../audio/03-4-masc.mp3"," ","","bastante","","","",""
"","1019","audio-keyboard-response","356","532147","0.0-3.0-1.291","../audio/03-5-masc.mp3"," ","","dócil","","","",""
"","851","audio-keyboard-response","357","533357","0.0-3.0-1.292","../audio/03-6-masc.mp3"," ","","com","","","",""
"","861","audio-keyboard-response","358","534576","0.0-3.0-1.293","../audio/03-7-masc.mp3"," ","","as","","","",""
"","1149","audio-keyboard-response","359","536079","0.0-3.0-1.294","../audio/03-8-masc.mp3"," ","","crianças.","","","",""
"","null","html-keyboard-response","360","537336","0.0-3.0-0.295-0.295","<span style= ""font-size:30px; font-family: monospace"">+</span>","null","fixation","","","","",""
"","1171","audio-keyboard-response","361","538936","0.0-3.0-1.295","../audio/04-1-masc.mp3"," ","","Duzentos","","","",""
"","1048","audio-keyboard-response","362","540345","0.0-3.0-1.296","../audio/04-2-masc.mp3"," ","","carros","","","",""
"","1040","audio-keyboard-response","363","541745","0.0-3.0-1.297","../audio/04-3-masc.mp3"," ","","passaram","","","",""
"","851","audio-keyboard-response","364","542951","0.0-3.0-1.298","../audio/04-4-masc.mp3"," ","","pela","","","",""
"","1109","audio-keyboard-response","365","544400","0.0-3.0-1.299","../audio/04-5-masc.mp3"," ","","ponte","","","",""
"","1021","audio-keyboard-response","366","545805","0.0-3.0-1.300","../audio/04-6-masc.mp3"," ","","hoje","","","",""
"","939","audio-keyboard-response","367","547100","0.0-3.0-1.301","../audio/04-7-masc.mp3"," ","","de","","","",""
"","1072","audio-keyboard-response","368","548536","0.0-3.0-1.302","../audio/04-8-masc.mp3"," ","","tarde.","","","",""
"","null","html-keyboard-response","369","549803","0.0-3.0-0.303-0.303","<span style= ""font-size:30px; font-family: monospace"">+</span>","null","fixation","","","","",""
"","739","audio-keyboard-response","370","550946","0.0-3.0-1.303","../audio/05-1-masc.mp3"," ","","A","","","",""
"","1240","audio-keyboard-response","371","552546","0.0-3.0-1.304","../audio/05-2-masc.mp3"," ","","vendedora","","","",""
"","981","audio-keyboard-response","372","553888","0.0-3.0-1.305","../audio/05-3-masc.mp3"," ","","ajudou","","","",""
"","800","audio-keyboard-response","373","555044","0.0-3.0-1.306","../audio/05-4-masc.mp3"," ","","um","","","",""
"","909","audio-keyboard-response","374","556306","0.0-3.0-1.307","../audio/05-5-masc.mp3"," ","","turista","","","",""
"","1021","audio-keyboard-response","375","557688","0.0-3.0-1.308","../audio/05-6-masc.mp3"," ","","na","","","",""
"","1109","audio-keyboard-response","376","559147","0.0-3.0-1.309","../audio/05-7-masc.mp3"," ","","loja.","","","",""
"","3430","html-keyboard-response","377","562839","0.0-3.0-2.309-0.309","<span style=""font-size:25px; font-family: monospace"">A vendedora ajudou um turista?</span>","s","","","A vendedora ajudou um turista?","null","exp-sent","false"
"","null","html-keyboard-response","378","564356","0.0-3.0-0.310-0.310","<span style= ""font-size:30px; font-family: monospace"">+</span>","null","fixation","","","","",""
"","829","audio-keyboard-response","379","565607","0.0-3.0-1.310","../audio/39-1-fem.mp3"," ","","O","","","",""
"","1352","audio-keyboard-response","380","567333","0.0-3.0-1.311","../audio/39-2-fem.mp3"," ","","conselho","","","",""
"","981","audio-keyboard-response","381","568688","0.0-3.0-1.312","../audio/39-3-fem.mp3"," ","","foi","","","",""
"","1299","audio-keyboard-response","382","570355","0.0-3.0-1.313","../audio/39-4-fem.mp3"," ","","muito","","","",""
"","949","audio-keyboard-response","383","571667","0.0-3.0-1.314","../audio/39-5-fem.mp3"," ","","útil","","","",""
"","1011","audio-keyboard-response","384","573074","0.0-3.0-1.315","../audio/39-6-fem.mp3"," ","","para","","","",""
"","989","audio-keyboard-response","385","574420","0.0-3.0-1.316","../audio/39-7-fem.mp3"," ","","minha","","","",""
"","880","audio-keyboard-response","386","575681","0.0-3.0-1.317","../audio/39-8-fem.mp3"," ","","tia.","","","",""
"","null","html-keyboard-response","387","576956","0.0-3.0-0.318-0.318","<span style= ""font-size:30px; font-family: monospace"">+</span>","null","fixation","","","","",""
"","859","audio-keyboard-response","388","578342","0.0-3.0-1.318","../audio/38-1-masc.mp3"," ","","A","","","",""
"","1221","audio-keyboard-response","389","579917","0.0-3.0-1.319","../audio/38-2-masc.mp3"," ","","empresa","","","",""
"","1080","audio-keyboard-response","390","581348","0.0-3.0-1.320","../audio/38-3-masc.mp3"," ","","criou","","","",""
"","888","audio-keyboard-response","391","582619","0.0-3.0-1.321","../audio/38-4-masc.mp3"," ","","a","","","",""
"","1251","audio-keyboard-response","392","584229","0.0-3.0-1.322","../audio/38-5-masc.mp3"," ","","patente","","","",""
"","949","audio-keyboard-response","393","585527","0.0-3.0-1.323","../audio/38-6-masc.mp3"," ","","da","","","",""
"","1459","audio-keyboard-response","394","587341","0.0-3.0-1.324","../audio/38-7-masc.mp3"," ","","frigideira.","","","",""
"","null","html-keyboard-response","395","588614","0.0-3.0-0.325-0.325","<span style= ""font-size:30px; font-family: monospace"">+</span>","null","fixation","","","","",""
"","869","audio-keyboard-response","396","589921","0.0-3.0-1.325","../audio/37-1-fem.mp3"," ","","Eu","","","",""
"","1360","audio-keyboard-response","397","591620","0.0-3.0-1.326","../audio/37-2-fem.mp3"," ","","adoro","","","",""
"","1331","audio-keyboard-response","398","593330","0.0-3.0-1.327","../audio/37-3-fem.mp3"," ","","suco","","","",""
"","1019","audio-keyboard-response","399","594712","0.0-3.0-1.328","../audio/37-4-fem.mp3"," ","","de","","","",""
"","1189","audio-keyboard-response","400","596262","0.0-3.0-1.329","../audio/37-5-fem.mp3"," ","","manga","","","",""
"","979","audio-keyboard-response","401","597588","0.0-3.0-1.330","../audio/37-6-fem.mp3"," ","","com","","","",""
"","1560","audio-keyboard-response","402","599531","0.0-3.0-1.331","../audio/37-7-fem.mp3"," ","","hortelã.","","","",""
"","null","html-keyboard-response","403","600809","0.0-3.0-0.332-0.332","<span style= ""font-size:30px; font-family: monospace"">+</span>","null","fixation","","","","",""
"","941","audio-keyboard-response","404","602175","0.0-3.0-1.332","../audio/36-1-fem.mp3"," ","","Meu","","","",""
"","899","audio-keyboard-response","405","603422","0.0-3.0-1.333","../audio/36-2-fem.mp3"," ","","tio","","","",""
"","1232","audio-keyboard-response","406","605016","0.0-3.0-1.334","../audio/36-3-fem.mp3"," ","","comprou","","","",""
"","861","audio-keyboard-response","407","606240","0.0-3.0-1.335","../audio/36-4-fem.mp3"," ","","um","","","",""
"","1051","audio-keyboard-response","408","607883","0.0-3.0-1.336","../audio/36-5-fem.mp3"," ","","filtro","","","",""
"","1131","audio-keyboard-response","409","609376","0.0-3.0-1.337","../audio/36-6-fem.mp3"," ","","de","","","",""
"","789","audio-keyboard-response","410","610526","0.0-3.0-1.338","../audio/36-7-fem.mp3"," ","","água","","","",""
"","1139","audio-keyboard-response","411","612021","0.0-3.0-1.339","../audio/36-8-fem.mp3"," ","","hoje","","","",""
"","1280","audio-keyboard-response","412","613647","0.0-3.0-1.340","../audio/36-9-fem.mp3"," ","","cedo.","","","",""
"","null","html-keyboard-response","413","614913","0.0-3.0-0.341-0.341","<span style= ""font-size:30px; font-family: monospace"">+</span>","null","fixation","","","","",""
"","789","audio-keyboard-response","414","616164","0.0-3.0-1.341","../audio/40-1-masc.mp3"," ","","O","","","",""
"","1011","audio-keyboard-response","415","617571","0.0-3.0-1.342","../audio/40-2-masc.mp3"," ","","jogo","","","",""
"","1040","audio-keyboard-response","416","618972","0.0-3.0-1.343","../audio/40-3-masc.mp3"," ","","falava","","","",""
"","909","audio-keyboard-response","417","620233","0.0-3.0-1.344","../audio/40-4-masc.mp3"," ","","de","","","",""
"","1421","audio-keyboard-response","418","622012","0.0-3.0-1.345","../audio/40-5-masc.mp3"," ","","fantasia","","","",""
"","920","audio-keyboard-response","419","623279","0.0-3.0-1.346","../audio/40-6-masc.mp3"," ","","e","","","",""
"","880","audio-keyboard-response","420","624521","0.0-3.0-1.347","../audio/40-7-masc.mp3"," ","","de","","","",""
"","1451","audio-keyboard-response","421","626333","0.0-3.0-1.348","../audio/40-8-masc.mp3"," ","","aventura.","","","",""
"","7119","html-keyboard-response","422","633709","0.0-3.0-2.348-0.348","<span style=""font-size:25px; font-family: monospace"">O jogo tinha fantasia e aventura?</span>","n","","","O jogo tinha fantasia e aventura?","null","exp-sent","false"
"","null","html-keyboard-response","423","635235","0.0-3.0-0.349-0.349","<span style= ""font-size:30px; font-family: monospace"">+</span>","null","fixation","","","","",""
"","1531","audio-keyboard-response","424","637215","0.0-3.0-1.349","../audio/57-1-masc.mp3"," ","","O","","","",""
"","1168","audio-keyboard-response","425","638742","0.0-3.0-1.350","../audio/57-2-masc.mp3"," ","","capitão","","","",""
"","800","audio-keyboard-response","426","639886","0.0-3.0-1.351","../audio/57-3-masc.mp3"," ","","deu","","","",""
"","949","audio-keyboard-response","427","641199","0.0-3.0-1.352","../audio/57-4-masc.mp3"," ","","uma","","","",""
"","1419","audio-keyboard-response","428","642983","0.0-3.0-1.353","../audio/57-5-masc.mp3"," ","","instrução","","","",""
"","880","audio-keyboard-response","429","644221","0.0-3.0-1.354","../audio/57-6-masc.mp3"," ","","para","","","",""
"","931","audio-keyboard-response","430","645509","0.0-3.0-1.355","../audio/57-7-masc.mp3"," ","","as","","","",""
"","1139","audio-keyboard-response","431","647021","0.0-3.0-1.356","../audio/57-8-masc.mp3"," ","","pessoas.","","","",""
"","null","html-keyboard-response","432","648292","0.0-3.0-0.357-0.357","<span style= ""font-size:30px; font-family: monospace"">+</span>","null","fixation","","","","",""
"","779","audio-keyboard-response","433","649462","0.0-3.0-1.357","../audio/56-1-masc.mp3"," ","","A","","","",""
"","1072","audio-keyboard-response","434","650848","0.0-3.0-1.358","../audio/56-2-masc.mp3"," ","","moça","","","",""
"","912","audio-keyboard-response","435","652095","0.0-3.0-1.359","../audio/56-3-masc.mp3"," ","","foi","","","",""
"","861","audio-keyboard-response","436","653286","0.0-3.0-1.360","../audio/56-4-masc.mp3"," ","","à","","","",""
"","1160","audio-keyboard-response","437","654813","0.0-3.0-1.361","../audio/56-5-masc.mp3"," ","","agência","","","",""
"","1120","audio-keyboard-response","438","656303","0.0-3.0-1.362","../audio/56-6-masc.mp3"," ","","bancária","","","",""
"","821","audio-keyboard-response","439","657480","0.0-3.0-1.363","../audio/56-7-masc.mp3"," ","","ontem","","","",""
"","872","audio-keyboard-response","440","658691","0.0-3.0-1.364","../audio/56-8-masc.mp3"," ","","de","","","",""
"","1069","audio-keyboard-response","441","660121","0.0-3.0-1.365","../audio/56-9-masc.mp3"," ","","tarde.","","","",""
"","null","html-keyboard-response","442","661382","0.0-3.0-0.366-0.366","<span style= ""font-size:30px; font-family: monospace"">+</span>","null","fixation","","","","",""
"","880","audio-keyboard-response","443","662638","0.0-3.0-1.366","../audio/59-1-fem.mp3"," ","","O","","","",""
"","1411","audio-keyboard-response","444","664428","0.0-3.0-1.367","../audio/59-2-fem.mp3"," ","","carteiro","","","",""
"","941","audio-keyboard-response","445","665730","0.0-3.0-1.368","../audio/59-3-fem.mp3"," ","","fez","","","",""
"","931","audio-keyboard-response","446","667017","0.0-3.0-1.369","../audio/59-4-fem.mp3"," ","","uma","","","",""
"","1000","audio-keyboard-response","447","668388","0.0-3.0-1.370","../audio/59-5-fem.mp3"," ","","tentativa","","","",""
"","880","audio-keyboard-response","448","669641","0.0-3.0-1.371","../audio/59-6-fem.mp3"," ","","de","","","",""
"","1381","audio-keyboard-response","449","671357","0.0-3.0-1.372","../audio/59-7-fem.mp3"," ","","entrega.","","","",""
"","null","html-keyboard-response","450","672622","0.0-3.0-0.373-0.373","<span style= ""font-size:30px; font-family: monospace"">+</span>","null","fixation","","","","",""
"","1309","audio-keyboard-response","451","674382","0.0-3.0-1.373","../audio/58-1-fem.mp3"," ","","Havia","","","",""
"","1189","audio-keyboard-response","452","675922","0.0-3.0-1.374","../audio/58-2-fem.mp3"," ","","apenas","","","",""
"","861","audio-keyboard-response","453","677085","0.0-3.0-1.375","../audio/58-3-fem.mp3"," ","","um","","","",""
"","781","audio-keyboard-response","454","678200","0.0-3.0-1.376","../audio/58-4-fem.mp3"," ","","último","","","",""
"","1392","audio-keyboard-response","455","679969","0.0-3.0-1.377","../audio/58-5-fem.mp3"," ","","herdeiro","","","",""
"","1059","audio-keyboard-response","456","681384","0.0-3.0-1.378","../audio/58-6-fem.mp3"," ","","do","","","",""
"","1352","audio-keyboard-response","457","683095","0.0-3.0-1.379","../audio/58-7-fem.mp3"," ","","dinheiro.","","","",""
"","null","html-keyboard-response","458","684363","0.0-3.0-0.380-0.380","<span style= ""font-size:30px; font-family: monospace"">+</span>","null","fixation","","","","",""
"","1120","audio-keyboard-response","459","685899","0.0-3.0-1.380","../audio/60-1-masc.mp3"," ","","Ondas","","","",""
"","971","audio-keyboard-response","460","687243","0.0-3.0-1.381","../audio/60-2-masc.mp3"," ","","têm","","","",""
"","840","audio-keyboard-response","461","688438","0.0-3.0-1.382","../audio/60-3-masc.mp3"," ","","um","","","",""
"","1280","audio-keyboard-response","462","690084","0.0-3.0-1.383","../audio/60-4-masc.mp3"," ","","impacto","","","",""
"","1520","audio-keyboard-response","463","691936","0.0-3.0-1.384","../audio/60-5-masc.mp3"," ","","destrutivo","","","",""
"","1069","audio-keyboard-response","464","693357","0.0-3.0-1.385","../audio/60-6-masc.mp3"," ","","no","","","",""
"","1509","audio-keyboard-response","465","695222","0.0-3.0-1.386","../audio/60-7-masc.mp3"," ","","litoral.","","","",""
"","4041","html-keyboard-response","466","699523","0.0-3.0-2.386-0.386","<span style=""font-size:25px; font-family: monospace"">Ondas têm um impacto destrutivo?</span>","s","","","Ondas têm um impacto destrutivo?","null","exp-sent","false"
"","null","html-keyboard-response","467","701045","0.0-3.0-0.387-0.387","<span style= ""font-size:30px; font-family: monospace"">+</span>","null","fixation","","","","",""
"","901","audio-keyboard-response","468","702368","0.0-3.0-1.387","../audio/09-1-fem.mp3"," ","","O","","","",""
"","1128","audio-keyboard-response","469","703863","0.0-3.0-1.388","../audio/09-2-fem.mp3"," ","","rapaz","","","",""
"","1160","audio-keyboard-response","470","705422","0.0-3.0-1.389","../audio/09-3-fem.mp3"," ","","limpou","","","",""
"","899","audio-keyboard-response","471","706674","0.0-3.0-1.390","../audio/09-4-fem.mp3"," ","","o","","","",""
"","1261","audio-keyboard-response","472","708282","0.0-3.0-1.391","../audio/09-5-fem.mp3"," ","","terreno","","","",""
"","971","audio-keyboard-response","473","709602","0.0-3.0-1.392","../audio/09-6-fem.mp3"," ","","com","","","",""
"","1029","audio-keyboard-response","474","710997","0.0-3.0-1.393","../audio/09-7-fem.mp3"," ","","uma","","","",""
"","971","audio-keyboard-response","475","712321","0.0-3.0-1.394","../audio/09-8-fem.mp3"," ","","pá.","","","",""
"","null","html-keyboard-response","476","713586","0.0-3.0-0.395-0.395","<span style= ""font-size:30px; font-family: monospace"">+</span>","null","fixation","","","","",""
"","960","audio-keyboard-response","477","714969","0.0-3.0-1.395","../audio/07-1-fem.mp3"," ","","Meu","","","",""
"","808","audio-keyboard-response","478","716141","0.0-3.0-1.396","../audio/07-2-fem.mp3"," ","","filho","","","",""
"","739","audio-keyboard-response","479","717267","0.0-3.0-1.397","../audio/07-3-fem.mp3"," ","","é","","","",""
"","1139","audio-keyboard-response","480","718789","0.0-3.0-1.398","../audio/07-4-fem.mp3"," ","","muito","","","",""
"","1811","audio-keyboard-response","481","720962","0.0-3.0-1.399","../audio/07-5-fem.mp3"," ","","responsável","","","",""
"","931","audio-keyboard-response","482","722373","0.0-3.0-1.400","../audio/07-6-fem.mp3"," ","","nos","","","",""
"","1371","audio-keyboard-response","483","724114","0.0-3.0-1.401","../audio/07-7-fem.mp3"," ","","estudos.","","","",""
"","null","html-keyboard-response","484","725374","0.0-3.0-0.402-0.402","<span style= ""font-size:30px; font-family: monospace"">+</span>","null","fixation","","","","",""
"","1320","audio-keyboard-response","485","727125","0.0-3.0-1.402","../audio/06-1-fem.mp3"," ","","Ouvimos","","","",""
"","829","audio-keyboard-response","486","728324","0.0-3.0-1.403","../audio/06-2-fem.mp3"," ","","a","","","",""
"","1029","audio-keyboard-response","487","729727","0.0-3.0-1.404","../audio/06-3-fem.mp3"," ","","fala","","","",""
"","891","audio-keyboard-response","488","730970","0.0-3.0-1.405","../audio/06-4-fem.mp3"," ","","do","","","",""
"","1520","audio-keyboard-response","489","732857","0.0-3.0-1.406","../audio/06-5-fem.mp3"," ","","profeta","","","",""
"","1720","audio-keyboard-response","490","734934","0.0-3.0-1.407","../audio/06-6-fem.mp3"," ","","no","","","",""
"","1328","audio-keyboard-response","491","736705","0.0-3.0-1.408","../audio/06-7-fem.mp3"," ","","púlpito","","","",""
"","941","audio-keyboard-response","492","738000","0.0-3.0-1.409","../audio/06-8-fem.mp3"," ","","da","","","",""
"","1349","audio-keyboard-response","493","739706","0.0-3.0-1.410","../audio/06-9-fem.mp3"," ","","igreja.","","","",""
"","null","html-keyboard-response","494","740987","0.0-3.0-0.411-0.411","<span style= ""font-size:30px; font-family: monospace"">+</span>","null","fixation","","","","",""
"","909","audio-keyboard-response","495","742317","0.0-3.0-1.411","../audio/08-1-masc.mp3"," ","","A","","","",""
"","1269","audio-keyboard-response","496","743959","0.0-3.0-1.412","../audio/08-2-masc.mp3"," ","","receita","","","",""
"","1000","audio-keyboard-response","497","745318","0.0-3.0-1.413","../audio/08-3-masc.mp3"," ","","pede","","","",""
"","829","audio-keyboard-response","498","746506","0.0-3.0-1.414","../audio/08-4-masc.mp3"," ","","um","","","",""
"","1080","audio-keyboard-response","499","747957","0.0-3.0-1.415","../audio/08-5-masc.mp3"," ","","litro","","","",""
"","800","audio-keyboard-response","500","749115","0.0-3.0-1.416","../audio/08-6-masc.mp3"," ","","de","","","",""
"","960","audio-keyboard-response","501","750420","0.0-3.0-1.417","../audio/08-7-masc.mp3"," ","","leite","","","",""
"","1291","audio-keyboard-response","502","752067","0.0-3.0-1.418","../audio/08-8-masc.mp3"," ","","integral.","","","",""
"","null","html-keyboard-response","503","753337","0.0-3.0-0.419-0.419","<span style= ""font-size:30px; font-family: monospace"">+</span>","null","fixation","","","","",""
"","749","audio-keyboard-response","504","754508","0.0-3.0-1.419","../audio/10-1-masc.mp3"," ","","O","","","",""
"","992","audio-keyboard-response","505","755857","0.0-3.0-1.420","../audio/10-2-masc.mp3"," ","","pássaro","","","",""
"","1069","audio-keyboard-response","506","757285","0.0-3.0-1.421","../audio/10-3-masc.mp3"," ","","azul","","","",""
"","1149","audio-keyboard-response","507","758805","0.0-3.0-1.422","../audio/10-4-masc.mp3"," ","","estava","","","",""
"","1088","audio-keyboard-response","508","760258","0.0-3.0-1.423","../audio/10-5-masc.mp3"," ","","vivo","","","",""
"","859","audio-keyboard-response","509","761473","0.0-3.0-1.424","../audio/10-6-masc.mp3"," ","","e","","","",""
"","971","audio-keyboard-response","510","762804","0.0-3.0-1.425","../audio/10-7-masc.mp3"," ","","em","","","",""
"","1861","audio-keyboard-response","511","765051","0.0-3.0-1.426","../audio/10-8-masc.mp3"," ","","segurança.","","","",""
"","6303","html-keyboard-response","512","771614","0.0-3.0-2.426-0.426","<span style=""font-size:25px; font-family: monospace"">O pássaro vermelho estava em segurança?</span>","s","","","O pássaro vermelho estava em segurança?","null","exp-sent","false"
"","null","html-keyboard-response","513","773140","0.0-3.0-0.427-0.427","<span style= ""font-size:30px; font-family: monospace"">+</span>","null","fixation","","","","",""
"","1152","audio-keyboard-response","514","774687","0.0-3.0-1.427","../audio/71-1-masc.mp3"," ","","Minhas","","","",""
"","1000","audio-keyboard-response","515","776019","0.0-3.0-1.428","../audio/71-2-masc.mp3"," ","","comidas","","","",""
"","1181","audio-keyboard-response","516","777535","0.0-3.0-1.429","../audio/71-3-masc.mp3"," ","","favoritas","","","",""
"","851","audio-keyboard-response","517","778764","0.0-3.0-1.430","../audio/71-4-masc.mp3"," ","","são","","","",""
"","1061","audio-keyboard-response","518","780174","0.0-3.0-1.431","../audio/71-5-masc.mp3"," ","","morango","","","",""
"","821","audio-keyboard-response","519","781336","0.0-3.0-1.432","../audio/71-6-masc.mp3"," ","","e","","","",""
"","1141","audio-keyboard-response","520","782837","0.0-3.0-1.433","../audio/71-7-masc.mp3"," ","","uva.","","","",""
"","null","html-keyboard-response","521","784117","0.0-3.0-0.434-0.434","<span style= ""font-size:30px; font-family: monospace"">+</span>","null","fixation","","","","",""
"","800","audio-keyboard-response","522","785314","0.0-3.0-1.434","../audio/72-1-fem.mp3"," ","","A","","","",""
"","1480","audio-keyboard-response","523","787157","0.0-3.0-1.435","../audio/72-2-fem.mp3"," ","","vencedora","","","",""
"","1248","audio-keyboard-response","524","788777","0.0-3.0-1.436","../audio/72-3-fem.mp3"," ","","recebeu","","","",""
"","819","audio-keyboard-response","525","789938","0.0-3.0-1.437","../audio/72-4-fem.mp3"," ","","um","","","",""
"","1112","audio-keyboard-response","526","791409","0.0-3.0-1.438","../audio/72-5-fem.mp3"," ","","prêmio","","","",""
"","848","audio-keyboard-response","527","792626","0.0-3.0-1.439","../audio/72-6-fem.mp3"," ","","em","","","",""
"","1232","audio-keyboard-response","528","794250","0.0-3.0-1.440","../audio/72-7-fem.mp3"," ","","dinheiro.","","","",""
"","null","html-keyboard-response","529","795511","0.0-3.0-0.441-0.441","<span style= ""font-size:30px; font-family: monospace"">+</span>","null","fixation","","","","",""
"","760","audio-keyboard-response","530","796691","0.0-3.0-1.441","../audio/73-1-masc.mp3"," ","","O","","","",""
"","1152","audio-keyboard-response","531","798214","0.0-3.0-1.442","../audio/73-2-masc.mp3"," ","","cliente","","","",""
"","851","audio-keyboard-response","532","799470","0.0-3.0-1.443","../audio/73-3-masc.mp3"," ","","era","","","",""
"","800","audio-keyboard-response","533","800621","0.0-3.0-1.444","../audio/73-4-masc.mp3"," ","","um","","","",""
"","992","audio-keyboard-response","534","801975","0.0-3.0-1.445","../audio/73-5-masc.mp3"," ","","homem","","","",""
"","1189","audio-keyboard-response","535","803553","0.0-3.0-1.446","../audio/73-6-masc.mp3"," ","","muito","","","",""
"","1651","audio-keyboard-response","536","805564","0.0-3.0-1.447","../audio/73-7-masc.mp3"," ","","educado.","","","",""
"","null","html-keyboard-response","537","806841","0.0-3.0-0.448-0.448","<span style= ""font-size:30px; font-family: monospace"">+</span>","null","fixation","","","","",""
"","1200","audio-keyboard-response","538","808467","0.0-3.0-1.448","../audio/74-1-fem.mp3"," ","","Este","","","",""
"","1181","audio-keyboard-response","539","810013","0.0-3.0-1.449","../audio/74-2-fem.mp3"," ","","emprego","","","",""
"","819","audio-keyboard-response","540","811185","0.0-3.0-1.450","../audio/74-3-fem.mp3"," ","","é","","","",""
"","1149","audio-keyboard-response","541","812723","0.0-3.0-1.451","../audio/74-4-fem.mp3"," ","","muito","","","",""
"","1669","audio-keyboard-response","542","814911","0.0-3.0-1.452","../audio/74-5-fem.mp3"," ","","cansativo","","","",""
"","832","audio-keyboard-response","543","816168","0.0-3.0-1.453","../audio/74-6-fem.mp3"," ","","a","","","",""
"","1149","audio-keyboard-response","544","817675","0.0-3.0-1.454","../audio/74-7-fem.mp3"," ","","longo","","","",""
"","1141","audio-keyboard-response","545","819169","0.0-3.0-1.455","../audio/74-8-fem.mp3"," ","","prazo.","","","",""
"","null","html-keyboard-response","546","820432","0.0-3.0-0.456-0.456","<span style= ""font-size:30px; font-family: monospace"">+</span>","null","fixation","","","","",""
"","240","audio-keyboard-response","547","821078","0.0-3.0-1.456","../audio/75-1-masc.mp3"," ","","Só","","","",""
"","1139","audio-keyboard-response","548","822579","0.0-3.0-1.457","../audio/75-2-masc.mp3"," ","","existe","","","",""
"","920","audio-keyboard-response","549","823851","0.0-3.0-1.458","../audio/75-3-masc.mp3"," ","","uma","","","",""
"","1240","audio-keyboard-response","550","825465","0.0-3.0-1.459","../audio/75-4-masc.mp3"," ","","pessoa","","","",""
"","1171","audio-keyboard-response","551","827002","0.0-3.0-1.460","../audio/75-5-masc.mp3"," ","","canhota","","","",""
"","1131","audio-keyboard-response","552","828480","0.0-3.0-1.461","../audio/75-6-masc.mp3"," ","","nesta","","","",""
"","1280","audio-keyboard-response","553","830108","0.0-3.0-1.462","../audio/75-7-masc.mp3"," ","","cidade.","","","",""
"","5239","html-keyboard-response","554","835605","0.0-3.0-2.462-0.462","<span style=""font-size:25px; font-family: monospace"">Só existe uma pessoa canhota na cidade?</span>","s","","","Só existe uma pessoa canhota na cidade?","null","exp-sent","false"
"","null","html-keyboard-response","555","837127","0.0-3.0-0.463-0.463","<span style= ""font-size:30px; font-family: monospace"">+</span>","null","fixation","","","","",""
"","1040","audio-keyboard-response","556","838630","0.0-3.0-1.463","../audio/26-1-masc.mp3"," ","","Amanhã","","","",""
"","920","audio-keyboard-response","557","839905","0.0-3.0-1.464","../audio/26-2-masc.mp3"," ","","temos","","","",""
"","1011","audio-keyboard-response","558","841275","0.0-3.0-1.465","../audio/26-3-masc.mp3"," ","","festa","","","",""
"","821","audio-keyboard-response","559","842455","0.0-3.0-1.466","../audio/26-4-masc.mp3"," ","","na","","","",""
"","989","audio-keyboard-response","560","843805","0.0-3.0-1.467","../audio/26-5-masc.mp3"," ","","piscina","","","",""
"","779","audio-keyboard-response","561","844939","0.0-3.0-1.468","../audio/26-6-masc.mp3"," ","","o","","","",""
"","861","audio-keyboard-response","562","846166","0.0-3.0-1.469","../audio/26-7-masc.mp3"," ","","dia","","","",""
"","739","audio-keyboard-response","563","847258","0.0-3.0-1.470","../audio/26-8-masc.mp3"," ","","todo.","","","",""
"","null","html-keyboard-response","564","848530","0.0-3.0-0.471-0.471","<span style= ""font-size:30px; font-family: monospace"">+</span>","null","fixation","","","","",""
"","40","audio-keyboard-response","565","848993","0.0-3.0-1.471","../audio/28-1-masc.mp3"," ","","O","","","",""
"","1181","audio-keyboard-response","566","850524","0.0-3.0-1.472","../audio/28-2-masc.mp3"," ","","time","","","",""
"","931","audio-keyboard-response","567","851809","0.0-3.0-1.473","../audio/28-3-masc.mp3"," ","","quer","","","",""
"","1000","audio-keyboard-response","568","853158","0.0-3.0-1.474","../audio/28-4-masc.mp3"," ","","a","","","",""
"","1341","audio-keyboard-response","569","854883","0.0-3.0-1.475","../audio/28-5-masc.mp3"," ","","vitória","","","",""
"","1069","audio-keyboard-response","570","856303","0.0-3.0-1.476","../audio/28-6-masc.mp3"," ","","no","","","",""
"","1341","audio-keyboard-response","571","858003","0.0-3.0-1.477","../audio/28-7-masc.mp3"," ","","jogo","","","",""
"","1021","audio-keyboard-response","572","859369","0.0-3.0-1.478","../audio/28-8-masc.mp3"," ","","de","","","",""
"","1829","audio-keyboard-response","573","861553","0.0-3.0-1.479","../audio/28-9-masc.mp3"," ","","vôlei.","","","",""
"","null","html-keyboard-response","574","862821","0.0-3.0-0.480-0.480","<span style= ""font-size:30px; font-family: monospace"">+</span>","null","fixation","","","","",""
"","920","audio-keyboard-response","575","864177","0.0-3.0-1.480","../audio/27-1-fem.mp3"," ","","O","","","",""
"","1280","audio-keyboard-response","576","865818","0.0-3.0-1.481","../audio/27-2-fem.mp3"," ","","dinheiro","","","",""
"","1192","audio-keyboard-response","577","867368","0.0-3.0-1.482","../audio/27-3-fem.mp3"," ","","chegou","","","",""
"","920","audio-keyboard-response","578","868637","0.0-3.0-1.483","../audio/27-4-fem.mp3"," ","","à","","","",""
"","891","audio-keyboard-response","579","869888","0.0-3.0-1.484","../audio/27-5-fem.mp3"," ","","elite","","","",""
"","1051","audio-keyboard-response","580","871295","0.0-3.0-1.485","../audio/27-6-fem.mp3"," ","","deste","","","",""
"","1389","audio-keyboard-response","581","873044","0.0-3.0-1.486","../audio/27-7-fem.mp3"," ","","país.","","","",""
"","null","html-keyboard-response","582","874317","0.0-3.0-0.487-0.487","<span style= ""font-size:30px; font-family: monospace"">+</span>","null","fixation","","","","",""
"","1069","audio-keyboard-response","583","875807","0.0-3.0-1.487","../audio/29-1-masc.mp3"," ","","Hoje","","","",""
"","1069","audio-keyboard-response","584","877477","0.0-3.0-1.488","../audio/29-2-masc.mp3"," ","","vamos","","","",""
"","1061","audio-keyboard-response","585","878882","0.0-3.0-1.489","../audio/29-3-masc.mp3"," ","","fazer","","","",""
"","1040","audio-keyboard-response","586","880275","0.0-3.0-1.490","../audio/29-4-masc.mp3"," ","","uma","","","",""
"","1541","audio-keyboard-response","587","882169","0.0-3.0-1.491","../audio/29-5-masc.mp3"," ","","atividade","","","",""
"","1019","audio-keyboard-response","588","883549","0.0-3.0-1.492","../audio/29-6-masc.mp3"," ","","sobre","","","",""
"","1141","audio-keyboard-response","589","885088","0.0-3.0-1.493","../audio/29-7-masc.mp3"," ","","fauna","","","",""
"","1251","audio-keyboard-response","590","887008","0.0-3.0-1.494","../audio/29-8-masc.mp3"," ","","marinha.","","","",""
"","null","html-keyboard-response","591","888285","0.0-3.0-0.495-0.495","<span style= ""font-size:30px; font-family: monospace"">+</span>","null","fixation","","","","",""
"","779","audio-keyboard-response","592","889582","0.0-3.0-1.495","../audio/30-1-fem.mp3"," ","","O","","","",""
"","1611","audio-keyboard-response","593","891534","0.0-3.0-1.496","../audio/30-2-fem.mp3"," ","","funcionário","","","",""
"","1371","audio-keyboard-response","594","893275","0.0-3.0-1.497","../audio/30-3-fem.mp3"," ","","entregou","","","",""
"","909","audio-keyboard-response","595","894547","0.0-3.0-1.498","../audio/30-4-fem.mp3"," ","","o","","","",""
"","1491","audio-keyboard-response","596","896397","0.0-3.0-1.499","../audio/30-5-fem.mp3"," ","","restante","","","",""
"","840","audio-keyboard-response","597","897592","0.0-3.0-1.500","../audio/30-6-fem.mp3"," ","","do","","","",""
"","1309","audio-keyboard-response","598","899285","0.0-3.0-1.501","../audio/30-7-fem.mp3"," ","","dinheiro.","","","",""
"","3514","html-keyboard-response","599","903058","0.0-3.0-2.501-0.501","<span style=""font-size:25px; font-family: monospace"">O funcionário entregou o contrato?</span>","n","","","O funcionário entregou o contrato?","null","exp-sent","false"
"","null","html-keyboard-response","600","904580","0.0-3.0-0.502-0.502","<span style= ""font-size:30px; font-family: monospace"">+</span>","null","fixation","","","","",""
"","931","audio-keyboard-response","601","905932","0.0-3.0-1.502","../audio/17-1-fem.mp3"," ","","Falaram","","","",""
"","760","audio-keyboard-response","602","907040","0.0-3.0-1.503","../audio/17-2-fem.mp3"," ","","da","","","",""
"","1000","audio-keyboard-response","603","908395","0.0-3.0-1.504","../audio/17-3-fem.mp3"," ","","lei","","","",""
"","909","audio-keyboard-response","604","909672","0.0-3.0-1.505","../audio/17-4-fem.mp3"," ","","no","","","",""
"","1600","audio-keyboard-response","605","911634","0.0-3.0-1.506","../audio/17-5-fem.mp3"," ","","ministério","","","",""
"","1320","audio-keyboard-response","606","913309","0.0-3.0-1.507","../audio/17-6-fem.mp3"," ","","diversas","","","",""
"","1061","audio-keyboard-response","607","914737","0.0-3.0-1.508","../audio/17-7-fem.mp3"," ","","vezes.","","","",""
"","null","html-keyboard-response","608","916004","0.0-3.0-0.509-0.509","<span style= ""font-size:30px; font-family: monospace"">+</span>","null","fixation","","","","",""
"","851","audio-keyboard-response","609","917267","0.0-3.0-1.509","../audio/16-1-masc.mp3"," ","","Eu","","","",""
"","1011","audio-keyboard-response","610","918655","0.0-3.0-1.510","../audio/16-2-masc.mp3"," ","","nunca","","","",""
"","1091","audio-keyboard-response","611","920123","0.0-3.0-1.511","../audio/16-3-masc.mp3"," ","","conheci","","","",""
"","819","audio-keyboard-response","612","921303","0.0-3.0-1.512","../audio/16-4-masc.mp3"," ","","um","","","",""
"","1141","audio-keyboard-response","613","922807","0.0-3.0-1.513","../audio/16-5-masc.mp3"," ","","general","","","",""
"","888","audio-keyboard-response","614","924063","0.0-3.0-1.514","../audio/16-6-masc.mp3"," ","","do","","","",""
"","1179","audio-keyboard-response","615","925592","0.0-3.0-1.515","../audio/16-7-masc.mp3"," ","","exército.","","","",""
"","null","html-keyboard-response","616","926865","0.0-3.0-0.516-0.516","<span style= ""font-size:30px; font-family: monospace"">+</span>","null","fixation","","","","",""
"","680","audio-keyboard-response","617","927993","0.0-3.0-1.516","../audio/18-1-fem.mp3"," ","","O","","","",""
"","1309","audio-keyboard-response","618","929667","0.0-3.0-1.517","../audio/18-2-fem.mp3"," ","","enredo","","","",""
"","901","audio-keyboard-response","619","930937","0.0-3.0-1.518","../audio/18-3-fem.mp3"," ","","traz","","","",""
"","901","audio-keyboard-response","620","932200","0.0-3.0-1.519","../audio/18-4-fem.mp3"," ","","um","","","",""
"","1259","audio-keyboard-response","621","933828","0.0-3.0-1.520","../audio/18-5-fem.mp3"," ","","dragão","","","",""
"","840","audio-keyboard-response","622","935014","0.0-3.0-1.521","../audio/18-6-fem.mp3"," ","","forte","","","",""
"","808","audio-keyboard-response","623","936179","0.0-3.0-1.522","../audio/18-7-fem.mp3"," ","","e","","","",""
"","1568","audio-keyboard-response","624","938100","0.0-3.0-1.523","../audio/18-8-fem.mp3"," ","","solitário.","","","",""
"","null","html-keyboard-response","625","939366","0.0-3.0-0.524-0.524","<span style= ""font-size:30px; font-family: monospace"">+</span>","null","fixation","","","","",""
"","811","audio-keyboard-response","626","940595","0.0-3.0-1.524","../audio/19-1-masc.mp3"," ","","O","","","",""
"","1059","audio-keyboard-response","627","942029","0.0-3.0-1.525","../audio/19-2-masc.mp3"," ","","menino","","","",""
"","941","audio-keyboard-response","628","943328","0.0-3.0-1.526","../audio/19-3-masc.mp3"," ","","ganhou","","","",""
"","829","audio-keyboard-response","629","944515","0.0-3.0-1.527","../audio/19-4-masc.mp3"," ","","uma","","","",""
"","931","audio-keyboard-response","630","945813","0.0-3.0-1.528","../audio/19-5-masc.mp3"," ","","bala","","","",""
"","899","audio-keyboard-response","631","947068","0.0-3.0-1.529","../audio/19-6-masc.mp3"," ","","depois","","","",""
"","891","audio-keyboard-response","632","948309","0.0-3.0-1.530","../audio/19-7-masc.mp3"," ","","do","","","",""
"","1328","audio-keyboard-response","633","950021","0.0-3.0-1.531","../audio/19-8-masc.mp3"," ","","almoço.","","","",""
"","null","html-keyboard-response","634","951288","0.0-3.0-0.532-0.532","<span style= ""font-size:30px; font-family: monospace"">+</span>","null","fixation","","","","",""
"","741","audio-keyboard-response","635","952450","0.0-3.0-1.532","../audio/20-1-fem.mp3"," ","","O","","","",""
"","1349","audio-keyboard-response","636","954163","0.0-3.0-1.533","../audio/20-2-fem.mp3"," ","","colega","","","",""
"","1421","audio-keyboard-response","637","955970","0.0-3.0-1.534","../audio/20-3-fem.mp3"," ","","parecia","","","",""
"","1211","audio-keyboard-response","638","957529","0.0-3.0-1.535","../audio/20-4-fem.mp3"," ","","muito","","","",""
"","1408","audio-keyboard-response","639","959307","0.0-3.0-1.536","../audio/20-5-fem.mp3"," ","","gripado","","","",""
"","952","audio-keyboard-response","640","960609","0.0-3.0-1.537","../audio/20-6-fem.mp3"," ","","no","","","",""
"","891","audio-keyboard-response","641","961848","0.0-3.0-1.538","../audio/20-7-fem.mp3"," ","","dia","","","",""
"","1800","audio-keyboard-response","642","964016","0.0-3.0-1.539","../audio/20-8-fem.mp3"," ","","anterior.","","","",""
"","4391","html-keyboard-response","643","968674","0.0-3.0-2.539-0.539","<span style=""font-size:25px; font-family: monospace"">O colega parecia muito gripado?</span>","s","","","O colega parecia muito gripado?","null","exp-sent","false"
"","null","html-keyboard-response","644","970197","0.0-3.0-0.540-0.540","<span style= ""font-size:30px; font-family: monospace"">+</span>","null","fixation","","","","",""
"","931","audio-keyboard-response","645","971558","0.0-3.0-1.540","../audio/48-1-masc.mp3"," ","","Ela","","","",""
"","869","audio-keyboard-response","646","972780","0.0-3.0-1.541","../audio/48-2-masc.mp3"," ","","come","","","",""
"","981","audio-keyboard-response","647","974134","0.0-3.0-1.542","../audio/48-3-masc.mp3"," ","","feijão","","","",""
"","808","audio-keyboard-response","648","975297","0.0-3.0-1.543","../audio/48-4-masc.mp3"," ","","com","","","",""
"","981","audio-keyboard-response","649","976641","0.0-3.0-1.544","../audio/48-5-masc.mp3"," ","","arroz","","","",""
"","859","audio-keyboard-response","650","977864","0.0-3.0-1.545","../audio/48-6-masc.mp3"," ","","todos","","","",""
"","861","audio-keyboard-response","651","979088","0.0-3.0-1.546","../audio/48-7-masc.mp3"," ","","os","","","",""
"","1259","audio-keyboard-response","652","980700","0.0-3.0-1.547","../audio/48-8-masc.mp3"," ","","dias.","","","",""
"","null","html-keyboard-response","653","981976","0.0-3.0-0.548-0.548","<span style= ""font-size:30px; font-family: monospace"">+</span>","null","fixation","","","","",""
"","1051","audio-keyboard-response","654","983456","0.0-3.0-1.548","../audio/47-1-fem.mp3"," ","","O","","","",""
"","981","audio-keyboard-response","655","984803","0.0-3.0-1.549","../audio/47-2-fem.mp3"," ","","tio","","","",""
"","1280","audio-keyboard-response","656","986437","0.0-3.0-1.550","../audio/47-3-fem.mp3"," ","","recusou","","","",""
"","840","audio-keyboard-response","657","987620","0.0-3.0-1.551","../audio/47-4-fem.mp3"," ","","a","","","",""
"","1741","audio-keyboard-response","658","989719","0.0-3.0-1.552","../audio/47-5-fem.mp3"," ","","sobremesa","","","",""
"","971","audio-keyboard-response","659","991119","0.0-3.0-1.553","../audio/47-6-fem.mp3"," ","","no","","","",""
"","1451","audio-keyboard-response","660","992922","0.0-3.0-1.554","../audio/47-7-fem.mp3"," ","","almoço.","","","",""
"","null","html-keyboard-response","661","994191","0.0-3.0-0.555-0.555","<span style= ""font-size:30px; font-family: monospace"">+</span>","null","fixation","","","","",""
"","869","audio-keyboard-response","662","995474","0.0-3.0-1.555","../audio/46-1-fem.mp3"," ","","Meu","","","",""
"","891","audio-keyboard-response","663","996749","0.0-3.0-1.556","../audio/46-2-fem.mp3"," ","","primo","","","",""
"","1192","audio-keyboard-response","664","998294","0.0-3.0-1.557","../audio/46-3-fem.mp3"," ","","estava","","","",""
"","1200","audio-keyboard-response","665","999850","0.0-3.0-1.558","../audio/46-4-fem.mp3"," ","","muito","","","",""
"","1461","audio-keyboard-response","666","1001682","0.0-3.0-1.559","../audio/46-5-fem.mp3"," ","","deprimido","","","",""
"","960","audio-keyboard-response","667","1002989","0.0-3.0-1.560","../audio/46-6-fem.mp3"," ","","no","","","",""
"","1189","audio-keyboard-response","668","1004540","0.0-3.0-1.561","../audio/46-7-fem.mp3"," ","","inverno.","","","",""
"","null","html-keyboard-response","669","1005815","0.0-3.0-0.562-0.562","<span style= ""font-size:30px; font-family: monospace"">+</span>","null","fixation","","","","",""
"","752","audio-keyboard-response","670","1006967","0.0-3.0-1.562","../audio/49-1-fem.mp3"," ","","Eu","","","",""
"","1019","audio-keyboard-response","671","1008381","0.0-3.0-1.563","../audio/49-2-fem.mp3"," ","","quero","","","",""
"","800","audio-keyboard-response","672","1009534","0.0-3.0-1.564","../audio/49-3-fem.mp3"," ","","um","","","",""
"","1061","audio-keyboard-response","673","1010934","0.0-3.0-1.565","../audio/49-4-fem.mp3"," ","","lanche","","","",""
"","1251","audio-keyboard-response","674","1012555","0.0-3.0-1.566","../audio/49-5-fem.mp3"," ","","duplo","","","",""
"","829","audio-keyboard-response","675","1013739","0.0-3.0-1.567","../audio/49-6-fem.mp3"," ","","e","","","",""
"","840","audio-keyboard-response","676","1014963","0.0-3.0-1.568","../audio/49-7-fem.mp3"," ","","um","","","",""
"","1131","audio-keyboard-response","677","1016456","0.0-3.0-1.569","../audio/49-8-fem.mp3"," ","","suco.","","","",""
"","null","html-keyboard-response","678","1017722","0.0-3.0-0.570-0.570","<span style= ""font-size:30px; font-family: monospace"">+</span>","null","fixation","","","","",""
"","859","audio-keyboard-response","679","1019034","0.0-3.0-1.570","../audio/50-1-masc.mp3"," ","","O","","","",""
"","1091","audio-keyboard-response","680","1020478","0.0-3.0-1.571","../audio/50-2-masc.mp3"," ","","pássaro","","","",""
"","971","audio-keyboard-response","681","1021810","0.0-3.0-1.572","../audio/50-3-masc.mp3"," ","","fugiu","","","",""
"","819","audio-keyboard-response","682","1022983","0.0-3.0-1.573","../audio/50-4-masc.mp3"," ","","da","","","",""
"","1232","audio-keyboard-response","683","1024567","0.0-3.0-1.574","../audio/50-5-masc.mp3"," ","","gaiola","","","",""
"","989","audio-keyboard-response","684","1025917","0.0-3.0-1.575","../audio/50-6-masc.mp3"," ","","pela","","","",""
"","680","audio-keyboard-response","685","1026972","0.0-3.0-1.576","../audio/50-7-masc.mp3"," ","","portinhola.","","","",""
"","3080","html-keyboard-response","686","1030312","0.0-3.0-2.576-0.576","<span style=""font-size:25px; font-family: monospace"">O pássaro fugiu da gaiola?</span>","s","","","O pássaro fugiu da gaiola?","null","exp-sent","false"
"","null","html-keyboard-response","687","1031824","0.0-3.0-0.577-0.577","<span style= ""font-size:30px; font-family: monospace"">+</span>","null","fixation","","","","",""
"","971","audio-keyboard-response","688","1033208","0.0-3.0-1.577","../audio/12-1-fem.mp3"," ","","O","","","",""
"","899","audio-keyboard-response","689","1034465","0.0-3.0-1.578","../audio/12-2-fem.mp3"," ","","dia","","","",""
"","1141","audio-keyboard-response","690","1035964","0.0-3.0-1.579","../audio/12-3-fem.mp3"," ","","estava","","","",""
"","1131","audio-keyboard-response","691","1037454","0.0-3.0-1.580","../audio/12-4-fem.mp3"," ","","quente,","","","",""
"","1240","audio-keyboard-response","692","1039050","0.0-3.0-1.581","../audio/12-5-fem.mp3"," ","","tranquilo","","","",""
"","811","audio-keyboard-response","693","1040210","0.0-3.0-1.582","../audio/12-6-fem.mp3"," ","","e","","","",""
"","1808","audio-keyboard-response","694","1042384","0.0-3.0-1.583","../audio/12-7-fem.mp3"," ","","ensolarado.","","","",""
"","null","html-keyboard-response","695","1043651","0.0-3.0-0.584-0.584","<span style= ""font-size:30px; font-family: monospace"">+</span>","null","fixation","","","","",""
"","741","audio-keyboard-response","696","1045055","0.0-3.0-1.584","../audio/14-1-masc.mp3"," ","","O","","","",""
"","1112","audio-keyboard-response","697","1046529","0.0-3.0-1.585","../audio/14-2-masc.mp3"," ","","cachorro","","","",""
"","869","audio-keyboard-response","698","1047752","0.0-3.0-1.586","../audio/14-3-masc.mp3"," ","","é","","","",""
"","1029","audio-keyboard-response","699","1049156","0.0-3.0-1.587","../audio/14-4-masc.mp3"," ","","muito","","","",""
"","1019","audio-keyboard-response","700","1050543","0.0-3.0-1.588","../audio/14-5-masc.mp3"," ","","fiel","","","",""
"","821","audio-keyboard-response","701","1051717","0.0-3.0-1.589","../audio/14-6-masc.mp3"," ","","a","","","",""
"","1021","audio-keyboard-response","702","1053096","0.0-3.0-1.590","../audio/14-7-masc.mp3"," ","","seus","","","",""
"","1349","audio-keyboard-response","703","1054805","0.0-3.0-1.591","../audio/14-8-masc.mp3"," ","","donos.","","","",""
"","null","html-keyboard-response","704","1056073","0.0-3.0-0.592-0.592","<span style= ""font-size:30px; font-family: monospace"">+</span>","null","fixation","","","","",""
"","971","audio-keyboard-response","705","1057475","0.0-3.0-1.592","../audio/13-1-fem.mp3"," ","","Para","","","",""
"","971","audio-keyboard-response","706","1058801","0.0-3.0-1.593","../audio/13-2-fem.mp3"," ","","mim","","","",""
"","840","audio-keyboard-response","707","1059992","0.0-3.0-1.594","../audio/13-3-fem.mp3"," ","","é","","","",""
"","1139","audio-keyboard-response","708","1061497","0.0-3.0-1.595","../audio/13-4-fem.mp3"," ","","muito","","","",""
"","1280","audio-keyboard-response","709","1063144","0.0-3.0-1.596","../audio/13-5-fem.mp3"," ","","difícil","","","",""
"","1411","audio-keyboard-response","710","1064914","0.0-3.0-1.597","../audio/13-6-fem.mp3"," ","","acordar","","","",""
"","1429","audio-keyboard-response","711","1066709","0.0-3.0-1.598","../audio/13-7-fem.mp3"," ","","cedo.","","","",""
"","null","html-keyboard-response","712","1067986","0.0-3.0-0.599-0.599","<span style= ""font-size:30px; font-family: monospace"">+</span>","null","fixation","","","","",""
"","872","audio-keyboard-response","713","1069293","0.0-3.0-1.599","../audio/11-1-fem.mp3"," ","","Elas","","","",""
"","1029","audio-keyboard-response","714","1070658","0.0-3.0-1.600","../audio/11-2-fem.mp3"," ","","gostam","","","",""
"","1171","audio-keyboard-response","715","1072175","0.0-3.0-1.601","../audio/11-3-fem.mp3"," ","","muito","","","",""
"","789","audio-keyboard-response","716","1073313","0.0-3.0-1.602","../audio/11-4-fem.mp3"," ","","de","","","",""
"","1701","audio-keyboard-response","717","1075412","0.0-3.0-1.603","../audio/11-5-fem.mp3"," ","","aritmética","","","",""
"","979","audio-keyboard-response","718","1076826","0.0-3.0-1.604","../audio/11-6-fem.mp3"," ","","e","","","",""
"","840","audio-keyboard-response","719","1078014","0.0-3.0-1.605","../audio/11-7-fem.mp3"," ","","de","","","",""
"","1421","audio-keyboard-response","720","1079805","0.0-3.0-1.606","../audio/11-8-fem.mp3"," ","","leitura.","","","",""
"","null","html-keyboard-response","721","1081071","0.0-3.0-0.607-0.607","<span style= ""font-size:30px; font-family: monospace"">+</span>","null","fixation","","","","",""
"","968","audio-keyboard-response","722","1082458","0.0-3.0-1.607","../audio/15-1-masc.mp3"," ","","Meu","","","",""
"","891","audio-keyboard-response","723","1083713","0.0-3.0-1.608","../audio/15-2-masc.mp3"," ","","primo","","","",""
"","819","audio-keyboard-response","724","1084907","0.0-3.0-1.609","../audio/15-3-masc.mp3"," ","","é","","","",""
"","832","audio-keyboard-response","725","1086093","0.0-3.0-1.610","../audio/15-4-masc.mp3"," ","","um","","","",""
"","1189","audio-keyboard-response","726","1087644","0.0-3.0-1.611","../audio/15-5-masc.mp3"," ","","grande","","","",""
"","1280","audio-keyboard-response","727","1089294","0.0-3.0-1.612","../audio/15-6-masc.mp3"," ","","vendedor","","","",""
"","880","audio-keyboard-response","728","1090527","0.0-3.0-1.613","../audio/15-7-masc.mp3"," ","","de","","","",""
"","909","audio-keyboard-response","729","1091788","0.0-3.0-1.614","../audio/15-8-masc.mp3"," ","","carros.","","","",""
"","4451","html-keyboard-response","730","1096493","0.0-3.0-2.614-0.614","<span style=""font-size:25px; font-family: monospace"">O primo é um vendedor de carros?</span>","s","","","O primo é um vendedor de carros?","null","exp-sent","false"
"[{""page_index"":0,""viewing_time"":4915}]","4915","instructions","731","1101922","0.0-4.0","","","","","","","",""
