"view_history","rt","trial_type","trial_index","time_elapsed","internal_node_id","stimulus","response","trial_part","trial","word","question","answer","accuracy"
"[{""page_index"":0,""viewing_time"":84368},{""page_index"":1,""viewing_time"":16398}]","100766","instructions","0","100769","0.0-0.0","","","","","","","",""
"","null","html-keyboard-response","1","101895","0.0-1.0-0.0-0.0","<span style= ""font-size:30px; font-family: monospace"">+</span>","null","fixation","","","","",""
"","3332","html-keyboard-response","2","105482","0.0-1.0-1.0","<span style=""font-size:30px; font-family: monospace"">O</span>"," ","","prac-sent","O","","",""
"","1712","html-keyboard-response","3","107454","0.0-1.0-1.1","<span style=""font-size:30px; font-family: monospace"">dia</span>"," ","","prac-sent","dia","","",""
"","1341","html-keyboard-response","4","109056","0.0-1.0-1.2","<span style=""font-size:30px; font-family: monospace"">estará</span>"," ","","prac-sent","estará","","",""
"","1323","html-keyboard-response","5","110641","0.0-1.0-1.3","<span style=""font-size:30px; font-family: monospace"">cheio</span>"," ","","prac-sent","cheio","","",""
"","916","html-keyboard-response","6","111808","0.0-1.0-1.4","<span style=""font-size:30px; font-family: monospace"">de</span>"," ","","prac-sent","de","","",""
"","980","html-keyboard-response","7","113053","0.0-1.0-1.5","<span style=""font-size:30px; font-family: monospace"">nuvens</span>"," ","","prac-sent","nuvens","","",""
"","2082","html-keyboard-response","8","115393","0.0-1.0-1.6","<span style=""font-size:30px; font-family: monospace"">hoje.</span>"," ","","prac-sent","hoje.","","",""
"","null","html-keyboard-response","9","116654","0.0-1.0-0.7-0.7","<span style= ""font-size:30px; font-family: monospace"">+</span>","null","fixation","","","","",""
"","1230","html-keyboard-response","10","118141","0.0-1.0-1.7","<span style=""font-size:30px; font-family: monospace"">A</span>"," ","","prac-sent","A","","",""
"","1084","html-keyboard-response","11","119488","0.0-1.0-1.8","<span style=""font-size:30px; font-family: monospace"">caneca</span>"," ","","prac-sent","caneca","","",""
"","998","html-keyboard-response","12","120747","0.0-1.0-1.9","<span style=""font-size:30px; font-family: monospace"">colorida</span>"," ","","prac-sent","colorida","","",""
"","744","html-keyboard-response","13","121753","0.0-1.0-1.10","<span style=""font-size:30px; font-family: monospace"">caiu</span>"," ","","prac-sent","caiu","","",""
"","504","html-keyboard-response","14","122517","0.0-1.0-1.11","<span style=""font-size:30px; font-family: monospace"">da</span>"," ","","prac-sent","da","","",""
"","582","html-keyboard-response","15","123360","0.0-1.0-1.12","<span style=""font-size:30px; font-family: monospace"">mesa</span>"," ","","prac-sent","mesa","","",""
"","594","html-keyboard-response","16","124218","0.0-1.0-1.13","<span style=""font-size:30px; font-family: monospace"">de</span>"," ","","prac-sent","de","","",""
"","907","html-keyboard-response","17","125377","0.0-1.0-1.14","<span style=""font-size:30px; font-family: monospace"">jantar.</span>"," ","","prac-comp","jantar.","","",""
"","14120","html-keyboard-response","18","139757","0.0-1.0-2.14-0.14","<span style=""font-size:30px; font-family: monospace"">A caneca permaneceu na mesa?</span>","n","","prac-comp","","A caneca permaneceu na mesa?","não","false"
"[{""page_index"":0,""viewing_time"":20482}]","20482","instructions","19","160741","0.0-2.0","","","","","","","",""
"","null","html-keyboard-response","20","161863","0.0-3.0-0.0-0.0","<span style= ""font-size:30px; font-family: monospace"">+</span>","null","fixation","","","","",""
"","854","html-keyboard-response","21","162973","0.0-3.0-1.0","<span style=""font-size:30px; font-family: monospace"">A</span>"," ","","exp-sent","A","","",""
"","939","html-keyboard-response","22","164171","0.0-3.0-1.1","<span style=""font-size:30px; font-family: monospace"">motorista</span>"," ","","exp-sent","motorista","","",""
"","757","html-keyboard-response","23","165189","0.0-3.0-1.2","<span style=""font-size:30px; font-family: monospace"">fez</span>"," ","","exp-sent","fez","","",""
"","729","html-keyboard-response","24","166171","0.0-3.0-1.3","<span style=""font-size:30px; font-family: monospace"">o</span>"," ","","exp-sent","o","","",""
"","712","html-keyboard-response","25","167142","0.0-3.0-1.4","<span style=""font-size:30px; font-family: monospace"">retorno</span>"," ","","exp-sent","retorno","","",""
"","651","html-keyboard-response","26","168051","0.0-3.0-1.5","<span style=""font-size:30px; font-family: monospace"">com</span>"," ","","exp-sent","com","","",""
"","746","html-keyboard-response","27","169050","0.0-3.0-1.6","<span style=""font-size:30px; font-family: monospace"">cuidado.</span>"," ","","exp-sent","cuidado.","","",""
"","null","html-keyboard-response","28","170312","0.0-3.0-0.7-0.7","<span style= ""font-size:30px; font-family: monospace"">+</span>","null","fixation","","","","",""
"","777","html-keyboard-response","29","171345","0.0-3.0-1.7","<span style=""font-size:30px; font-family: monospace"">Contos</span>"," ","","exp-sent","Contos","","",""
"","637","html-keyboard-response","30","172240","0.0-3.0-1.8","<span style=""font-size:30px; font-family: monospace"">de</span>"," ","","exp-sent","de","","",""
"","594","html-keyboard-response","31","173086","0.0-3.0-1.9","<span style=""font-size:30px; font-family: monospace"">ação</span>"," ","","exp-sent","ação","","",""
"","554","html-keyboard-response","32","173897","0.0-3.0-1.10","<span style=""font-size:30px; font-family: monospace"">têm</span>"," ","","exp-sent","têm","","",""
"","710","html-keyboard-response","33","174859","0.0-3.0-1.11","<span style=""font-size:30px; font-family: monospace"">chantagem</span>"," ","","exp-sent","chantagem","","",""
"","509","html-keyboard-response","34","175627","0.0-3.0-1.12","<span style=""font-size:30px; font-family: monospace"">e</span>"," ","","exp-sent","e","","",""
"","524","html-keyboard-response","35","176416","0.0-3.0-1.13","<span style=""font-size:30px; font-family: monospace"">muita</span>"," ","","exp-sent","muita","","",""
"","417","html-keyboard-response","36","177092","0.0-3.0-1.14","<span style=""font-size:30px; font-family: monospace"">luta.</span>"," ","","exp-sent","luta.","","",""
"","null","html-keyboard-response","37","178364","0.0-3.0-0.15-0.15","<span style= ""font-size:30px; font-family: monospace"">+</span>","null","fixation","","","","",""
"","412","html-keyboard-response","38","179030","0.0-3.0-1.15","<span style=""font-size:30px; font-family: monospace"">A</span>"," ","","exp-sent","A","","",""
"","668","html-keyboard-response","39","179952","0.0-3.0-1.16","<span style=""font-size:30px; font-family: monospace"">bisavó</span>"," ","","exp-sent","bisavó","","",""
"","478","html-keyboard-response","40","180696","0.0-3.0-1.17","<span style=""font-size:30px; font-family: monospace"">recebeu</span>"," ","","exp-sent","recebeu","","",""
"","444","html-keyboard-response","41","181405","0.0-3.0-1.18","<span style=""font-size:30px; font-family: monospace"">um</span>"," ","","exp-sent","um","","",""
"","383","html-keyboard-response","42","182054","0.0-3.0-1.19","<span style=""font-size:30px; font-family: monospace"">benefício</span>"," ","","exp-sent","benefício","","",""
"","420","html-keyboard-response","43","182733","0.0-3.0-1.20","<span style=""font-size:30px; font-family: monospace"">temporário</span>"," ","","exp-sent","temporário","","",""
"","403","html-keyboard-response","44","183402","0.0-3.0-1.21","<span style=""font-size:30px; font-family: monospace"">do</span>"," ","","exp-sent","do","","",""
"","366","html-keyboard-response","45","184028","0.0-3.0-1.22","<span style=""font-size:30px; font-family: monospace"">governo.</span>"," ","","exp-sent","governo.","","",""
"","null","html-keyboard-response","46","185305","0.0-3.0-0.23-0.23","<span style= ""font-size:30px; font-family: monospace"">+</span>","null","fixation","","","","",""
"","189","html-keyboard-response","47","185747","0.0-3.0-1.23","<span style=""font-size:30px; font-family: monospace"">As</span>"," ","","exp-sent","As","","",""
"","508","html-keyboard-response","48","186509","0.0-3.0-1.24","<span style=""font-size:30px; font-family: monospace"">crianças</span>"," ","","exp-sent","crianças","","",""
"","552","html-keyboard-response","49","187312","0.0-3.0-1.25","<span style=""font-size:30px; font-family: monospace"">brincaram</span>"," ","","exp-sent","brincaram","","",""
"","466","html-keyboard-response","50","188036","0.0-3.0-1.26","<span style=""font-size:30px; font-family: monospace"">no</span>"," ","","exp-sent","no","","",""
"","389","html-keyboard-response","51","188677","0.0-3.0-1.27","<span style=""font-size:30px; font-family: monospace"">balanço</span>"," ","","exp-sent","balanço","","",""
"","390","html-keyboard-response","52","189333","0.0-3.0-1.28","<span style=""font-size:30px; font-family: monospace"">a</span>"," ","","exp-sent","a","","",""
"","389","html-keyboard-response","53","189985","0.0-3.0-1.29","<span style=""font-size:30px; font-family: monospace"">tarde</span>"," ","","exp-sent","tarde","","",""
"","434","html-keyboard-response","54","190672","0.0-3.0-1.30","<span style=""font-size:30px; font-family: monospace"">toda.</span>"," ","","exp-sent","toda.","","",""
"","null","html-keyboard-response","55","191941","0.0-3.0-0.31-0.31","<span style= ""font-size:30px; font-family: monospace"">+</span>","null","fixation","","","","",""
"","130","html-keyboard-response","56","192324","0.0-3.0-1.31","<span style=""font-size:30px; font-family: monospace"">Ela</span>"," ","","exp-sent","Ela","","",""
"","505","html-keyboard-response","57","193094","0.0-3.0-1.32","<span style=""font-size:30px; font-family: monospace"">gosta</span>"," ","","exp-sent","gosta","","",""
"","429","html-keyboard-response","58","193777","0.0-3.0-1.33","<span style=""font-size:30px; font-family: monospace"">de</span>"," ","","exp-sent","de","","",""
"","543","html-keyboard-response","59","194585","0.0-3.0-1.34","<span style=""font-size:30px; font-family: monospace"">comida</span>"," ","","exp-sent","comida","","",""
"","570","html-keyboard-response","60","195421","0.0-3.0-1.35","<span style=""font-size:30px; font-family: monospace"">natural</span>"," ","","exp-sent","natural","","",""
"","494","html-keyboard-response","61","196165","0.0-3.0-1.36","<span style=""font-size:30px; font-family: monospace"">no</span>"," ","","exp-sent","no","","",""
"","430","html-keyboard-response","62","196857","0.0-3.0-1.37","<span style=""font-size:30px; font-family: monospace"">almoço.</span>"," ","","comp","almoço.","","",""
"","7082","html-keyboard-response","63","204201","0.0-3.0-2.37-0.37","<span style=""font-size:30px; font-family: monospace"">Ela gosta de comida natural no almoço?</span>","s","","comp","","Ela gosta de comida natural no almoço?","sim","false"
"","null","html-keyboard-response","64","205717","0.0-3.0-0.38-0.38","<span style= ""font-size:30px; font-family: monospace"">+</span>","null","fixation","","","","",""
"","711","html-keyboard-response","65","206681","0.0-3.0-1.38","<span style=""font-size:30px; font-family: monospace"">Ursos</span>"," ","","exp-sent","Ursos","","",""
"","600","html-keyboard-response","66","207535","0.0-3.0-1.39","<span style=""font-size:30px; font-family: monospace"">têm</span>"," ","","exp-sent","têm","","",""
"","549","html-keyboard-response","67","208337","0.0-3.0-1.40","<span style=""font-size:30px; font-family: monospace"">uma</span>"," ","","exp-sent","uma","","",""
"","517","html-keyboard-response","68","209115","0.0-3.0-1.41","<span style=""font-size:30px; font-family: monospace"">patada</span>"," ","","exp-sent","patada","","",""
"","571","html-keyboard-response","69","209945","0.0-3.0-1.42","<span style=""font-size:30px; font-family: monospace"">brutal</span>"," ","","exp-sent","brutal","","",""
"","525","html-keyboard-response","70","210726","0.0-3.0-1.43","<span style=""font-size:30px; font-family: monospace"">e</span>"," ","","exp-sent","e","","",""
"","719","html-keyboard-response","71","211700","0.0-3.0-1.44","<span style=""font-size:30px; font-family: monospace"">poderosa.</span>"," ","","exp-sent","poderosa.","","",""
"","null","html-keyboard-response","72","212960","0.0-3.0-0.45-0.45","<span style= ""font-size:30px; font-family: monospace"">+</span>","null","fixation","","","","",""
"","231","html-keyboard-response","73","213445","0.0-3.0-1.45","<span style=""font-size:30px; font-family: monospace"">Eu</span>"," ","","exp-sent","Eu","","",""
"","493","html-keyboard-response","74","214196","0.0-3.0-1.46","<span style=""font-size:30px; font-family: monospace"">fiz</span>"," ","","exp-sent","fiz","","",""
"","504","html-keyboard-response","75","214952","0.0-3.0-1.47","<span style=""font-size:30px; font-family: monospace"">aulas</span>"," ","","exp-sent","aulas","","",""
"","424","html-keyboard-response","76","215629","0.0-3.0-1.48","<span style=""font-size:30px; font-family: monospace"">de</span>"," ","","exp-sent","de","","",""
"","599","html-keyboard-response","77","216486","0.0-3.0-1.49","<span style=""font-size:30px; font-family: monospace"">espanhol</span>"," ","","exp-sent","espanhol","","",""
"","539","html-keyboard-response","78","217282","0.0-3.0-1.50","<span style=""font-size:30px; font-family: monospace"">nesta</span>"," ","","exp-sent","nesta","","",""
"","534","html-keyboard-response","79","218082","0.0-3.0-1.51","<span style=""font-size:30px; font-family: monospace"">cidade.</span>"," ","","exp-sent","cidade.","","",""
"","null","html-keyboard-response","80","219342","0.0-3.0-0.52-0.52","<span style= ""font-size:30px; font-family: monospace"">+</span>","null","fixation","","","","",""
"","182","html-keyboard-response","81","219779","0.0-3.0-1.52","<span style=""font-size:30px; font-family: monospace"">Ele</span>"," ","","exp-sent","Ele","","",""
"","570","html-keyboard-response","82","220611","0.0-3.0-1.53","<span style=""font-size:30px; font-family: monospace"">comprou</span>"," ","","exp-sent","comprou","","",""
"","455","html-keyboard-response","83","221327","0.0-3.0-1.54","<span style=""font-size:30px; font-family: monospace"">mais</span>"," ","","exp-sent","mais","","",""
"","435","html-keyboard-response","84","222018","0.0-3.0-1.55","<span style=""font-size:30px; font-family: monospace"">uma</span>"," ","","exp-sent","uma","","",""
"","583","html-keyboard-response","85","222867","0.0-3.0-1.56","<span style=""font-size:30px; font-family: monospace"">esponja</span>"," ","","exp-sent","esponja","","",""
"","519","html-keyboard-response","86","223645","0.0-3.0-1.57","<span style=""font-size:30px; font-family: monospace"">para</span>"," ","","exp-sent","para","","",""
"","460","html-keyboard-response","87","224365","0.0-3.0-1.58","<span style=""font-size:30px; font-family: monospace"">a</span>"," ","","exp-sent","a","","",""
"","534","html-keyboard-response","88","225153","0.0-3.0-1.59","<span style=""font-size:30px; font-family: monospace"">cozinha.</span>"," ","","exp-sent","cozinha.","","",""
"","null","html-keyboard-response","89","226421","0.0-3.0-0.60-0.60","<span style= ""font-size:30px; font-family: monospace"">+</span>","null","fixation","","","","",""
"","196","html-keyboard-response","90","226873","0.0-3.0-1.60","<span style=""font-size:30px; font-family: monospace"">Ele</span>"," ","","exp-sent","Ele","","",""
"","577","html-keyboard-response","91","227715","0.0-3.0-1.61","<span style=""font-size:30px; font-family: monospace"">teve</span>"," ","","exp-sent","teve","","",""
"","420","html-keyboard-response","92","228386","0.0-3.0-1.62","<span style=""font-size:30px; font-family: monospace"">um</span>"," ","","exp-sent","um","","",""
"","470","html-keyboard-response","93","229121","0.0-3.0-1.63","<span style=""font-size:30px; font-family: monospace"">sono</span>"," ","","exp-sent","sono","","",""
"","615","html-keyboard-response","94","229999","0.0-3.0-1.64","<span style=""font-size:30px; font-family: monospace"">bizarro</span>"," ","","exp-sent","bizarro","","",""
"","489","html-keyboard-response","95","230752","0.0-3.0-1.65","<span style=""font-size:30px; font-family: monospace"">sem</span>"," ","","exp-sent","sem","","",""
"","526","html-keyboard-response","96","231538","0.0-3.0-1.66","<span style=""font-size:30px; font-family: monospace"">nenhum</span>"," ","","exp-sent","nenhum","","",""
"","528","html-keyboard-response","97","232324","0.0-3.0-1.67","<span style=""font-size:30px; font-family: monospace"">motivo.</span>"," ","","exp-sent","motivo.","","",""
"","null","html-keyboard-response","98","233590","0.0-3.0-0.68-0.68","<span style= ""font-size:30px; font-family: monospace"">+</span>","null","fixation","","","","",""
"","655","html-keyboard-response","99","234504","0.0-3.0-1.68","<span style=""font-size:30px; font-family: monospace"">A</span>"," ","","exp-sent","A","","",""
"","489","html-keyboard-response","100","235253","0.0-3.0-1.69","<span style=""font-size:30px; font-family: monospace"">moça</span>"," ","","exp-sent","moça","","",""
"","499","html-keyboard-response","101","236015","0.0-3.0-1.70","<span style=""font-size:30px; font-family: monospace"">comprou</span>"," ","","exp-sent","comprou","","",""
"","477","html-keyboard-response","102","236751","0.0-3.0-1.71","<span style=""font-size:30px; font-family: monospace"">um</span>"," ","","exp-sent","um","","",""
"","650","html-keyboard-response","103","237666","0.0-3.0-1.72","<span style=""font-size:30px; font-family: monospace"">diamante</span>"," ","","exp-sent","diamante","","",""
"","479","html-keyboard-response","104","238414","0.0-3.0-1.73","<span style=""font-size:30px; font-family: monospace"">para</span>"," ","","exp-sent","para","","",""
"","525","html-keyboard-response","105","239203","0.0-3.0-1.74","<span style=""font-size:30px; font-family: monospace"">sua</span>"," ","","exp-sent","sua","","",""
"","472","html-keyboard-response","106","239931","0.0-3.0-1.75","<span style=""font-size:30px; font-family: monospace"">prima.</span>"," ","","comp","prima.","","",""
"","3954","html-keyboard-response","107","244136","0.0-3.0-2.75-0.75","<span style=""font-size:30px; font-family: monospace"">A moça comprou um diamante?</span>","s","","comp","","A moça comprou um diamante?","sim","false"
"","null","html-keyboard-response","108","245656","0.0-3.0-0.76-0.76","<span style= ""font-size:30px; font-family: monospace"">+</span>","null","fixation","","","","",""
"","325","html-keyboard-response","109","246236","0.0-3.0-1.76","<span style=""font-size:30px; font-family: monospace"">Barulho</span>"," ","","exp-sent","Barulho","","",""
"","744","html-keyboard-response","110","247244","0.0-3.0-1.77","<span style=""font-size:30px; font-family: monospace"">de</span>"," ","","exp-sent","de","","",""
"","515","html-keyboard-response","111","248020","0.0-3.0-1.78","<span style=""font-size:30px; font-family: monospace"">carros</span>"," ","","exp-sent","carros","","",""
"","451","html-keyboard-response","112","248724","0.0-3.0-1.79","<span style=""font-size:30px; font-family: monospace"">é</span>"," ","","exp-sent","é","","",""
"","703","html-keyboard-response","113","249682","0.0-3.0-1.80","<span style=""font-size:30px; font-family: monospace"">irritante</span>"," ","","exp-sent","irritante","","",""
"","575","html-keyboard-response","114","250524","0.0-3.0-1.81","<span style=""font-size:30px; font-family: monospace"">para</span>"," ","","exp-sent","para","","",""
"","478","html-keyboard-response","115","251258","0.0-3.0-1.82","<span style=""font-size:30px; font-family: monospace"">a</span>"," ","","exp-sent","a","","",""
"","539","html-keyboard-response","116","252050","0.0-3.0-1.83","<span style=""font-size:30px; font-family: monospace"">moça.</span>"," ","","exp-sent","moça.","","",""
"","null","html-keyboard-response","117","253323","0.0-3.0-0.84-0.84","<span style= ""font-size:30px; font-family: monospace"">+</span>","null","fixation","","","","",""
"","114","html-keyboard-response","118","253691","0.0-3.0-1.84","<span style=""font-size:30px; font-family: monospace"">A</span>"," ","","exp-sent","A","","",""
"","561","html-keyboard-response","119","254505","0.0-3.0-1.85","<span style=""font-size:30px; font-family: monospace"">loja</span>"," ","","exp-sent","loja","","",""
"","458","html-keyboard-response","120","255228","0.0-3.0-1.86","<span style=""font-size:30px; font-family: monospace"">também</span>"," ","","exp-sent","também","","",""
"","514","html-keyboard-response","121","256000","0.0-3.0-1.87","<span style=""font-size:30px; font-family: monospace"">vende</span>"," ","","exp-sent","vende","","",""
"","506","html-keyboard-response","122","256768","0.0-3.0-1.88","<span style=""font-size:30px; font-family: monospace"">taça</span>"," ","","exp-sent","taça","","",""
"","520","html-keyboard-response","123","257542","0.0-3.0-1.89","<span style=""font-size:30px; font-family: monospace"">de</span>"," ","","exp-sent","de","","",""
"","597","html-keyboard-response","124","258395","0.0-3.0-1.90","<span style=""font-size:30px; font-family: monospace"">vinho</span>"," ","","exp-sent","vinho","","",""
"","477","html-keyboard-response","125","259133","0.0-3.0-1.91","<span style=""font-size:30px; font-family: monospace"">e</span>"," ","","exp-sent","e","","",""
"","617","html-keyboard-response","126","260003","0.0-3.0-1.92","<span style=""font-size:30px; font-family: monospace"">espumante.</span>"," ","","exp-sent","espumante.","","",""
"","null","html-keyboard-response","127","261266","0.0-3.0-0.93-0.93","<span style= ""font-size:30px; font-family: monospace"">+</span>","null","fixation","","","","",""
"","866","html-keyboard-response","128","262386","0.0-3.0-1.93","<span style=""font-size:30px; font-family: monospace"">A</span>"," ","","exp-sent","A","","",""
"","733","html-keyboard-response","129","263376","0.0-3.0-1.94","<span style=""font-size:30px; font-family: monospace"">bruxa</span>"," ","","exp-sent","bruxa","","",""
"","477","html-keyboard-response","130","264114","0.0-3.0-1.95","<span style=""font-size:30px; font-family: monospace"">tinha</span>"," ","","exp-sent","tinha","","",""
"","495","html-keyboard-response","131","264874","0.0-3.0-1.96","<span style=""font-size:30px; font-family: monospace"">uma</span>"," ","","exp-sent","uma","","",""
"","667","html-keyboard-response","132","265807","0.0-3.0-1.97","<span style=""font-size:30px; font-family: monospace"">vassoura</span>"," ","","exp-sent","vassoura","","",""
"","542","html-keyboard-response","133","266600","0.0-3.0-1.98","<span style=""font-size:30px; font-family: monospace"">e</span>"," ","","exp-sent","e","","",""
"","548","html-keyboard-response","134","267401","0.0-3.0-1.99","<span style=""font-size:30px; font-family: monospace"">um</span>"," ","","exp-sent","um","","",""
"","510","html-keyboard-response","135","268161","0.0-3.0-1.100","<span style=""font-size:30px; font-family: monospace"">gato.</span>"," ","","exp-sent","gato.","","",""
"","null","html-keyboard-response","136","269421","0.0-3.0-0.101-0.101","<span style= ""font-size:30px; font-family: monospace"">+</span>","null","fixation","","","","",""
"","42","html-keyboard-response","137","269718","0.0-3.0-1.101","<span style=""font-size:30px; font-family: monospace"">Eu</span>"," ","","exp-sent","Eu","","",""
"","553","html-keyboard-response","138","270534","0.0-3.0-1.102","<span style=""font-size:30px; font-family: monospace"">me</span>"," ","","exp-sent","me","","",""
"","597","html-keyboard-response","139","271388","0.0-3.0-1.103","<span style=""font-size:30px; font-family: monospace"">divirto</span>"," ","","exp-sent","divirto","","",""
"","559","html-keyboard-response","140","272212","0.0-3.0-1.104","<span style=""font-size:30px; font-family: monospace"">em</span>"," ","","exp-sent","em","","",""
"","600","html-keyboard-response","141","273067","0.0-3.0-1.105","<span style=""font-size:30px; font-family: monospace"">festas</span>"," ","","exp-sent","festas","","",""
"","512","html-keyboard-response","142","273837","0.0-3.0-1.106","<span style=""font-size:30px; font-family: monospace"">de</span>"," ","","exp-sent","de","","",""
"","747","html-keyboard-response","143","274844","0.0-3.0-1.107","<span style=""font-size:30px; font-family: monospace"">criança.</span>"," ","","exp-sent","criança.","","",""
"","null","html-keyboard-response","144","276103","0.0-3.0-0.108-0.108","<span style= ""font-size:30px; font-family: monospace"">+</span>","null","fixation","","","","",""
"","145","html-keyboard-response","145","276504","0.0-3.0-1.108","<span style=""font-size:30px; font-family: monospace"">A</span>"," ","","exp-sent","A","","",""
"","549","html-keyboard-response","146","277305","0.0-3.0-1.109","<span style=""font-size:30px; font-family: monospace"">janela</span>"," ","","exp-sent","janela","","",""
"","517","html-keyboard-response","147","278074","0.0-3.0-1.110","<span style=""font-size:30px; font-family: monospace"">alta</span>"," ","","exp-sent","alta","","",""
"","481","html-keyboard-response","148","278808","0.0-3.0-1.111","<span style=""font-size:30px; font-family: monospace"">estava</span>"," ","","exp-sent","estava","","",""
"","607","html-keyboard-response","149","279666","0.0-3.0-1.112","<span style=""font-size:30px; font-family: monospace"">quebrada</span>"," ","","exp-sent","quebrada","","",""
"","497","html-keyboard-response","150","280416","0.0-3.0-1.113","<span style=""font-size:30px; font-family: monospace"">desde</span>"," ","","exp-sent","desde","","",""
"","563","html-keyboard-response","151","281245","0.0-3.0-1.114","<span style=""font-size:30px; font-family: monospace"">ontem.</span>"," ","","comp","ontem.","","",""
"","4437","html-keyboard-response","152","285944","0.0-3.0-2.114-0.114","<span style=""font-size:30px; font-family: monospace"">A janela alta estava quebrada?</span>","s","","comp","","A janela alta estava quebrada?","sim","false"
"","null","html-keyboard-response","153","287473","0.0-3.0-0.115-0.115","<span style= ""font-size:30px; font-family: monospace"">+</span>","null","fixation","","","","",""
"","39","html-keyboard-response","154","287765","0.0-3.0-1.115","<span style=""font-size:30px; font-family: monospace"">O</span>"," ","","exp-sent","O","","",""
"","642","html-keyboard-response","155","288668","0.0-3.0-1.116","<span style=""font-size:30px; font-family: monospace"">texto</span>"," ","","exp-sent","texto","","",""
"","602","html-keyboard-response","156","289530","0.0-3.0-1.117","<span style=""font-size:30px; font-family: monospace"">trazia</span>"," ","","exp-sent","trazia","","",""
"","520","html-keyboard-response","157","290303","0.0-3.0-1.118","<span style=""font-size:30px; font-family: monospace"">um</span>"," ","","exp-sent","um","","",""
"","685","html-keyboard-response","158","291243","0.0-3.0-1.119","<span style=""font-size:30px; font-family: monospace"">argumento</span>"," ","","exp-sent","argumento","","",""
"","496","html-keyboard-response","159","292000","0.0-3.0-1.120","<span style=""font-size:30px; font-family: monospace"">central</span>"," ","","exp-sent","central","","",""
"","484","html-keyboard-response","160","292745","0.0-3.0-1.121","<span style=""font-size:30px; font-family: monospace"">para</span>"," ","","exp-sent","para","","",""
"","537","html-keyboard-response","161","293544","0.0-3.0-1.122","<span style=""font-size:30px; font-family: monospace"">a</span>"," ","","exp-sent","a","","",""
"","662","html-keyboard-response","162","294466","0.0-3.0-1.123","<span style=""font-size:30px; font-family: monospace"">conversa.</span>"," ","","exp-sent","conversa.","","",""
"","null","html-keyboard-response","163","295734","0.0-3.0-0.124-0.124","<span style= ""font-size:30px; font-family: monospace"">+</span>","null","fixation","","","","",""
"","251","html-keyboard-response","164","296239","0.0-3.0-1.124","<span style=""font-size:30px; font-family: monospace"">Ontem</span>"," ","","exp-sent","Ontem","","",""
"","599","html-keyboard-response","165","297098","0.0-3.0-1.125","<span style=""font-size:30px; font-family: monospace"">a</span>"," ","","exp-sent","a","","",""
"","645","html-keyboard-response","166","298000","0.0-3.0-1.126","<span style=""font-size:30px; font-family: monospace"">temperatura</span>"," ","","exp-sent","temperatura","","",""
"","470","html-keyboard-response","167","298726","0.0-3.0-1.127","<span style=""font-size:30px; font-family: monospace"">estava</span>"," ","","exp-sent","estava","","",""
"","468","html-keyboard-response","168","299451","0.0-3.0-1.128","<span style=""font-size:30px; font-family: monospace"">amena</span>"," ","","exp-sent","amena","","",""
"","526","html-keyboard-response","169","300238","0.0-3.0-1.129","<span style=""font-size:30px; font-family: monospace"">durante</span>"," ","","exp-sent","durante","","",""
"","523","html-keyboard-response","170","301018","0.0-3.0-1.130","<span style=""font-size:30px; font-family: monospace"">o</span>"," ","","exp-sent","o","","",""
"","579","html-keyboard-response","171","301853","0.0-3.0-1.131","<span style=""font-size:30px; font-family: monospace"">dia.</span>"," ","","exp-sent","dia.","","",""
"","null","html-keyboard-response","172","303124","0.0-3.0-0.132-0.132","<span style= ""font-size:30px; font-family: monospace"">+</span>","null","fixation","","","","",""
"","773","html-keyboard-response","173","304149","0.0-3.0-1.132","<span style=""font-size:30px; font-family: monospace"">Havia</span>"," ","","exp-sent","Havia","","",""
"","460","html-keyboard-response","174","304863","0.0-3.0-1.133","<span style=""font-size:30px; font-family: monospace"">um</span>"," ","","exp-sent","um","","",""
"","549","html-keyboard-response","175","305665","0.0-3.0-1.134","<span style=""font-size:30px; font-family: monospace"">machucado</span>"," ","","exp-sent","machucado","","",""
"","515","html-keyboard-response","176","306438","0.0-3.0-1.135","<span style=""font-size:30px; font-family: monospace"">no</span>"," ","","exp-sent","no","","",""
"","474","html-keyboard-response","177","307169","0.0-3.0-1.136","<span style=""font-size:30px; font-family: monospace"">dedo</span>"," ","","exp-sent","dedo","","",""
"","441","html-keyboard-response","178","307866","0.0-3.0-1.137","<span style=""font-size:30px; font-family: monospace"">da</span>"," ","","exp-sent","da","","",""
"","536","html-keyboard-response","179","308660","0.0-3.0-1.138","<span style=""font-size:30px; font-family: monospace"">criança.</span>"," ","","exp-sent","criança.","","",""
"","null","html-keyboard-response","180","309933","0.0-3.0-0.139-0.139","<span style= ""font-size:30px; font-family: monospace"">+</span>","null","fixation","","","","",""
"","137","html-keyboard-response","181","310325","0.0-3.0-1.139","<span style=""font-size:30px; font-family: monospace"">A</span>"," ","","exp-sent","A","","",""
"","598","html-keyboard-response","182","311182","0.0-3.0-1.140","<span style=""font-size:30px; font-family: monospace"">borboleta</span>"," ","","exp-sent","borboleta","","",""
"","443","html-keyboard-response","183","311884","0.0-3.0-1.141","<span style=""font-size:30px; font-family: monospace"">pousou</span>"," ","","exp-sent","pousou","","",""
"","487","html-keyboard-response","184","312625","0.0-3.0-1.142","<span style=""font-size:30px; font-family: monospace"">no</span>"," ","","exp-sent","no","","",""
"","532","html-keyboard-response","185","313413","0.0-3.0-1.143","<span style=""font-size:30px; font-family: monospace"">ombro</span>"," ","","exp-sent","ombro","","",""
"","618","html-keyboard-response","186","314294","0.0-3.0-1.144","<span style=""font-size:30px; font-family: monospace"">daquela</span>"," ","","exp-sent","daquela","","",""
"","558","html-keyboard-response","187","315109","0.0-3.0-1.145","<span style=""font-size:30px; font-family: monospace"">moça.</span>"," ","","exp-sent","moça.","","",""
"","null","html-keyboard-response","188","316374","0.0-3.0-0.146-0.146","<span style= ""font-size:30px; font-family: monospace"">+</span>","null","fixation","","","","",""
"","140","html-keyboard-response","189","316767","0.0-3.0-1.146","<span style=""font-size:30px; font-family: monospace"">Eu</span>"," ","","exp-sent","Eu","","",""
"","532","html-keyboard-response","190","317555","0.0-3.0-1.147","<span style=""font-size:30px; font-family: monospace"">quero</span>"," ","","exp-sent","quero","","",""
"","544","html-keyboard-response","191","318366","0.0-3.0-1.148","<span style=""font-size:30px; font-family: monospace"">um</span>"," ","","exp-sent","um","","",""
"","754","html-keyboard-response","192","319373","0.0-3.0-1.149","<span style=""font-size:30px; font-family: monospace"">namorado</span>"," ","","exp-sent","namorado","","",""
"","496","html-keyboard-response","193","320136","0.0-3.0-1.150","<span style=""font-size:30px; font-family: monospace"">honesto</span>"," ","","exp-sent","honesto","","",""
"","594","html-keyboard-response","194","320982","0.0-3.0-1.151","<span style=""font-size:30px; font-family: monospace"">e</span>"," ","","exp-sent","e","","",""
"","772","html-keyboard-response","195","322021","0.0-3.0-1.152","<span style=""font-size:30px; font-family: monospace"">compreensivo.</span>"," ","","comp","compreensivo.","","",""
"","3407","html-keyboard-response","196","325681","0.0-3.0-2.152-0.152","<span style=""font-size:30px; font-family: monospace"">Eu quero um namorado honesto?</span>","s","","comp","","Eu quero um namorado honesto?","sim","false"
"","null","html-keyboard-response","197","327184","0.0-3.0-0.153-0.153","<span style= ""font-size:30px; font-family: monospace"">+</span>","null","fixation","","","","",""
"","452","html-keyboard-response","198","327898","0.0-3.0-1.153","<span style=""font-size:30px; font-family: monospace"">O</span>"," ","","exp-sent","O","","",""
"","632","html-keyboard-response","199","328796","0.0-3.0-1.154","<span style=""font-size:30px; font-family: monospace"">travesseiro</span>"," ","","exp-sent","travesseiro","","",""
"","498","html-keyboard-response","200","329552","0.0-3.0-1.155","<span style=""font-size:30px; font-family: monospace"">era</span>"," ","","exp-sent","era","","",""
"","558","html-keyboard-response","201","330375","0.0-3.0-1.156","<span style=""font-size:30px; font-family: monospace"">muito</span>"," ","","exp-sent","muito","","",""
"","584","html-keyboard-response","202","331215","0.0-3.0-1.157","<span style=""font-size:30px; font-family: monospace"">macio</span>"," ","","exp-sent","macio","","",""
"","539","html-keyboard-response","203","332011","0.0-3.0-1.158","<span style=""font-size:30px; font-family: monospace"">e</span>"," ","","exp-sent","e","","",""
"","688","html-keyboard-response","204","332953","0.0-3.0-1.159","<span style=""font-size:30px; font-family: monospace"">confortável.</span>"," ","","exp-sent","confortável.","","",""
"","null","html-keyboard-response","205","334211","0.0-3.0-0.160-0.160","<span style= ""font-size:30px; font-family: monospace"">+</span>","null","fixation","","","","",""
"","25","html-keyboard-response","206","334492","0.0-3.0-1.160","<span style=""font-size:30px; font-family: monospace"">Hoje</span>"," ","","exp-sent","Hoje","","",""
"","613","html-keyboard-response","207","335370","0.0-3.0-1.161","<span style=""font-size:30px; font-family: monospace"">a</span>"," ","","exp-sent","a","","",""
"","527","html-keyboard-response","208","336163","0.0-3.0-1.162","<span style=""font-size:30px; font-family: monospace"">atendente</span>"," ","","exp-sent","atendente","","",""
"","491","html-keyboard-response","209","336906","0.0-3.0-1.163","<span style=""font-size:30px; font-family: monospace"">estava</span>"," ","","exp-sent","estava","","",""
"","618","html-keyboard-response","210","337786","0.0-3.0-1.164","<span style=""font-size:30px; font-family: monospace"">furiosa</span>"," ","","exp-sent","furiosa","","",""
"","497","html-keyboard-response","211","338544","0.0-3.0-1.165","<span style=""font-size:30px; font-family: monospace"">com</span>"," ","","exp-sent","com","","",""
"","527","html-keyboard-response","212","339327","0.0-3.0-1.166","<span style=""font-size:30px; font-family: monospace"">o</span>"," ","","exp-sent","o","","",""
"","512","html-keyboard-response","213","340098","0.0-3.0-1.167","<span style=""font-size:30px; font-family: monospace"">cliente.</span>"," ","","exp-sent","cliente.","","",""
"","null","html-keyboard-response","214","341366","0.0-3.0-0.168-0.168","<span style= ""font-size:30px; font-family: monospace"">+</span>","null","fixation","","","","",""
"","680","html-keyboard-response","215","342300","0.0-3.0-1.168","<span style=""font-size:30px; font-family: monospace"">O</span>"," ","","exp-sent","O","","",""
"","670","html-keyboard-response","216","343223","0.0-3.0-1.169","<span style=""font-size:30px; font-family: monospace"">vizinho</span>"," ","","exp-sent","vizinho","","",""
"","467","html-keyboard-response","217","343955","0.0-3.0-1.170","<span style=""font-size:30px; font-family: monospace"">é</span>"," ","","exp-sent","é","","",""
"","451","html-keyboard-response","218","344668","0.0-3.0-1.171","<span style=""font-size:30px; font-family: monospace"">um</span>"," ","","exp-sent","um","","",""
"","482","html-keyboard-response","219","345404","0.0-3.0-1.172","<span style=""font-size:30px; font-family: monospace"">arquiteto</span>"," ","","exp-sent","arquiteto","","",""
"","539","html-keyboard-response","220","346199","0.0-3.0-1.173","<span style=""font-size:30px; font-family: monospace"">muito</span>"," ","","exp-sent","muito","","",""
"","674","html-keyboard-response","221","347129","0.0-3.0-1.174","<span style=""font-size:30px; font-family: monospace"">excêntrico.</span>"," ","","exp-sent","excêntrico.","","",""
"","null","html-keyboard-response","222","348394","0.0-3.0-0.175-0.175","<span style= ""font-size:30px; font-family: monospace"">+</span>","null","fixation","","","","",""
"","767","html-keyboard-response","223","349413","0.0-3.0-1.175","<span style=""font-size:30px; font-family: monospace"">A</span>"," ","","exp-sent","A","","",""
"","730","html-keyboard-response","224","350408","0.0-3.0-1.176","<span style=""font-size:30px; font-family: monospace"">nossa</span>"," ","","exp-sent","nossa","","",""
"","507","html-keyboard-response","225","351175","0.0-3.0-1.177","<span style=""font-size:30px; font-family: monospace"">colega</span>"," ","","exp-sent","colega","","",""
"","530","html-keyboard-response","226","351965","0.0-3.0-1.178","<span style=""font-size:30px; font-family: monospace"">foi</span>"," ","","exp-sent","foi","","",""
"","508","html-keyboard-response","227","352737","0.0-3.0-1.179","<span style=""font-size:30px; font-family: monospace"">má</span>"," ","","exp-sent","má","","",""
"","603","html-keyboard-response","228","353595","0.0-3.0-1.180","<span style=""font-size:30px; font-family: monospace"">com</span>"," ","","exp-sent","com","","",""
"","701","html-keyboard-response","229","354552","0.0-3.0-1.181","<span style=""font-size:30px; font-family: monospace"">as</span>"," ","","exp-sent","as","","",""
"","566","html-keyboard-response","230","355384","0.0-3.0-1.182","<span style=""font-size:30px; font-family: monospace"">crianças.</span>"," ","","exp-sent","crianças.","","",""
"","null","html-keyboard-response","231","356662","0.0-3.0-0.183-0.183","<span style= ""font-size:30px; font-family: monospace"">+</span>","null","fixation","","","","",""
"","147","html-keyboard-response","232","357065","0.0-3.0-1.183","<span style=""font-size:30px; font-family: monospace"">Virtudes</span>"," ","","exp-sent","Virtudes","","",""
"","645","html-keyboard-response","233","357962","0.0-3.0-1.184","<span style=""font-size:30px; font-family: monospace"">não</span>"," ","","exp-sent","não","","",""
"","487","html-keyboard-response","234","358706","0.0-3.0-1.185","<span style=""font-size:30px; font-family: monospace"">são</span>"," ","","exp-sent","são","","",""
"","487","html-keyboard-response","235","359447","0.0-3.0-1.186","<span style=""font-size:30px; font-family: monospace"">preguiça,</span>"," ","","exp-sent","preguiça,","","",""
"","481","html-keyboard-response","236","360186","0.0-3.0-1.187","<span style=""font-size:30px; font-family: monospace"">gula</span>"," ","","exp-sent","gula","","",""
"","431","html-keyboard-response","237","360880","0.0-3.0-1.188","<span style=""font-size:30px; font-family: monospace"">nem</span>"," ","","exp-sent","nem","","",""
"","670","html-keyboard-response","238","361808","0.0-3.0-1.189","<span style=""font-size:30px; font-family: monospace"">ganância.</span>"," ","","comp","ganância.","","",""
"","6636","html-keyboard-response","239","368699","0.0-3.0-2.189-0.189","<span style=""font-size:30px; font-family: monospace"">Preguiça é uma virtude?</span>","s","","comp","","Preguiça é uma virtude?","não","false"
"","null","html-keyboard-response","240","370216","0.0-3.0-0.190-0.190","<span style= ""font-size:30px; font-family: monospace"">+</span>","null","fixation","","","","",""
"","508","html-keyboard-response","241","370979","0.0-3.0-1.190","<span style=""font-size:30px; font-family: monospace"">Minha</span>"," ","","exp-sent","Minha","","",""
"","511","html-keyboard-response","242","371754","0.0-3.0-1.191","<span style=""font-size:30px; font-family: monospace"">prima</span>"," ","","exp-sent","prima","","",""
"","607","html-keyboard-response","243","372624","0.0-3.0-1.192","<span style=""font-size:30px; font-family: monospace"">trocou</span>"," ","","exp-sent","trocou","","",""
"","506","html-keyboard-response","244","373392","0.0-3.0-1.193","<span style=""font-size:30px; font-family: monospace"">a</span>"," ","","exp-sent","a","","",""
"","668","html-keyboard-response","245","374319","0.0-3.0-1.194","<span style=""font-size:30px; font-family: monospace"">tela</span>"," ","","exp-sent","tela","","",""
"","534","html-keyboard-response","246","375107","0.0-3.0-1.195","<span style=""font-size:30px; font-family: monospace"">do</span>"," ","","exp-sent","do","","",""
"","686","html-keyboard-response","247","376057","0.0-3.0-1.196","<span style=""font-size:30px; font-family: monospace"">celular</span>"," ","","exp-sent","celular","","",""
"","580","html-keyboard-response","248","376898","0.0-3.0-1.197","<span style=""font-size:30px; font-family: monospace"">duas</span>"," ","","exp-sent","duas","","",""
"","605","html-keyboard-response","249","377760","0.0-3.0-1.198","<span style=""font-size:30px; font-family: monospace"">vezes.</span>"," ","","exp-sent","vezes.","","",""
"","null","html-keyboard-response","250","379041","0.0-3.0-0.199-0.199","<span style= ""font-size:30px; font-family: monospace"">+</span>","null","fixation","","","","",""
"","758","html-keyboard-response","251","380056","0.0-3.0-1.199","<span style=""font-size:30px; font-family: monospace"">Agora</span>"," ","","exp-sent","Agora","","",""
"","467","html-keyboard-response","252","380787","0.0-3.0-1.200","<span style=""font-size:30px; font-family: monospace"">a</span>"," ","","exp-sent","a","","",""
"","610","html-keyboard-response","253","381647","0.0-3.0-1.201","<span style=""font-size:30px; font-family: monospace"">minha</span>"," ","","exp-sent","minha","","",""
"","580","html-keyboard-response","254","382484","0.0-3.0-1.202","<span style=""font-size:30px; font-family: monospace"">única</span>"," ","","exp-sent","única","","",""
"","869","html-keyboard-response","255","383604","0.0-3.0-1.203","<span style=""font-size:30px; font-family: monospace"">preocupação</span>"," ","","exp-sent","preocupação","","",""
"","521","html-keyboard-response","256","384382","0.0-3.0-1.204","<span style=""font-size:30px; font-family: monospace"">é</span>"," ","","exp-sent","é","","",""
"","524","html-keyboard-response","257","385166","0.0-3.0-1.205","<span style=""font-size:30px; font-family: monospace"">um</span>"," ","","exp-sent","um","","",""
"","633","html-keyboard-response","258","386059","0.0-3.0-1.206","<span style=""font-size:30px; font-family: monospace"">descanso</span>"," ","","exp-sent","descanso","","",""
"","656","html-keyboard-response","259","386972","0.0-3.0-1.207","<span style=""font-size:30px; font-family: monospace"">tranquilo.</span>"," ","","exp-sent","tranquilo.","","",""
"","null","html-keyboard-response","260","388228","0.0-3.0-0.208-0.208","<span style= ""font-size:30px; font-family: monospace"">+</span>","null","fixation","","","","",""
"","514","html-keyboard-response","261","388998","0.0-3.0-1.208","<span style=""font-size:30px; font-family: monospace"">A</span>"," ","","exp-sent","A","","",""
"","555","html-keyboard-response","262","389806","0.0-3.0-1.209","<span style=""font-size:30px; font-family: monospace"">criança</span>"," ","","exp-sent","criança","","",""
"","553","html-keyboard-response","263","390615","0.0-3.0-1.210","<span style=""font-size:30px; font-family: monospace"">ganhou</span>"," ","","exp-sent","ganhou","","",""
"","456","html-keyboard-response","264","391329","0.0-3.0-1.211","<span style=""font-size:30px; font-family: monospace"">um</span>"," ","","exp-sent","um","","",""
"","653","html-keyboard-response","265","392239","0.0-3.0-1.212","<span style=""font-size:30px; font-family: monospace"">presente</span>"," ","","exp-sent","presente","","",""
"","729","html-keyboard-response","266","393225","0.0-3.0-1.213","<span style=""font-size:30px; font-family: monospace"">maravilhoso.</span>"," ","","exp-sent","maravilhoso.","","",""
"","null","html-keyboard-response","267","394488","0.0-3.0-0.214-0.214","<span style= ""font-size:30px; font-family: monospace"">+</span>","null","fixation","","","","",""
"","659","html-keyboard-response","268","395402","0.0-3.0-1.214","<span style=""font-size:30px; font-family: monospace"">Os</span>"," ","","exp-sent","Os","","",""
"","496","html-keyboard-response","269","396154","0.0-3.0-1.215","<span style=""font-size:30px; font-family: monospace"">bichos</span>"," ","","exp-sent","bichos","","",""
"","394","html-keyboard-response","270","396811","0.0-3.0-1.216","<span style=""font-size:30px; font-family: monospace"">têm</span>"," ","","exp-sent","têm","","",""
"","480","html-keyboard-response","271","397545","0.0-3.0-1.217","<span style=""font-size:30px; font-family: monospace"">um</span>"," ","","exp-sent","um","","",""
"","542","html-keyboard-response","272","398340","0.0-3.0-1.218","<span style=""font-size:30px; font-family: monospace"">instinto</span>"," ","","exp-sent","instinto","","",""
"","459","html-keyboard-response","273","399054","0.0-3.0-1.219","<span style=""font-size:30px; font-family: monospace"">de</span>"," ","","exp-sent","de","","",""
"","758","html-keyboard-response","274","400069","0.0-3.0-1.220","<span style=""font-size:30px; font-family: monospace"">sobrevivência</span>"," ","","exp-sent","sobrevivência","","",""
"","578","html-keyboard-response","275","400899","0.0-3.0-1.221","<span style=""font-size:30px; font-family: monospace"">forte.</span>"," ","","exp-sent","forte.","","",""
"","null","html-keyboard-response","276","402166","0.0-3.0-0.222-0.222","<span style= ""font-size:30px; font-family: monospace"">+</span>","null","fixation","","","","",""
"","161","html-keyboard-response","277","402580","0.0-3.0-1.222","<span style=""font-size:30px; font-family: monospace"">Aquele</span>"," ","","exp-sent","Aquele","","",""
"","517","html-keyboard-response","278","403362","0.0-3.0-1.223","<span style=""font-size:30px; font-family: monospace"">menino</span>"," ","","exp-sent","menino","","",""
"","416","html-keyboard-response","279","404038","0.0-3.0-1.224","<span style=""font-size:30px; font-family: monospace"">alto</span>"," ","","exp-sent","alto","","",""
"","447","html-keyboard-response","280","404736","0.0-3.0-1.225","<span style=""font-size:30px; font-family: monospace"">é</span>"," ","","exp-sent","é","","",""
"","694","html-keyboard-response","281","405697","0.0-3.0-1.226","<span style=""font-size:30px; font-family: monospace"">exibido</span>"," ","","exp-sent","exibido","","",""
"","442","html-keyboard-response","282","406404","0.0-3.0-1.227","<span style=""font-size:30px; font-family: monospace"">e</span>"," ","","exp-sent","e","","",""
"","680","html-keyboard-response","283","407346","0.0-3.0-1.228","<span style=""font-size:30px; font-family: monospace"">sovina.</span>"," ","","comp","sovina.","","",""
"","4890","html-keyboard-response","284","412496","0.0-3.0-2.228-0.228","<span style=""font-size:30px; font-family: monospace"">Aquele menino é humilde?</span>","n","","comp","","Aquele menino é humilde?","não","false"
"","null","html-keyboard-response","285","414014","0.0-3.0-0.229-0.229","<span style= ""font-size:30px; font-family: monospace"">+</span>","null","fixation","","","","",""
"","761","html-keyboard-response","286","415028","0.0-3.0-1.229","<span style=""font-size:30px; font-family: monospace"">Este</span>"," ","","exp-sent","Este","","",""
"","630","html-keyboard-response","287","415911","0.0-3.0-1.230","<span style=""font-size:30px; font-family: monospace"">conto</span>"," ","","exp-sent","conto","","",""
"","537","html-keyboard-response","288","416701","0.0-3.0-1.231","<span style=""font-size:30px; font-family: monospace"">tem</span>"," ","","exp-sent","tem","","",""
"","533","html-keyboard-response","289","417490","0.0-3.0-1.232","<span style=""font-size:30px; font-family: monospace"">um</span>"," ","","exp-sent","um","","",""
"","705","html-keyboard-response","290","418459","0.0-3.0-1.233","<span style=""font-size:30px; font-family: monospace"">final</span>"," ","","exp-sent","final","","",""
"","653","html-keyboard-response","291","419377","0.0-3.0-1.234","<span style=""font-size:30px; font-family: monospace"">perfeito.</span>"," ","","exp-sent","perfeito.","","",""
"","null","html-keyboard-response","292","420638","0.0-3.0-0.235-0.235","<span style= ""font-size:30px; font-family: monospace"">+</span>","null","fixation","","","","",""
"","735","html-keyboard-response","293","421635","0.0-3.0-1.235","<span style=""font-size:30px; font-family: monospace"">Ele</span>"," ","","exp-sent","Ele","","",""
"","498","html-keyboard-response","294","422396","0.0-3.0-1.236","<span style=""font-size:30px; font-family: monospace"">precisa</span>"," ","","exp-sent","precisa","","",""
"","447","html-keyboard-response","295","423105","0.0-3.0-1.237","<span style=""font-size:30px; font-family: monospace"">de</span>"," ","","exp-sent","de","","",""
"","527","html-keyboard-response","296","423884","0.0-3.0-1.238","<span style=""font-size:30px; font-family: monospace"">um</span>"," ","","exp-sent","um","","",""
"","585","html-keyboard-response","297","424728","0.0-3.0-1.239","<span style=""font-size:30px; font-family: monospace"">protetor</span>"," ","","exp-sent","protetor","","",""
"","474","html-keyboard-response","298","425455","0.0-3.0-1.240","<span style=""font-size:30px; font-family: monospace"">de</span>"," ","","exp-sent","de","","",""
"","589","html-keyboard-response","299","426299","0.0-3.0-1.241","<span style=""font-size:30px; font-family: monospace"">ouvido.</span>"," ","","exp-sent","ouvido.","","",""
"","null","html-keyboard-response","300","427573","0.0-3.0-0.242-0.242","<span style= ""font-size:30px; font-family: monospace"">+</span>","null","fixation","","","","",""
"","405","html-keyboard-response","301","428233","0.0-3.0-1.242","<span style=""font-size:30px; font-family: monospace"">Os</span>"," ","","exp-sent","Os","","",""
"","573","html-keyboard-response","302","429066","0.0-3.0-1.243","<span style=""font-size:30px; font-family: monospace"">hábitos</span>"," ","","exp-sent","hábitos","","",""
"","472","html-keyboard-response","303","429803","0.0-3.0-1.244","<span style=""font-size:30px; font-family: monospace"">de</span>"," ","","exp-sent","de","","",""
"","668","html-keyboard-response","304","430725","0.0-3.0-1.245","<span style=""font-size:30px; font-family: monospace"">lugares</span>"," ","","exp-sent","lugares","","",""
"","449","html-keyboard-response","305","431442","0.0-3.0-1.246","<span style=""font-size:30px; font-family: monospace"">diferentes</span>"," ","","exp-sent","diferentes","","",""
"","395","html-keyboard-response","306","432098","0.0-3.0-1.247","<span style=""font-size:30px; font-family: monospace"">são</span>"," ","","exp-sent","são","","",""
"","497","html-keyboard-response","307","432856","0.0-3.0-1.248","<span style=""font-size:30px; font-family: monospace"">muito</span>"," ","","exp-sent","muito","","",""
"","464","html-keyboard-response","308","433574","0.0-3.0-1.249","<span style=""font-size:30px; font-family: monospace"">lindos.</span>"," ","","exp-sent","lindos.","","",""
"","null","html-keyboard-response","309","434838","0.0-3.0-0.250-0.250","<span style= ""font-size:30px; font-family: monospace"">+</span>","null","fixation","","","","",""
"","807","html-keyboard-response","310","435899","0.0-3.0-1.250","<span style=""font-size:30px; font-family: monospace"">O</span>"," ","","exp-sent","O","","",""
"","559","html-keyboard-response","311","436724","0.0-3.0-1.251","<span style=""font-size:30px; font-family: monospace"">médico</span>"," ","","exp-sent","médico","","",""
"","566","html-keyboard-response","312","437552","0.0-3.0-1.252","<span style=""font-size:30px; font-family: monospace"">corrigiu</span>"," ","","exp-sent","corrigiu","","",""
"","516","html-keyboard-response","313","438329","0.0-3.0-1.253","<span style=""font-size:30px; font-family: monospace"">a</span>"," ","","exp-sent","a","","",""
"","667","html-keyboard-response","314","439260","0.0-3.0-1.254","<span style=""font-size:30px; font-family: monospace"">postura</span>"," ","","exp-sent","postura","","",""
"","456","html-keyboard-response","315","439976","0.0-3.0-1.255","<span style=""font-size:30px; font-family: monospace"">das</span>"," ","","exp-sent","das","","",""
"","546","html-keyboard-response","316","440787","0.0-3.0-1.256","<span style=""font-size:30px; font-family: monospace"">costas</span>"," ","","exp-sent","costas","","",""
"","473","html-keyboard-response","317","441514","0.0-3.0-1.257","<span style=""font-size:30px; font-family: monospace"">da</span>"," ","","exp-sent","da","","",""
"","441","html-keyboard-response","318","442215","0.0-3.0-1.258","<span style=""font-size:30px; font-family: monospace"">pessoa.</span>"," ","","exp-sent","pessoa.","","",""
"","null","html-keyboard-response","319","443483","0.0-3.0-0.259-0.259","<span style= ""font-size:30px; font-family: monospace"">+</span>","null","fixation","","","","",""
"","32","html-keyboard-response","320","443768","0.0-3.0-1.259","<span style=""font-size:30px; font-family: monospace"">Aquele</span>"," ","","exp-sent","Aquele","","",""
"","565","html-keyboard-response","321","444586","0.0-3.0-1.260","<span style=""font-size:30px; font-family: monospace"">era</span>"," ","","exp-sent","era","","",""
"","435","html-keyboard-response","322","445282","0.0-3.0-1.261","<span style=""font-size:30px; font-family: monospace"">um</span>"," ","","exp-sent","um","","",""
"","476","html-keyboard-response","323","446010","0.0-3.0-1.262","<span style=""font-size:30px; font-family: monospace"">caso</span>"," ","","exp-sent","caso","","",""
"","474","html-keyboard-response","324","446748","0.0-3.0-1.263","<span style=""font-size:30px; font-family: monospace"">real</span>"," ","","exp-sent","real","","",""
"","420","html-keyboard-response","325","447426","0.0-3.0-1.264","<span style=""font-size:30px; font-family: monospace"">de</span>"," ","","exp-sent","de","","",""
"","878","html-keyboard-response","326","448567","0.0-3.0-1.265","<span style=""font-size:30px; font-family: monospace"">sequestro</span>"," ","","exp-sent","sequestro","","",""
"","656","html-keyboard-response","327","449481","0.0-3.0-1.266","<span style=""font-size:30px; font-family: monospace"">premeditado.</span>"," ","","comp","premeditado.","","",""
"","5004","html-keyboard-response","328","454738","0.0-3.0-2.266-0.266","<span style=""font-size:30px; font-family: monospace"">Aquele era um caso real de roubo?</span>","s","","comp","","Aquele era um caso real de roubo?","não","false"
"","null","html-keyboard-response","329","456263","0.0-3.0-0.267-0.267","<span style= ""font-size:30px; font-family: monospace"">+</span>","null","fixation","","","","",""
"","643","html-keyboard-response","330","457162","0.0-3.0-1.267","<span style=""font-size:30px; font-family: monospace"">Eu</span>"," ","","exp-sent","Eu","","",""
"","478","html-keyboard-response","331","457905","0.0-3.0-1.268","<span style=""font-size:30px; font-family: monospace"">gosto</span>"," ","","exp-sent","gosto","","",""
"","437","html-keyboard-response","332","458607","0.0-3.0-1.269","<span style=""font-size:30px; font-family: monospace"">de</span>"," ","","exp-sent","de","","",""
"","601","html-keyboard-response","333","459465","0.0-3.0-1.270","<span style=""font-size:30px; font-family: monospace"">molho</span>"," ","","exp-sent","molho","","",""
"","633","html-keyboard-response","334","460352","0.0-3.0-1.271","<span style=""font-size:30px; font-family: monospace"">picante</span>"," ","","exp-sent","picante","","",""
"","543","html-keyboard-response","335","461161","0.0-3.0-1.272","<span style=""font-size:30px; font-family: monospace"">nas</span>"," ","","exp-sent","nas","","",""
"","635","html-keyboard-response","336","462060","0.0-3.0-1.273","<span style=""font-size:30px; font-family: monospace"">batatas.</span>"," ","","exp-sent","batatas.","","",""
"","null","html-keyboard-response","337","463323","0.0-3.0-0.274-0.274","<span style= ""font-size:30px; font-family: monospace"">+</span>","null","fixation","","","","",""
"","472","html-keyboard-response","338","464049","0.0-3.0-1.274","<span style=""font-size:30px; font-family: monospace"">As</span>"," ","","exp-sent","As","","",""
"","505","html-keyboard-response","339","464808","0.0-3.0-1.275","<span style=""font-size:30px; font-family: monospace"">pessoas</span>"," ","","exp-sent","pessoas","","",""
"","492","html-keyboard-response","340","465554","0.0-3.0-1.276","<span style=""font-size:30px; font-family: monospace"">têm</span>"," ","","exp-sent","têm","","",""
"","514","html-keyboard-response","341","466321","0.0-3.0-1.277","<span style=""font-size:30px; font-family: monospace"">sua</span>"," ","","exp-sent","sua","","",""
"","630","html-keyboard-response","342","467210","0.0-3.0-1.278","<span style=""font-size:30px; font-family: monospace"">liberdade</span>"," ","","exp-sent","liberdade","","",""
"","512","html-keyboard-response","343","467980","0.0-3.0-1.279","<span style=""font-size:30px; font-family: monospace"">até</span>"," ","","exp-sent","até","","",""
"","513","html-keyboard-response","344","468759","0.0-3.0-1.280","<span style=""font-size:30px; font-family: monospace"">certo</span>"," ","","exp-sent","certo","","",""
"","493","html-keyboard-response","345","469514","0.0-3.0-1.281","<span style=""font-size:30px; font-family: monospace"">ponto.</span>"," ","","exp-sent","ponto.","","",""
"","null","html-keyboard-response","346","470779","0.0-3.0-0.282-0.282","<span style= ""font-size:30px; font-family: monospace"">+</span>","null","fixation","","","","",""
"","6","html-keyboard-response","347","471040","0.0-3.0-1.282","<span style=""font-size:30px; font-family: monospace"">A</span>"," ","","exp-sent","A","","",""
"","561","html-keyboard-response","348","471866","0.0-3.0-1.283","<span style=""font-size:30px; font-family: monospace"">empresa</span>"," ","","exp-sent","empresa","","",""
"","415","html-keyboard-response","349","472546","0.0-3.0-1.284","<span style=""font-size:30px; font-family: monospace"">enviou</span>"," ","","exp-sent","enviou","","",""
"","458","html-keyboard-response","350","473258","0.0-3.0-1.285","<span style=""font-size:30px; font-family: monospace"">o</span>"," ","","exp-sent","o","","",""
"","488","html-keyboard-response","351","474006","0.0-3.0-1.286","<span style=""font-size:30px; font-family: monospace"">aviso</span>"," ","","exp-sent","aviso","","",""
"","453","html-keyboard-response","352","474720","0.0-3.0-1.287","<span style=""font-size:30px; font-family: monospace"">hoje</span>"," ","","exp-sent","hoje","","",""
"","487","html-keyboard-response","353","475458","0.0-3.0-1.288","<span style=""font-size:30px; font-family: monospace"">de</span>"," ","","exp-sent","de","","",""
"","599","html-keyboard-response","354","476322","0.0-3.0-1.289","<span style=""font-size:30px; font-family: monospace"">tarde.</span>"," ","","exp-sent","tarde.","","",""
"","null","html-keyboard-response","355","477589","0.0-3.0-0.290-0.290","<span style= ""font-size:30px; font-family: monospace"">+</span>","null","fixation","","","","",""
"","139","html-keyboard-response","356","477984","0.0-3.0-1.290","<span style=""font-size:30px; font-family: monospace"">A</span>"," ","","exp-sent","A","","",""
"","498","html-keyboard-response","357","478740","0.0-3.0-1.291","<span style=""font-size:30px; font-family: monospace"">loja</span>"," ","","exp-sent","loja","","",""
"","520","html-keyboard-response","358","479513","0.0-3.0-1.292","<span style=""font-size:30px; font-family: monospace"">vende</span>"," ","","exp-sent","vende","","",""
"","488","html-keyboard-response","359","480263","0.0-3.0-1.293","<span style=""font-size:30px; font-family: monospace"">tanto</span>"," ","","exp-sent","tanto","","",""
"","647","html-keyboard-response","360","481172","0.0-3.0-1.294","<span style=""font-size:30px; font-family: monospace"">frituras</span>"," ","","exp-sent","frituras","","",""
"","553","html-keyboard-response","361","481989","0.0-3.0-1.295","<span style=""font-size:30px; font-family: monospace"">quanto</span>"," ","","exp-sent","quanto","","",""
"","445","html-keyboard-response","362","482691","0.0-3.0-1.296","<span style=""font-size:30px; font-family: monospace"">comidas</span>"," ","","exp-sent","comidas","","",""
"","453","html-keyboard-response","363","483409","0.0-3.0-1.297","<span style=""font-size:30px; font-family: monospace"">leves.</span>"," ","","exp-sent","leves.","","",""
"","null","html-keyboard-response","364","484672","0.0-3.0-0.298-0.298","<span style= ""font-size:30px; font-family: monospace"">+</span>","null","fixation","","","","",""
"","668","html-keyboard-response","365","485594","0.0-3.0-1.298","<span style=""font-size:30px; font-family: monospace"">As</span>"," ","","exp-sent","As","","",""
"","563","html-keyboard-response","366","486415","0.0-3.0-1.299","<span style=""font-size:30px; font-family: monospace"">cadeiras</span>"," ","","exp-sent","cadeiras","","",""
"","466","html-keyboard-response","367","487145","0.0-3.0-1.300","<span style=""font-size:30px; font-family: monospace"">azuis</span>"," ","","exp-sent","azuis","","",""
"","498","html-keyboard-response","368","487896","0.0-3.0-1.301","<span style=""font-size:30px; font-family: monospace"">da</span>"," ","","exp-sent","da","","",""
"","484","html-keyboard-response","369","488634","0.0-3.0-1.302","<span style=""font-size:30px; font-family: monospace"">sala</span>"," ","","exp-sent","sala","","",""
"","464","html-keyboard-response","370","489361","0.0-3.0-1.303","<span style=""font-size:30px; font-family: monospace"">eram</span>"," ","","exp-sent","eram","","",""
"","511","html-keyboard-response","371","490125","0.0-3.0-1.304","<span style=""font-size:30px; font-family: monospace"">da</span>"," ","","exp-sent","da","","",""
"","506","html-keyboard-response","372","490898","0.0-3.0-1.305","<span style=""font-size:30px; font-family: monospace"">minha</span>"," ","","exp-sent","minha","","",""
"","452","html-keyboard-response","373","491610","0.0-3.0-1.306","<span style=""font-size:30px; font-family: monospace"">vó.</span>"," ","","comp","vó.","","",""
"","3529","html-keyboard-response","374","495391","0.0-3.0-2.306-0.306","<span style=""font-size:30px; font-family: monospace"">As cadeiras eram da avó?</span>","s","","comp","","As cadeiras eram da avó?","sim","false"
"","null","html-keyboard-response","375","496911","0.0-3.0-0.307-0.307","<span style= ""font-size:30px; font-family: monospace"">+</span>","null","fixation","","","","",""
"","322","html-keyboard-response","376","497485","0.0-3.0-1.307","<span style=""font-size:30px; font-family: monospace"">No</span>"," ","","exp-sent","No","","",""
"","503","html-keyboard-response","377","498248","0.0-3.0-1.308","<span style=""font-size:30px; font-family: monospace"">passado</span>"," ","","exp-sent","passado","","",""
"","492","html-keyboard-response","378","499004","0.0-3.0-1.309","<span style=""font-size:30px; font-family: monospace"">houve</span>"," ","","exp-sent","houve","","",""
"","488","html-keyboard-response","379","499751","0.0-3.0-1.310","<span style=""font-size:30px; font-family: monospace"">uma</span>"," ","","exp-sent","uma","","",""
"","617","html-keyboard-response","380","500629","0.0-3.0-1.311","<span style=""font-size:30px; font-family: monospace"">rebelião</span>"," ","","exp-sent","rebelião","","",""
"","529","html-keyboard-response","381","501419","0.0-3.0-1.312","<span style=""font-size:30px; font-family: monospace"">nesta</span>"," ","","exp-sent","nesta","","",""
"","619","html-keyboard-response","382","502291","0.0-3.0-1.313","<span style=""font-size:30px; font-family: monospace"">cidade.</span>"," ","","exp-sent","cidade.","","",""
"","null","html-keyboard-response","383","503558","0.0-3.0-0.314-0.314","<span style= ""font-size:30px; font-family: monospace"">+</span>","null","fixation","","","","",""
"","64","html-keyboard-response","384","503878","0.0-3.0-1.314","<span style=""font-size:30px; font-family: monospace"">Ele</span>"," ","","exp-sent","Ele","","",""
"","654","html-keyboard-response","385","504786","0.0-3.0-1.315","<span style=""font-size:30px; font-family: monospace"">fundou</span>"," ","","exp-sent","fundou","","",""
"","497","html-keyboard-response","386","505539","0.0-3.0-1.316","<span style=""font-size:30px; font-family: monospace"">uma</span>"," ","","exp-sent","uma","","",""
"","518","html-keyboard-response","387","506320","0.0-3.0-1.317","<span style=""font-size:30px; font-family: monospace"">empresa</span>"," ","","exp-sent","empresa","","",""
"","489","html-keyboard-response","388","507072","0.0-3.0-1.318","<span style=""font-size:30px; font-family: monospace"">privada</span>"," ","","exp-sent","privada","","",""
"","498","html-keyboard-response","389","507830","0.0-3.0-1.319","<span style=""font-size:30px; font-family: monospace"">sem</span>"," ","","exp-sent","sem","","",""
"","532","html-keyboard-response","390","508626","0.0-3.0-1.320","<span style=""font-size:30px; font-family: monospace"">ajuda.</span>"," ","","exp-sent","ajuda.","","",""
"","null","html-keyboard-response","391","509891","0.0-3.0-0.321-0.321","<span style= ""font-size:30px; font-family: monospace"">+</span>","null","fixation","","","","",""
"","142","html-keyboard-response","392","510289","0.0-3.0-1.321","<span style=""font-size:30px; font-family: monospace"">As</span>"," ","","exp-sent","As","","",""
"","522","html-keyboard-response","393","511068","0.0-3.0-1.322","<span style=""font-size:30px; font-family: monospace"">meninas</span>"," ","","exp-sent","meninas","","",""
"","436","html-keyboard-response","394","511755","0.0-3.0-1.323","<span style=""font-size:30px; font-family: monospace"">encontraram</span>"," ","","exp-sent","encontraram","","",""
"","479","html-keyboard-response","395","512493","0.0-3.0-1.324","<span style=""font-size:30px; font-family: monospace"">um</span>"," ","","exp-sent","um","","",""
"","477","html-keyboard-response","396","513235","0.0-3.0-1.325","<span style=""font-size:30px; font-family: monospace"">rato</span>"," ","","exp-sent","rato","","",""
"","407","html-keyboard-response","397","513894","0.0-3.0-1.326","<span style=""font-size:30px; font-family: monospace"">dentro</span>"," ","","exp-sent","dentro","","",""
"","407","html-keyboard-response","398","514557","0.0-3.0-1.327","<span style=""font-size:30px; font-family: monospace"">de</span>"," ","","exp-sent","de","","",""
"","486","html-keyboard-response","399","515297","0.0-3.0-1.328","<span style=""font-size:30px; font-family: monospace"">casa.</span>"," ","","exp-sent","casa.","","",""
"","null","html-keyboard-response","400","516567","0.0-3.0-0.329-0.329","<span style= ""font-size:30px; font-family: monospace"">+</span>","null","fixation","","","","",""
"","698","html-keyboard-response","401","517522","0.0-3.0-1.329","<span style=""font-size:30px; font-family: monospace"">O</span>"," ","","exp-sent","O","","",""
"","501","html-keyboard-response","402","518281","0.0-3.0-1.330","<span style=""font-size:30px; font-family: monospace"">texto</span>"," ","","exp-sent","texto","","",""
"","490","html-keyboard-response","403","519034","0.0-3.0-1.331","<span style=""font-size:30px; font-family: monospace"">tinha</span>"," ","","exp-sent","tinha","","",""
"","536","html-keyboard-response","404","519828","0.0-3.0-1.332","<span style=""font-size:30px; font-family: monospace"">ideias</span>"," ","","exp-sent","ideias","","",""
"","453","html-keyboard-response","405","520544","0.0-3.0-1.333","<span style=""font-size:30px; font-family: monospace"">vagas</span>"," ","","exp-sent","vagas","","",""
"","458","html-keyboard-response","406","521268","0.0-3.0-1.334","<span style=""font-size:30px; font-family: monospace"">e</span>"," ","","exp-sent","e","","",""
"","541","html-keyboard-response","407","522060","0.0-3.0-1.335","<span style=""font-size:30px; font-family: monospace"">confusas.</span>"," ","","exp-sent","confusas.","","",""
"","null","html-keyboard-response","408","523335","0.0-3.0-0.336-0.336","<span style= ""font-size:30px; font-family: monospace"">+</span>","null","fixation","","","","",""
"","537","html-keyboard-response","409","524126","0.0-3.0-1.336","<span style=""font-size:30px; font-family: monospace"">As</span>"," ","","exp-sent","As","","",""
"","455","html-keyboard-response","410","524834","0.0-3.0-1.337","<span style=""font-size:30px; font-family: monospace"">crianças</span>"," ","","exp-sent","crianças","","",""
"","464","html-keyboard-response","411","525554","0.0-3.0-1.338","<span style=""font-size:30px; font-family: monospace"">viram</span>"," ","","exp-sent","viram","","",""
"","351","html-keyboard-response","412","526171","0.0-3.0-1.339","<span style=""font-size:30px; font-family: monospace"">a</span>"," ","","exp-sent","a","","",""
"","671","html-keyboard-response","413","527094","0.0-3.0-1.340","<span style=""font-size:30px; font-family: monospace"">acrobata</span>"," ","","exp-sent","acrobata","","",""
"","614","html-keyboard-response","414","527973","0.0-3.0-1.341","<span style=""font-size:30px; font-family: monospace"">talentosa</span>"," ","","exp-sent","talentosa","","",""
"","519","html-keyboard-response","415","528755","0.0-3.0-1.342","<span style=""font-size:30px; font-family: monospace"">no</span>"," ","","exp-sent","no","","",""
"","594","html-keyboard-response","416","529609","0.0-3.0-1.343","<span style=""font-size:30px; font-family: monospace"">circo.</span>"," ","","comp","circo.","","",""
"","3971","html-keyboard-response","417","533841","0.0-3.0-2.343-0.343","<span style=""font-size:30px; font-family: monospace"">As crianças viram o palhaço no circo?</span>","n","","comp","","As crianças viram o palhaço no circo?","não","false"
"","null","html-keyboard-response","418","535358","0.0-3.0-0.344-0.344","<span style= ""font-size:30px; font-family: monospace"">+</span>","null","fixation","","","","",""
"","262","html-keyboard-response","419","535874","0.0-3.0-1.344","<span style=""font-size:30px; font-family: monospace"">Ganhamos</span>"," ","","exp-sent","Ganhamos","","",""
"","469","html-keyboard-response","420","536602","0.0-3.0-1.345","<span style=""font-size:30px; font-family: monospace"">passagem</span>"," ","","exp-sent","passagem","","",""
"","637","html-keyboard-response","421","537498","0.0-3.0-1.346","<span style=""font-size:30px; font-family: monospace"">para</span>"," ","","exp-sent","para","","",""
"","495","html-keyboard-response","422","538257","0.0-3.0-1.347","<span style=""font-size:30px; font-family: monospace"">uma</span>"," ","","exp-sent","uma","","",""
"","492","html-keyboard-response","423","539013","0.0-3.0-1.348","<span style=""font-size:30px; font-family: monospace"">viagem</span>"," ","","exp-sent","viagem","","",""
"","472","html-keyboard-response","424","539737","0.0-3.0-1.349","<span style=""font-size:30px; font-family: monospace"">de</span>"," ","","exp-sent","de","","",""
"","509","html-keyboard-response","425","540500","0.0-3.0-1.350","<span style=""font-size:30px; font-family: monospace"">férias.</span>"," ","","exp-sent","férias.","","",""
"","null","html-keyboard-response","426","541768","0.0-3.0-0.351-0.351","<span style= ""font-size:30px; font-family: monospace"">+</span>","null","fixation","","","","",""
"","698","html-keyboard-response","427","542720","0.0-3.0-1.351","<span style=""font-size:30px; font-family: monospace"">Caiu</span>"," ","","exp-sent","Caiu","","",""
"","625","html-keyboard-response","428","543607","0.0-3.0-1.352","<span style=""font-size:30px; font-family: monospace"">algo</span>"," ","","exp-sent","algo","","",""
"","510","html-keyboard-response","429","544370","0.0-3.0-1.353","<span style=""font-size:30px; font-family: monospace"">no</span>"," ","","exp-sent","no","","",""
"","522","html-keyboard-response","430","545145","0.0-3.0-1.354","<span style=""font-size:30px; font-family: monospace"">meu</span>"," ","","exp-sent","meu","","",""
"","523","html-keyboard-response","431","545932","0.0-3.0-1.355","<span style=""font-size:30px; font-family: monospace"">olho</span>"," ","","exp-sent","olho","","",""
"","479","html-keyboard-response","432","546664","0.0-3.0-1.356","<span style=""font-size:30px; font-family: monospace"">ontem</span>"," ","","exp-sent","ontem","","",""
"","501","html-keyboard-response","433","547419","0.0-3.0-1.357","<span style=""font-size:30px; font-family: monospace"">de</span>"," ","","exp-sent","de","","",""
"","705","html-keyboard-response","434","548388","0.0-3.0-1.358","<span style=""font-size:30px; font-family: monospace"">tarde.</span>"," ","","exp-sent","tarde.","","",""
"","null","html-keyboard-response","435","549658","0.0-3.0-0.359-0.359","<span style= ""font-size:30px; font-family: monospace"">+</span>","null","fixation","","","","",""
"","214","html-keyboard-response","436","550125","0.0-3.0-1.359","<span style=""font-size:30px; font-family: monospace"">Não</span>"," ","","exp-sent","Não","","",""
"","545","html-keyboard-response","437","550931","0.0-3.0-1.360","<span style=""font-size:30px; font-family: monospace"">havia</span>"," ","","exp-sent","havia","","",""
"","491","html-keyboard-response","438","551681","0.0-3.0-1.361","<span style=""font-size:30px; font-family: monospace"">mais</span>"," ","","exp-sent","mais","","",""
"","623","html-keyboard-response","439","552571","0.0-3.0-1.362","<span style=""font-size:30px; font-family: monospace"">nenhum</span>"," ","","exp-sent","nenhum","","",""
"","578","html-keyboard-response","440","553410","0.0-3.0-1.363","<span style=""font-size:30px; font-family: monospace"">ingresso</span>"," ","","exp-sent","ingresso","","",""
"","473","html-keyboard-response","441","554148","0.0-3.0-1.364","<span style=""font-size:30px; font-family: monospace"">para</span>"," ","","exp-sent","para","","",""
"","475","html-keyboard-response","442","554884","0.0-3.0-1.365","<span style=""font-size:30px; font-family: monospace"">o</span>"," ","","exp-sent","o","","",""
"","586","html-keyboard-response","443","555733","0.0-3.0-1.366","<span style=""font-size:30px; font-family: monospace"">evento.</span>"," ","","exp-sent","evento.","","",""
"","null","html-keyboard-response","444","557002","0.0-3.0-0.367-0.367","<span style= ""font-size:30px; font-family: monospace"">+</span>","null","fixation","","","","",""
"","152","html-keyboard-response","445","557410","0.0-3.0-1.367","<span style=""font-size:30px; font-family: monospace"">A</span>"," ","","exp-sent","A","","",""
"","555","html-keyboard-response","446","558228","0.0-3.0-1.368","<span style=""font-size:30px; font-family: monospace"">médica</span>"," ","","exp-sent","médica","","",""
"","528","html-keyboard-response","447","559019","0.0-3.0-1.369","<span style=""font-size:30px; font-family: monospace"">descobriu</span>"," ","","exp-sent","descobriu","","",""
"","458","html-keyboard-response","448","559742","0.0-3.0-1.370","<span style=""font-size:30px; font-family: monospace"">uma</span>"," ","","exp-sent","uma","","",""
"","530","html-keyboard-response","449","560523","0.0-3.0-1.371","<span style=""font-size:30px; font-family: monospace"">cura</span>"," ","","exp-sent","cura","","",""
"","458","html-keyboard-response","450","561239","0.0-3.0-1.372","<span style=""font-size:30px; font-family: monospace"">para</span>"," ","","exp-sent","para","","",""
"","484","html-keyboard-response","451","561978","0.0-3.0-1.373","<span style=""font-size:30px; font-family: monospace"">a</span>"," ","","exp-sent","a","","",""
"","464","html-keyboard-response","452","562701","0.0-3.0-1.374","<span style=""font-size:30px; font-family: monospace"">doença.</span>"," ","","exp-sent","doença.","","",""
"","null","html-keyboard-response","453","563976","0.0-3.0-0.375-0.375","<span style= ""font-size:30px; font-family: monospace"">+</span>","null","fixation","","","","",""
"","181","html-keyboard-response","454","564409","0.0-3.0-1.375","<span style=""font-size:30px; font-family: monospace"">O</span>"," ","","exp-sent","O","","",""
"","555","html-keyboard-response","455","565231","0.0-3.0-1.376","<span style=""font-size:30px; font-family: monospace"">menino</span>"," ","","exp-sent","menino","","",""
"","537","html-keyboard-response","456","566028","0.0-3.0-1.377","<span style=""font-size:30px; font-family: monospace"">riscou</span>"," ","","exp-sent","riscou","","",""
"","480","html-keyboard-response","457","566764","0.0-3.0-1.378","<span style=""font-size:30px; font-family: monospace"">o</span>"," ","","exp-sent","o","","",""
"","567","html-keyboard-response","458","567594","0.0-3.0-1.379","<span style=""font-size:30px; font-family: monospace"">caderno</span>"," ","","exp-sent","caderno","","",""
"","483","html-keyboard-response","459","568338","0.0-3.0-1.380","<span style=""font-size:30px; font-family: monospace"">com</span>"," ","","exp-sent","com","","",""
"","433","html-keyboard-response","460","569037","0.0-3.0-1.381","<span style=""font-size:30px; font-family: monospace"">a</span>"," ","","exp-sent","a","","",""
"","536","html-keyboard-response","461","569838","0.0-3.0-1.382","<span style=""font-size:30px; font-family: monospace"">caneta.</span>"," ","","comp","caneta.","","",""
"","5926","html-keyboard-response","462","576026","0.0-3.0-2.382-0.382","<span style=""font-size:30px; font-family: monospace"">O menino riscou a parede com a caneta?</span>","s","","comp","","O menino riscou a parede com a caneta?","não","false"
"","null","html-keyboard-response","463","577539","0.0-3.0-0.383-0.383","<span style= ""font-size:30px; font-family: monospace"">+</span>","null","fixation","","","","",""
"","518","html-keyboard-response","464","578311","0.0-3.0-1.383","<span style=""font-size:30px; font-family: monospace"">Ele</span>"," ","","exp-sent","Ele","","",""
"","531","html-keyboard-response","465","579099","0.0-3.0-1.384","<span style=""font-size:30px; font-family: monospace"">é</span>"," ","","exp-sent","é","","",""
"","463","html-keyboard-response","466","579823","0.0-3.0-1.385","<span style=""font-size:30px; font-family: monospace"">um</span>"," ","","exp-sent","um","","",""
"","488","html-keyboard-response","467","580564","0.0-3.0-1.386","<span style=""font-size:30px; font-family: monospace"">pai</span>"," ","","exp-sent","pai","","",""
"","557","html-keyboard-response","468","581381","0.0-3.0-1.387","<span style=""font-size:30px; font-family: monospace"">ausente</span>"," ","","exp-sent","ausente","","",""
"","474","html-keyboard-response","469","582115","0.0-3.0-1.388","<span style=""font-size:30px; font-family: monospace"">e</span>"," ","","exp-sent","e","","",""
"","504","html-keyboard-response","470","582880","0.0-3.0-1.389","<span style=""font-size:30px; font-family: monospace"">muito</span>"," ","","exp-sent","muito","","",""
"","566","html-keyboard-response","471","583705","0.0-3.0-1.390","<span style=""font-size:30px; font-family: monospace"">fofoqueiro.</span>"," ","","exp-sent","fofoqueiro.","","",""
"","null","html-keyboard-response","472","584971","0.0-3.0-0.391-0.391","<span style= ""font-size:30px; font-family: monospace"">+</span>","null","fixation","","","","",""
"","337","html-keyboard-response","473","585561","0.0-3.0-1.391","<span style=""font-size:30px; font-family: monospace"">O</span>"," ","","exp-sent","O","","",""
"","573","html-keyboard-response","474","586396","0.0-3.0-1.392","<span style=""font-size:30px; font-family: monospace"">filho</span>"," ","","exp-sent","filho","","",""
"","514","html-keyboard-response","475","587178","0.0-3.0-1.393","<span style=""font-size:30px; font-family: monospace"">lavou</span>"," ","","exp-sent","lavou","","",""
"","460","html-keyboard-response","476","587902","0.0-3.0-1.394","<span style=""font-size:30px; font-family: monospace"">a</span>"," ","","exp-sent","a","","",""
"","592","html-keyboard-response","477","588749","0.0-3.0-1.395","<span style=""font-size:30px; font-family: monospace"">roupa</span>"," ","","exp-sent","roupa","","",""
"","454","html-keyboard-response","478","589457","0.0-3.0-1.396","<span style=""font-size:30px; font-family: monospace"">sem</span>"," ","","exp-sent","sem","","",""
"","504","html-keyboard-response","479","590223","0.0-3.0-1.397","<span style=""font-size:30px; font-family: monospace"">nenhuma</span>"," ","","exp-sent","nenhuma","","",""
"","482","html-keyboard-response","480","590967","0.0-3.0-1.398","<span style=""font-size:30px; font-family: monospace"">ajuda.</span>"," ","","exp-sent","ajuda.","","",""
"","null","html-keyboard-response","481","592229","0.0-3.0-0.399-0.399","<span style= ""font-size:30px; font-family: monospace"">+</span>","null","fixation","","","","",""
"","44","html-keyboard-response","482","592525","0.0-3.0-1.399","<span style=""font-size:30px; font-family: monospace"">O</span>"," ","","exp-sent","O","","",""
"","565","html-keyboard-response","483","593347","0.0-3.0-1.400","<span style=""font-size:30px; font-family: monospace"">menino</span>"," ","","exp-sent","menino","","",""
"","443","html-keyboard-response","484","594048","0.0-3.0-1.401","<span style=""font-size:30px; font-family: monospace"">quebrou</span>"," ","","exp-sent","quebrou","","",""
"","458","html-keyboard-response","485","594760","0.0-3.0-1.402","<span style=""font-size:30px; font-family: monospace"">a</span>"," ","","exp-sent","a","","",""
"","565","html-keyboard-response","486","595584","0.0-3.0-1.403","<span style=""font-size:30px; font-family: monospace"">perna</span>"," ","","exp-sent","perna","","",""
"","462","html-keyboard-response","487","596312","0.0-3.0-1.404","<span style=""font-size:30px; font-family: monospace"">nos</span>"," ","","exp-sent","nos","","",""
"","727","html-keyboard-response","488","597293","0.0-3.0-1.405","<span style=""font-size:30px; font-family: monospace"">esportes.</span>"," ","","exp-sent","esportes.","","",""
"","null","html-keyboard-response","489","598571","0.0-3.0-0.406-0.406","<span style= ""font-size:30px; font-family: monospace"">+</span>","null","fixation","","","","",""
"","177","html-keyboard-response","490","599004","0.0-3.0-1.406","<span style=""font-size:30px; font-family: monospace"">Ela</span>"," ","","exp-sent","Ela","","",""
"","615","html-keyboard-response","491","599885","0.0-3.0-1.407","<span style=""font-size:30px; font-family: monospace"">brincou</span>"," ","","exp-sent","brincou","","",""
"","495","html-keyboard-response","492","600638","0.0-3.0-1.408","<span style=""font-size:30px; font-family: monospace"">com</span>"," ","","exp-sent","com","","",""
"","457","html-keyboard-response","493","601353","0.0-3.0-1.409","<span style=""font-size:30px; font-family: monospace"">uma</span>"," ","","exp-sent","uma","","",""
"","462","html-keyboard-response","494","602079","0.0-3.0-1.410","<span style=""font-size:30px; font-family: monospace"">menina</span>"," ","","exp-sent","menina","","",""
"","479","html-keyboard-response","495","602811","0.0-3.0-1.411","<span style=""font-size:30px; font-family: monospace"">da</span>"," ","","exp-sent","da","","",""
"","530","html-keyboard-response","496","603593","0.0-3.0-1.412","<span style=""font-size:30px; font-family: monospace"">turma.</span>"," ","","exp-sent","turma.","","",""
"","null","html-keyboard-response","497","604851","0.0-3.0-0.413-0.413","<span style= ""font-size:30px; font-family: monospace"">+</span>","null","fixation","","","","",""
"","183","html-keyboard-response","498","605292","0.0-3.0-1.413","<span style=""font-size:30px; font-family: monospace"">Ele</span>"," ","","exp-sent","Ele","","",""
"","663","html-keyboard-response","499","606219","0.0-3.0-1.414","<span style=""font-size:30px; font-family: monospace"">esteve</span>"," ","","exp-sent","esteve","","",""
"","515","html-keyboard-response","500","606994","0.0-3.0-1.415","<span style=""font-size:30px; font-family: monospace"">no</span>"," ","","exp-sent","no","","",""
"","833","html-keyboard-response","501","608089","0.0-3.0-1.416","<span style=""font-size:30px; font-family: monospace"">escritório</span>"," ","","exp-sent","escritório","","",""
"","469","html-keyboard-response","502","608822","0.0-3.0-1.417","<span style=""font-size:30px; font-family: monospace"">o</span>"," ","","exp-sent","o","","",""
"","527","html-keyboard-response","503","609606","0.0-3.0-1.418","<span style=""font-size:30px; font-family: monospace"">dia</span>"," ","","exp-sent","dia","","",""
"","573","html-keyboard-response","504","610432","0.0-3.0-1.419","<span style=""font-size:30px; font-family: monospace"">inteiro.</span>"," ","","comp","inteiro.","","",""
"","4993","html-keyboard-response","505","615679","0.0-3.0-2.419-0.419","<span style=""font-size:30px; font-family: monospace"">Ele esteve no parque o dia inteiro?</span>","n","","comp","","Ele esteve no parque o dia inteiro?","não","false"
"","null","html-keyboard-response","506","617197","0.0-3.0-0.420-0.420","<span style= ""font-size:30px; font-family: monospace"">+</span>","null","fixation","","","","",""
"","662","html-keyboard-response","507","618116","0.0-3.0-1.420","<span style=""font-size:30px; font-family: monospace"">Preciso</span>"," ","","exp-sent","Preciso","","",""
"","648","html-keyboard-response","508","619023","0.0-3.0-1.421","<span style=""font-size:30px; font-family: monospace"">de</span>"," ","","exp-sent","de","","",""
"","701","html-keyboard-response","509","619985","0.0-3.0-1.422","<span style=""font-size:30px; font-family: monospace"">um</span>"," ","","exp-sent","um","","",""
"","1503","html-keyboard-response","510","621741","0.0-3.0-1.423","<span style=""font-size:30px; font-family: monospace"">relatório</span>"," ","","exp-sent","relatório","","",""
"","650","html-keyboard-response","511","622648","0.0-3.0-1.424","<span style=""font-size:30px; font-family: monospace"">oficial</span>"," ","","exp-sent","oficial","","",""
"","591","html-keyboard-response","512","623504","0.0-3.0-1.425","<span style=""font-size:30px; font-family: monospace"">para</span>"," ","","exp-sent","para","","",""
"","631","html-keyboard-response","513","624391","0.0-3.0-1.426","<span style=""font-size:30px; font-family: monospace"">amanhã.</span>"," ","","exp-sent","amanhã.","","",""
"","null","html-keyboard-response","514","625658","0.0-3.0-0.427-0.427","<span style= ""font-size:30px; font-family: monospace"">+</span>","null","fixation","","","","",""
"","544","html-keyboard-response","515","626458","0.0-3.0-1.427","<span style=""font-size:30px; font-family: monospace"">Ele</span>"," ","","exp-sent","Ele","","",""
"","516","html-keyboard-response","516","627225","0.0-3.0-1.428","<span style=""font-size:30px; font-family: monospace"">viu</span>"," ","","exp-sent","viu","","",""
"","441","html-keyboard-response","517","627918","0.0-3.0-1.429","<span style=""font-size:30px; font-family: monospace"">um</span>"," ","","exp-sent","um","","",""
"","833","html-keyboard-response","518","629016","0.0-3.0-1.430","<span style=""font-size:30px; font-family: monospace"">inseto</span>"," ","","exp-sent","inseto","","",""
"","567","html-keyboard-response","519","629848","0.0-3.0-1.431","<span style=""font-size:30px; font-family: monospace"">marrom</span>"," ","","exp-sent","marrom","","",""
"","492","html-keyboard-response","520","630596","0.0-3.0-1.432","<span style=""font-size:30px; font-family: monospace"">na</span>"," ","","exp-sent","na","","",""
"","706","html-keyboard-response","521","631557","0.0-3.0-1.433","<span style=""font-size:30px; font-family: monospace"">parede.</span>"," ","","exp-sent","parede.","","",""
"","null","html-keyboard-response","522","632825","0.0-3.0-0.434-0.434","<span style= ""font-size:30px; font-family: monospace"">+</span>","null","fixation","","","","",""
"","190","html-keyboard-response","523","633271","0.0-3.0-1.434","<span style=""font-size:30px; font-family: monospace"">O</span>"," ","","exp-sent","O","","",""
"","513","html-keyboard-response","524","634039","0.0-3.0-1.435","<span style=""font-size:30px; font-family: monospace"">avô</span>"," ","","exp-sent","avô","","",""
"","487","html-keyboard-response","525","634790","0.0-3.0-1.436","<span style=""font-size:30px; font-family: monospace"">fez</span>"," ","","exp-sent","fez","","",""
"","548","html-keyboard-response","526","635592","0.0-3.0-1.437","<span style=""font-size:30px; font-family: monospace"">uma</span>"," ","","exp-sent","uma","","",""
"","586","html-keyboard-response","527","636437","0.0-3.0-1.438","<span style=""font-size:30px; font-family: monospace"">lista</span>"," ","","exp-sent","lista","","",""
"","521","html-keyboard-response","528","637224","0.0-3.0-1.439","<span style=""font-size:30px; font-family: monospace"">de</span>"," ","","exp-sent","de","","",""
"","723","html-keyboard-response","529","638208","0.0-3.0-1.440","<span style=""font-size:30px; font-family: monospace"">compras</span>"," ","","exp-sent","compras","","",""
"","491","html-keyboard-response","530","638963","0.0-3.0-1.441","<span style=""font-size:30px; font-family: monospace"">do</span>"," ","","exp-sent","do","","",""
"","772","html-keyboard-response","531","639994","0.0-3.0-1.442","<span style=""font-size:30px; font-family: monospace"">mercado.</span>"," ","","exp-sent","mercado.","","",""
"","null","html-keyboard-response","532","641271","0.0-3.0-0.443-0.443","<span style= ""font-size:30px; font-family: monospace"">+</span>","null","fixation","","","","",""
"","185","html-keyboard-response","533","641713","0.0-3.0-1.443","<span style=""font-size:30px; font-family: monospace"">As</span>"," ","","exp-sent","As","","",""
"","515","html-keyboard-response","534","642488","0.0-3.0-1.444","<span style=""font-size:30px; font-family: monospace"">pessoas</span>"," ","","exp-sent","pessoas","","",""
"","519","html-keyboard-response","535","643268","0.0-3.0-1.445","<span style=""font-size:30px; font-family: monospace"">não</span>"," ","","exp-sent","não","","",""
"","519","html-keyboard-response","536","644045","0.0-3.0-1.446","<span style=""font-size:30px; font-family: monospace"">enviam</span>"," ","","exp-sent","enviam","","",""
"","671","html-keyboard-response","537","644977","0.0-3.0-1.447","<span style=""font-size:30px; font-family: monospace"">telegrama</span>"," ","","exp-sent","telegrama","","",""
"","557","html-keyboard-response","538","645786","0.0-3.0-1.448","<span style=""font-size:30px; font-family: monospace"">nos</span>"," ","","exp-sent","nos","","",""
"","512","html-keyboard-response","539","646561","0.0-3.0-1.449","<span style=""font-size:30px; font-family: monospace"">dias</span>"," ","","exp-sent","dias","","",""
"","401","html-keyboard-response","540","647217","0.0-3.0-1.450","<span style=""font-size:30px; font-family: monospace"">de</span>"," ","","exp-sent","de","","",""
"","394","html-keyboard-response","541","647876","0.0-3.0-1.451","<span style=""font-size:30px; font-family: monospace"">hoje.</span>"," ","","exp-sent","hoje.","","",""
"","null","html-keyboard-response","542","649132","0.0-3.0-0.452-0.452","<span style= ""font-size:30px; font-family: monospace"">+</span>","null","fixation","","","","",""
"","905","html-keyboard-response","543","650295","0.0-3.0-1.452","<span style=""font-size:30px; font-family: monospace"">Ele</span>"," ","","exp-sent","Ele","","",""
"","456","html-keyboard-response","544","651011","0.0-3.0-1.453","<span style=""font-size:30px; font-family: monospace"">não</span>"," ","","exp-sent","não","","",""
"","492","html-keyboard-response","545","651764","0.0-3.0-1.454","<span style=""font-size:30px; font-family: monospace"">gosta</span>"," ","","exp-sent","gosta","","",""
"","430","html-keyboard-response","546","652460","0.0-3.0-1.455","<span style=""font-size:30px; font-family: monospace"">de</span>"," ","","exp-sent","de","","",""
"","488","html-keyboard-response","547","653216","0.0-3.0-1.456","<span style=""font-size:30px; font-family: monospace"">tomate</span>"," ","","exp-sent","tomate","","",""
"","584","html-keyboard-response","548","654054","0.0-3.0-1.457","<span style=""font-size:30px; font-family: monospace"">misturado</span>"," ","","exp-sent","misturado","","",""
"","548","html-keyboard-response","549","654867","0.0-3.0-1.458","<span style=""font-size:30px; font-family: monospace"">na</span>"," ","","exp-sent","na","","",""
"","536","html-keyboard-response","550","655669","0.0-3.0-1.459","<span style=""font-size:30px; font-family: monospace"">comida.</span>"," ","","comp","comida.","","",""
"","4062","html-keyboard-response","551","659992","0.0-3.0-2.459-0.459","<span style=""font-size:30px; font-family: monospace"">Ele gosta de tomate na comida?</span>","s","","comp","","Ele gosta de tomate na comida?","não","false"
"","null","html-keyboard-response","552","661518","0.0-3.0-0.460-0.460","<span style= ""font-size:30px; font-family: monospace"">+</span>","null","fixation","","","","",""
"","1277","html-keyboard-response","553","663048","0.0-3.0-1.460","<span style=""font-size:30px; font-family: monospace"">A</span>"," ","","exp-sent","A","","",""
"","500","html-keyboard-response","554","663804","0.0-3.0-1.461","<span style=""font-size:30px; font-family: monospace"">senhora</span>"," ","","exp-sent","senhora","","",""
"","536","html-keyboard-response","555","664598","0.0-3.0-1.462","<span style=""font-size:30px; font-family: monospace"">cumprimentou</span>"," ","","exp-sent","cumprimentou","","",""
"","543","html-keyboard-response","556","665393","0.0-3.0-1.463","<span style=""font-size:30px; font-family: monospace"">o</span>"," ","","exp-sent","o","","",""
"","870","html-keyboard-response","557","666531","0.0-3.0-1.464","<span style=""font-size:30px; font-family: monospace"">operador</span>"," ","","exp-sent","operador","","",""
"","559","html-keyboard-response","558","667354","0.0-3.0-1.465","<span style=""font-size:30px; font-family: monospace"">de</span>"," ","","exp-sent","de","","",""
"","423","html-keyboard-response","559","668029","0.0-3.0-1.466","<span style=""font-size:30px; font-family: monospace"">caixa.</span>"," ","","exp-sent","caixa.","","",""
"","null","html-keyboard-response","560","669290","0.0-3.0-0.467-0.467","<span style= ""font-size:30px; font-family: monospace"">+</span>","null","fixation","","","","",""
"","662","html-keyboard-response","561","670212","0.0-3.0-1.467","<span style=""font-size:30px; font-family: monospace"">A</span>"," ","","exp-sent","A","","",""
"","459","html-keyboard-response","562","670929","0.0-3.0-1.468","<span style=""font-size:30px; font-family: monospace"">gente</span>"," ","","exp-sent","gente","","",""
"","413","html-keyboard-response","563","671603","0.0-3.0-1.469","<span style=""font-size:30px; font-family: monospace"">viu</span>"," ","","exp-sent","viu","","",""
"","411","html-keyboard-response","564","672275","0.0-3.0-1.470","<span style=""font-size:30px; font-family: monospace"">o</span>"," ","","exp-sent","o","","",""
"","436","html-keyboard-response","565","672973","0.0-3.0-1.471","<span style=""font-size:30px; font-family: monospace"">eclipse</span>"," ","","exp-sent","eclipse","","",""
"","400","html-keyboard-response","566","673640","0.0-3.0-1.472","<span style=""font-size:30px; font-family: monospace"">lunar</span>"," ","","exp-sent","lunar","","",""
"","439","html-keyboard-response","567","674345","0.0-3.0-1.473","<span style=""font-size:30px; font-family: monospace"">durante</span>"," ","","exp-sent","durante","","",""
"","442","html-keyboard-response","568","675051","0.0-3.0-1.474","<span style=""font-size:30px; font-family: monospace"">o</span>"," ","","exp-sent","o","","",""
"","491","html-keyboard-response","569","675800","0.0-3.0-1.475","<span style=""font-size:30px; font-family: monospace"">dia.</span>"," ","","exp-sent","dia.","","",""
"","null","html-keyboard-response","570","677074","0.0-3.0-0.476-0.476","<span style= ""font-size:30px; font-family: monospace"">+</span>","null","fixation","","","","",""
"","679","html-keyboard-response","571","678008","0.0-3.0-1.476","<span style=""font-size:30px; font-family: monospace"">A</span>"," ","","exp-sent","A","","",""
"","639","html-keyboard-response","572","678900","0.0-3.0-1.477","<span style=""font-size:30px; font-family: monospace"">mordida</span>"," ","","exp-sent","mordida","","",""
"","442","html-keyboard-response","573","679606","0.0-3.0-1.478","<span style=""font-size:30px; font-family: monospace"">do</span>"," ","","exp-sent","do","","",""
"","494","html-keyboard-response","574","680359","0.0-3.0-1.479","<span style=""font-size:30px; font-family: monospace"">cachorro</span>"," ","","exp-sent","cachorro","","",""
"","564","html-keyboard-response","575","681177","0.0-3.0-1.480","<span style=""font-size:30px; font-family: monospace"">voraz</span>"," ","","exp-sent","voraz","","",""
"","493","html-keyboard-response","576","681934","0.0-3.0-1.481","<span style=""font-size:30px; font-family: monospace"">causou</span>"," ","","exp-sent","causou","","",""
"","480","html-keyboard-response","577","682670","0.0-3.0-1.482","<span style=""font-size:30px; font-family: monospace"">uma</span>"," ","","exp-sent","uma","","",""
"","553","html-keyboard-response","578","683473","0.0-3.0-1.483","<span style=""font-size:30px; font-family: monospace"">cicatriz.</span>"," ","","exp-sent","cicatriz.","","",""
"","null","html-keyboard-response","579","684742","0.0-3.0-0.484-0.484","<span style= ""font-size:30px; font-family: monospace"">+</span>","null","fixation","","","","",""
"","551","html-keyboard-response","580","685551","0.0-3.0-1.484","<span style=""font-size:30px; font-family: monospace"">Elas</span>"," ","","exp-sent","Elas","","",""
"","461","html-keyboard-response","581","686274","0.0-3.0-1.485","<span style=""font-size:30px; font-family: monospace"">não</span>"," ","","exp-sent","não","","",""
"","375","html-keyboard-response","582","686908","0.0-3.0-1.486","<span style=""font-size:30px; font-family: monospace"">viram</span>"," ","","exp-sent","viram","","",""
"","460","html-keyboard-response","583","687628","0.0-3.0-1.487","<span style=""font-size:30px; font-family: monospace"">nenhuma</span>"," ","","exp-sent","nenhuma","","",""
"","474","html-keyboard-response","584","688357","0.0-3.0-1.488","<span style=""font-size:30px; font-family: monospace"">diferença</span>"," ","","exp-sent","diferença","","",""
