[
	{
		"view_history": [
			{
				"page_index": 0,
				"viewing_time": 2515
			}
		],
		"rt": 2516,
		"trial_type": "instructions",
		"trial_index": 0,
		"time_elapsed": 2517,
		"internal_node_id": "0.0-0.0"
	},
	{
		"rt": 366025,
		"response": {
			"tcle": "Concordo voluntariamente em participar da pesquisa conforme texto acima."
		},
		"question_order": [
			0
		],
		"trial_type": "survey-multi-choice",
		"trial_index": 1,
		"time_elapsed": 368748,
		"internal_node_id": "0.0-1.0"
	},
	{
		"rt": 153813,
		"response": {
			"email": "D0HAF"
		},
		"trial_type": "survey-text",
		"trial_index": 2,
		"time_elapsed": 523585,
		"internal_node_id": "0.0-2.0"
	}
]