"view_history","rt","trial_type","trial_index","time_elapsed","internal_node_id","stimulus","response","trial_part","trial","word","question","answer","accuracy"
"[{""page_index"":0,""viewing_time"":1548},{""page_index"":1,""viewing_time"":529}]","2077","instructions","0","2077","0.0-0.0","","","","","","","",""
"","null","html-keyboard-response","1","3200","0.0-1.0-0.0-0.0","<span style= ""font-size:30px; font-family: monospace"">+</span>","null","fixation","","","","",""
"","8268","html-keyboard-response","2","11734","0.0-1.0-1.0","<span style=""font-size:30px; font-family: monospace"">O</span>"," ","","prac-sent","O","","",""
"","6127","html-keyboard-response","3","18117","0.0-1.0-1.1","<span style=""font-size:30px; font-family: monospace"">dia</span>"," ","","prac-sent","dia","","",""
"","1477","html-keyboard-response","4","19845","0.0-1.0-1.2","<span style=""font-size:30px; font-family: monospace"">estará</span>"," ","","prac-sent","estará","","",""
"","1601","html-keyboard-response","5","21701","0.0-1.0-1.3","<span style=""font-size:30px; font-family: monospace"">cheio</span>"," ","","prac-sent","cheio","","",""
"","964","html-keyboard-response","6","22917","0.0-1.0-1.4","<span style=""font-size:30px; font-family: monospace"">de</span>"," ","","prac-sent","de","","",""
"","60692","html-keyboard-response","7","83860","0.0-1.0-1.5","<span style=""font-size:30px; font-family: monospace"">nuvens</span>"," ","","prac-sent","nuvens","","",""
"","5589","html-keyboard-response","8","89701","0.0-1.0-1.6","<span style=""font-size:30px; font-family: monospace"">hoje.</span>"," ","","prac-sent","hoje.","","",""
"","null","html-keyboard-response","9","90953","0.0-1.0-0.7-0.7","<span style= ""font-size:30px; font-family: monospace"">+</span>","null","fixation","","","","",""
"","2304","html-keyboard-response","10","93508","0.0-1.0-1.7","<span style=""font-size:30px; font-family: monospace"">A</span>"," ","","prac-sent","A","","",""
"","2230","html-keyboard-response","11","95989","0.0-1.0-1.8","<span style=""font-size:30px; font-family: monospace"">caneca</span>"," ","","prac-sent","caneca","","",""
"","1060","html-keyboard-response","12","97300","0.0-1.0-1.9","<span style=""font-size:30px; font-family: monospace"">colorida</span>"," ","","prac-sent","colorida","","",""
"","1125","html-keyboard-response","13","98676","0.0-1.0-1.10","<span style=""font-size:30px; font-family: monospace"">caiu</span>"," ","","prac-sent","caiu","","",""
"","1109","html-keyboard-response","14","100036","0.0-1.0-1.11","<span style=""font-size:30px; font-family: monospace"">da</span>"," ","","prac-sent","da","","",""
"","2052","html-keyboard-response","15","102340","0.0-1.0-1.12","<span style=""font-size:30px; font-family: monospace"">mesa</span>"," ","","prac-sent","mesa","","",""
"","613","html-keyboard-response","16","103205","0.0-1.0-1.13","<span style=""font-size:30px; font-family: monospace"">de</span>"," ","","prac-sent","de","","",""
"","4725","html-keyboard-response","17","108180","0.0-1.0-1.14","<span style=""font-size:30px; font-family: monospace"">jantar.</span>"," ","","prac-comp","jantar.","","",""
"","3012","html-keyboard-response","18","111444","0.0-1.0-2.14-0.14","<span style=""font-size:30px; font-family: monospace"">A caneca permaneceu na mesa?</span>","s","","prac-comp","","A caneca permaneceu na mesa?","não","false"
"[{""page_index"":0,""viewing_time"":5660}]","5661","instructions","19","117605","0.0-2.0","","","","","","","",""
"","null","html-keyboard-response","20","118707","0.0-3.0-0.0-0.0","<span style= ""font-size:30px; font-family: monospace"">+</span>","null","fixation","","","","",""
"","543","html-keyboard-response","21","119509","0.0-3.0-1.0","<span style=""font-size:30px; font-family: monospace"">As</span>"," ","","exp-sent","As","","",""
"","1253","html-keyboard-response","22","121013","0.0-3.0-1.1","<span style=""font-size:30px; font-family: monospace"">crianças</span>"," ","","exp-sent","crianças","","",""
"","812","html-keyboard-response","23","122084","0.0-3.0-1.2","<span style=""font-size:30px; font-family: monospace"">viram</span>"," ","","exp-sent","viram","","",""
"","1269","html-keyboard-response","24","123604","0.0-3.0-1.3","<span style=""font-size:30px; font-family: monospace"">um</span>"," ","","exp-sent","um","","",""
"","3908","html-keyboard-response","25","127765","0.0-3.0-1.4","<span style=""font-size:30px; font-family: monospace"">vaga-lume</span>"," ","","exp-sent","vaga-lume","","",""
"","933","html-keyboard-response","26","128948","0.0-3.0-1.5","<span style=""font-size:30px; font-family: monospace"">nos</span>"," ","","exp-sent","nos","","",""
"","3829","html-keyboard-response","27","133028","0.0-3.0-1.6","<span style=""font-size:30px; font-family: monospace"">arbustos.</span>"," ","","exp-sent","arbustos.","","",""
"","null","html-keyboard-response","28","134280","0.0-3.0-0.7-0.7","<span style= ""font-size:30px; font-family: monospace"">+</span>","null","fixation","","","","",""
"","673","html-keyboard-response","29","135204","0.0-3.0-1.7","<span style=""font-size:30px; font-family: monospace"">Ontem</span>"," ","","exp-sent","Ontem","","",""
"","532","html-keyboard-response","30","135988","0.0-3.0-1.8","<span style=""font-size:30px; font-family: monospace"">o</span>"," ","","exp-sent","o","","",""
"","2917","html-keyboard-response","31","139156","0.0-3.0-1.9","<span style=""font-size:30px; font-family: monospace"">funcionário</span>"," ","","exp-sent","funcionário","","",""
"","821","html-keyboard-response","32","140228","0.0-3.0-1.10","<span style=""font-size:30px; font-family: monospace"">pediu</span>"," ","","exp-sent","pediu","","",""
"","949","html-keyboard-response","33","141428","0.0-3.0-1.11","<span style=""font-size:30px; font-family: monospace"">autorização</span>"," ","","exp-sent","autorização","","",""
"","629","html-keyboard-response","34","142308","0.0-3.0-1.12","<span style=""font-size:30px; font-family: monospace"">para</span>"," ","","exp-sent","para","","",""
"","565","html-keyboard-response","35","143124","0.0-3.0-1.13","<span style=""font-size:30px; font-family: monospace"">a</span>"," ","","exp-sent","a","","",""
"","4619","html-keyboard-response","36","148004","0.0-3.0-1.14","<span style=""font-size:30px; font-family: monospace"">colega.</span>"," ","","exp-sent","colega.","","",""
"","null","html-keyboard-response","37","149256","0.0-3.0-0.15-0.15","<span style= ""font-size:30px; font-family: monospace"">+</span>","null","fixation","","","","",""
"","284","html-keyboard-response","38","149796","0.0-3.0-1.15","<span style=""font-size:30px; font-family: monospace"">Eu</span>"," ","","exp-sent","Eu","","",""
"","900","html-keyboard-response","39","150948","0.0-3.0-1.16","<span style=""font-size:30px; font-family: monospace"">sempre</span>"," ","","exp-sent","sempre","","",""
"","453","html-keyboard-response","40","151652","0.0-3.0-1.17","<span style=""font-size:30px; font-family: monospace"">fujo</span>"," ","","exp-sent","fujo","","",""
"","661","html-keyboard-response","41","152564","0.0-3.0-1.18","<span style=""font-size:30px; font-family: monospace"">de</span>"," ","","exp-sent","de","","",""
"","1173","html-keyboard-response","42","153988","0.0-3.0-1.19","<span style=""font-size:30px; font-family: monospace"">conflito</span>"," ","","exp-sent","conflito","","",""
"","645","html-keyboard-response","43","154884","0.0-3.0-1.20","<span style=""font-size:30px; font-family: monospace"">com</span>"," ","","exp-sent","com","","",""
"","571","html-keyboard-response","44","155716","0.0-3.0-1.21","<span style=""font-size:30px; font-family: monospace"">as</span>"," ","","exp-sent","as","","",""
"","3797","html-keyboard-response","45","159764","0.0-3.0-1.22","<span style=""font-size:30px; font-family: monospace"">pessoas.</span>"," ","","exp-sent","pessoas.","","",""
"","null","html-keyboard-response","46","161025","0.0-3.0-0.23-0.23","<span style= ""font-size:30px; font-family: monospace"">+</span>","null","fixation","","","","",""
"","168","html-keyboard-response","47","161444","0.0-3.0-1.23","<span style=""font-size:30px; font-family: monospace"">O</span>"," ","","exp-sent","O","","",""
"","1189","html-keyboard-response","48","162884","0.0-3.0-1.24","<span style=""font-size:30px; font-family: monospace"">bolo</span>"," ","","exp-sent","bolo","","",""
"","661","html-keyboard-response","49","163796","0.0-3.0-1.25","<span style=""font-size:30px; font-family: monospace"">era</span>"," ","","exp-sent","era","","",""
"","548","html-keyboard-response","50","164596","0.0-3.0-1.26","<span style=""font-size:30px; font-family: monospace"">de</span>"," ","","exp-sent","de","","",""
"","677","html-keyboard-response","51","165524","0.0-3.0-1.27","<span style=""font-size:30px; font-family: monospace"">abacaxi</span>"," ","","exp-sent","abacaxi","","",""
"","821","html-keyboard-response","52","166596","0.0-3.0-1.28","<span style=""font-size:30px; font-family: monospace"">e</span>"," ","","exp-sent","e","","",""
"","708","html-keyboard-response","53","167556","0.0-3.0-1.29","<span style=""font-size:30px; font-family: monospace"">creme</span>"," ","","exp-sent","creme","","",""
"","676","html-keyboard-response","54","168484","0.0-3.0-1.30","<span style=""font-size:30px; font-family: monospace"">de</span>"," ","","exp-sent","de","","",""
"","1861","html-keyboard-response","55","170596","0.0-3.0-1.31","<span style=""font-size:30px; font-family: monospace"">coco.</span>"," ","","exp-sent","coco.","","",""
"","null","html-keyboard-response","56","171849","0.0-3.0-0.32-0.32","<span style= ""font-size:30px; font-family: monospace"">+</span>","null","fixation","","","","",""
"","129","html-keyboard-response","57","172228","0.0-3.0-1.32","<span style=""font-size:30px; font-family: monospace"">As</span>"," ","","exp-sent","As","","",""
"","1301","html-keyboard-response","58","173780","0.0-3.0-1.33","<span style=""font-size:30px; font-family: monospace"">crianças</span>"," ","","exp-sent","crianças","","",""
"","1157","html-keyboard-response","59","175188","0.0-3.0-1.34","<span style=""font-size:30px; font-family: monospace"">brincaram</span>"," ","","exp-sent","brincaram","","",""
"","933","html-keyboard-response","60","176372","0.0-3.0-1.35","<span style=""font-size:30px; font-family: monospace"">com</span>"," ","","exp-sent","com","","",""
"","2549","html-keyboard-response","61","179172","0.0-3.0-1.36","<span style=""font-size:30px; font-family: monospace"">bolhas</span>"," ","","exp-sent","bolhas","","",""
"","725","html-keyboard-response","62","180148","0.0-3.0-1.37","<span style=""font-size:30px; font-family: monospace"">no</span>"," ","","exp-sent","no","","",""
"","6998","html-keyboard-response","63","187396","0.0-3.0-1.38","<span style=""font-size:30px; font-family: monospace"">banho.</span>"," ","","comp","banho.","","",""
"","4741","html-keyboard-response","64","192388","0.0-3.0-2.38-0.38","<span style=""font-size:30px; font-family: monospace"">As crianças brincaram com bolhas?</span>","s","","comp","","As crianças brincaram com bolhas?","sim","false"
"","null","html-keyboard-response","65","193890","0.0-3.0-0.39-0.39","<span style= ""font-size:30px; font-family: monospace"">+</span>","null","fixation","","","","",""
"","1702","html-keyboard-response","66","195844","0.0-3.0-1.39","<span style=""font-size:30px; font-family: monospace"">A</span>"," ","","exp-sent","A","","",""
"","713","html-keyboard-response","67","196820","0.0-3.0-1.40","<span style=""font-size:30px; font-family: monospace"">senhora</span>"," ","","exp-sent","senhora","","",""
"","2949","html-keyboard-response","68","200020","0.0-3.0-1.41","<span style=""font-size:30px; font-family: monospace"">cumprimentou</span>"," ","","exp-sent","cumprimentou","","",""
"","596","html-keyboard-response","69","200868","0.0-3.0-1.42","<span style=""font-size:30px; font-family: monospace"">o</span>"," ","","exp-sent","o","","",""
"","1018","html-keyboard-response","70","202148","0.0-3.0-1.43","<span style=""font-size:30px; font-family: monospace"">operador</span>"," ","","exp-sent","operador","","",""
"","629","html-keyboard-response","71","203028","0.0-3.0-1.44","<span style=""font-size:30px; font-family: monospace"">de</span>"," ","","exp-sent","de","","",""
"","6901","html-keyboard-response","72","210180","0.0-3.0-1.45","<span style=""font-size:30px; font-family: monospace"">caixa.</span>"," ","","exp-sent","caixa.","","",""
"","null","html-keyboard-response","73","211434","0.0-3.0-0.46-0.46","<span style= ""font-size:30px; font-family: monospace"">+</span>","null","fixation","","","","",""
"","15","html-keyboard-response","74","211700","0.0-3.0-1.46","<span style=""font-size:30px; font-family: monospace"">A</span>"," ","","exp-sent","A","","",""
"","502","html-keyboard-response","75","212452","0.0-3.0-1.47","<span style=""font-size:30px; font-family: monospace"">gente</span>"," ","","exp-sent","gente","","",""
"","789","html-keyboard-response","76","213492","0.0-3.0-1.48","<span style=""font-size:30px; font-family: monospace"">viu</span>"," ","","exp-sent","viu","","",""
"","641","html-keyboard-response","77","214388","0.0-3.0-1.49","<span style=""font-size:30px; font-family: monospace"">o</span>"," ","","exp-sent","o","","",""
"","2517","html-keyboard-response","78","217156","0.0-3.0-1.50","<span style=""font-size:30px; font-family: monospace"">eclipse</span>"," ","","exp-sent","eclipse","","",""
"","1333","html-keyboard-response","79","218740","0.0-3.0-1.51","<span style=""font-size:30px; font-family: monospace"">lunar</span>"," ","","exp-sent","lunar","","",""
"","1237","html-keyboard-response","80","220228","0.0-3.0-1.52","<span style=""font-size:30px; font-family: monospace"">durante</span>"," ","","exp-sent","durante","","",""
"","853","html-keyboard-response","81","221332","0.0-3.0-1.53","<span style=""font-size:30px; font-family: monospace"">o</span>"," ","","exp-sent","o","","",""
"","2851","html-keyboard-response","82","224436","0.0-3.0-1.54","<span style=""font-size:30px; font-family: monospace"">dia.</span>"," ","","exp-sent","dia.","","",""
"","null","html-keyboard-response","83","225688","0.0-3.0-0.55-0.55","<span style= ""font-size:30px; font-family: monospace"">+</span>","null","fixation","","","","",""
"","80","html-keyboard-response","84","226020","0.0-3.0-1.55","<span style=""font-size:30px; font-family: monospace"">A</span>"," ","","exp-sent","A","","",""
"","2437","html-keyboard-response","85","228708","0.0-3.0-1.56","<span style=""font-size:30px; font-family: monospace"">mordida</span>"," ","","exp-sent","mordida","","",""
"","741","html-keyboard-response","86","229700","0.0-3.0-1.57","<span style=""font-size:30px; font-family: monospace"">do</span>"," ","","exp-sent","do","","",""
"","1813","html-keyboard-response","87","231764","0.0-3.0-1.58","<span style=""font-size:30px; font-family: monospace"">cachorro</span>"," ","","exp-sent","cachorro","","",""
"","2405","html-keyboard-response","88","234420","0.0-3.0-1.59","<span style=""font-size:30px; font-family: monospace"">voraz</span>"," ","","exp-sent","voraz","","",""
"","4901","html-keyboard-response","89","239572","0.0-3.0-1.60","<span style=""font-size:30px; font-family: monospace"">causou</span>"," ","","exp-sent","causou","","",""
"","821","html-keyboard-response","90","240644","0.0-3.0-1.61","<span style=""font-size:30px; font-family: monospace"">uma</span>"," ","","exp-sent","uma","","",""
"","6373","html-keyboard-response","91","247268","0.0-3.0-1.62","<span style=""font-size:30px; font-family: monospace"">cicatriz.</span>"," ","","exp-sent","cicatriz.","","",""
"","null","html-keyboard-response","92","248519","0.0-3.0-0.63-0.63","<span style= ""font-size:30px; font-family: monospace"">+</span>","null","fixation","","","","",""
"","466","html-keyboard-response","93","249236","0.0-3.0-1.63","<span style=""font-size:30px; font-family: monospace"">Elas</span>"," ","","exp-sent","Elas","","",""
"","1349","html-keyboard-response","94","250836","0.0-3.0-1.64","<span style=""font-size:30px; font-family: monospace"">não</span>"," ","","exp-sent","não","","",""
"","692","html-keyboard-response","95","251780","0.0-3.0-1.65","<span style=""font-size:30px; font-family: monospace"">viram</span>"," ","","exp-sent","viram","","",""
"","1029","html-keyboard-response","96","253060","0.0-3.0-1.66","<span style=""font-size:30px; font-family: monospace"">nenhuma</span>"," ","","exp-sent","nenhuma","","",""
"","1845","html-keyboard-response","97","255156","0.0-3.0-1.67","<span style=""font-size:30px; font-family: monospace"">diferença</span>"," ","","exp-sent","diferença","","",""
"","661","html-keyboard-response","98","256068","0.0-3.0-1.68","<span style=""font-size:30px; font-family: monospace"">entre</span>"," ","","exp-sent","entre","","",""
"","645","html-keyboard-response","99","256964","0.0-3.0-1.69","<span style=""font-size:30px; font-family: monospace"">os</span>"," ","","exp-sent","os","","",""
"","6081","html-keyboard-response","100","263300","0.0-3.0-1.70","<span style=""font-size:30px; font-family: monospace"">textos.</span>"," ","","exp-sent","textos.","","",""
"","null","html-keyboard-response","101","264552","0.0-3.0-0.71-0.71","<span style= ""font-size:30px; font-family: monospace"">+</span>","null","fixation","","","","",""
"","1344","html-keyboard-response","102","266148","0.0-3.0-1.71","<span style=""font-size:30px; font-family: monospace"">Amanhã</span>"," ","","exp-sent","Amanhã","","",""
"","694","html-keyboard-response","103","267092","0.0-3.0-1.72","<span style=""font-size:30px; font-family: monospace"">vai</span>"," ","","exp-sent","vai","","",""
"","672","html-keyboard-response","104","268020","0.0-3.0-1.73","<span style=""font-size:30px; font-family: monospace"">ter</span>"," ","","exp-sent","ter","","",""
"","581","html-keyboard-response","105","268852","0.0-3.0-1.74","<span style=""font-size:30px; font-family: monospace"">um</span>"," ","","exp-sent","um","","",""
"","2341","html-keyboard-response","106","271444","0.0-3.0-1.75","<span style=""font-size:30px; font-family: monospace"">bazar</span>"," ","","exp-sent","bazar","","",""
"","677","html-keyboard-response","107","272372","0.0-3.0-1.76","<span style=""font-size:30px; font-family: monospace"">no</span>"," ","","exp-sent","no","","",""
"","5076","html-keyboard-response","108","277700","0.0-3.0-1.77","<span style=""font-size:30px; font-family: monospace"">bairro.</span>"," ","","comp","bairro.","","",""
"","6741","html-keyboard-response","109","284692","0.0-3.0-2.77-0.77","<span style=""font-size:30px; font-family: monospace"">Amanhã vai acontecer um bazar no bairro?</span>","n","","comp","","Amanhã vai acontecer um bazar no bairro?","sim","false"
"","null","html-keyboard-response","110","286194","0.0-3.0-0.78-0.78","<span style= ""font-size:30px; font-family: monospace"">+</span>","null","fixation","","","","",""
"","3927","html-keyboard-response","111","290372","0.0-3.0-1.78","<span style=""font-size:30px; font-family: monospace"">Ursos</span>"," ","","exp-sent","Ursos","","",""
"","757","html-keyboard-response","112","291380","0.0-3.0-1.79","<span style=""font-size:30px; font-family: monospace"">têm</span>"," ","","exp-sent","têm","","",""
"","773","html-keyboard-response","113","292404","0.0-3.0-1.80","<span style=""font-size:30px; font-family: monospace"">uma</span>"," ","","exp-sent","uma","","",""
"","3429","html-keyboard-response","114","296084","0.0-3.0-1.81","<span style=""font-size:30px; font-family: monospace"">patada</span>"," ","","exp-sent","patada","","",""
"","1445","html-keyboard-response","115","297780","0.0-3.0-1.82","<span style=""font-size:30px; font-family: monospace"">brutal</span>"," ","","exp-sent","brutal","","",""
"","692","html-keyboard-response","116","298724","0.0-3.0-1.83","<span style=""font-size:30px; font-family: monospace"">e</span>"," ","","exp-sent","e","","",""
"","2645","html-keyboard-response","117","301620","0.0-3.0-1.84","<span style=""font-size:30px; font-family: monospace"">poderosa.</span>"," ","","exp-sent","poderosa.","","",""
"","null","html-keyboard-response","118","302871","0.0-3.0-0.85-0.85","<span style= ""font-size:30px; font-family: monospace"">+</span>","null","fixation","","","","",""
"","2386","html-keyboard-response","119","305508","0.0-3.0-1.85","<span style=""font-size:30px; font-family: monospace"">Eu</span>"," ","","exp-sent","Eu","","",""
"","1021","html-keyboard-response","120","306788","0.0-3.0-1.86","<span style=""font-size:30px; font-family: monospace"">fiz</span>"," ","","exp-sent","fiz","","",""
"","1238","html-keyboard-response","121","308276","0.0-3.0-1.87","<span style=""font-size:30px; font-family: monospace"">aulas</span>"," ","","exp-sent","aulas","","",""
"","612","html-keyboard-response","122","309140","0.0-3.0-1.88","<span style=""font-size:30px; font-family: monospace"">de</span>"," ","","exp-sent","de","","",""
"","1333","html-keyboard-response","123","310724","0.0-3.0-1.89","<span style=""font-size:30px; font-family: monospace"">espanhol</span>"," ","","exp-sent","espanhol","","",""
"","1029","html-keyboard-response","124","312004","0.0-3.0-1.90","<span style=""font-size:30px; font-family: monospace"">nesta</span>"," ","","exp-sent","nesta","","",""
"","4293","html-keyboard-response","125","316548","0.0-3.0-1.91","<span style=""font-size:30px; font-family: monospace"">cidade.</span>"," ","","exp-sent","cidade.","","",""
"","null","html-keyboard-response","126","317800","0.0-3.0-0.92-0.92","<span style= ""font-size:30px; font-family: monospace"">+</span>","null","fixation","","","","",""
"","705","html-keyboard-response","127","318755","0.0-3.0-1.92","<span style=""font-size:30px; font-family: monospace"">Ele</span>"," ","","exp-sent","Ele","","",""
"","1093","html-keyboard-response","128","320100","0.0-3.0-1.93","<span style=""font-size:30px; font-family: monospace"">comprou</span>"," ","","exp-sent","comprou","","",""
"","773","html-keyboard-response","129","321123","0.0-3.0-1.94","<span style=""font-size:30px; font-family: monospace"">mais</span>"," ","","exp-sent","mais","","",""
"","725","html-keyboard-response","130","322100","0.0-3.0-1.95","<span style=""font-size:30px; font-family: monospace"">uma</span>"," ","","exp-sent","uma","","",""
"","1125","html-keyboard-response","131","323475","0.0-3.0-1.96","<span style=""font-size:30px; font-family: monospace"">esponja</span>"," ","","exp-sent","esponja","","",""
"","660","html-keyboard-response","132","324387","0.0-3.0-1.97","<span style=""font-size:30px; font-family: monospace"">para</span>"," ","","exp-sent","para","","",""
"","773","html-keyboard-response","133","325411","0.0-3.0-1.98","<span style=""font-size:30px; font-family: monospace"">a</span>"," ","","exp-sent","a","","",""
"","2341","html-keyboard-response","134","328003","0.0-3.0-1.99","<span style=""font-size:30px; font-family: monospace"">cozinha.</span>"," ","","exp-sent","cozinha.","","",""
"","null","html-keyboard-response","135","329255","0.0-3.0-0.100-0.100","<span style= ""font-size:30px; font-family: monospace"">+</span>","null","fixation","","","","",""
"","525","html-keyboard-response","136","330035","0.0-3.0-1.100","<span style=""font-size:30px; font-family: monospace"">Ele</span>"," ","","exp-sent","Ele","","",""
"","804","html-keyboard-response","137","331092","0.0-3.0-1.101","<span style=""font-size:30px; font-family: monospace"">teve</span>"," ","","exp-sent","teve","","",""
"","533","html-keyboard-response","138","331875","0.0-3.0-1.102","<span style=""font-size:30px; font-family: monospace"">um</span>"," ","","exp-sent","um","","",""
"","645","html-keyboard-response","139","332772","0.0-3.0-1.103","<span style=""font-size:30px; font-family: monospace"">sono</span>"," ","","exp-sent","sono","","",""
"","2180","html-keyboard-response","140","335203","0.0-3.0-1.104","<span style=""font-size:30px; font-family: monospace"">bizarro</span>"," ","","exp-sent","bizarro","","",""
"","869","html-keyboard-response","141","336324","0.0-3.0-1.105","<span style=""font-size:30px; font-family: monospace"">sem</span>"," ","","exp-sent","sem","","",""
"","1013","html-keyboard-response","142","337587","0.0-3.0-1.106","<span style=""font-size:30px; font-family: monospace"">nenhum</span>"," ","","exp-sent","nenhum","","",""
"","3158","html-keyboard-response","143","340996","0.0-3.0-1.107","<span style=""font-size:30px; font-family: monospace"">motivo.</span>"," ","","exp-sent","motivo.","","",""
"","null","html-keyboard-response","144","342248","0.0-3.0-0.108-0.108","<span style= ""font-size:30px; font-family: monospace"">+</span>","null","fixation","","","","",""
"","481","html-keyboard-response","145","342980","0.0-3.0-1.108","<span style=""font-size:30px; font-family: monospace"">A</span>"," ","","exp-sent","A","","",""
"","677","html-keyboard-response","146","343907","0.0-3.0-1.109","<span style=""font-size:30px; font-family: monospace"">moça</span>"," ","","exp-sent","moça","","",""
"","869","html-keyboard-response","147","345028","0.0-3.0-1.110","<span style=""font-size:30px; font-family: monospace"">comprou</span>"," ","","exp-sent","comprou","","",""
"","628","html-keyboard-response","148","345907","0.0-3.0-1.111","<span style=""font-size:30px; font-family: monospace"">um</span>"," ","","exp-sent","um","","",""
"","1317","html-keyboard-response","149","347475","0.0-3.0-1.112","<span style=""font-size:30px; font-family: monospace"">diamante</span>"," ","","exp-sent","diamante","","",""
"","602","html-keyboard-response","150","348339","0.0-3.0-1.113","<span style=""font-size:30px; font-family: monospace"">para</span>"," ","","exp-sent","para","","",""
"","789","html-keyboard-response","151","349379","0.0-3.0-1.114","<span style=""font-size:30px; font-family: monospace"">sua</span>"," ","","exp-sent","sua","","",""
"","886","html-keyboard-response","152","350515","0.0-3.0-1.115","<span style=""font-size:30px; font-family: monospace"">prima.</span>"," ","","comp","prima.","","",""
"","9589","html-keyboard-response","153","360355","0.0-3.0-2.115-0.115","<span style=""font-size:30px; font-family: monospace"">A moça comprou um diamante?</span>","s","","comp","","A moça comprou um diamante?","sim","false"
"","null","html-keyboard-response","154","361857","0.0-3.0-0.116-0.116","<span style= ""font-size:30px; font-family: monospace"">+</span>","null","fixation","","","","",""
"","344","html-keyboard-response","155","362452","0.0-3.0-1.116","<span style=""font-size:30px; font-family: monospace"">Ele</span>"," ","","exp-sent","Ele","","",""
"","676","html-keyboard-response","156","363380","0.0-3.0-1.117","<span style=""font-size:30px; font-family: monospace"">é</span>"," ","","exp-sent","é","","",""
"","565","html-keyboard-response","157","364195","0.0-3.0-1.118","<span style=""font-size:30px; font-family: monospace"">um</span>"," ","","exp-sent","um","","",""
"","901","html-keyboard-response","158","365347","0.0-3.0-1.119","<span style=""font-size:30px; font-family: monospace"">pai</span>"," ","","exp-sent","pai","","",""
"","2741","html-keyboard-response","159","368339","0.0-3.0-1.120","<span style=""font-size:30px; font-family: monospace"">ausente</span>"," ","","exp-sent","ausente","","",""
"","677","html-keyboard-response","160","369267","0.0-3.0-1.121","<span style=""font-size:30px; font-family: monospace"">e</span>"," ","","exp-sent","e","","",""
"","805","html-keyboard-response","161","370323","0.0-3.0-1.122","<span style=""font-size:30px; font-family: monospace"">muito</span>"," ","","exp-sent","muito","","",""
"","7797","html-keyboard-response","162","378371","0.0-3.0-1.123","<span style=""font-size:30px; font-family: monospace"">fofoqueiro.</span>"," ","","exp-sent","fofoqueiro.","","",""
"","null","html-keyboard-response","163","379622","0.0-3.0-0.124-0.124","<span style= ""font-size:30px; font-family: monospace"">+</span>","null","fixation","","","","",""
"","530","html-keyboard-response","164","380403","0.0-3.0-1.124","<span style=""font-size:30px; font-family: monospace"">O</span>"," ","","exp-sent","O","","",""
"","869","html-keyboard-response","165","381523","0.0-3.0-1.125","<span style=""font-size:30px; font-family: monospace"">filho</span>"," ","","exp-sent","filho","","",""
"","917","html-keyboard-response","166","382691","0.0-3.0-1.126","<span style=""font-size:30px; font-family: monospace"">lavou</span>"," ","","exp-sent","lavou","","",""
"","677","html-keyboard-response","167","383619","0.0-3.0-1.127","<span style=""font-size:30px; font-family: monospace"">a</span>"," ","","exp-sent","a","","",""
"","949","html-keyboard-response","168","384819","0.0-3.0-1.128","<span style=""font-size:30px; font-family: monospace"">roupa</span>"," ","","exp-sent","roupa","","",""
"","677","html-keyboard-response","169","385747","0.0-3.0-1.129","<span style=""font-size:30px; font-family: monospace"">sem</span>"," ","","exp-sent","sem","","",""
"","917","html-keyboard-response","170","386915","0.0-3.0-1.130","<span style=""font-size:30px; font-family: monospace"">nenhuma</span>"," ","","exp-sent","nenhuma","","",""
"","11764","html-keyboard-response","171","398931","0.0-3.0-1.131","<span style=""font-size:30px; font-family: monospace"">ajuda.</span>"," ","","exp-sent","ajuda.","","",""
"","null","html-keyboard-response","172","400184","0.0-3.0-0.132-0.132","<span style= ""font-size:30px; font-family: monospace"">+</span>","null","fixation","","","","",""
"","128","html-keyboard-response","173","400563","0.0-3.0-1.132","<span style=""font-size:30px; font-family: monospace"">O</span>"," ","","exp-sent","O","","",""
"","2368","html-keyboard-response","174","403187","0.0-3.0-1.133","<span style=""font-size:30px; font-family: monospace"">menino</span>"," ","","exp-sent","menino","","",""
"","1156","html-keyboard-response","175","404595","0.0-3.0-1.134","<span style=""font-size:30px; font-family: monospace"">quebrou</span>"," ","","exp-sent","quebrou","","",""
"","596","html-keyboard-response","176","405443","0.0-3.0-1.135","<span style=""font-size:30px; font-family: monospace"">a</span>"," ","","exp-sent","a","","",""
"","1685","html-keyboard-response","177","407379","0.0-3.0-1.136","<span style=""font-size:30px; font-family: monospace"">perna</span>"," ","","exp-sent","perna","","",""
"","661","html-keyboard-response","178","408291","0.0-3.0-1.137","<span style=""font-size:30px; font-family: monospace"">nos</span>"," ","","exp-sent","nos","","",""
"","3125","html-keyboard-response","179","411667","0.0-3.0-1.138","<span style=""font-size:30px; font-family: monospace"">esportes.</span>"," ","","exp-sent","esportes.","","",""
"","null","html-keyboard-response","180","412919","0.0-3.0-0.139-0.139","<span style= ""font-size:30px; font-family: monospace"">+</span>","null","fixation","","","","",""
"","720","html-keyboard-response","181","413891","0.0-3.0-1.139","<span style=""font-size:30px; font-family: monospace"">Ela</span>"," ","","exp-sent","Ela","","",""
"","1848","html-keyboard-response","182","416003","0.0-3.0-1.140","<span style=""font-size:30px; font-family: monospace"">brincou</span>"," ","","exp-sent","brincou","","",""
"","629","html-keyboard-response","183","416883","0.0-3.0-1.141","<span style=""font-size:30px; font-family: monospace"">com</span>"," ","","exp-sent","com","","",""
"","806","html-keyboard-response","184","417939","0.0-3.0-1.142","<span style=""font-size:30px; font-family: monospace"">uma</span>"," ","","exp-sent","uma","","",""
"","1397","html-keyboard-response","185","419587","0.0-3.0-1.143","<span style=""font-size:30px; font-family: monospace"">menina</span>"," ","","exp-sent","menina","","",""
"","821","html-keyboard-response","186","420659","0.0-3.0-1.144","<span style=""font-size:30px; font-family: monospace"">da</span>"," ","","exp-sent","da","","",""
"","5061","html-keyboard-response","187","425971","0.0-3.0-1.145","<span style=""font-size:30px; font-family: monospace"">turma.</span>"," ","","exp-sent","turma.","","",""
"","null","html-keyboard-response","188","427223","0.0-3.0-0.146-0.146","<span style= ""font-size:30px; font-family: monospace"">+</span>","null","fixation","","","","",""
"","753","html-keyboard-response","189","428227","0.0-3.0-1.146","<span style=""font-size:30px; font-family: monospace"">Ele</span>"," ","","exp-sent","Ele","","",""
"","756","html-keyboard-response","190","429235","0.0-3.0-1.147","<span style=""font-size:30px; font-family: monospace"">esteve</span>"," ","","exp-sent","esteve","","",""
"","581","html-keyboard-response","191","430067","0.0-3.0-1.148","<span style=""font-size:30px; font-family: monospace"">no</span>"," ","","exp-sent","no","","",""
"","1493","html-keyboard-response","192","431811","0.0-3.0-1.149","<span style=""font-size:30px; font-family: monospace"">escritório</span>"," ","","exp-sent","escritório","","",""
"","733","html-keyboard-response","193","432803","0.0-3.0-1.150","<span style=""font-size:30px; font-family: monospace"">o</span>"," ","","exp-sent","o","","",""
"","661","html-keyboard-response","194","433715","0.0-3.0-1.151","<span style=""font-size:30px; font-family: monospace"">dia</span>"," ","","exp-sent","dia","","",""
"","3140","html-keyboard-response","195","437107","0.0-3.0-1.152","<span style=""font-size:30px; font-family: monospace"">inteiro.</span>"," ","","comp","inteiro.","","",""
"","4336","html-keyboard-response","196","441699","0.0-3.0-2.152-0.152","<span style=""font-size:30px; font-family: monospace"">Ele esteve no parque o dia inteiro?</span>","s","","comp","","Ele esteve no parque o dia inteiro?","não","false"
"","null","html-keyboard-response","197","443201","0.0-3.0-0.153-0.153","<span style= ""font-size:30px; font-family: monospace"">+</span>","null","fixation","","","","",""
"","663","html-keyboard-response","198","444115","0.0-3.0-1.153","<span style=""font-size:30px; font-family: monospace"">No</span>"," ","","exp-sent","No","","",""
"","2660","html-keyboard-response","199","447027","0.0-3.0-1.154","<span style=""font-size:30px; font-family: monospace"">passado</span>"," ","","exp-sent","passado","","",""
"","885","html-keyboard-response","200","448163","0.0-3.0-1.155","<span style=""font-size:30px; font-family: monospace"">houve</span>"," ","","exp-sent","houve","","",""
"","661","html-keyboard-response","201","449075","0.0-3.0-1.156","<span style=""font-size:30px; font-family: monospace"">uma</span>"," ","","exp-sent","uma","","",""
"","2212","html-keyboard-response","202","451539","0.0-3.0-1.157","<span style=""font-size:30px; font-family: monospace"">rebelião</span>"," ","","exp-sent","rebelião","","",""
"","2693","html-keyboard-response","203","454483","0.0-3.0-1.158","<span style=""font-size:30px; font-family: monospace"">nesta</span>"," ","","exp-sent","nesta","","",""
"","2549","html-keyboard-response","204","457283","0.0-3.0-1.159","<span style=""font-size:30px; font-family: monospace"">cidade.</span>"," ","","exp-sent","cidade.","","",""
"","null","html-keyboard-response","205","458535","0.0-3.0-0.160-0.160","<span style= ""font-size:30px; font-family: monospace"">+</span>","null","fixation","","","","",""
"","589","html-keyboard-response","206","459379","0.0-3.0-1.160","<span style=""font-size:30px; font-family: monospace"">Ele</span>"," ","","exp-sent","Ele","","",""
"","1029","html-keyboard-response","207","460659","0.0-3.0-1.161","<span style=""font-size:30px; font-family: monospace"">fundou</span>"," ","","exp-sent","fundou","","",""
"","869","html-keyboard-response","208","461779","0.0-3.0-1.162","<span style=""font-size:30px; font-family: monospace"">uma</span>"," ","","exp-sent","uma","","",""
"","821","html-keyboard-response","209","462851","0.0-3.0-1.163","<span style=""font-size:30px; font-family: monospace"">empresa</span>"," ","","exp-sent","empresa","","",""
"","869","html-keyboard-response","210","463971","0.0-3.0-1.164","<span style=""font-size:30px; font-family: monospace"">privada</span>"," ","","exp-sent","privada","","",""
"","1141","html-keyboard-response","211","465363","0.0-3.0-1.165","<span style=""font-size:30px; font-family: monospace"">sem</span>"," ","","exp-sent","sem","","",""
"","2980","html-keyboard-response","212","468595","0.0-3.0-1.166","<span style=""font-size:30px; font-family: monospace"">ajuda.</span>"," ","","exp-sent","ajuda.","","",""
"","null","html-keyboard-response","213","469847","0.0-3.0-0.167-0.167","<span style= ""font-size:30px; font-family: monospace"">+</span>","null","fixation","","","","",""
"","1505","html-keyboard-response","214","471603","0.0-3.0-1.167","<span style=""font-size:30px; font-family: monospace"">As</span>"," ","","exp-sent","As","","",""
"","1510","html-keyboard-response","215","473379","0.0-3.0-1.168","<span style=""font-size:30px; font-family: monospace"">meninas</span>"," ","","exp-sent","meninas","","",""
"","1669","html-keyboard-response","216","475299","0.0-3.0-1.169","<span style=""font-size:30px; font-family: monospace"">encontraram</span>"," ","","exp-sent","encontraram","","",""
"","628","html-keyboard-response","217","476179","0.0-3.0-1.170","<span style=""font-size:30px; font-family: monospace"">um</span>"," ","","exp-sent","um","","",""
"","901","html-keyboard-response","218","477331","0.0-3.0-1.171","<span style=""font-size:30px; font-family: monospace"">rato</span>"," ","","exp-sent","rato","","",""
"","1029","html-keyboard-response","219","478611","0.0-3.0-1.172","<span style=""font-size:30px; font-family: monospace"">dentro</span>"," ","","exp-sent","dentro","","",""
"","644","html-keyboard-response","220","479507","0.0-3.0-1.173","<span style=""font-size:30px; font-family: monospace"">de</span>"," ","","exp-sent","de","","",""
"","912","html-keyboard-response","221","480676","0.0-3.0-1.174","<span style=""font-size:30px; font-family: monospace"">casa.</span>"," ","","exp-sent","casa.","","",""
"","null","html-keyboard-response","222","481937","0.0-3.0-0.175-0.175","<span style= ""font-size:30px; font-family: monospace"">+</span>","null","fixation","","","","",""
"","3911","html-keyboard-response","223","486099","0.0-3.0-1.175","<span style=""font-size:30px; font-family: monospace"">O</span>"," ","","exp-sent","O","","",""
"","725","html-keyboard-response","224","487075","0.0-3.0-1.176","<span style=""font-size:30px; font-family: monospace"">texto</span>"," ","","exp-sent","texto","","",""
"","708","html-keyboard-response","225","488035","0.0-3.0-1.177","<span style=""font-size:30px; font-family: monospace"">tinha</span>"," ","","exp-sent","tinha","","",""
"","821","html-keyboard-response","226","489107","0.0-3.0-1.178","<span style=""font-size:30px; font-family: monospace"">ideias</span>"," ","","exp-sent","ideias","","",""
"","885","html-keyboard-response","227","490243","0.0-3.0-1.179","<span style=""font-size:30px; font-family: monospace"">vagas</span>"," ","","exp-sent","vagas","","",""
"","757","html-keyboard-response","228","491251","0.0-3.0-1.180","<span style=""font-size:30px; font-family: monospace"">e</span>"," ","","exp-sent","e","","",""
"","3924","html-keyboard-response","229","495427","0.0-3.0-1.181","<span style=""font-size:30px; font-family: monospace"">confusas.</span>"," ","","exp-sent","confusas.","","",""
"","null","html-keyboard-response","230","496678","0.0-3.0-0.182-0.182","<span style= ""font-size:30px; font-family: monospace"">+</span>","null","fixation","","","","",""
"","1857","html-keyboard-response","231","498787","0.0-3.0-1.182","<span style=""font-size:30px; font-family: monospace"">As</span>"," ","","exp-sent","As","","",""
"","1140","html-keyboard-response","232","500179","0.0-3.0-1.183","<span style=""font-size:30px; font-family: monospace"">crianças</span>"," ","","exp-sent","crianças","","",""
"","629","html-keyboard-response","233","501059","0.0-3.0-1.184","<span style=""font-size:30px; font-family: monospace"">viram</span>"," ","","exp-sent","viram","","",""
"","581","html-keyboard-response","234","501891","0.0-3.0-1.185","<span style=""font-size:30px; font-family: monospace"">a</span>"," ","","exp-sent","a","","",""
"","1637","html-keyboard-response","235","503779","0.0-3.0-1.186","<span style=""font-size:30px; font-family: monospace"">acrobata</span>"," ","","exp-sent","acrobata","","",""
"","1189","html-keyboard-response","236","505219","0.0-3.0-1.187","<span style=""font-size:30px; font-family: monospace"">talentosa</span>"," ","","exp-sent","talentosa","","",""
"","597","html-keyboard-response","237","506066","0.0-3.0-1.188","<span style=""font-size:30px; font-family: monospace"">no</span>"," ","","exp-sent","no","","",""
"","4149","html-keyboard-response","238","510467","0.0-3.0-1.189","<span style=""font-size:30px; font-family: monospace"">circo.</span>"," ","","comp","circo.","","",""
"","11157","html-keyboard-response","239","521875","0.0-3.0-2.189-0.189","<span style=""font-size:30px; font-family: monospace"">As crianças viram o palhaço no circo?</span>","n","","comp","","As crianças viram o palhaço no circo?","não","false"
"","null","html-keyboard-response","240","523377","0.0-3.0-0.190-0.190","<span style= ""font-size:30px; font-family: monospace"">+</span>","null","fixation","","","","",""
"","1126","html-keyboard-response","241","524755","0.0-3.0-1.190","<span style=""font-size:30px; font-family: monospace"">Minha</span>"," ","","exp-sent","Minha","","",""
"","757","html-keyboard-response","242","525763","0.0-3.0-1.191","<span style=""font-size:30px; font-family: monospace"">prima</span>"," ","","exp-sent","prima","","",""
"","1925","html-keyboard-response","243","527939","0.0-3.0-1.192","<span style=""font-size:30px; font-family: monospace"">trocou</span>"," ","","exp-sent","trocou","","",""
"","629","html-keyboard-response","244","528819","0.0-3.0-1.193","<span style=""font-size:30px; font-family: monospace"">a</span>"," ","","exp-sent","a","","",""
"","725","html-keyboard-response","245","529795","0.0-3.0-1.194","<span style=""font-size:30px; font-family: monospace"">tela</span>"," ","","exp-sent","tela","","",""
"","693","html-keyboard-response","246","530739","0.0-3.0-1.195","<span style=""font-size:30px; font-family: monospace"">do</span>"," ","","exp-sent","do","","",""
"","1717","html-keyboard-response","247","532707","0.0-3.0-1.196","<span style=""font-size:30px; font-family: monospace"">celular</span>"," ","","exp-sent","celular","","",""
"","1957","html-keyboard-response","248","534915","0.0-3.0-1.197","<span style=""font-size:30px; font-family: monospace"">duas</span>"," ","","exp-sent","duas","","",""
"","8275","html-keyboard-response","249","543442","0.0-3.0-1.198","<span style=""font-size:30px; font-family: monospace"">vezes.</span>"," ","","exp-sent","vezes.","","",""
"","null","html-keyboard-response","250","544694","0.0-3.0-0.199-0.199","<span style= ""font-size:30px; font-family: monospace"">+</span>","null","fixation","","","","",""
"","582","html-keyboard-response","251","545539","0.0-3.0-1.199","<span style=""font-size:30px; font-family: monospace"">Agora</span>"," ","","exp-sent","Agora","","",""
"","741","html-keyboard-response","252","546531","0.0-3.0-1.200","<span style=""font-size:30px; font-family: monospace"">a</span>"," ","","exp-sent","a","","",""
"","725","html-keyboard-response","253","547507","0.0-3.0-1.201","<span style=""font-size:30px; font-family: monospace"">minha</span>"," ","","exp-sent","minha","","",""
"","804","html-keyboard-response","254","548563","0.0-3.0-1.202","<span style=""font-size:30px; font-family: monospace"">única</span>"," ","","exp-sent","única","","",""
"","1329","html-keyboard-response","255","550146","0.0-3.0-1.203","<span style=""font-size:30px; font-family: monospace"">preocupação</span>"," ","","exp-sent","preocupação","","",""
"","582","html-keyboard-response","256","550979","0.0-3.0-1.204","<span style=""font-size:30px; font-family: monospace"">é</span>"," ","","exp-sent","é","","",""
"","581","html-keyboard-response","257","551811","0.0-3.0-1.205","<span style=""font-size:30px; font-family: monospace"">um</span>"," ","","exp-sent","um","","",""
"","4213","html-keyboard-response","258","556275","0.0-3.0-1.206","<span style=""font-size:30px; font-family: monospace"">descanso</span>"," ","","exp-sent","descanso","","",""
"","4084","html-keyboard-response","259","560610","0.0-3.0-1.207","<span style=""font-size:30px; font-family: monospace"">tranquilo.</span>"," ","","exp-sent","tranquilo.","","",""
"","null","html-keyboard-response","260","561862","0.0-3.0-0.208-0.208","<span style= ""font-size:30px; font-family: monospace"">+</span>","null","fixation","","","","",""
"","593","html-keyboard-response","261","562706","0.0-3.0-1.208","<span style=""font-size:30px; font-family: monospace"">A</span>"," ","","exp-sent","A","","",""
"","757","html-keyboard-response","262","563714","0.0-3.0-1.209","<span style=""font-size:30px; font-family: monospace"">criança</span>"," ","","exp-sent","criança","","",""
"","725","html-keyboard-response","263","564690","0.0-3.0-1.210","<span style=""font-size:30px; font-family: monospace"">ganhou</span>"," ","","exp-sent","ganhou","","",""
"","532","html-keyboard-response","264","565475","0.0-3.0-1.211","<span style=""font-size:30px; font-family: monospace"">um</span>"," ","","exp-sent","um","","",""
"","1124","html-keyboard-response","265","566850","0.0-3.0-1.212","<span style=""font-size:30px; font-family: monospace"">presente</span>"," ","","exp-sent","presente","","",""
"","3316","html-keyboard-response","266","570418","0.0-3.0-1.213","<span style=""font-size:30px; font-family: monospace"">maravilhoso.</span>"," ","","exp-sent","maravilhoso.","","",""
"","null","html-keyboard-response","267","571669","0.0-3.0-0.214-0.214","<span style= ""font-size:30px; font-family: monospace"">+</span>","null","fixation","","","","",""
"","1602","html-keyboard-response","268","573522","0.0-3.0-1.214","<span style=""font-size:30px; font-family: monospace"">Os</span>"," ","","exp-sent","Os","","",""
"","788","html-keyboard-response","269","574562","0.0-3.0-1.215","<span style=""font-size:30px; font-family: monospace"">bichos</span>"," ","","exp-sent","bichos","","",""
"","645","html-keyboard-response","270","575458","0.0-3.0-1.216","<span style=""font-size:30px; font-family: monospace"">têm</span>"," ","","exp-sent","têm","","",""
"","581","html-keyboard-response","271","576290","0.0-3.0-1.217","<span style=""font-size:30px; font-family: monospace"">um</span>"," ","","exp-sent","um","","",""
"","1352","html-keyboard-response","272","577906","0.0-3.0-1.218","<span style=""font-size:30px; font-family: monospace"">instinto</span>"," ","","exp-sent","instinto","","",""
"","597","html-keyboard-response","273","578754","0.0-3.0-1.219","<span style=""font-size:30px; font-family: monospace"">de</span>"," ","","exp-sent","de","","",""
"","1765","html-keyboard-response","274","580770","0.0-3.0-1.220","<span style=""font-size:30px; font-family: monospace"">sobrevivência</span>"," ","","exp-sent","sobrevivência","","",""
"","709","html-keyboard-response","275","581730","0.0-3.0-1.221","<span style=""font-size:30px; font-family: monospace"">forte.</span>"," ","","exp-sent","forte.","","",""
"","null","html-keyboard-response","276","582982","0.0-3.0-0.222-0.222","<span style= ""font-size:30px; font-family: monospace"">+</span>","null","fixation","","","","",""
"","5329","html-keyboard-response","277","588562","0.0-3.0-1.222","<span style=""font-size:30px; font-family: monospace"">Aquele</span>"," ","","exp-sent","Aquele","","",""
"","1252","html-keyboard-response","278","590066","0.0-3.0-1.223","<span style=""font-size:30px; font-family: monospace"">menino</span>"," ","","exp-sent","menino","","",""
"","693","html-keyboard-response","279","591010","0.0-3.0-1.224","<span style=""font-size:30px; font-family: monospace"">alto</span>"," ","","exp-sent","alto","","",""
"","629","html-keyboard-response","280","591890","0.0-3.0-1.225","<span style=""font-size:30px; font-family: monospace"">é</span>"," ","","exp-sent","é","","",""
"","7395","html-keyboard-response","281","599538","0.0-3.0-1.226","<span style=""font-size:30px; font-family: monospace"">exibido</span>"," ","","exp-sent","exibido","","",""
"","565","html-keyboard-response","282","600354","0.0-3.0-1.227","<span style=""font-size:30px; font-family: monospace"">e</span>"," ","","exp-sent","e","","",""
"","6101","html-keyboard-response","283","606706","0.0-3.0-1.228","<span style=""font-size:30px; font-family: monospace"">sovina.</span>"," ","","comp","sovina.","","",""
"","6933","html-keyboard-response","284","613891","0.0-3.0-2.228-0.228","<span style=""font-size:30px; font-family: monospace"">Aquele menino é humilde?</span>","s","","comp","","Aquele menino é humilde?","não","false"
"","null","html-keyboard-response","285","615393","0.0-3.0-0.229-0.229","<span style= ""font-size:30px; font-family: monospace"">+</span>","null","fixation","","","","",""
"","416","html-keyboard-response","286","616066","0.0-3.0-1.229","<span style=""font-size:30px; font-family: monospace"">Eu</span>"," ","","exp-sent","Eu","","",""
"","789","html-keyboard-response","287","617106","0.0-3.0-1.230","<span style=""font-size:30px; font-family: monospace"">gosto</span>"," ","","exp-sent","gosto","","",""
"","517","html-keyboard-response","288","617874","0.0-3.0-1.231","<span style=""font-size:30px; font-family: monospace"">de</span>"," ","","exp-sent","de","","",""
"","2084","html-keyboard-response","289","620210","0.0-3.0-1.232","<span style=""font-size:30px; font-family: monospace"">molho</span>"," ","","exp-sent","molho","","",""
"","1253","html-keyboard-response","290","621714","0.0-3.0-1.233","<span style=""font-size:30px; font-family: monospace"">picante</span>"," ","","exp-sent","picante","","",""
"","772","html-keyboard-response","291","622738","0.0-3.0-1.234","<span style=""font-size:30px; font-family: monospace"">nas</span>"," ","","exp-sent","nas","","",""
"","2661","html-keyboard-response","292","625650","0.0-3.0-1.235","<span style=""font-size:30px; font-family: monospace"">batatas.</span>"," ","","exp-sent","batatas.","","",""
"","null","html-keyboard-response","293","626903","0.0-3.0-0.236-0.236","<span style= ""font-size:30px; font-family: monospace"">+</span>","null","fixation","","","","",""
"","608","html-keyboard-response","294","627762","0.0-3.0-1.236","<span style=""font-size:30px; font-family: monospace"">As</span>"," ","","exp-sent","As","","",""
"","645","html-keyboard-response","295","628658","0.0-3.0-1.237","<span style=""font-size:30px; font-family: monospace"">pessoas</span>"," ","","exp-sent","pessoas","","",""
"","485","html-keyboard-response","296","629394","0.0-3.0-1.238","<span style=""font-size:30px; font-family: monospace"">têm</span>"," ","","exp-sent","têm","","",""
"","501","html-keyboard-response","297","630146","0.0-3.0-1.239","<span style=""font-size:30px; font-family: monospace"">sua</span>"," ","","exp-sent","sua","","",""
"","2549","html-keyboard-response","298","632946","0.0-3.0-1.240","<span style=""font-size:30px; font-family: monospace"">liberdade</span>"," ","","exp-sent","liberdade","","",""
"","803","html-keyboard-response","299","634002","0.0-3.0-1.241","<span style=""font-size:30px; font-family: monospace"">até</span>"," ","","exp-sent","até","","",""
"","1253","html-keyboard-response","300","635506","0.0-3.0-1.242","<span style=""font-size:30px; font-family: monospace"">certo</span>"," ","","exp-sent","certo","","",""
"","3445","html-keyboard-response","301","639202","0.0-3.0-1.243","<span style=""font-size:30px; font-family: monospace"">ponto.</span>"," ","","exp-sent","ponto.","","",""
"","null","html-keyboard-response","302","640454","0.0-3.0-0.244-0.244","<span style= ""font-size:30px; font-family: monospace"">+</span>","null","fixation","","","","",""
"","561","html-keyboard-response","303","641266","0.0-3.0-1.244","<span style=""font-size:30px; font-family: monospace"">A</span>"," ","","exp-sent","A","","",""
"","2085","html-keyboard-response","304","643602","0.0-3.0-1.245","<span style=""font-size:30px; font-family: monospace"">empresa</span>"," ","","exp-sent","empresa","","",""
"","821","html-keyboard-response","305","644674","0.0-3.0-1.246","<span style=""font-size:30px; font-family: monospace"">enviou</span>"," ","","exp-sent","enviou","","",""
"","544","html-keyboard-response","306","645474","0.0-3.0-1.247","<span style=""font-size:30px; font-family: monospace"">o</span>"," ","","exp-sent","o","","",""
"","773","html-keyboard-response","307","646498","0.0-3.0-1.248","<span style=""font-size:30px; font-family: monospace"">aviso</span>"," ","","exp-sent","aviso","","",""
"","916","html-keyboard-response","308","647666","0.0-3.0-1.249","<span style=""font-size:30px; font-family: monospace"">hoje</span>"," ","","exp-sent","hoje","","",""
"","549","html-keyboard-response","309","648466","0.0-3.0-1.250","<span style=""font-size:30px; font-family: monospace"">de</span>"," ","","exp-sent","de","","",""
"","3621","html-keyboard-response","310","652338","0.0-3.0-1.251","<span style=""font-size:30px; font-family: monospace"">tarde.</span>"," ","","exp-sent","tarde.","","",""
"","null","html-keyboard-response","311","653589","0.0-3.0-0.252-0.252","<span style= ""font-size:30px; font-family: monospace"">+</span>","null","fixation","","","","",""
"","945","html-keyboard-response","312","654786","0.0-3.0-1.252","<span style=""font-size:30px; font-family: monospace"">A</span>"," ","","exp-sent","A","","",""
"","693","html-keyboard-response","313","655730","0.0-3.0-1.253","<span style=""font-size:30px; font-family: monospace"">loja</span>"," ","","exp-sent","loja","","",""
"","565","html-keyboard-response","314","656546","0.0-3.0-1.254","<span style=""font-size:30px; font-family: monospace"">vende</span>"," ","","exp-sent","vende","","",""
"","981","html-keyboard-response","315","657778","0.0-3.0-1.255","<span style=""font-size:30px; font-family: monospace"">tanto</span>"," ","","exp-sent","tanto","","",""
"","4357","html-keyboard-response","316","662386","0.0-3.0-1.256","<span style=""font-size:30px; font-family: monospace"">frituras</span>"," ","","exp-sent","frituras","","",""
"","677","html-keyboard-response","317","663314","0.0-3.0-1.257","<span style=""font-size:30px; font-family: monospace"">quanto</span>"," ","","exp-sent","quanto","","",""
"","1861","html-keyboard-response","318","665426","0.0-3.0-1.258","<span style=""font-size:30px; font-family: monospace"">comidas</span>"," ","","exp-sent","comidas","","",""
"","3605","html-keyboard-response","319","669282","0.0-3.0-1.259","<span style=""font-size:30px; font-family: monospace"">leves.</span>"," ","","exp-sent","leves.","","",""
"","null","html-keyboard-response","320","670534","0.0-3.0-0.260-0.260","<span style= ""font-size:30px; font-family: monospace"">+</span>","null","fixation","","","","",""
"","496","html-keyboard-response","321","671282","0.0-3.0-1.260","<span style=""font-size:30px; font-family: monospace"">As</span>"," ","","exp-sent","As","","",""
"","1461","html-keyboard-response","322","672994","0.0-3.0-1.261","<span style=""font-size:30px; font-family: monospace"">cadeiras</span>"," ","","exp-sent","cadeiras","","",""
"","901","html-keyboard-response","323","674146","0.0-3.0-1.262","<span style=""font-size:30px; font-family: monospace"">azuis</span>"," ","","exp-sent","azuis","","",""
"","581","html-keyboard-response","324","674978","0.0-3.0-1.263","<span style=""font-size:30px; font-family: monospace"">da</span>"," ","","exp-sent","da","","",""
"","852","html-keyboard-response","325","676082","0.0-3.0-1.264","<span style=""font-size:30px; font-family: monospace"">sala</span>"," ","","exp-sent","sala","","",""
"","693","html-keyboard-response","326","677026","0.0-3.0-1.265","<span style=""font-size:30px; font-family: monospace"">eram</span>"," ","","exp-sent","eram","","",""
"","613","html-keyboard-response","327","677890","0.0-3.0-1.266","<span style=""font-size:30px; font-family: monospace"">da</span>"," ","","exp-sent","da","","",""
"","1637","html-keyboard-response","328","679778","0.0-3.0-1.267","<span style=""font-size:30px; font-family: monospace"">minha</span>"," ","","exp-sent","minha","","",""
"","2595","html-keyboard-response","329","682626","0.0-3.0-1.268","<span style=""font-size:30px; font-family: monospace"">vó.</span>"," ","","comp","vó.","","",""
"","3972","html-keyboard-response","330","686850","0.0-3.0-2.268-0.268","<span style=""font-size:30px; font-family: monospace"">As cadeiras eram da avó?</span>","n","","comp","","As cadeiras eram da avó?","sim","false"
"","null","html-keyboard-response","331","688351","0.0-3.0-0.269-0.269","<span style= ""font-size:30px; font-family: monospace"">+</span>","null","fixation","","","","",""
"","3239","html-keyboard-response","332","691842","0.0-3.0-1.269","<span style=""font-size:30px; font-family: monospace"">Barulho</span>"," ","","exp-sent","Barulho","","",""
"","533","html-keyboard-response","333","692626","0.0-3.0-1.270","<span style=""font-size:30px; font-family: monospace"">de</span>"," ","","exp-sent","de","","",""
"","660","html-keyboard-response","334","693538","0.0-3.0-1.271","<span style=""font-size:30px; font-family: monospace"">carros</span>"," ","","exp-sent","carros","","",""
"","517","html-keyboard-response","335","694306","0.0-3.0-1.272","<span style=""font-size:30px; font-family: monospace"">é</span>"," ","","exp-sent","é","","",""
"","2981","html-keyboard-response","336","697538","0.0-3.0-1.273","<span style=""font-size:30px; font-family: monospace"">irritante</span>"," ","","exp-sent","irritante","","",""
"","1253","html-keyboard-response","337","699042","0.0-3.0-1.274","<span style=""font-size:30px; font-family: monospace"">para</span>"," ","","exp-sent","para","","",""
"","656","html-keyboard-response","338","699954","0.0-3.0-1.275","<span style=""font-size:30px; font-family: monospace"">a</span>"," ","","exp-sent","a","","",""
"","597","html-keyboard-response","339","700802","0.0-3.0-1.276","<span style=""font-size:30px; font-family: monospace"">moça.</span>"," ","","exp-sent","moça.","","",""
"","null","html-keyboard-response","340","702054","0.0-3.0-0.277-0.277","<span style= ""font-size:30px; font-family: monospace"">+</span>","null","fixation","","","","",""
"","5432","html-keyboard-response","341","707746","0.0-3.0-1.277","<span style=""font-size:30px; font-family: monospace"">A</span>"," ","","exp-sent","A","","",""
"","1285","html-keyboard-response","342","709282","0.0-3.0-1.278","<span style=""font-size:30px; font-family: monospace"">loja</span>"," ","","exp-sent","loja","","",""
"","901","html-keyboard-response","343","710434","0.0-3.0-1.279","<span style=""font-size:30px; font-family: monospace"">também</span>"," ","","exp-sent","também","","",""
"","709","html-keyboard-response","344","711394","0.0-3.0-1.280","<span style=""font-size:30px; font-family: monospace"">vende</span>"," ","","exp-sent","vende","","",""
"","1589","html-keyboard-response","345","713234","0.0-3.0-1.281","<span style=""font-size:30px; font-family: monospace"">taça</span>"," ","","exp-sent","taça","","",""
"","515","html-keyboard-response","346","714002","0.0-3.0-1.282","<span style=""font-size:30px; font-family: monospace"">de</span>"," ","","exp-sent","de","","",""
"","996","html-keyboard-response","347","715250","0.0-3.0-1.283","<span style=""font-size:30px; font-family: monospace"">vinho</span>"," ","","exp-sent","vinho","","",""
"","724","html-keyboard-response","348","716226","0.0-3.0-1.284","<span style=""font-size:30px; font-family: monospace"">e</span>"," ","","exp-sent","e","","",""
"","5124","html-keyboard-response","349","721602","0.0-3.0-1.285","<span style=""font-size:30px; font-family: monospace"">espumante.</span>"," ","","exp-sent","espumante.","","",""
"","null","html-keyboard-response","350","722864","0.0-3.0-0.286-0.286","<span style= ""font-size:30px; font-family: monospace"">+</span>","null","fixation","","","","",""
"","1157","html-keyboard-response","351","724274","0.0-3.0-1.286","<span style=""font-size:30px; font-family: monospace"">A</span>"," ","","exp-sent","A","","",""
"","676","html-keyboard-response","352","725202","0.0-3.0-1.287","<span style=""font-size:30px; font-family: monospace"">bruxa</span>"," ","","exp-sent","bruxa","","",""
"","724","html-keyboard-response","353","726178","0.0-3.0-1.288","<span style=""font-size:30px; font-family: monospace"">tinha</span>"," ","","exp-sent","tinha","","",""
"","613","html-keyboard-response","354","727042","0.0-3.0-1.289","<span style=""font-size:30px; font-family: monospace"">uma</span>"," ","","exp-sent","uma","","",""
"","1653","html-keyboard-response","355","728946","0.0-3.0-1.290","<span style=""font-size:30px; font-family: monospace"">vassoura</span>"," ","","exp-sent","vassoura","","",""
"","597","html-keyboard-response","356","729794","0.0-3.0-1.291","<span style=""font-size:30px; font-family: monospace"">e</span>"," ","","exp-sent","e","","",""
"","581","html-keyboard-response","357","730626","0.0-3.0-1.292","<span style=""font-size:30px; font-family: monospace"">um</span>"," ","","exp-sent","um","","",""
"","15333","html-keyboard-response","358","746210","0.0-3.0-1.293","<span style=""font-size:30px; font-family: monospace"">gato.</span>"," ","","exp-sent","gato.","","",""
"","null","html-keyboard-response","359","747461","0.0-3.0-0.294-0.294","<span style= ""font-size:30px; font-family: monospace"">+</span>","null","fixation","","","","",""
"","2306","html-keyboard-response","360","750018","0.0-3.0-1.294","<span style=""font-size:30px; font-family: monospace"">Eu</span>"," ","","exp-sent","Eu","","",""
"","516","html-keyboard-response","361","750785","0.0-3.0-1.295","<span style=""font-size:30px; font-family: monospace"">me</span>"," ","","exp-sent","me","","",""
"","8708","html-keyboard-response","362","759746","0.0-3.0-1.296","<span style=""font-size:30px; font-family: monospace"">divirto</span>"," ","","exp-sent","divirto","","",""
"","623","html-keyboard-response","363","760626","0.0-3.0-1.297","<span style=""font-size:30px; font-family: monospace"">em</span>"," ","","exp-sent","em","","",""
"","1173","html-keyboard-response","364","762050","0.0-3.0-1.298","<span style=""font-size:30px; font-family: monospace"">festas</span>"," ","","exp-sent","festas","","",""
"","580","html-keyboard-response","365","762882","0.0-3.0-1.299","<span style=""font-size:30px; font-family: monospace"">de</span>"," ","","exp-sent","de","","",""
"","821","html-keyboard-response","366","763954","0.0-3.0-1.300","<span style=""font-size:30px; font-family: monospace"">criança.</span>"," ","","exp-sent","criança.","","",""
"","null","html-keyboard-response","367","765206","0.0-3.0-0.301-0.301","<span style= ""font-size:30px; font-family: monospace"">+</span>","null","fixation","","","","",""
"","4865","html-keyboard-response","368","770321","0.0-3.0-1.301","<span style=""font-size:30px; font-family: monospace"">A</span>"," ","","exp-sent","A","","",""
"","965","html-keyboard-response","369","771538","0.0-3.0-1.302","<span style=""font-size:30px; font-family: monospace"">janela</span>"," ","","exp-sent","janela","","",""
"","678","html-keyboard-response","370","772466","0.0-3.0-1.303","<span style=""font-size:30px; font-family: monospace"">alta</span>"," ","","exp-sent","alta","","",""
"","1364","html-keyboard-response","371","774082","0.0-3.0-1.304","<span style=""font-size:30px; font-family: monospace"">estava</span>"," ","","exp-sent","estava","","",""
"","900","html-keyboard-response","372","775234","0.0-3.0-1.305","<span style=""font-size:30px; font-family: monospace"">quebrada</span>"," ","","exp-sent","quebrada","","",""
"","1204","html-keyboard-response","373","776689","0.0-3.0-1.306","<span style=""font-size:30px; font-family: monospace"">desde</span>"," ","","exp-sent","desde","","",""
"","2501","html-keyboard-response","374","779441","0.0-3.0-1.307","<span style=""font-size:30px; font-family: monospace"">ontem.</span>"," ","","comp","ontem.","","",""
"","4885","html-keyboard-response","375","784578","0.0-3.0-2.307-0.307","<span style=""font-size:30px; font-family: monospace"">A janela alta estava quebrada?</span>","n","","comp","","A janela alta estava quebrada?","sim","false"
"","null","html-keyboard-response","376","786079","0.0-3.0-0.308-0.308","<span style= ""font-size:30px; font-family: monospace"">+</span>","null","fixation","","","","",""
"","855","html-keyboard-response","377","787186","0.0-3.0-1.308","<span style=""font-size:30px; font-family: monospace"">Preciso</span>"," ","","exp-sent","Preciso","","",""
"","581","html-keyboard-response","378","788018","0.0-3.0-1.309","<span style=""font-size:30px; font-family: monospace"">de</span>"," ","","exp-sent","de","","",""
"","613","html-keyboard-response","379","788882","0.0-3.0-1.310","<span style=""font-size:30px; font-family: monospace"">um</span>"," ","","exp-sent","um","","",""
"","1541","html-keyboard-response","380","790674","0.0-3.0-1.311","<span style=""font-size:30px; font-family: monospace"">relatório</span>"," ","","exp-sent","relatório","","",""
"","900","html-keyboard-response","381","791826","0.0-3.0-1.312","<span style=""font-size:30px; font-family: monospace"">oficial</span>"," ","","exp-sent","oficial","","",""
"","597","html-keyboard-response","382","792674","0.0-3.0-1.313","<span style=""font-size:30px; font-family: monospace"">para</span>"," ","","exp-sent","para","","",""
"","4565","html-keyboard-response","383","797489","0.0-3.0-1.314","<span style=""font-size:30px; font-family: monospace"">amanhã.</span>"," ","","exp-sent","amanhã.","","",""
"","null","html-keyboard-response","384","798742","0.0-3.0-0.315-0.315","<span style= ""font-size:30px; font-family: monospace"">+</span>","null","fixation","","","","",""
"","1600","html-keyboard-response","385","800593","0.0-3.0-1.315","<span style=""font-size:30px; font-family: monospace"">Ele</span>"," ","","exp-sent","Ele","","",""
"","837","html-keyboard-response","386","801681","0.0-3.0-1.316","<span style=""font-size:30px; font-family: monospace"">viu</span>"," ","","exp-sent","viu","","",""
"","572","html-keyboard-response","387","802513","0.0-3.0-1.317","<span style=""font-size:30px; font-family: monospace"">um</span>"," ","","exp-sent","um","","",""
"","1141","html-keyboard-response","388","803905","0.0-3.0-1.318","<span style=""font-size:30px; font-family: monospace"">inseto</span>"," ","","exp-sent","inseto","","",""
"","1765","html-keyboard-response","389","805921","0.0-3.0-1.319","<span style=""font-size:30px; font-family: monospace"">marrom</span>"," ","","exp-sent","marrom","","",""
"","565","html-keyboard-response","390","806737","0.0-3.0-1.320","<span style=""font-size:30px; font-family: monospace"">na</span>"," ","","exp-sent","na","","",""
"","3125","html-keyboard-response","391","810113","0.0-3.0-1.321","<span style=""font-size:30px; font-family: monospace"">parede.</span>"," ","","exp-sent","parede.","","",""
"","null","html-keyboard-response","392","811373","0.0-3.0-0.322-0.322","<span style= ""font-size:30px; font-family: monospace"">+</span>","null","fixation","","","","",""
"","1017","html-keyboard-response","393","812641","0.0-3.0-1.322","<span style=""font-size:30px; font-family: monospace"">O</span>"," ","","exp-sent","O","","",""
"","549","html-keyboard-response","394","813441","0.0-3.0-1.323","<span style=""font-size:30px; font-family: monospace"">avô</span>"," ","","exp-sent","avô","","",""
"","549","html-keyboard-response","395","814241","0.0-3.0-1.324","<span style=""font-size:30px; font-family: monospace"">fez</span>"," ","","exp-sent","fez","","",""
"","469","html-keyboard-response","396","814961","0.0-3.0-1.325","<span style=""font-size:30px; font-family: monospace"">uma</span>"," ","","exp-sent","uma","","",""
"","724","html-keyboard-response","397","815937","0.0-3.0-1.326","<span style=""font-size:30px; font-family: monospace"">lista</span>"," ","","exp-sent","lista","","",""
"","580","html-keyboard-response","398","816769","0.0-3.0-1.327","<span style=""font-size:30px; font-family: monospace"">de</span>"," ","","exp-sent","de","","",""
"","2037","html-keyboard-response","399","819057","0.0-3.0-1.328","<span style=""font-size:30px; font-family: monospace"">compras</span>"," ","","exp-sent","compras","","",""
"","565","html-keyboard-response","400","819874","0.0-3.0-1.329","<span style=""font-size:30px; font-family: monospace"">do</span>"," ","","exp-sent","do","","",""
"","2245","html-keyboard-response","401","822369","0.0-3.0-1.330","<span style=""font-size:30px; font-family: monospace"">mercado.</span>"," ","","exp-sent","mercado.","","",""
"","null","html-keyboard-response","402","823621","0.0-3.0-0.331-0.331","<span style= ""font-size:30px; font-family: monospace"">+</span>","null","fixation","","","","",""
"","593","html-keyboard-response","403","824465","0.0-3.0-1.331","<span style=""font-size:30px; font-family: monospace"">As</span>"," ","","exp-sent","As","","",""
"","693","html-keyboard-response","404","825409","0.0-3.0-1.332","<span style=""font-size:30px; font-family: monospace"">pessoas</span>"," ","","exp-sent","pessoas","","",""
"","629","html-keyboard-response","405","826289","0.0-3.0-1.333","<span style=""font-size:30px; font-family: monospace"">não</span>"," ","","exp-sent","não","","",""
"","1173","html-keyboard-response","406","827713","0.0-3.0-1.334","<span style=""font-size:30px; font-family: monospace"">enviam</span>"," ","","exp-sent","enviam","","",""
"","1749","html-keyboard-response","407","829713","0.0-3.0-1.335","<span style=""font-size:30px; font-family: monospace"">telegrama</span>"," ","","exp-sent","telegrama","","",""
"","709","html-keyboard-response","408","830674","0.0-3.0-1.336","<span style=""font-size:30px; font-family: monospace"">nos</span>"," ","","exp-sent","nos","","",""
"","803","html-keyboard-response","409","831729","0.0-3.0-1.337","<span style=""font-size:30px; font-family: monospace"">dias</span>"," ","","exp-sent","dias","","",""
"","644","html-keyboard-response","410","832625","0.0-3.0-1.338","<span style=""font-size:30px; font-family: monospace"">de</span>"," ","","exp-sent","de","","",""
"","2773","html-keyboard-response","411","835649","0.0-3.0-1.339","<span style=""font-size:30px; font-family: monospace"">hoje.</span>"," ","","exp-sent","hoje.","","",""
"","null","html-keyboard-response","412","836901","0.0-3.0-0.340-0.340","<span style= ""font-size:30px; font-family: monospace"">+</span>","null","fixation","","","","",""
"","498","html-keyboard-response","413","837649","0.0-3.0-1.340","<span style=""font-size:30px; font-family: monospace"">Ele</span>"," ","","exp-sent","Ele","","",""
"","533","html-keyboard-response","414","838433","0.0-3.0-1.341","<span style=""font-size:30px; font-family: monospace"">não</span>"," ","","exp-sent","não","","",""
"","565","html-keyboard-response","415","839249","0.0-3.0-1.342","<span style=""font-size:30px; font-family: monospace"">gosta</span>"," ","","exp-sent","gosta","","",""
"","597","html-keyboard-response","416","840097","0.0-3.0-1.343","<span style=""font-size:30px; font-family: monospace"">de</span>"," ","","exp-sent","de","","",""
"","644","html-keyboard-response","417","840993","0.0-3.0-1.344","<span style=""font-size:30px; font-family: monospace"">tomate</span>"," ","","exp-sent","tomate","","",""
"","2357","html-keyboard-response","418","843601","0.0-3.0-1.345","<span style=""font-size:30px; font-family: monospace"">misturado</span>"," ","","exp-sent","misturado","","",""
"","533","html-keyboard-response","419","844385","0.0-3.0-1.346","<span style=""font-size:30px; font-family: monospace"">na</span>"," ","","exp-sent","na","","",""
"","3780","html-keyboard-response","420","848417","0.0-3.0-1.347","<span style=""font-size:30px; font-family: monospace"">comida.</span>"," ","","comp","comida.","","",""
"","2485","html-keyboard-response","421","851153","0.0-3.0-2.347-0.347","<span style=""font-size:30px; font-family: monospace"">Ele gosta de tomate na comida?</span>","n","","comp","","Ele gosta de tomate na comida?","não","false"
"","null","html-keyboard-response","422","852656","0.0-3.0-0.348-0.348","<span style= ""font-size:30px; font-family: monospace"">+</span>","null","fixation","","","","",""
"","1467","html-keyboard-response","423","854385","0.0-3.0-1.348","<span style=""font-size:30px; font-family: monospace"">Ganhamos</span>"," ","","exp-sent","Ganhamos","","",""
"","965","html-keyboard-response","424","855601","0.0-3.0-1.349","<span style=""font-size:30px; font-family: monospace"">passagem</span>"," ","","exp-sent","passagem","","",""
"","500","html-keyboard-response","425","856353","0.0-3.0-1.350","<span style=""font-size:30px; font-family: monospace"">para</span>"," ","","exp-sent","para","","",""
"","661","html-keyboard-response","426","857265","0.0-3.0-1.351","<span style=""font-size:30px; font-family: monospace"">uma</span>"," ","","exp-sent","uma","","",""
"","741","html-keyboard-response","427","858257","0.0-3.0-1.352","<span style=""font-size:30px; font-family: monospace"">viagem</span>"," ","","exp-sent","viagem","","",""
"","549","html-keyboard-response","428","859057","0.0-3.0-1.353","<span style=""font-size:30px; font-family: monospace"">de</span>"," ","","exp-sent","de","","",""
"","5092","html-keyboard-response","429","864401","0.0-3.0-1.354","<span style=""font-size:30px; font-family: monospace"">férias.</span>"," ","","exp-sent","férias.","","",""
"","null","html-keyboard-response","430","865662","0.0-3.0-0.355-0.355","<span style= ""font-size:30px; font-family: monospace"">+</span>","null","fixation","","","","",""
"","791","html-keyboard-response","431","866705","0.0-3.0-1.355","<span style=""font-size:30px; font-family: monospace"">Caiu</span>"," ","","exp-sent","Caiu","","",""
"","693","html-keyboard-response","432","867649","0.0-3.0-1.356","<span style=""font-size:30px; font-family: monospace"">algo</span>"," ","","exp-sent","algo","","",""
"","501","html-keyboard-response","433","868401","0.0-3.0-1.357","<span style=""font-size:30px; font-family: monospace"">no</span>"," ","","exp-sent","no","","",""
"","756","html-keyboard-response","434","869409","0.0-3.0-1.358","<span style=""font-size:30px; font-family: monospace"">meu</span>"," ","","exp-sent","meu","","",""
"","980","html-keyboard-response","435","870641","0.0-3.0-1.359","<span style=""font-size:30px; font-family: monospace"">olho</span>"," ","","exp-sent","olho","","",""
"","1061","html-keyboard-response","436","871953","0.0-3.0-1.360","<span style=""font-size:30px; font-family: monospace"">ontem</span>"," ","","exp-sent","ontem","","",""
"","661","html-keyboard-response","437","872865","0.0-3.0-1.361","<span style=""font-size:30px; font-family: monospace"">de</span>"," ","","exp-sent","de","","",""
"","1013","html-keyboard-response","438","874129","0.0-3.0-1.362","<span style=""font-size:30px; font-family: monospace"">tarde.</span>"," ","","exp-sent","tarde.","","",""
"","null","html-keyboard-response","439","875382","0.0-3.0-0.363-0.363","<span style= ""font-size:30px; font-family: monospace"">+</span>","null","fixation","","","","",""
"","321","html-keyboard-response","440","875953","0.0-3.0-1.363","<span style=""font-size:30px; font-family: monospace"">Não</span>"," ","","exp-sent","Não","","",""
"","1301","html-keyboard-response","441","877505","0.0-3.0-1.364","<span style=""font-size:30px; font-family: monospace"">havia</span>"," ","","exp-sent","havia","","",""
"","577","html-keyboard-response","442","878337","0.0-3.0-1.365","<span style=""font-size:30px; font-family: monospace"">mais</span>"," ","","exp-sent","mais","","",""
"","740","html-keyboard-response","443","879329","0.0-3.0-1.366","<span style=""font-size:30px; font-family: monospace"">nenhum</span>"," ","","exp-sent","nenhum","","",""
"","1637","html-keyboard-response","444","881217","0.0-3.0-1.367","<span style=""font-size:30px; font-family: monospace"">ingresso</span>"," ","","exp-sent","ingresso","","",""
"","613","html-keyboard-response","445","882081","0.0-3.0-1.368","<span style=""font-size:30px; font-family: monospace"">para</span>"," ","","exp-sent","para","","",""
"","517","html-keyboard-response","446","882849","0.0-3.0-1.369","<span style=""font-size:30px; font-family: monospace"">o</span>"," ","","exp-sent","o","","",""
"","2517","html-keyboard-response","447","885617","0.0-3.0-1.370","<span style=""font-size:30px; font-family: monospace"">evento.</span>"," ","","exp-sent","evento.","","",""
"","null","html-keyboard-response","448","886869","0.0-3.0-0.371-0.371","<span style= ""font-size:30px; font-family: monospace"">+</span>","null","fixation","","","","",""
"","593","html-keyboard-response","449","887713","0.0-3.0-1.371","<span style=""font-size:30px; font-family: monospace"">A</span>"," ","","exp-sent","A","","",""
"","757","html-keyboard-response","450","888721","0.0-3.0-1.372","<span style=""font-size:30px; font-family: monospace"">médica</span>"," ","","exp-sent","médica","","",""
"","1061","html-keyboard-response","451","890033","0.0-3.0-1.373","<span style=""font-size:30px; font-family: monospace"">descobriu</span>"," ","","exp-sent","descobriu","","",""
"","725","html-keyboard-response","452","891009","0.0-3.0-1.374","<span style=""font-size:30px; font-family: monospace"">uma</span>"," ","","exp-sent","uma","","",""
"","1044","html-keyboard-response","453","892305","0.0-3.0-1.375","<span style=""font-size:30px; font-family: monospace"">cura</span>"," ","","exp-sent","cura","","",""
"","565","html-keyboard-response","454","893121","0.0-3.0-1.376","<span style=""font-size:30px; font-family: monospace"">para</span>"," ","","exp-sent","para","","",""
"","741","html-keyboard-response","455","894113","0.0-3.0-1.377","<span style=""font-size:30px; font-family: monospace"">a</span>"," ","","exp-sent","a","","",""
"","5253","html-keyboard-response","456","899617","0.0-3.0-1.378","<span style=""font-size:30px; font-family: monospace"">doença.</span>"," ","","exp-sent","doença.","","",""
"","null","html-keyboard-response","457","900869","0.0-3.0-0.379-0.379","<span style= ""font-size:30px; font-family: monospace"">+</span>","null","fixation","","","","",""
"","496","html-keyboard-response","458","901617","0.0-3.0-1.379","<span style=""font-size:30px; font-family: monospace"">O</span>"," ","","exp-sent","O","","",""
"","1221","html-keyboard-response","459","903089","0.0-3.0-1.380","<span style=""font-size:30px; font-family: monospace"">menino</span>"," ","","exp-sent","menino","","",""
"","1045","html-keyboard-response","460","904385","0.0-3.0-1.381","<span style=""font-size:30px; font-family: monospace"">riscou</span>"," ","","exp-sent","riscou","","",""
"","613","html-keyboard-response","461","905249","0.0-3.0-1.382","<span style=""font-size:30px; font-family: monospace"">o</span>"," ","","exp-sent","o","","",""
"","949","html-keyboard-response","462","906449","0.0-3.0-1.383","<span style=""font-size:30px; font-family: monospace"">caderno</span>"," ","","exp-sent","caderno","","",""
"","533","html-keyboard-response","463","907233","0.0-3.0-1.384","<span style=""font-size:30px; font-family: monospace"">com</span>"," ","","exp-sent","com","","",""
"","453","html-keyboard-response","464","907937","0.0-3.0-1.385","<span style=""font-size:30px; font-family: monospace"">a</span>"," ","","exp-sent","a","","",""
"","2517","html-keyboard-response","465","910705","0.0-3.0-1.386","<span style=""font-size:30px; font-family: monospace"">caneta.</span>"," ","","comp","caneta.","","",""
"","2005","html-keyboard-response","466","912961","0.0-3.0-2.386-0.386","<span style=""font-size:30px; font-family: monospace"">O menino riscou a parede com a caneta?</span>","s","","comp","","O menino riscou a parede com a caneta?","não","false"
"","null","html-keyboard-response","467","914463","0.0-3.0-0.387-0.387","<span style= ""font-size:30px; font-family: monospace"">+</span>","null","fixation","","","","",""
"","439","html-keyboard-response","468","915153","0.0-3.0-1.387","<span style=""font-size:30px; font-family: monospace"">O</span>"," ","","exp-sent","O","","",""
"","2597","html-keyboard-response","469","918001","0.0-3.0-1.388","<span style=""font-size:30px; font-family: monospace"">travesseiro</span>"," ","","exp-sent","travesseiro","","",""
"","597","html-keyboard-response","470","918849","0.0-3.0-1.389","<span style=""font-size:30px; font-family: monospace"">era</span>"," ","","exp-sent","era","","",""
"","645","html-keyboard-response","471","919745","0.0-3.0-1.390","<span style=""font-size:30px; font-family: monospace"">muito</span>"," ","","exp-sent","muito","","",""
"","1381","html-keyboard-response","472","921377","0.0-3.0-1.391","<span style=""font-size:30px; font-family: monospace"">macio</span>"," ","","exp-sent","macio","","",""
"","597","html-keyboard-response","473","922224","0.0-3.0-1.392","<span style=""font-size:30px; font-family: monospace"">e</span>"," ","","exp-sent","e","","",""
"","4100","html-keyboard-response","474","926577","0.0-3.0-1.393","<span style=""font-size:30px; font-family: monospace"">confortável.</span>"," ","","exp-sent","confortável.","","",""
"","null","html-keyboard-response","475","927828","0.0-3.0-0.394-0.394","<span style= ""font-size:30px; font-family: monospace"">+</span>","null","fixation","","","","",""
"","545","html-keyboard-response","476","928624","0.0-3.0-1.394","<span style=""font-size:30px; font-family: monospace"">Hoje</span>"," ","","exp-sent","Hoje","","",""
"","629","html-keyboard-response","477","929505","0.0-3.0-1.395","<span style=""font-size:30px; font-family: monospace"">a</span>"," ","","exp-sent","a","","",""
"","1701","html-keyboard-response","478","931457","0.0-3.0-1.396","<span style=""font-size:30px; font-family: monospace"">atendente</span>"," ","","exp-sent","atendente","","",""
"","676","html-keyboard-response","479","932385","0.0-3.0-1.397","<span style=""font-size:30px; font-family: monospace"">estava</span>"," ","","exp-sent","estava","","",""
"","1525","html-keyboard-response","480","934161","0.0-3.0-1.398","<span style=""font-size:30px; font-family: monospace"">furiosa</span>"," ","","exp-sent","furiosa","","",""
"","565","html-keyboard-response","481","934977","0.0-3.0-1.399","<span style=""font-size:30px; font-family: monospace"">com</span>"," ","","exp-sent","com","","",""
"","549","html-keyboard-response","482","935776","0.0-3.0-1.400","<span style=""font-size:30px; font-family: monospace"">o</span>"," ","","exp-sent","o","","",""
"","3749","html-keyboard-response","483","939777","0.0-3.0-1.401","<span style=""font-size:30px; font-family: monospace"">cliente.</span>"," ","","exp-sent","cliente.","","",""
"","null","html-keyboard-response","484","941030","0.0-3.0-0.402-0.402","<span style= ""font-size:30px; font-family: monospace"">+</span>","null","fixation","","","","",""
"","944","html-keyboard-response","485","942224","0.0-3.0-1.402","<span style=""font-size:30px; font-family: monospace"">O</span>"," ","","exp-sent","O","","",""
"","623","html-keyboard-response","486","943104","0.0-3.0-1.403","<span style=""font-size:30px; font-family: monospace"">vizinho</span>"," ","","exp-sent","vizinho","","",""
"","3701","html-keyboard-response","487","947057","0.0-3.0-1.404","<span style=""font-size:30px; font-family: monospace"">é</span>"," ","","exp-sent","é","","",""
"","949","html-keyboard-response","488","948257","0.0-3.0-1.405","<span style=""font-size:30px; font-family: monospace"">um</span>"," ","","exp-sent","um","","",""
"","804","html-keyboard-response","489","949313","0.0-3.0-1.406","<span style=""font-size:30px; font-family: monospace"">arquiteto</span>"," ","","exp-sent","arquiteto","","",""
"","646","html-keyboard-response","490","950224","0.0-3.0-1.407","<span style=""font-size:30px; font-family: monospace"">muito</span>"," ","","exp-sent","muito","","",""
"","1798","html-keyboard-response","491","952273","0.0-3.0-1.408","<span style=""font-size:30px; font-family: monospace"">excêntrico.</span>"," ","","exp-sent","excêntrico.","","",""
"","null","html-keyboard-response","492","953526","0.0-3.0-0.409-0.409","<span style= ""font-size:30px; font-family: monospace"">+</span>","null","fixation","","","","",""
"","528","html-keyboard-response","493","954305","0.0-3.0-1.409","<span style=""font-size:30px; font-family: monospace"">A</span>"," ","","exp-sent","A","","",""
"","597","html-keyboard-response","494","955153","0.0-3.0-1.410","<span style=""font-size:30px; font-family: monospace"">nossa</span>"," ","","exp-sent","nossa","","",""
"","628","html-keyboard-response","495","956033","0.0-3.0-1.411","<span style=""font-size:30px; font-family: monospace"">colega</span>"," ","","exp-sent","colega","","",""
"","532","html-keyboard-response","496","956817","0.0-3.0-1.412","<span style=""font-size:30px; font-family: monospace"">foi</span>"," ","","exp-sent","foi","","",""
"","677","html-keyboard-response","497","957745","0.0-3.0-1.413","<span style=""font-size:30px; font-family: monospace"">má</span>"," ","","exp-sent","má","","",""
"","581","html-keyboard-response","498","958576","0.0-3.0-1.414","<span style=""font-size:30px; font-family: monospace"">com</span>"," ","","exp-sent","com","","",""
"","581","html-keyboard-response","499","959409","0.0-3.0-1.415","<span style=""font-size:30px; font-family: monospace"">as</span>"," ","","exp-sent","as","","",""
"","1141","html-keyboard-response","500","960801","0.0-3.0-1.416","<span style=""font-size:30px; font-family: monospace"">crianças.</span>"," ","","exp-sent","crianças.","","",""
"","null","html-keyboard-response","501","962053","0.0-3.0-0.417-0.417","<span style= ""font-size:30px; font-family: monospace"">+</span>","null","fixation","","","","",""
"","2321","html-keyboard-response","502","964624","0.0-3.0-1.417","<span style=""font-size:30px; font-family: monospace"">Virtudes</span>"," ","","exp-sent","Virtudes","","",""
"","661","html-keyboard-response","503","965537","0.0-3.0-1.418","<span style=""font-size:30px; font-family: monospace"">não</span>"," ","","exp-sent","não","","",""
"","629","html-keyboard-response","504","966417","0.0-3.0-1.419","<span style=""font-size:30px; font-family: monospace"">são</span>"," ","","exp-sent","são","","",""
"","2469","html-keyboard-response","505","969136","0.0-3.0-1.420","<span style=""font-size:30px; font-family: monospace"">preguiça,</span>"," ","","exp-sent","preguiça,","","",""
"","1541","html-keyboard-response","506","970929","0.0-3.0-1.421","<span style=""font-size:30px; font-family: monospace"">gula</span>"," ","","exp-sent","gula","","",""
"","597","html-keyboard-response","507","971777","0.0-3.0-1.422","<span style=""font-size:30px; font-family: monospace"">nem</span>"," ","","exp-sent","nem","","",""
"","3061","html-keyboard-response","508","975089","0.0-3.0-1.423","<span style=""font-size:30px; font-family: monospace"">ganância.</span>"," ","","comp","ganância.","","",""
"","11862","html-keyboard-response","509","987201","0.0-3.0-2.423-0.423","<span style=""font-size:30px; font-family: monospace"">Preguiça é uma virtude?</span>","n","","comp","","Preguiça é uma virtude?","não","false"
"","null","html-keyboard-response","510","988702","0.0-3.0-0.424-0.424","<span style= ""font-size:30px; font-family: monospace"">+</span>","null","fixation","","","","",""
"","1063","html-keyboard-response","511","990016","0.0-3.0-1.424","<span style=""font-size:30px; font-family: monospace"">O</span>"," ","","exp-sent","O","","",""
"","821","html-keyboard-response","512","991088","0.0-3.0-1.425","<span style=""font-size:30px; font-family: monospace"">moço</span>"," ","","exp-sent","moço","","",""
"","917","html-keyboard-response","513","992257","0.0-3.0-1.426","<span style=""font-size:30px; font-family: monospace"">usou</span>"," ","","exp-sent","usou","","",""
"","1108","html-keyboard-response","514","993616","0.0-3.0-1.427","<span style=""font-size:30px; font-family: monospace"">várias</span>"," ","","exp-sent","várias","","",""
"","741","html-keyboard-response","515","994608","0.0-3.0-1.428","<span style=""font-size:30px; font-family: monospace"">velas</span>"," ","","exp-sent","velas","","",""
"","565","html-keyboard-response","516","995424","0.0-3.0-1.429","<span style=""font-size:30px; font-family: monospace"">no</span>"," ","","exp-sent","no","","",""
"","4214","html-keyboard-response","517","999889","0.0-3.0-1.430","<span style=""font-size:30px; font-family: monospace"">enfeite</span>"," ","","exp-sent","enfeite","","",""
"","517","html-keyboard-response","518","1000657","0.0-3.0-1.431","<span style=""font-size:30px; font-family: monospace"">de</span>"," ","","exp-sent","de","","",""
"","3236","html-keyboard-response","519","1004144","0.0-3.0-1.432","<span style=""font-size:30px; font-family: monospace"">mesa.</span>"," ","","exp-sent","mesa.","","",""
"","null","html-keyboard-response","520","1005396","0.0-3.0-0.433-0.433","<span style= ""font-size:30px; font-family: monospace"">+</span>","null","fixation","","","","",""
"","977","html-keyboard-response","521","1006624","0.0-3.0-1.433","<span style=""font-size:30px; font-family: monospace"">Gostamos</span>"," ","","exp-sent","Gostamos","","",""
"","549","html-keyboard-response","522","1007424","0.0-3.0-1.434","<span style=""font-size:30px; font-family: monospace"">de</span>"," ","","exp-sent","de","","",""
"","485","html-keyboard-response","523","1008160","0.0-3.0-1.435","<span style=""font-size:30px; font-family: monospace"">suco</span>"," ","","exp-sent","suco","","",""
"","533","html-keyboard-response","524","1008944","0.0-3.0-1.436","<span style=""font-size:30px; font-family: monospace"">em</span>"," ","","exp-sent","em","","",""
"","1205","html-keyboard-response","525","1010401","0.0-3.0-1.437","<span style=""font-size:30px; font-family: monospace"">garrafa</span>"," ","","exp-sent","garrafa","","",""
"","741","html-keyboard-response","526","1011392","0.0-3.0-1.438","<span style=""font-size:30px; font-family: monospace"">de</span>"," ","","exp-sent","de","","",""
"","1125","html-keyboard-response","527","1012768","0.0-3.0-1.439","<span style=""font-size:30px; font-family: monospace"">tamanho</span>"," ","","exp-sent","tamanho","","",""
"","677","html-keyboard-response","528","1013696","0.0-3.0-1.440","<span style=""font-size:30px; font-family: monospace"">pequeno.</span>"," ","","exp-sent","pequeno.","","",""
"","null","html-keyboard-response","529","1014948","0.0-3.0-0.441-0.441","<span style= ""font-size:30px; font-family: monospace"">+</span>","null","fixation","","","","",""
"","3265","html-keyboard-response","530","1018464","0.0-3.0-1.441","<span style=""font-size:30px; font-family: monospace"">Sua</span>"," ","","exp-sent","Sua","","",""
"","901","html-keyboard-response","531","1019616","0.0-3.0-1.442","<span style=""font-size:30px; font-family: monospace"">filha</span>"," ","","exp-sent","filha","","",""
"","613","html-keyboard-response","532","1020481","0.0-3.0-1.443","<span style=""font-size:30px; font-family: monospace"">é</span>"," ","","exp-sent","é","","",""
"","627","html-keyboard-response","533","1021360","0.0-3.0-1.444","<span style=""font-size:30px; font-family: monospace"">muito</span>"," ","","exp-sent","muito","","",""
"","629","html-keyboard-response","534","1022240","0.0-3.0-1.445","<span style=""font-size:30px; font-family: monospace"">capaz</span>"," ","","exp-sent","capaz","","",""
"","709","html-keyboard-response","535","1023200","0.0-3.0-1.446","<span style=""font-size:30px; font-family: monospace"">e</span>"," ","","exp-sent","e","","",""
"","2693","html-keyboard-response","536","1026145","0.0-3.0-1.447","<span style=""font-size:30px; font-family: monospace"">esforçada.</span>"," ","","exp-sent","esforçada.","","",""
"","null","html-keyboard-response","537","1027396","0.0-3.0-0.448-0.448","<span style= ""font-size:30px; font-family: monospace"">+</span>","null","fixation","","","","",""
"","624","html-keyboard-response","538","1028272","0.0-3.0-1.448","<span style=""font-size:30px; font-family: monospace"">A</span>"," ","","exp-sent","A","","",""
"","1096","html-keyboard-response","539","1029632","0.0-3.0-1.449","<span style=""font-size:30px; font-family: monospace"">batida</span>"," ","","exp-sent","batida","","",""
"","629","html-keyboard-response","540","1030513","0.0-3.0-1.450","<span style=""font-size:30px; font-family: monospace"">causou</span>"," ","","exp-sent","causou","","",""
"","708","html-keyboard-response","541","1031473","0.0-3.0-1.451","<span style=""font-size:30px; font-family: monospace"">muita</span>"," ","","exp-sent","muita","","",""
"","1347","html-keyboard-response","542","1033073","0.0-3.0-1.452","<span style=""font-size:30px; font-family: monospace"">confusão</span>"," ","","exp-sent","confusão","","",""
"","627","html-keyboard-response","543","1033952","0.0-3.0-1.453","<span style=""font-size:30px; font-family: monospace"">na</span>"," ","","exp-sent","na","","",""
"","1876","html-keyboard-response","544","1036080","0.0-3.0-1.454","<span style=""font-size:30px; font-family: monospace"">estrada.</span>"," ","","exp-sent","estrada.","","",""
"","null","html-keyboard-response","545","1037332","0.0-3.0-0.455-0.455","<span style= ""font-size:30px; font-family: monospace"">+</span>","null","fixation","","","","",""
"","369","html-keyboard-response","546","1037952","0.0-3.0-1.455","<span style=""font-size:30px; font-family: monospace"">Eu</span>"," ","","exp-sent","Eu","","",""
"","2293","html-keyboard-response","547","1040496","0.0-3.0-1.456","<span style=""font-size:30px; font-family: monospace"">cozinhei</span>"," ","","exp-sent","cozinhei","","",""
"","533","html-keyboard-response","548","1041280","0.0-3.0-1.457","<span style=""font-size:30px; font-family: monospace"">um</span>"," ","","exp-sent","um","","",""
"","773","html-keyboard-response","549","1042304","0.0-3.0-1.458","<span style=""font-size:30px; font-family: monospace"">almoço</span>"," ","","exp-sent","almoço","","",""
"","1845","html-keyboard-response","550","1044400","0.0-3.0-1.459","<span style=""font-size:30px; font-family: monospace"">nutritivo</span>"," ","","exp-sent","nutritivo","","",""
"","581","html-keyboard-response","551","1045232","0.0-3.0-1.460","<span style=""font-size:30px; font-family: monospace"">para</span>"," ","","exp-sent","para","","",""
"","1653","html-keyboard-response","552","1047136","0.0-3.0-1.461","<span style=""font-size:30px; font-family: monospace"">hoje.</span>"," ","","comp","hoje.","","",""
"","2149","html-keyboard-response","553","1049536","0.0-3.0-2.461-0.461","<span style=""font-size:30px; font-family: monospace"">O almoço era nutritivo?</span>","s","","comp","","O almoço era nutritivo?","sim","false"
"","null","html-keyboard-response","554","1051039","0.0-3.0-0.462-0.462","<span style= ""font-size:30px; font-family: monospace"">+</span>","null","fixation","","","","",""
"","1319","html-keyboard-response","555","1052608","0.0-3.0-1.462","<span style=""font-size:30px; font-family: monospace"">A</span>"," ","","exp-sent","A","","",""
"","693","html-keyboard-response","556","1053552","0.0-3.0-1.463","<span style=""font-size:30px; font-family: monospace"">força</span>"," ","","exp-sent","força","","",""
"","709","html-keyboard-response","557","1054512","0.0-3.0-1.464","<span style=""font-size:30px; font-family: monospace"">d'água</span>"," ","","exp-sent","d'água","","",""
"","732","html-keyboard-response","558","1055504","0.0-3.0-1.465","<span style=""font-size:30px; font-family: monospace"">estava</span>"," ","","exp-sent","estava","","",""
"","850","html-keyboard-response","559","1056608","0.0-3.0-1.466","<span style=""font-size:30px; font-family: monospace"">normal</span>"," ","","exp-sent","normal","","",""
"","660","html-keyboard-response","560","1057520","0.0-3.0-1.467","<span style=""font-size:30px; font-family: monospace"">naquele</span>"," ","","exp-sent","naquele","","",""
"","715","html-keyboard-response","561","1058496","0.0-3.0-1.468","<span style=""font-size:30px; font-family: monospace"">dia.</span>"," ","","exp-sent","dia.","","",""
"","null","html-keyboard-response","562","1059750","0.0-3.0-0.469-0.469","<span style= ""font-size:30px; font-family: monospace"">+</span>","null","fixation","","","","",""
"","3791","html-keyboard-response","563","1063792","0.0-3.0-1.469","<span style=""font-size:30px; font-family: monospace"">A</span>"," ","","exp-sent","A","","",""
"","980","html-keyboard-response","564","1065024","0.0-3.0-1.470","<span style=""font-size:30px; font-family: monospace"">médica</span>"," ","","exp-sent","médica","","",""
"","691","html-keyboard-response","565","1065968","0.0-3.0-1.471","<span style=""font-size:30px; font-family: monospace"">ofereceu</span>"," ","","exp-sent","ofereceu","","",""
"","517","html-keyboard-response","566","1066736","0.0-3.0-1.472","<span style=""font-size:30px; font-family: monospace"">a</span>"," ","","exp-sent","a","","",""
"","1060","html-keyboard-response","567","1068048","0.0-3.0-1.473","<span style=""font-size:30px; font-family: monospace"">pomada</span>"," ","","exp-sent","pomada","","",""
"","597","html-keyboard-response","568","1068896","0.0-3.0-1.474","<span style=""font-size:30px; font-family: monospace"">para</span>"," ","","exp-sent","para","","",""
"","597","html-keyboard-response","569","1069744","0.0-3.0-1.475","<span style=""font-size:30px; font-family: monospace"">o</span>"," ","","exp-sent","o","","",""
"","3013","html-keyboard-response","570","1073008","0.0-3.0-1.476","<span style=""font-size:30px; font-family: monospace"">avô.</span>"," ","","exp-sent","avô.","","",""
"","null","html-keyboard-response","571","1074273","0.0-3.0-0.477-0.477","<span style= ""font-size:30px; font-family: monospace"">+</span>","null","fixation","","","","",""
"","756","html-keyboard-response","572","1075280","0.0-3.0-1.477","<span style=""font-size:30px; font-family: monospace"">Ele</span>"," ","","exp-sent","Ele","","",""
"","1045","html-keyboard-response","573","1076576","0.0-3.0-1.478","<span style=""font-size:30px; font-family: monospace"">conversou</span>"," ","","exp-sent","conversou","","",""
"","533","html-keyboard-response","574","1077360","0.0-3.0-1.479","<span style=""font-size:30px; font-family: monospace"">com</span>"," ","","exp-sent","com","","",""
"","565","html-keyboard-response","575","1078176","0.0-3.0-1.480","<span style=""font-size:30px; font-family: monospace"">o</span>"," ","","exp-sent","o","","",""
"","2213","html-keyboard-response","576","1080640","0.0-3.0-1.481","<span style=""font-size:30px; font-family: monospace"">patrão</span>"," ","","exp-sent","patrão","","",""
"","821","html-keyboard-response","577","1081712","0.0-3.0-1.482","<span style=""font-size:30px; font-family: monospace"">durante</span>"," ","","exp-sent","durante","","",""
"","581","html-keyboard-response","578","1082544","0.0-3.0-1.483","<span style=""font-size:30px; font-family: monospace"">a</span>"," ","","exp-sent","a","","",""
"","4837","html-keyboard-response","579","1087632","0.0-3.0-1.484","<span style=""font-size:30px; font-family: monospace"">tarde.</span>"," ","","exp-sent","tarde.","","",""
"","null","html-keyboard-response","580","1088884","0.0-3.0-0.485-0.485","<span style= ""font-size:30px; font-family: monospace"">+</span>","null","fixation","","","","",""
"","673","html-keyboard-response","581","1089808","0.0-3.0-1.485","<span style=""font-size:30px; font-family: monospace"">Algumas</span>"," ","","exp-sent","Algumas","","",""
"","709","html-keyboard-response","582","1090768","0.0-3.0-1.486","<span style=""font-size:30px; font-family: monospace"">pessoas</span>"," ","","exp-sent","pessoas","","",""
"","1588","html-keyboard-response","583","1092608","0.0-3.0-1.487","<span style=""font-size:30px; font-family: monospace"">acreditam</span>"," ","","exp-sent","acreditam","","",""
