"view_history","rt","trial_type","trial_index","time_elapsed","internal_node_id","stimulus","response","trial_part","word","question","answer","trial","accuracy"
"[{""page_index"":0,""viewing_time"":25252},{""page_index"":1,""viewing_time"":2408}]","27661","instructions","0","27662","0.0-0.0","","","","","","","",""
"","null","html-keyboard-response","1","28792","0.0-1.0-0.0-0.0","<span style= ""font-size:30px; font-family: monospace"">+</span>","null","fixation","","","","",""
"","11160","audio-keyboard-response","2","40237","0.0-1.0-1.0","../audio/prac-question-1-1.mp3"," ","","O","","","",""
"","3480","audio-keyboard-response","3","43996","0.0-1.0-1.1","../audio/prac-question-1-2.mp3"," ","","dia","","","",""
"","2789","audio-keyboard-response","4","47052","0.0-1.0-1.2","../audio/prac-question-1-3.mp3"," ","","estará","","","",""
"","2600","audio-keyboard-response","5","49916","0.0-1.0-1.3","../audio/prac-question-1-4.mp3"," ","","cheio","","","",""
"","1669","audio-keyboard-response","6","51852","0.0-1.0-1.4","../audio/prac-question-1-5.mp3"," ","","de","","","",""
"","3632","audio-keyboard-response","7","55756","0.0-1.0-1.5","../audio/prac-question-1-6.mp3"," ","","nuvens","","","",""
"","4691","audio-keyboard-response","8","60716","0.0-1.0-1.6","../audio/prac-question-1-7.mp3"," ","","hoje.","","","",""
"","null","html-keyboard-response","9","61996","0.0-1.0-0.7-0.7","<span style= ""font-size:30px; font-family: monospace"">+</span>","null","fixation","","","","",""
"","1419","audio-keyboard-response","10","63692","0.0-1.0-1.7","../audio/prac-question-2-1.mp3"," ","","A","","","",""
"","1701","audio-keyboard-response","11","65660","0.0-1.0-1.8","../audio/prac-question-2-2.mp3"," ","","caneca","","","",""
"","1461","audio-keyboard-response","12","67388","0.0-1.0-1.9","../audio/prac-question-2-3.mp3"," ","","colorida","","","",""
"","1011","audio-keyboard-response","13","68668","0.0-1.0-1.10","../audio/prac-question-2-4.mp3"," ","","caiu","","","",""
"","1240","audio-keyboard-response","14","70188","0.0-1.0-1.11","../audio/prac-question-2-5.mp3"," ","","da","","","",""
"","1221","audio-keyboard-response","15","71676","0.0-1.0-1.12","../audio/prac-question-2-6.mp3"," ","","mesa","","","",""
"","1029","audio-keyboard-response","16","72972","0.0-1.0-1.13","../audio/prac-question-2-7.mp3"," ","","de","","","",""
"","2611","audio-keyboard-response","17","75852","0.0-1.0-1.14","../audio/prac-question-2-8.mp3"," ","","jantar.","","","",""
"","11832","html-keyboard-response","18","87948","0.0-1.0-2.14-0.14","<span style=""font-size:25px; font-family: monospace"">A caneca era colorida?</span>","s","","","A caneca era colorida?","null","prac-sent","false"
"[{""page_index"":0,""viewing_time"":5919}]","5919","instructions","19","94380","0.0-2.0","","","","","","","",""
"","null","html-keyboard-response","20","95500","0.0-3.0-0.0-0.0","<span style= ""font-size:30px; font-family: monospace"">+</span>","null","fixation","","","","",""
"","3811","audio-keyboard-response","21","99596","0.0-3.0-1.0","../audio/79-1-masc.mp3"," ","","A","","","",""
"","1829","audio-keyboard-response","22","101708","0.0-3.0-1.1","../audio/79-2-masc.mp3"," ","","médica","","","",""
"","1739","audio-keyboard-response","23","103739","0.0-3.0-1.2","../audio/79-3-masc.mp3"," ","","verificou","","","",""
"","1600","audio-keyboard-response","24","105627","0.0-3.0-1.3","../audio/79-4-masc.mp3"," ","","a","","","",""
"","1541","audio-keyboard-response","25","107436","0.0-3.0-1.4","../audio/79-5-masc.mp3"," ","","gengiva","","","",""
"","1139","audio-keyboard-response","26","108843","0.0-3.0-1.5","../audio/79-6-masc.mp3"," ","","por","","","",""
"","3589","audio-keyboard-response","27","112700","0.0-3.0-1.6","../audio/79-7-masc.mp3"," ","","último.","","","",""
"","null","html-keyboard-response","28","113965","0.0-3.0-0.7-0.7","<span style= ""font-size:30px; font-family: monospace"">+</span>","null","fixation","","","","",""
"","3429","audio-keyboard-response","29","117660","0.0-3.0-1.7","../audio/78-1-masc.mp3"," ","","Eles","","","",""
"","1429","audio-keyboard-response","30","119371","0.0-3.0-1.8","../audio/78-2-masc.mp3"," ","","trazem","","","",""
"","1179","audio-keyboard-response","31","120811","0.0-3.0-1.9","../audio/78-3-masc.mp3"," ","","um","","","",""
"","1440","audio-keyboard-response","32","122524","0.0-3.0-1.10","../audio/78-4-masc.mp3"," ","","fato","","","",""
"","1341","audio-keyboard-response","33","124140","0.0-3.0-1.11","../audio/78-5-masc.mp3"," ","","urgente","","","",""
"","1261","audio-keyboard-response","34","125676","0.0-3.0-1.12","../audio/78-6-masc.mp3"," ","","todos","","","",""
"","1139","audio-keyboard-response","35","127100","0.0-3.0-1.13","../audio/78-7-masc.mp3"," ","","os","","","",""
"","3272","audio-keyboard-response","36","130636","0.0-3.0-1.14","../audio/78-8-masc.mp3"," ","","dias.","","","",""
"","null","html-keyboard-response","37","131915","0.0-3.0-0.15-0.15","<span style= ""font-size:30px; font-family: monospace"">+</span>","null","fixation","","","","",""
"","1440","audio-keyboard-response","38","133628","0.0-3.0-1.15","../audio/77-1-masc.mp3"," ","","A","","","",""
"","1080","audio-keyboard-response","39","134988","0.0-3.0-1.16","../audio/77-2-masc.mp3"," ","","criança","","","",""
"","931","audio-keyboard-response","40","136187","0.0-3.0-1.17","../audio/77-3-masc.mp3"," ","","ficou","","","",""
"","1589","audio-keyboard-response","41","138060","0.0-3.0-1.18","../audio/77-4-masc.mp3"," ","","muito","","","",""
"","1032","audio-keyboard-response","42","139355","0.0-3.0-1.19","../audio/77-5-masc.mp3"," ","","feliz","","","",""
"","840","audio-keyboard-response","43","140460","0.0-3.0-1.20","../audio/77-6-masc.mp3"," ","","com","","","",""
"","1000","audio-keyboard-response","44","141723","0.0-3.0-1.21","../audio/77-7-masc.mp3"," ","","o","","","",""
"","3949","audio-keyboard-response","45","145947","0.0-3.0-1.22","../audio/77-8-masc.mp3"," ","","brinquedo.","","","",""
"","null","html-keyboard-response","46","147220","0.0-3.0-0.23-0.23","<span style= ""font-size:30px; font-family: monospace"">+</span>","null","fixation","","","","",""
"","749","audio-keyboard-response","47","148251","0.0-3.0-1.23","../audio/76-1-masc.mp3"," ","","O","","","",""
"","1021","audio-keyboard-response","48","149548","0.0-3.0-1.24","../audio/76-2-masc.mp3"," ","","bisavô","","","",""
"","789","audio-keyboard-response","49","150603","0.0-3.0-1.25","../audio/76-3-masc.mp3"," ","","comprou","","","",""
"","861","audio-keyboard-response","50","151740","0.0-3.0-1.26","../audio/76-4-masc.mp3"," ","","um","","","",""
"","1040","audio-keyboard-response","51","153051","0.0-3.0-1.27","../audio/76-5-masc.mp3"," ","","ralador","","","",""
"","989","audio-keyboard-response","52","154300","0.0-3.0-1.28","../audio/76-6-masc.mp3"," ","","de","","","",""
"","2171","audio-keyboard-response","53","156731","0.0-3.0-1.29","../audio/76-7-masc.mp3"," ","","queijo.","","","",""
"","null","html-keyboard-response","54","158005","0.0-3.0-0.30-0.30","<span style= ""font-size:30px; font-family: monospace"">+</span>","null","fixation","","","","",""
"","1072","audio-keyboard-response","55","159356","0.0-3.0-1.30","../audio/80-1-masc.mp3"," ","","Meu","","","",""
"","989","audio-keyboard-response","56","160619","0.0-3.0-1.31","../audio/80-2-masc.mp3"," ","","primo","","","",""
"","909","audio-keyboard-response","57","161803","0.0-3.0-1.32","../audio/80-3-masc.mp3"," ","","conheceu","","","",""
"","909","audio-keyboard-response","58","162987","0.0-3.0-1.33","../audio/80-4-masc.mp3"," ","","um","","","",""
"","1131","audio-keyboard-response","59","164395","0.0-3.0-1.34","../audio/80-5-masc.mp3"," ","","jovem","","","",""
"","1155","audio-keyboard-response","60","165819","0.0-3.0-1.35","../audio/80-6-masc.mp3"," ","","amável","","","",""
"","971","audio-keyboard-response","61","167067","0.0-3.0-1.36","../audio/80-7-masc.mp3"," ","","e","","","",""
"","2040","audio-keyboard-response","62","169387","0.0-3.0-1.37","../audio/80-8-masc.mp3"," ","","confiante.","","","",""
"","3923","html-keyboard-response","63","173564","0.0-3.0-2.37-0.37","<span style=""font-size:25px; font-family: monospace"">O primo conheceu um jovem irritante?</span>","s","","","O primo conheceu um jovem irritante?","null","exp-sent","false"
"","null","html-keyboard-response","64","175094","0.0-3.0-0.38-0.38","<span style= ""font-size:30px; font-family: monospace"">+</span>","null","fixation","","","","",""
"","981","audio-keyboard-response","65","176347","0.0-3.0-1.38","../audio/31-1-masc.mp3"," ","","O","","","",""
"","800","audio-keyboard-response","66","177420","0.0-3.0-1.39","../audio/31-2-masc.mp3"," ","","padeiro","","","",""
"","960","audio-keyboard-response","67","178651","0.0-3.0-1.40","../audio/31-3-masc.mp3"," ","","usou","","","",""
"","789","audio-keyboard-response","68","179707","0.0-3.0-1.41","../audio/31-4-masc.mp3"," ","","a","","","",""
"","859","audio-keyboard-response","69","180843","0.0-3.0-1.42","../audio/31-5-masc.mp3"," ","","balança","","","",""
"","1539","audio-keyboard-response","70","182651","0.0-3.0-1.43","../audio/31-6-masc.mp3"," ","","o","","","",""
"","1120","audio-keyboard-response","71","184043","0.0-3.0-1.44","../audio/31-7-masc.mp3"," ","","dia","","","",""
"","2891","audio-keyboard-response","72","187211","0.0-3.0-1.45","../audio/31-8-masc.mp3"," ","","inteiro.","","","",""
"","null","html-keyboard-response","73","188479","0.0-3.0-0.46-0.46","<span style= ""font-size:30px; font-family: monospace"">+</span>","null","fixation","","","","",""
"","1741","audio-keyboard-response","74","190507","0.0-3.0-1.46","../audio/33-1-fem.mp3"," ","","Eles","","","",""
"","869","audio-keyboard-response","75","191643","0.0-3.0-1.47","../audio/33-2-fem.mp3"," ","","sabem","","","",""
"","1200","audio-keyboard-response","76","193099","0.0-3.0-1.48","../audio/33-3-fem.mp3"," ","","do","","","",""
"","1272","audio-keyboard-response","77","194635","0.0-3.0-1.49","../audio/33-4-fem.mp3"," ","","seu","","","",""
"","888","audio-keyboard-response","78","195803","0.0-3.0-1.50","../audio/33-5-fem.mp3"," ","","privilégio","","","",""
"","2419","audio-keyboard-response","79","198491","0.0-3.0-1.51","../audio/33-6-fem.mp3"," ","","nessa","","","",""
"","3040","audio-keyboard-response","80","201803","0.0-3.0-1.52","../audio/33-7-fem.mp3"," ","","confusão.","","","",""
"","null","html-keyboard-response","81","203073","0.0-3.0-0.53-0.53","<span style= ""font-size:30px; font-family: monospace"">+</span>","null","fixation","","","","",""
"","1440","audio-keyboard-response","82","204795","0.0-3.0-1.53","../audio/34-1-fem.mp3"," ","","Cobrança","","","",""
"","1589","audio-keyboard-response","83","206667","0.0-3.0-1.54","../audio/34-2-fem.mp3"," ","","excessiva","","","",""
"","691","audio-keyboard-response","84","207627","0.0-3.0-1.55","../audio/34-3-fem.mp3"," ","","é","","","",""
"","840","audio-keyboard-response","85","208747","0.0-3.0-1.56","../audio/34-4-fem.mp3"," ","","um","","","",""
"","1099","audio-keyboard-response","86","210123","0.0-3.0-1.57","../audio/34-5-fem.mp3"," ","","fardo","","","",""
"","909","audio-keyboard-response","87","211307","0.0-3.0-1.58","../audio/34-6-fem.mp3"," ","","para","","","",""
"","949","audio-keyboard-response","88","212523","0.0-3.0-1.59","../audio/34-7-fem.mp3"," ","","a","","","",""
"","6240","audio-keyboard-response","89","219035","0.0-3.0-1.60","../audio/34-8-fem.mp3"," ","","cabeça.","","","",""
"","null","html-keyboard-response","90","220310","0.0-3.0-0.61-0.61","<span style= ""font-size:30px; font-family: monospace"">+</span>","null","fixation","","","","",""
"","800","audio-keyboard-response","91","221387","0.0-3.0-1.61","../audio/32-1-masc.mp3"," ","","A","","","",""
"","1051","audio-keyboard-response","92","222715","0.0-3.0-1.62","../audio/32-2-masc.mp3"," ","","tia","","","",""
"","1149","audio-keyboard-response","93","224139","0.0-3.0-1.63","../audio/32-3-masc.mp3"," ","","comprou","","","",""
"","811","audio-keyboard-response","94","225211","0.0-3.0-1.64","../audio/32-4-masc.mp3"," ","","um","","","",""
"","1040","audio-keyboard-response","95","226523","0.0-3.0-1.65","../audio/32-5-masc.mp3"," ","","pilão","","","",""
"","760","audio-keyboard-response","96","227563","0.0-3.0-1.66","../audio/32-6-masc.mp3"," ","","para","","","",""
"","1032","audio-keyboard-response","97","228875","0.0-3.0-1.67","../audio/32-7-masc.mp3"," ","","a","","","",""
"","1659","audio-keyboard-response","98","230811","0.0-3.0-1.68","../audio/32-8-masc.mp3"," ","","cozinha.","","","",""
"","null","html-keyboard-response","99","232079","0.0-3.0-0.69-0.69","<span style= ""font-size:30px; font-family: monospace"">+</span>","null","fixation","","","","",""
"","1051","audio-keyboard-response","100","233419","0.0-3.0-1.69","../audio/35-1-fem.mp3"," ","","A","","","",""
"","880","audio-keyboard-response","101","234571","0.0-3.0-1.70","../audio/35-2-fem.mp3"," ","","receita","","","",""
"","869","audio-keyboard-response","102","235723","0.0-3.0-1.71","../audio/35-3-fem.mp3"," ","","para","","","",""
"","712","audio-keyboard-response","103","236715","0.0-3.0-1.72","../audio/35-4-fem.mp3"," ","","a","","","",""
"","1779","audio-keyboard-response","104","238763","0.0-3.0-1.73","../audio/35-5-fem.mp3"," ","","preparação","","","",""
"","859","audio-keyboard-response","105","239899","0.0-3.0-1.74","../audio/35-6-fem.mp3"," ","","do","","","",""
"","971","audio-keyboard-response","106","241147","0.0-3.0-1.75","../audio/35-7-fem.mp3"," ","","bolo","","","",""
"","760","audio-keyboard-response","107","242171","0.0-3.0-1.76","../audio/35-8-fem.mp3"," ","","é","","","",""
"","2352","audio-keyboard-response","108","244795","0.0-3.0-1.77","../audio/35-9-fem.mp3"," ","","leve.","","","",""
"","3933","html-keyboard-response","109","248987","0.0-3.0-2.77-0.77","<span style=""font-size:25px; font-family: monospace"">A receita do bolo é pesada?</span>","s","","","A receita do bolo é pesada?","null","exp-sent","false"
"","null","html-keyboard-response","110","250507","0.0-3.0-0.78-0.78","<span style= ""font-size:30px; font-family: monospace"">+</span>","null","fixation","","","","",""
"","989","audio-keyboard-response","111","251787","0.0-3.0-1.78","../audio/46-1-masc.mp3"," ","","Meu","","","",""
"","1080","audio-keyboard-response","112","253147","0.0-3.0-1.79","../audio/46-2-masc.mp3"," ","","primo","","","",""
"","829","audio-keyboard-response","113","254251","0.0-3.0-1.80","../audio/46-3-masc.mp3"," ","","estava","","","",""
"","1269","audio-keyboard-response","114","255787","0.0-3.0-1.81","../audio/46-4-masc.mp3"," ","","muito","","","",""
"","1371","audio-keyboard-response","115","257435","0.0-3.0-1.82","../audio/46-5-masc.mp3"," ","","deprimido","","","",""
"","880","audio-keyboard-response","116","258587","0.0-3.0-1.83","../audio/46-6-masc.mp3"," ","","no","","","",""
"","1680","audio-keyboard-response","117","260539","0.0-3.0-1.84","../audio/46-7-masc.mp3"," ","","inverno.","","","",""
"","null","html-keyboard-response","118","261798","0.0-3.0-0.85-0.85","<span style= ""font-size:30px; font-family: monospace"">+</span>","null","fixation","","","","",""
"","1480","audio-keyboard-response","119","263563","0.0-3.0-1.85","../audio/48-1-fem.mp3"," ","","Ela","","","",""
"","819","audio-keyboard-response","120","264651","0.0-3.0-1.86","../audio/48-2-fem.mp3"," ","","come","","","",""
"","901","audio-keyboard-response","121","265819","0.0-3.0-1.87","../audio/48-3-fem.mp3"," ","","feijão","","","",""
"","880","audio-keyboard-response","122","266971","0.0-3.0-1.88","../audio/48-4-fem.mp3"," ","","com","","","",""
"","1091","audio-keyboard-response","123","268347","0.0-3.0-1.89","../audio/48-5-fem.mp3"," ","","arroz","","","",""
"","1000","audio-keyboard-response","124","269611","0.0-3.0-1.90","../audio/48-6-fem.mp3"," ","","todos","","","",""
"","728","audio-keyboard-response","125","270603","0.0-3.0-1.91","../audio/48-7-fem.mp3"," ","","os","","","",""
"","2389","audio-keyboard-response","126","273259","0.0-3.0-1.92","../audio/48-8-fem.mp3"," ","","dias.","","","",""
"","null","html-keyboard-response","127","274521","0.0-3.0-0.93-0.93","<span style= ""font-size:30px; font-family: monospace"">+</span>","null","fixation","","","","",""
"","581","audio-keyboard-response","128","275387","0.0-3.0-1.93","../audio/49-1-fem.mp3"," ","","Eu","","","",""
"","949","audio-keyboard-response","129","276603","0.0-3.0-1.94","../audio/49-2-fem.mp3"," ","","quero","","","",""
"","669","audio-keyboard-response","130","277547","0.0-3.0-1.95","../audio/49-3-fem.mp3"," ","","um","","","",""
"","939","audio-keyboard-response","131","278763","0.0-3.0-1.96","../audio/49-4-fem.mp3"," ","","lanche","","","",""
"","1429","audio-keyboard-response","132","280459","0.0-3.0-1.97","../audio/49-5-fem.mp3"," ","","duplo","","","",""
"","931","audio-keyboard-response","133","281659","0.0-3.0-1.98","../audio/49-6-fem.mp3"," ","","e","","","",""
"","749","audio-keyboard-response","134","282683","0.0-3.0-1.99","../audio/49-7-fem.mp3"," ","","um","","","",""
"","1621","audio-keyboard-response","135","284587","0.0-3.0-1.100","../audio/49-8-fem.mp3"," ","","suco.","","","",""
"","null","html-keyboard-response","136","285867","0.0-3.0-0.101-0.101","<span style= ""font-size:30px; font-family: monospace"">+</span>","null","fixation","","","","",""
"","1280","audio-keyboard-response","137","287419","0.0-3.0-1.101","../audio/47-1-fem.mp3"," ","","O","","","",""
"","920","audio-keyboard-response","138","288603","0.0-3.0-1.102","../audio/47-2-fem.mp3"," ","","tio","","","",""
"","1139","audio-keyboard-response","139","290011","0.0-3.0-1.103","../audio/47-3-fem.mp3"," ","","recusou","","","",""
"","699","audio-keyboard-response","140","290971","0.0-3.0-1.104","../audio/47-4-fem.mp3"," ","","a","","","",""
"","1749","audio-keyboard-response","141","293003","0.0-3.0-1.105","../audio/47-5-fem.mp3"," ","","sobremesa","","","",""
"","1589","audio-keyboard-response","142","294859","0.0-3.0-1.106","../audio/47-6-fem.mp3"," ","","no","","","",""
"","1661","audio-keyboard-response","143","296795","0.0-3.0-1.107","../audio/47-7-fem.mp3"," ","","almoço.","","","",""
"","null","html-keyboard-response","144","298063","0.0-3.0-0.108-0.108","<span style= ""font-size:30px; font-family: monospace"">+</span>","null","fixation","","","","",""
"","600","audio-keyboard-response","145","298923","0.0-3.0-1.108","../audio/50-1-masc.mp3"," ","","O","","","",""
"","1349","audio-keyboard-response","146","300539","0.0-3.0-1.109","../audio/50-2-masc.mp3"," ","","pássaro","","","",""
"","891","audio-keyboard-response","147","301707","0.0-3.0-1.110","../audio/50-3-masc.mp3"," ","","fugiu","","","",""
"","709","audio-keyboard-response","148","302683","0.0-3.0-1.111","../audio/50-4-masc.mp3"," ","","da","","","",""
"","989","audio-keyboard-response","149","303947","0.0-3.0-1.112","../audio/50-5-masc.mp3"," ","","gaiola","","","",""
"","909","audio-keyboard-response","150","305131","0.0-3.0-1.113","../audio/50-6-masc.mp3"," ","","pela","","","",""
"","1872","audio-keyboard-response","151","307275","0.0-3.0-1.114","../audio/50-7-masc.mp3"," ","","portinhola.","","","",""
"","2401","html-keyboard-response","152","309931","0.0-3.0-2.114-0.114","<span style=""font-size:25px; font-family: monospace"">O pássaro fugiu da gaiola?</span>","s","","","O pássaro fugiu da gaiola?","null","exp-sent","false"
"","null","html-keyboard-response","153","311435","0.0-3.0-0.115-0.115","<span style= ""font-size:30px; font-family: monospace"">+</span>","null","fixation","","","","",""
"","589","audio-keyboard-response","154","312299","0.0-3.0-1.115","../audio/01-1-masc.mp3"," ","","O","","","",""
"","891","audio-keyboard-response","155","313467","0.0-3.0-1.116","../audio/01-2-masc.mp3"," ","","menino","","","",""
"","971","audio-keyboard-response","156","314715","0.0-3.0-1.117","../audio/01-3-masc.mp3"," ","","derrubou","","","",""
"","629","audio-keyboard-response","157","315627","0.0-3.0-1.118","../audio/01-4-masc.mp3"," ","","a","","","",""
"","949","audio-keyboard-response","158","316843","0.0-3.0-1.119","../audio/01-5-masc.mp3"," ","","guitarra","","","",""
"","891","audio-keyboard-response","159","318011","0.0-3.0-1.120","../audio/01-6-masc.mp3"," ","","no","","","",""
"","3181","audio-keyboard-response","160","321467","0.0-3.0-1.121","../audio/01-7-masc.mp3"," ","","chão.","","","",""
"","null","html-keyboard-response","161","322734","0.0-3.0-0.122-0.122","<span style= ""font-size:30px; font-family: monospace"">+</span>","null","fixation","","","","",""
"","3541","audio-keyboard-response","162","326555","0.0-3.0-1.122","../audio/03-1-fem.mp3"," ","","O","","","",""
"","939","audio-keyboard-response","163","327771","0.0-3.0-1.123","../audio/03-2-fem.mp3"," ","","coelho","","","",""
"","709","audio-keyboard-response","164","328747","0.0-3.0-1.124","../audio/03-3-fem.mp3"," ","","foi","","","",""
"","699","audio-keyboard-response","165","329723","0.0-3.0-1.125","../audio/03-4-fem.mp3"," ","","bastante","","","",""
"","1920","audio-keyboard-response","166","331915","0.0-3.0-1.126","../audio/03-5-fem.mp3"," ","","dócil","","","",""
"","691","audio-keyboard-response","167","332875","0.0-3.0-1.127","../audio/03-6-fem.mp3"," ","","com","","","",""
"","1040","audio-keyboard-response","168","334187","0.0-3.0-1.128","../audio/03-7-fem.mp3"," ","","as","","","",""
"","3451","audio-keyboard-response","169","337915","0.0-3.0-1.129","../audio/03-8-fem.mp3"," ","","crianças.","","","",""
"","null","html-keyboard-response","170","339190","0.0-3.0-0.130-0.130","<span style= ""font-size:30px; font-family: monospace"">+</span>","null","fixation","","","","",""
"","1139","audio-keyboard-response","171","340619","0.0-3.0-1.130","../audio/04-1-fem.mp3"," ","","Duzentos","","","",""
"","901","audio-keyboard-response","172","341787","0.0-3.0-1.131","../audio/04-2-fem.mp3"," ","","carros","","","",""
"","680","audio-keyboard-response","173","342731","0.0-3.0-1.132","../audio/04-3-fem.mp3"," ","","passaram","","","",""
"","912","audio-keyboard-response","174","343914","0.0-3.0-1.133","../audio/04-4-fem.mp3"," ","","pela","","","",""
"","869","audio-keyboard-response","175","345066","0.0-3.0-1.134","../audio/04-5-fem.mp3"," ","","ponte","","","",""
"","1000","audio-keyboard-response","176","346346","0.0-3.0-1.135","../audio/04-6-fem.mp3"," ","","hoje","","","",""
"","1019","audio-keyboard-response","177","347642","0.0-3.0-1.136","../audio/04-7-fem.mp3"," ","","de","","","",""
"","3131","audio-keyboard-response","178","351050","0.0-3.0-1.137","../audio/04-8-fem.mp3"," ","","tarde.","","","",""
"","null","html-keyboard-response","179","352324","0.0-3.0-0.138-0.138","<span style= ""font-size:30px; font-family: monospace"">+</span>","null","fixation","","","","",""
"","728","audio-keyboard-response","180","353323","0.0-3.0-1.138","../audio/02-2-fem.mp3"," ","","Havia","","","",""
"","680","audio-keyboard-response","181","354267","0.0-3.0-1.139","../audio/02-2-fem.mp3"," ","","um","","","",""
"","939","audio-keyboard-response","182","355482","0.0-3.0-1.140","../audio/02-3-fem.mp3"," ","","cheiro","","","",""
"","640","audio-keyboard-response","183","356394","0.0-3.0-1.141","../audio/02-4-fem.mp3"," ","","de","","","",""
"","771","audio-keyboard-response","184","357434","0.0-3.0-1.142","../audio/02-5-fem.mp3"," ","","gasolina","","","",""
"","1059","audio-keyboard-response","185","358762","0.0-3.0-1.143","../audio/02-6-fem.mp3"," ","","na","","","",""
"","4160","audio-keyboard-response","186","363194","0.0-3.0-1.144","../audio/02-7-fem.mp3"," ","","garagem.","","","",""
"","null","html-keyboard-response","187","364465","0.0-3.0-0.145-0.145","<span style= ""font-size:30px; font-family: monospace"">+</span>","null","fixation","","","","",""
"","520","audio-keyboard-response","188","365259","0.0-3.0-1.145","../audio/05-1-fem.mp3"," ","","A","","","",""
"","1091","audio-keyboard-response","189","366634","0.0-3.0-1.146","../audio/05-2-fem.mp3"," ","","vendedora","","","",""
"","979","audio-keyboard-response","190","367882","0.0-3.0-1.147","../audio/05-3-fem.mp3"," ","","ajudou","","","",""
"","859","audio-keyboard-response","191","369002","0.0-3.0-1.148","../audio/05-4-fem.mp3"," ","","um","","","",""
"","949","audio-keyboard-response","192","370219","0.0-3.0-1.149","../audio/05-5-fem.mp3"," ","","turista","","","",""
"","971","audio-keyboard-response","193","371450","0.0-3.0-1.150","../audio/05-6-fem.mp3"," ","","na","","","",""
"","3589","audio-keyboard-response","194","375306","0.0-3.0-1.151","../audio/05-7-fem.mp3"," ","","loja.","","","",""
"","2051","html-keyboard-response","195","377610","0.0-3.0-2.151-0.151","<span style=""font-size:25px; font-family: monospace"">A vendedora ajudou um turista?</span>","s","","","A vendedora ajudou um turista?","null","exp-sent","false"
"","null","html-keyboard-response","196","379133","0.0-3.0-0.152-0.152","<span style= ""font-size:30px; font-family: monospace"">+</span>","null","fixation","","","","",""
"","200","audio-keyboard-response","197","379610","0.0-3.0-1.152","../audio/57-1-fem.mp3"," ","","O","","","",""
"","1280","audio-keyboard-response","198","381162","0.0-3.0-1.153","../audio/57-2-fem.mp3"," ","","capitão","","","",""
"","749","audio-keyboard-response","199","382186","0.0-3.0-1.154","../audio/57-3-fem.mp3"," ","","deu","","","",""
"","869","audio-keyboard-response","200","383322","0.0-3.0-1.155","../audio/57-4-fem.mp3"," ","","uma","","","",""
"","1328","audio-keyboard-response","201","384923","0.0-3.0-1.156","../audio/57-5-fem.mp3"," ","","instrução","","","",""
"","899","audio-keyboard-response","202","386090","0.0-3.0-1.157","../audio/57-6-fem.mp3"," ","","para","","","",""
"","880","audio-keyboard-response","203","387242","0.0-3.0-1.158","../audio/57-7-fem.mp3"," ","","as","","","",""
"","949","audio-keyboard-response","204","388459","0.0-3.0-1.159","../audio/57-8-fem.mp3"," ","","pessoas.","","","",""
"","null","html-keyboard-response","205","389737","0.0-3.0-0.160-0.160","<span style= ""font-size:30px; font-family: monospace"">+</span>","null","fixation","","","","",""
"","5741","audio-keyboard-response","206","395755","0.0-3.0-1.160","../audio/59-1-masc.mp3"," ","","O","","","",""
"","1331","audio-keyboard-response","207","397370","0.0-3.0-1.161","../audio/59-2-masc.mp3"," ","","carteiro","","","",""
"","1021","audio-keyboard-response","208","398666","0.0-3.0-1.162","../audio/59-3-masc.mp3"," ","","fez","","","",""
"","829","audio-keyboard-response","209","399770","0.0-3.0-1.163","../audio/59-4-masc.mp3"," ","","uma","","","",""
"","1120","audio-keyboard-response","210","401178","0.0-3.0-1.164","../audio/59-5-masc.mp3"," ","","tentativa","","","",""
"","741","audio-keyboard-response","211","402186","0.0-3.0-1.165","../audio/59-6-masc.mp3"," ","","de","","","",""
"","6109","audio-keyboard-response","212","408571","0.0-3.0-1.166","../audio/59-7-masc.mp3"," ","","entrega.","","","",""
"","null","html-keyboard-response","213","409846","0.0-3.0-0.167-0.167","<span style= ""font-size:30px; font-family: monospace"">+</span>","null","fixation","","","","",""
"","968","audio-keyboard-response","214","411082","0.0-3.0-1.167","../audio/58-1-masc.mp3"," ","","Havia","","","",""
"","821","audio-keyboard-response","215","412187","0.0-3.0-1.168","../audio/58-2-masc.mp3"," ","","apenas","","","",""
"","680","audio-keyboard-response","216","413131","0.0-3.0-1.169","../audio/58-3-masc.mp3"," ","","um","","","",""
"","1392","audio-keyboard-response","217","414794","0.0-3.0-1.170","../audio/58-4-masc.mp3"," ","","último","","","",""
"","1109","audio-keyboard-response","218","416187","0.0-3.0-1.171","../audio/58-5-masc.mp3"," ","","herdeiro","","","",""
"","840","audio-keyboard-response","219","417306","0.0-3.0-1.172","../audio/58-6-masc.mp3"," ","","do","","","",""
"","2920","audio-keyboard-response","220","420507","0.0-3.0-1.173","../audio/58-7-masc.mp3"," ","","dinheiro.","","","",""
"","null","html-keyboard-response","221","421780","0.0-3.0-0.174-0.174","<span style= ""font-size:30px; font-family: monospace"">+</span>","null","fixation","","","","",""
"","531","audio-keyboard-response","222","422586","0.0-3.0-1.174","../audio/56-1-masc.mp3"," ","","A","","","",""
"","971","audio-keyboard-response","223","423819","0.0-3.0-1.175","../audio/56-2-masc.mp3"," ","","moça","","","",""
"","749","audio-keyboard-response","224","424842","0.0-3.0-1.176","../audio/56-3-masc.mp3"," ","","foi","","","",""
"","699","audio-keyboard-response","225","425818","0.0-3.0-1.177","../audio/56-4-masc.mp3"," ","","à","","","",""
"","1221","audio-keyboard-response","226","427307","0.0-3.0-1.178","../audio/56-5-masc.mp3"," ","","agência","","","",""
"","1469","audio-keyboard-response","227","429050","0.0-3.0-1.179","../audio/56-6-masc.mp3"," ","","bancária","","","",""
"","1051","audio-keyboard-response","228","430379","0.0-3.0-1.180","../audio/56-7-masc.mp3"," ","","ontem","","","",""
"","989","audio-keyboard-response","229","431642","0.0-3.0-1.181","../audio/56-8-masc.mp3"," ","","de","","","",""
"","3059","audio-keyboard-response","230","434970","0.0-3.0-1.182","../audio/56-9-masc.mp3"," ","","tarde.","","","",""
"","null","html-keyboard-response","231","436236","0.0-3.0-0.183-0.183","<span style= ""font-size:30px; font-family: monospace"">+</span>","null","fixation","","","","",""
"","531","audio-keyboard-response","232","437035","0.0-3.0-1.183","../audio/60-1-masc.mp3"," ","","Ondas","","","",""
"","1128","audio-keyboard-response","233","438442","0.0-3.0-1.184","../audio/60-2-masc.mp3"," ","","têm","","","",""
"","760","audio-keyboard-response","234","439483","0.0-3.0-1.185","../audio/60-3-masc.mp3"," ","","um","","","",""
"","1099","audio-keyboard-response","235","440859","0.0-3.0-1.186","../audio/60-4-masc.mp3"," ","","impacto","","","",""
"","1219","audio-keyboard-response","236","442362","0.0-3.0-1.187","../audio/60-5-masc.mp3"," ","","destrutivo","","","",""
"","920","audio-keyboard-response","237","443563","0.0-3.0-1.188","../audio/60-6-masc.mp3"," ","","no","","","",""
"","6171","audio-keyboard-response","238","450010","0.0-3.0-1.189","../audio/60-7-masc.mp3"," ","","litoral.","","","",""
"","4352","html-keyboard-response","239","454619","0.0-3.0-2.189-0.189","<span style=""font-size:25px; font-family: monospace"">Ondas têm um impacto destrutivo?</span>","s","","","Ondas têm um impacto destrutivo?","null","exp-sent","false"
"","null","html-keyboard-response","240","456144","0.0-3.0-0.190-0.190","<span style= ""font-size:30px; font-family: monospace"">+</span>","null","fixation","","","","",""
"","1731","audio-keyboard-response","241","458139","0.0-3.0-1.190","../audio/27-1-fem.mp3"," ","","O","","","",""
"","1291","audio-keyboard-response","242","459690","0.0-3.0-1.191","../audio/27-2-fem.mp3"," ","","dinheiro","","","",""
"","1011","audio-keyboard-response","243","460970","0.0-3.0-1.192","../audio/27-3-fem.mp3"," ","","chegou","","","",""
"","648","audio-keyboard-response","244","461882","0.0-3.0-1.193","../audio/27-4-fem.mp3"," ","","à","","","",""
"","979","audio-keyboard-response","245","463130","0.0-3.0-1.194","../audio/27-5-fem.mp3"," ","","elite","","","",""
"","1259","audio-keyboard-response","246","464651","0.0-3.0-1.195","../audio/27-6-fem.mp3"," ","","deste","","","",""
"","3301","audio-keyboard-response","247","468218","0.0-3.0-1.196","../audio/27-7-fem.mp3"," ","","país.","","","",""
"","null","html-keyboard-response","248","469490","0.0-3.0-0.197-0.197","<span style= ""font-size:30px; font-family: monospace"">+</span>","null","fixation","","","","",""
"","851","audio-keyboard-response","249","470618","0.0-3.0-1.197","../audio/28-1-masc.mp3"," ","","O","","","",""
"","1181","audio-keyboard-response","250","472058","0.0-3.0-1.198","../audio/28-2-masc.mp3"," ","","time","","","",""
"","851","audio-keyboard-response","251","473178","0.0-3.0-1.199","../audio/28-3-masc.mp3"," ","","quer","","","",""
"","741","audio-keyboard-response","252","474186","0.0-3.0-1.200","../audio/28-4-masc.mp3"," ","","a","","","",""
"","1240","audio-keyboard-response","253","475706","0.0-3.0-1.201","../audio/28-5-masc.mp3"," ","","vitória","","","",""
"","840","audio-keyboard-response","254","476826","0.0-3.0-1.202","../audio/28-6-masc.mp3"," ","","no","","","",""
"","1131","audio-keyboard-response","255","478218","0.0-3.0-1.203","../audio/28-7-masc.mp3"," ","","jogo","","","",""
"","811","audio-keyboard-response","256","479306","0.0-3.0-1.204","../audio/28-8-masc.mp3"," ","","de","","","",""
"","3411","audio-keyboard-response","257","482986","0.0-3.0-1.205","../audio/28-9-masc.mp3"," ","","vôlei.","","","",""
"","null","html-keyboard-response","258","484256","0.0-3.0-0.206-0.206","<span style= ""font-size:30px; font-family: monospace"">+</span>","null","fixation","","","","",""
"","931","audio-keyboard-response","259","485450","0.0-3.0-1.206","../audio/29-1-fem.mp3"," ","","Hoje","","","",""
"","901","audio-keyboard-response","260","486618","0.0-3.0-1.207","../audio/29-2-fem.mp3"," ","","vamos","","","",""
"","851","audio-keyboard-response","261","487738","0.0-3.0-1.208","../audio/29-3-fem.mp3"," ","","fazer","","","",""
"","640","audio-keyboard-response","262","488650","0.0-3.0-1.209","../audio/29-4-fem.mp3"," ","","uma","","","",""
"","1240","audio-keyboard-response","263","490154","0.0-3.0-1.210","../audio/29-5-fem.mp3"," ","","atividade","","","",""
"","1269","audio-keyboard-response","264","491706","0.0-3.0-1.211","../audio/29-6-fem.mp3"," ","","sobre","","","",""
"","1331","audio-keyboard-response","265","493306","0.0-3.0-1.212","../audio/29-7-fem.mp3"," ","","fauna","","","",""
"","3621","audio-keyboard-response","266","497194","0.0-3.0-1.213","../audio/29-8-fem.mp3"," ","","marinha.","","","",""
"","null","html-keyboard-response","267","498456","0.0-3.0-0.214-0.214","<span style= ""font-size:30px; font-family: monospace"">+</span>","null","fixation","","","","",""
"","1101","audio-keyboard-response","268","499834","0.0-3.0-1.214","../audio/26-1-fem.mp3"," ","","Amanhã","","","",""
"","851","audio-keyboard-response","269","500954","0.0-3.0-1.215","../audio/26-2-fem.mp3"," ","","temos","","","",""
"","909","audio-keyboard-response","270","502138","0.0-3.0-1.216","../audio/26-3-fem.mp3"," ","","festa","","","",""
"","941","audio-keyboard-response","271","503354","0.0-3.0-1.217","../audio/26-4-fem.mp3"," ","","na","","","",""
"","1539","audio-keyboard-response","272","505178","0.0-3.0-1.218","../audio/26-5-fem.mp3"," ","","piscina","","","",""
"","1051","audio-keyboard-response","273","506490","0.0-3.0-1.219","../audio/26-6-fem.mp3"," ","","o","","","",""
"","1160","audio-keyboard-response","274","507914","0.0-3.0-1.220","../audio/26-7-fem.mp3"," ","","dia","","","",""
"","2469","audio-keyboard-response","275","510650","0.0-3.0-1.221","../audio/26-8-fem.mp3"," ","","todo.","","","",""
"","null","html-keyboard-response","276","511903","0.0-3.0-0.222-0.222","<span style= ""font-size:30px; font-family: monospace"">+</span>","null","fixation","","","","",""
"","35149","audio-keyboard-response","277","547322","0.0-3.0-1.222","../audio/30-1-masc.mp3"," ","","O","","","",""
"","3792","audio-keyboard-response","278","551370","0.0-3.0-1.223","../audio/30-2-masc.mp3"," ","","funcionário","","","",""
"","2029","audio-keyboard-response","279","553674","0.0-3.0-1.224","../audio/30-3-masc.mp3"," ","","entregou","","","",""
"","1672","audio-keyboard-response","280","555610","0.0-3.0-1.225","../audio/30-4-masc.mp3"," ","","o","","","",""
"","1629","audio-keyboard-response","281","557514","0.0-3.0-1.226","../audio/30-5-masc.mp3"," ","","restante","","","",""
"","1480","audio-keyboard-response","282","559258","0.0-3.0-1.227","../audio/30-6-masc.mp3"," ","","do","","","",""
"","2280","audio-keyboard-response","283","561802","0.0-3.0-1.228","../audio/30-7-masc.mp3"," ","","dinheiro.","","","",""
"","9443","html-keyboard-response","284","571498","0.0-3.0-2.228-0.228","<span style=""font-size:25px; font-family: monospace"">O funcionário entregou o contrato?</span>","n","","","O funcionário entregou o contrato?","null","exp-sent","false"
"","null","html-keyboard-response","285","573012","0.0-3.0-0.229-0.229","<span style= ""font-size:30px; font-family: monospace"">+</span>","null","fixation","","","","",""
"","1979","audio-keyboard-response","286","575274","0.0-3.0-1.229","../audio/18-1-fem.mp3"," ","","O","","","",""
"","1059","audio-keyboard-response","287","576618","0.0-3.0-1.230","../audio/18-2-fem.mp3"," ","","enredo","","","",""
"","1040","audio-keyboard-response","288","577930","0.0-3.0-1.231","../audio/18-3-fem.mp3"," ","","traz","","","",""
"","1091","audio-keyboard-response","289","579290","0.0-3.0-1.232","../audio/18-4-fem.mp3"," ","","um","","","",""
"","1299","audio-keyboard-response","290","580858","0.0-3.0-1.233","../audio/18-5-fem.mp3"," ","","dragão","","","",""
"","1259","audio-keyboard-response","291","582378","0.0-3.0-1.234","../audio/18-6-fem.mp3"," ","","forte","","","",""
"","1229","audio-keyboard-response","292","583882","0.0-3.0-1.235","../audio/18-7-fem.mp3"," ","","e","","","",""
"","1229","audio-keyboard-response","293","585386","0.0-3.0-1.236","../audio/18-8-fem.mp3"," ","","solitário.","","","",""
"","null","html-keyboard-response","294","586660","0.0-3.0-0.237-0.237","<span style= ""font-size:30px; font-family: monospace"">+</span>","null","fixation","","","","",""
"","3072","audio-keyboard-response","295","590010","0.0-3.0-1.237","../audio/17-1-masc.mp3"," ","","Falaram","","","",""
"","1459","audio-keyboard-response","296","591754","0.0-3.0-1.238","../audio/17-2-masc.mp3"," ","","da","","","",""
"","1480","audio-keyboard-response","297","593498","0.0-3.0-1.239","../audio/17-3-masc.mp3"," ","","lei","","","",""
"","1211","audio-keyboard-response","298","594970","0.0-3.0-1.240","../audio/17-4-masc.mp3"," ","","no","","","",""
"","1291","audio-keyboard-response","299","596522","0.0-3.0-1.241","../audio/17-5-masc.mp3"," ","","ministério","","","",""
"","1389","audio-keyboard-response","300","598186","0.0-3.0-1.242","../audio/17-6-masc.mp3"," ","","diversas","","","",""
"","4000","audio-keyboard-response","301","602459","0.0-3.0-1.243","../audio/17-7-masc.mp3"," ","","vezes.","","","",""
"","null","html-keyboard-response","302","603731","0.0-3.0-0.244-0.244","<span style= ""font-size:30px; font-family: monospace"">+</span>","null","fixation","","","","",""
"","1600","audio-keyboard-response","303","605610","0.0-3.0-1.244","../audio/16-1-fem.mp3"," ","","Eu","","","",""
"","1379","audio-keyboard-response","304","607258","0.0-3.0-1.245","../audio/16-2-fem.mp3"," ","","nunca","","","",""
"","1259","audio-keyboard-response","305","608794","0.0-3.0-1.246","../audio/16-3-fem.mp3"," ","","conheci","","","",""
"","1112","audio-keyboard-response","306","610170","0.0-3.0-1.247","../audio/16-4-fem.mp3"," ","","um","","","",""
"","1331","audio-keyboard-response","307","611770","0.0-3.0-1.248","../audio/16-5-fem.mp3"," ","","general","","","",""
"","989","audio-keyboard-response","308","613034","0.0-3.0-1.249","../audio/16-6-fem.mp3"," ","","do","","","",""
"","1531","audio-keyboard-response","309","614842","0.0-3.0-1.250","../audio/16-7-fem.mp3"," ","","exército.","","","",""
"","null","html-keyboard-response","310","616110","0.0-3.0-0.251-0.251","<span style= ""font-size:30px; font-family: monospace"">+</span>","null","fixation","","","","",""
"","6429","audio-keyboard-response","311","622826","0.0-3.0-1.251","../audio/19-1-fem.mp3"," ","","O","","","",""
"","1341","audio-keyboard-response","312","624442","0.0-3.0-1.252","../audio/19-2-fem.mp3"," ","","menino","","","",""
"","1069","audio-keyboard-response","313","625786","0.0-3.0-1.253","../audio/19-3-fem.mp3"," ","","ganhou","","","",""
"","1520","audio-keyboard-response","314","627578","0.0-3.0-1.254","../audio/19-4-fem.mp3"," ","","uma","","","",""
"","1128","audio-keyboard-response","315","628986","0.0-3.0-1.255","../audio/19-5-fem.mp3"," ","","bala","","","",""
"","1349","audio-keyboard-response","316","630602","0.0-3.0-1.256","../audio/19-6-fem.mp3"," ","","depois","","","",""
"","981","audio-keyboard-response","317","631850","0.0-3.0-1.257","../audio/19-7-fem.mp3"," ","","do","","","",""
"","2880","audio-keyboard-response","318","635002","0.0-3.0-1.258","../audio/19-8-fem.mp3"," ","","almoço.","","","",""
"","null","html-keyboard-response","319","636270","0.0-3.0-0.259-0.259","<span style= ""font-size:30px; font-family: monospace"">+</span>","null","fixation","","","","",""
"","1189","audio-keyboard-response","320","637738","0.0-3.0-1.259","../audio/20-1-fem.mp3"," ","","O","","","",""
"","1728","audio-keyboard-response","321","639738","0.0-3.0-1.260","../audio/20-2-fem.mp3"," ","","colega","","","",""
"","1381","audio-keyboard-response","322","641402","0.0-3.0-1.261","../audio/20-3-fem.mp3"," ","","parecia","","","",""
"","1221","audio-keyboard-response","323","642890","0.0-3.0-1.262","../audio/20-4-fem.mp3"," ","","muito","","","",""
"","1509","audio-keyboard-response","324","644682","0.0-3.0-1.263","../audio/20-5-fem.mp3"," ","","gripado","","","",""
"","1141","audio-keyboard-response","325","646090","0.0-3.0-1.264","../audio/20-6-fem.mp3"," ","","no","","","",""
"","960","audio-keyboard-response","326","647322","0.0-3.0-1.265","../audio/20-7-fem.mp3"," ","","dia","","","",""
"","3699","audio-keyboard-response","327","651305","0.0-3.0-1.266","../audio/20-8-fem.mp3"," ","","anterior.","","","",""
"","8372","html-keyboard-response","328","659930","0.0-3.0-2.266-0.266","<span style=""font-size:25px; font-family: monospace"">O colega parecia muito gripado?</span>","n","","","O colega parecia muito gripado?","null","exp-sent","false"
"","null","html-keyboard-response","329","661442","0.0-3.0-0.267-0.267","<span style= ""font-size:30px; font-family: monospace"">+</span>","null","fixation","","","","",""
"","739","audio-keyboard-response","330","662474","0.0-3.0-1.267","../audio/63-1-fem.mp3"," ","","A","","","",""
"","1451","audio-keyboard-response","331","664202","0.0-3.0-1.268","../audio/63-2-fem.mp3"," ","","chuva","","","",""
"","1280","audio-keyboard-response","332","665738","0.0-3.0-1.269","../audio/63-3-fem.mp3"," ","","entrou","","","",""
"","1229","audio-keyboard-response","333","667242","0.0-3.0-1.270","../audio/63-4-fem.mp3"," ","","pela","","","",""
"","1621","audio-keyboard-response","334","669130","0.0-3.0-1.271","../audio/63-5-fem.mp3"," ","","abertura","","","",""
"","1549","audio-keyboard-response","335","670954","0.0-3.0-1.272","../audio/63-6-fem.mp3"," ","","na","","","",""
"","1749","audio-keyboard-response","336","672986","0.0-3.0-1.273","../audio/63-7-fem.mp3"," ","","janela.","","","",""
"","null","html-keyboard-response","337","674261","0.0-3.0-0.274-0.274","<span style= ""font-size:30px; font-family: monospace"">+</span>","null","fixation","","","","",""
"","1232","audio-keyboard-response","338","675770","0.0-3.0-1.274","../audio/62-1-masc.mp3"," ","","As","","","",""
"","1459","audio-keyboard-response","339","677498","0.0-3.0-1.275","../audio/62-2-masc.mp3"," ","","artesãs","","","",""
"","1248","audio-keyboard-response","340","679018","0.0-3.0-1.276","../audio/62-3-masc.mp3"," ","","gostam","","","",""
"","1160","audio-keyboard-response","341","680458","0.0-3.0-1.277","../audio/62-4-masc.mp3"," ","","de","","","",""
"","32789","audio-keyboard-response","342","713513","0.0-3.0-1.278","../audio/62-5-masc.mp3"," ","","maquiagem","","","",""
"","1221","audio-keyboard-response","343","714985","0.0-3.0-1.279","../audio/62-6-masc.mp3"," ","","e","","","",""
"","1451","audio-keyboard-response","344","716713","0.0-3.0-1.280","../audio/62-7-masc.mp3"," ","","de","","","",""
"","1379","audio-keyboard-response","345","718361","0.0-3.0-1.281","../audio/62-8-masc.mp3"," ","","crochê.","","","",""
"","null","html-keyboard-response","346","719631","0.0-3.0-0.282-0.282","<span style= ""font-size:30px; font-family: monospace"">+</span>","null","fixation","","","","",""
"","2832","audio-keyboard-response","347","722745","0.0-3.0-1.282","../audio/61-1-masc.mp3"," ","","Aquele","","","",""
"","22480","audio-keyboard-response","348","745513","0.0-3.0-1.283","../audio/61-2-masc.mp3"," ","","senhor","","","",""
"","1392","audio-keyboard-response","349","747193","0.0-3.0-1.284","../audio/61-3-masc.mp3"," ","","é","","","",""
"","1181","audio-keyboard-response","350","748633","0.0-3.0-1.285","../audio/61-4-masc.mp3"," ","","muito","","","",""
"","1128","audio-keyboard-response","351","750041","0.0-3.0-1.286","../audio/61-5-masc.mp3"," ","","sovina","","","",""
"","1029","audio-keyboard-response","352","751337","0.0-3.0-1.287","../audio/61-6-masc.mp3"," ","","e","","","",""
"","4472","audio-keyboard-response","353","756073","0.0-3.0-1.288","../audio/61-7-masc.mp3"," ","","inflexível.","","","",""
"","null","html-keyboard-response","354","757346","0.0-3.0-0.289-0.289","<span style= ""font-size:30px; font-family: monospace"">+</span>","null","fixation","","","","",""
"","691","audio-keyboard-response","355","758313","0.0-3.0-1.289","../audio/64-1-fem.mp3"," ","","O","","","",""
"","640","audio-keyboard-response","356","759225","0.0-3.0-1.290","../audio/64-2-fem.mp3"," ","","dia","","","",""
"","1080","audio-keyboard-response","357","760569","0.0-3.0-1.291","../audio/64-3-fem.mp3"," ","","começou","","","",""
"","821","audio-keyboard-response","358","761673","0.0-3.0-1.292","../audio/64-4-fem.mp3"," ","","com","","","",""
"","1091","audio-keyboard-response","359","763033","0.0-3.0-1.293","../audio/64-5-fem.mp3"," ","","garoa","","","",""
"","1360","audio-keyboard-response","360","764681","0.0-3.0-1.294","../audio/64-6-fem.mp3"," ","","gelada","","","",""
"","869","audio-keyboard-response","361","765817","0.0-3.0-1.295","../audio/64-7-fem.mp3"," ","","e","","","",""
"","3331","audio-keyboard-response","362","769417","0.0-3.0-1.296","../audio/64-8-fem.mp3"," ","","leve.","","","",""
"","null","html-keyboard-response","363","770685","0.0-3.0-0.297-0.297","<span style= ""font-size:30px; font-family: monospace"">+</span>","null","fixation","","","","",""
"","192","audio-keyboard-response","364","771145","0.0-3.0-1.297","../audio/65-1-fem.mp3"," ","","O","","","",""
"","1291","audio-keyboard-response","365","772713","0.0-3.0-1.298","../audio/65-2-fem.mp3"," ","","fantasma","","","",""
"","920","audio-keyboard-response","366","773897","0.0-3.0-1.299","../audio/65-3-fem.mp3"," ","","veio","","","",""
"","792","audio-keyboard-response","367","774953","0.0-3.0-1.300","../audio/65-4-fem.mp3"," ","","da","","","",""
"","1200","audio-keyboard-response","368","776425","0.0-3.0-1.301","../audio/65-5-fem.mp3"," ","","escuridão","","","",""
"","1731","audio-keyboard-response","369","778425","0.0-3.0-1.302","../audio/65-6-fem.mp3"," ","","do","","","",""
"","2909","audio-keyboard-response","370","781609","0.0-3.0-1.303","../audio/65-7-fem.mp3"," ","","armário.","","","",""
"","2634","html-keyboard-response","371","784505","0.0-3.0-2.303-0.303","<span style=""font-size:25px; font-family: monospace"">O fantasma veio da escuridão do armário?</span>","s","","","O fantasma veio da escuridão do armário?","null","exp-sent","false"
"","null","html-keyboard-response","372","786019","0.0-3.0-0.304-0.304","<span style= ""font-size:30px; font-family: monospace"">+</span>","null","fixation","","","","",""
"","608","audio-keyboard-response","373","786921","0.0-3.0-1.304","../audio/12-1-fem.mp3"," ","","O","","","",""
"","739","audio-keyboard-response","374","787929","0.0-3.0-1.305","../audio/12-2-fem.mp3"," ","","dia","","","",""
"","861","audio-keyboard-response","375","789065","0.0-3.0-1.306","../audio/12-3-fem.mp3"," ","","estava","","","",""
"","960","audio-keyboard-response","376","790297","0.0-3.0-1.307","../audio/12-4-fem.mp3"," ","","quente,","","","",""
"","1160","audio-keyboard-response","377","791737","0.0-3.0-1.308","../audio/12-5-fem.mp3"," ","","tranquilo","","","",""
"","941","audio-keyboard-response","378","792937","0.0-3.0-1.309","../audio/12-6-fem.mp3"," ","","e","","","",""
"","6411","audio-keyboard-response","379","799609","0.0-3.0-1.310","../audio/12-7-fem.mp3"," ","","ensolarado.","","","",""
"","null","html-keyboard-response","380","800888","0.0-3.0-0.311-0.311","<span style= ""font-size:30px; font-family: monospace"">+</span>","null","fixation","","","","",""
"","1029","audio-keyboard-response","381","802201","0.0-3.0-1.311","../audio/11-1-masc.mp3"," ","","Elas","","","",""
"","712","audio-keyboard-response","382","803193","0.0-3.0-1.312","../audio/11-2-masc.mp3"," ","","gostam","","","",""
"","1029","audio-keyboard-response","383","804489","0.0-3.0-1.313","../audio/11-3-masc.mp3"," ","","muito","","","",""
"","832","audio-keyboard-response","384","805593","0.0-3.0-1.314","../audio/11-4-masc.mp3"," ","","de","","","",""
"","1989","audio-keyboard-response","385","807849","0.0-3.0-1.315","../audio/11-5-masc.mp3"," ","","aritmética","","","",""
"","709","audio-keyboard-response","386","808841","0.0-3.0-1.316","../audio/11-6-masc.mp3"," ","","e","","","",""
"","869","audio-keyboard-response","387","809977","0.0-3.0-1.317","../audio/11-7-masc.mp3"," ","","de","","","",""
"","2800","audio-keyboard-response","388","813049","0.0-3.0-1.318","../audio/11-8-masc.mp3"," ","","leitura.","","","",""
"","null","html-keyboard-response","389","814316","0.0-3.0-0.319-0.319","<span style= ""font-size:30px; font-family: monospace"">+</span>","null","fixation","","","","",""
"","912","audio-keyboard-response","390","815513","0.0-3.0-1.319","../audio/14-1-fem.mp3"," ","","O","","","",""
"","1080","audio-keyboard-response","391","816857","0.0-3.0-1.320","../audio/14-2-fem.mp3"," ","","cachorro","","","",""
"","720","audio-keyboard-response","392","817849","0.0-3.0-1.321","../audio/14-3-fem.mp3"," ","","é","","","",""
"","992","audio-keyboard-response","393","819113","0.0-3.0-1.322","../audio/14-4-fem.mp3"," ","","muito","","","",""
"","949","audio-keyboard-response","394","820329","0.0-3.0-1.323","../audio/14-5-fem.mp3"," ","","fiel","","","",""
"","611","audio-keyboard-response","395","821209","0.0-3.0-1.324","../audio/14-6-fem.mp3"," ","","a","","","",""
"","701","audio-keyboard-response","396","822185","0.0-3.0-1.325","../audio/14-7-fem.mp3"," ","","seus","","","",""
"","2141","audio-keyboard-response","397","824585","0.0-3.0-1.326","../audio/14-8-fem.mp3"," ","","donos.","","","",""
"","null","html-keyboard-response","398","825856","0.0-3.0-0.327-0.327","<span style= ""font-size:30px; font-family: monospace"">+</span>","null","fixation","","","","",""
"","821","audio-keyboard-response","399","826953","0.0-3.0-1.327","../audio/13-1-fem.mp3"," ","","Para","","","",""
"","789","audio-keyboard-response","400","828025","0.0-3.0-1.328","../audio/13-2-fem.mp3"," ","","mim","","","",""
"","549","audio-keyboard-response","401","828841","0.0-3.0-1.329","../audio/13-3-fem.mp3"," ","","é","","","",""
"","680","audio-keyboard-response","402","829801","0.0-3.0-1.330","../audio/13-4-fem.mp3"," ","","muito","","","",""
"","899","audio-keyboard-response","403","830969","0.0-3.0-1.331","../audio/13-5-fem.mp3"," ","","difícil","","","",""
"","1152","audio-keyboard-response","404","832393","0.0-3.0-1.332","../audio/13-6-fem.mp3"," ","","acordar","","","",""
"","2600","audio-keyboard-response","405","835272","0.0-3.0-1.333","../audio/13-7-fem.mp3"," ","","cedo.","","","",""
"","null","html-keyboard-response","406","836552","0.0-3.0-0.334-0.334","<span style= ""font-size:30px; font-family: monospace"">+</span>","null","fixation","","","","",""
"","832","audio-keyboard-response","407","837672","0.0-3.0-1.334","../audio/15-1-masc.mp3"," ","","Meu","","","",""
"","691","audio-keyboard-response","408","838632","0.0-3.0-1.335","../audio/15-2-masc.mp3"," ","","primo","","","",""
"","691","audio-keyboard-response","409","839592","0.0-3.0-1.336","../audio/15-3-masc.mp3"," ","","é","","","",""
"","880","audio-keyboard-response","410","840744","0.0-3.0-1.337","../audio/15-4-masc.mp3"," ","","um","","","",""
"","989","audio-keyboard-response","411","842008","0.0-3.0-1.338","../audio/15-5-masc.mp3"," ","","grande","","","",""
"","1509","audio-keyboard-response","412","843800","0.0-3.0-1.339","../audio/15-6-masc.mp3"," ","","vendedor","","","",""
"","861","audio-keyboard-response","413","844936","0.0-3.0-1.340","../audio/15-7-masc.mp3"," ","","de","","","",""
"","3379","audio-keyboard-response","414","848600","0.0-3.0-1.341","../audio/15-8-masc.mp3"," ","","carros.","","","",""
"","2547","html-keyboard-response","415","851400","0.0-3.0-2.341-0.341","<span style=""font-size:25px; font-family: monospace"">O primo é um vendedor de carros?</span>","s","","","O primo é um vendedor de carros?","null","exp-sent","false"
"","null","html-keyboard-response","416","852925","0.0-3.0-0.342-0.342","<span style= ""font-size:30px; font-family: monospace"">+</span>","null","fixation","","","","",""
"","581","audio-keyboard-response","417","853784","0.0-3.0-1.342","../audio/24-1-fem.mp3"," ","","As","","","",""
"","600","audio-keyboard-response","418","854664","0.0-3.0-1.343","../audio/24-2-fem.mp3"," ","","crianças","","","",""
"","771","audio-keyboard-response","419","855704","0.0-3.0-1.344","../audio/24-3-fem.mp3"," ","","vão","","","",""
"","840","audio-keyboard-response","420","856808","0.0-3.0-1.345","../audio/24-4-fem.mp3"," ","","ao","","","",""
"","1312","audio-keyboard-response","421","858392","0.0-3.0-1.346","../audio/24-5-fem.mp3"," ","","cinema","","","",""
"","939","audio-keyboard-response","422","859608","0.0-3.0-1.347","../audio/24-6-fem.mp3"," ","","mais","","","",""
"","4949","audio-keyboard-response","423","864840","0.0-3.0-1.348","../audio/24-7-fem.mp3"," ","","tarde.","","","",""
"","null","html-keyboard-response","424","866115","0.0-3.0-0.349-0.349","<span style= ""font-size:30px; font-family: monospace"">+</span>","null","fixation","","","","",""
"","701","audio-keyboard-response","425","867096","0.0-3.0-1.349","../audio/22-1-fem.mp3"," ","","Eu","","","",""
"","1251","audio-keyboard-response","426","868632","0.0-3.0-1.350","../audio/22-2-fem.mp3"," ","","detesto","","","",""
"","1971","audio-keyboard-response","427","870872","0.0-3.0-1.351","../audio/22-3-fem.mp3"," ","","fumaça","","","",""
"","709","audio-keyboard-response","428","871848","0.0-3.0-1.352","../audio/22-4-fem.mp3"," ","","de","","","",""
"","1341","audio-keyboard-response","429","873464","0.0-3.0-1.353","../audio/22-5-fem.mp3"," ","","cachimbo","","","",""
"","1429","audio-keyboard-response","430","875160","0.0-3.0-1.354","../audio/22-6-fem.mp3"," ","","e","","","",""
"","768","audio-keyboard-response","431","876200","0.0-3.0-1.355","../audio/22-7-fem.mp3"," ","","de","","","",""
"","2141","audio-keyboard-response","432","878616","0.0-3.0-1.356","../audio/22-8-fem.mp3"," ","","cigarro.","","","",""
"","null","html-keyboard-response","433","879892","0.0-3.0-0.357-0.357","<span style= ""font-size:30px; font-family: monospace"">+</span>","null","fixation","","","","",""
"","229","audio-keyboard-response","434","880408","0.0-3.0-1.357","../audio/23-1-fem.mp3"," ","","Português","","","",""
"","1360","audio-keyboard-response","435","882040","0.0-3.0-1.358","../audio/23-2-fem.mp3"," ","","é","","","",""
"","768","audio-keyboard-response","436","883080","0.0-3.0-1.359","../audio/23-3-fem.mp3"," ","","um","","","",""
"","1291","audio-keyboard-response","437","884648","0.0-3.0-1.360","../audio/23-4-fem.mp3"," ","","assunto","","","",""
"","1040","audio-keyboard-response","438","885960","0.0-3.0-1.361","../audio/23-5-fem.mp3"," ","","elementar","","","",""
"","971","audio-keyboard-response","439","887208","0.0-3.0-1.362","../audio/23-6-fem.mp3"," ","","para","","","",""
"","981","audio-keyboard-response","440","888456","0.0-3.0-1.363","../audio/23-7-fem.mp3"," ","","os","","","",""
"","1931","audio-keyboard-response","441","890664","0.0-3.0-1.364","../audio/23-8-fem.mp3"," ","","alunos.","","","",""
"","null","html-keyboard-response","442","891922","0.0-3.0-0.365-0.365","<span style= ""font-size:30px; font-family: monospace"">+</span>","null","fixation","","","","",""
"","1661","audio-keyboard-response","443","893864","0.0-3.0-1.365","../audio/21-1-masc.mp3"," ","","Precisamos","","","",""
"","989","audio-keyboard-response","444","895128","0.0-3.0-1.366","../audio/21-2-masc.mp3"," ","","de","","","",""
"","1072","audio-keyboard-response","445","896472","0.0-3.0-1.367","../audio/21-3-masc.mp3"," ","","paciência","","","",""
"","749","audio-keyboard-response","446","897496","0.0-3.0-1.368","../audio/21-4-masc.mp3"," ","","e","","","",""
"","1080","audio-keyboard-response","447","898856","0.0-3.0-1.369","../audio/21-5-masc.mp3"," ","","bondade","","","",""
"","651","audio-keyboard-response","448","899784","0.0-3.0-1.370","../audio/21-6-masc.mp3"," ","","para","","","",""
"","1019","audio-keyboard-response","449","901080","0.0-3.0-1.371","../audio/21-7-masc.mp3"," ","","um","","","",""
"","1059","audio-keyboard-response","450","902408","0.0-3.0-1.372","../audio/21-8-masc.mp3"," ","","mundo","","","",""
"","2901","audio-keyboard-response","451","905576","0.0-3.0-1.373","../audio/21-9-masc.mp3"," ","","melhor.","","","",""
"","null","html-keyboard-response","452","906847","0.0-3.0-0.374-0.374","<span style= ""font-size:30px; font-family: monospace"">+</span>","null","fixation","","","","",""
"","1149","audio-keyboard-response","453","908280","0.0-3.0-1.374","../audio/25-1-masc.mp3"," ","","Ela","","","",""
"","731","audio-keyboard-response","454","909288","0.0-3.0-1.375","../audio/25-2-masc.mp3"," ","","faz","","","",""
"","2101","audio-keyboard-response","455","911672","0.0-3.0-1.376","../audio/25-3-masc.mp3"," ","","tanto","","","",""
"","1440","audio-keyboard-response","456","913384","0.0-3.0-1.377","../audio/25-4-masc.mp3"," ","","cabelo","","","",""
"","891","audio-keyboard-response","457","914552","0.0-3.0-1.378","../audio/25-5-masc.mp3"," ","","liso","","","",""
"","749","audio-keyboard-response","458","915576","0.0-3.0-1.379","../audio/25-6-masc.mp3"," ","","quanto","","","",""
"","4291","audio-keyboard-response","459","920152","0.0-3.0-1.380","../audio/25-7-masc.mp3"," ","","cacheado.","","","",""
"","2110","html-keyboard-response","460","922520","0.0-3.0-2.380-0.380","<span style=""font-size:25px; font-family: monospace"">Ela só faz cabelo cacheado?</span>","s","","","Ela só faz cabelo cacheado?","null","exp-sent","false"
"","null","html-keyboard-response","461","924047","0.0-3.0-0.381-0.381","<span style= ""font-size:30px; font-family: monospace"">+</span>","null","fixation","","","","",""
"","571","audio-keyboard-response","462","924888","0.0-3.0-1.381","../audio/52-1-masc.mp3"," ","","Às","","","",""
"","912","audio-keyboard-response","463","926072","0.0-3.0-1.382","../audio/52-2-masc.mp3"," ","","vezes","","","",""
"","720","audio-keyboard-response","464","927048","0.0-3.0-1.383","../audio/52-3-masc.mp3"," ","","eu","","","",""
"","712","audio-keyboard-response","465","928024","0.0-3.0-1.384","../audio/52-4-masc.mp3"," ","","tenho","","","",""
"","1101","audio-keyboard-response","466","929384","0.0-3.0-1.385","../audio/52-5-masc.mp3"," ","","azia","","","",""
"","880","audio-keyboard-response","467","930537","0.0-3.0-1.386","../audio/52-6-masc.mp3"," ","","depois","","","",""
"","771","audio-keyboard-response","468","931576","0.0-3.0-1.387","../audio/52-7-masc.mp3"," ","","da","","","",""
"","1800","audio-keyboard-response","469","933640","0.0-3.0-1.388","../audio/52-8-masc.mp3"," ","","janta.","","","",""
"","null","html-keyboard-response","470","934919","0.0-3.0-0.389-0.389","<span style= ""font-size:30px; font-family: monospace"">+</span>","null","fixation","","","","",""
"","1072","audio-keyboard-response","471","936264","0.0-3.0-1.389","../audio/54-1-fem.mp3"," ","","Estou","","","",""
"","589","audio-keyboard-response","472","937128","0.0-3.0-1.390","../audio/54-2-fem.mp3"," ","","com","","","",""
"","672","audio-keyboard-response","473","938072","0.0-3.0-1.391","../audio/54-3-fem.mp3"," ","","medo","","","",""
"","808","audio-keyboard-response","474","939160","0.0-3.0-1.392","../audio/54-4-fem.mp3"," ","","da","","","",""
"","1131","audio-keyboard-response","475","940568","0.0-3.0-1.393","../audio/54-5-fem.mp3"," ","","atual","","","",""
"","1552","audio-keyboard-response","476","942392","0.0-3.0-1.394","../audio/54-6-fem.mp3"," ","","organização","","","",""
"","989","audio-keyboard-response","477","943656","0.0-3.0-1.395","../audio/54-7-fem.mp3"," ","","do","","","",""
"","4840","audio-keyboard-response","478","948760","0.0-3.0-1.396","../audio/54-8-fem.mp3"," ","","país.","","","",""
"","null","html-keyboard-response","479","950032","0.0-3.0-0.397-0.397","<span style= ""font-size:30px; font-family: monospace"">+</span>","null","fixation","","","","",""
"","720","audio-keyboard-response","480","951016","0.0-3.0-1.397","../audio/53-1-fem.mp3"," ","","O","","","",""
"","981","audio-keyboard-response","481","952264","0.0-3.0-1.398","../audio/53-2-fem.mp3"," ","","médico","","","",""
"","1069","audio-keyboard-response","482","953608","0.0-3.0-1.399","../audio/53-3-fem.mp3"," ","","foi","","","",""
"","1381","audio-keyboard-response","483","955272","0.0-3.0-1.400","../audio/53-4-fem.mp3"," ","","bastante","","","",""
"","1480","audio-keyboard-response","484","957032","0.0-3.0-1.401","../audio/53-5-fem.mp3"," ","","preciso","","","",""
"","1549","audio-keyboard-response","485","958856","0.0-3.0-1.402","../audio/53-6-fem.mp3"," ","","durante","","","",""
"","880","audio-keyboard-response","486","960008","0.0-3.0-1.403","../audio/53-7-fem.mp3"," ","","a","","","",""
"","3472","audio-keyboard-response","487","963752","0.0-3.0-1.404","../audio/53-8-fem.mp3"," ","","cirurgia.","","","",""
"","null","html-keyboard-response","488","965023","0.0-3.0-0.405-0.405","<span style= ""font-size:30px; font-family: monospace"">+</span>","null","fixation","","","","",""
"","1080","audio-keyboard-response","489","966392","0.0-3.0-1.405","../audio/51-1-masc.mp3"," ","","Suco","","","",""
"","720","audio-keyboard-response","490","967384","0.0-3.0-1.406","../audio/51-2-masc.mp3"," ","","de","","","",""
"","891","audio-keyboard-response","491","968552","0.0-3.0-1.407","../audio/51-3-masc.mp3"," ","","acerola","","","",""
"","680","audio-keyboard-response","492","969512","0.0-3.0-1.408","../audio/51-4-masc.mp3"," ","","é","","","",""
"","1029","audio-keyboard-response","493","970808","0.0-3.0-1.409","../audio/51-5-masc.mp3"," ","","azedo","","","",""
"","752","audio-keyboard-response","494","971832","0.0-3.0-1.410","../audio/51-6-masc.mp3"," ","","e","","","",""
"","1131","audio-keyboard-response","495","973224","0.0-3.0-1.411","../audio/51-7-masc.mp3"," ","","até","","","",""
"","4160","audio-keyboard-response","496","977656","0.0-3.0-1.412","../audio/51-8-masc.mp3"," ","","barato.","","","",""
"","null","html-keyboard-response","497","978932","0.0-3.0-0.413-0.413","<span style= ""font-size:30px; font-family: monospace"">+</span>","null","fixation","","","","",""
"","70789","audio-keyboard-response","498","1049992","0.0-3.0-1.413","../audio/55-1-masc.mp3"," ","","O","","","",""
"","1259","audio-keyboard-response","499","1051864","0.0-3.0-1.414","../audio/55-2-masc.mp3"," ","","insulto","","","",""
"","1011","audio-keyboard-response","500","1053144","0.0-3.0-1.415","../audio/55-3-masc.mp3"," ","","recente","","","",""
"","1128","audio-keyboard-response","501","1054536","0.0-3.0-1.416","../audio/55-4-masc.mp3"," ","","causou","","","",""
"","1352","audio-keyboard-response","502","1056168","0.0-3.0-1.417","../audio/55-5-masc.mp3"," ","","indignação","","","",""
"","931","audio-keyboard-response","503","1057368","0.0-3.0-1.418","../audio/55-6-masc.mp3"," ","","em","","","",""
"","869","audio-keyboard-response","504","1058504","0.0-3.0-1.419","../audio/55-7-masc.mp3"," ","","todos.","","","",""
"","3164","html-keyboard-response","505","1061928","0.0-3.0-2.419-0.419","<span style=""font-size:25px; font-family: monospace"">O insulto causou calmaria?</span>","n","","","O insulto causou calmaria?","null","exp-sent","false"
"","null","html-keyboard-response","506","1063442","0.0-3.0-0.420-0.420","<span style= ""font-size:30px; font-family: monospace"">+</span>","null","fixation","","","","",""
"","800","audio-keyboard-response","507","1064520","0.0-3.0-1.420","../audio/42-1-fem.mp3"," ","","Eu","","","",""
"","709","audio-keyboard-response","508","1065496","0.0-3.0-1.421","../audio/42-2-fem.mp3"," ","","fui","","","",""
"","640","audio-keyboard-response","509","1066408","0.0-3.0-1.422","../audio/42-3-fem.mp3"," ","","a","","","",""
"","800","audio-keyboard-response","510","1067464","0.0-3.0-1.423","../audio/42-4-fem.mp3"," ","","uma","","","",""
"","680","audio-keyboard-response","511","1068408","0.0-3.0-1.424","../audio/42-5-fem.mp3"," ","","loja","","","",""
"","819","audio-keyboard-response","512","1069512","0.0-3.0-1.425","../audio/42-6-fem.mp3"," ","","de","","","",""
"","960","audio-keyboard-response","513","1070760","0.0-3.0-1.426","../audio/42-7-fem.mp3"," ","","móveis","","","",""
"","840","audio-keyboard-response","514","1071864","0.0-3.0-1.427","../audio/42-8-fem.mp3"," ","","no","","","",""
"","2251","audio-keyboard-response","515","1074392","0.0-3.0-1.428","../audio/42-9-fem.mp3"," ","","bairro.","","","",""
"","null","html-keyboard-response","516","1075663","0.0-3.0-0.429-0.429","<span style= ""font-size:30px; font-family: monospace"">+</span>","null","fixation","","","","",""
"","579","audio-keyboard-response","517","1076504","0.0-3.0-1.429","../audio/43-1-fem.mp3"," ","","Eu","","","",""
"","541","audio-keyboard-response","518","1077320","0.0-3.0-1.430","../audio/43-2-fem.mp3"," ","","achei","","","",""
"","851","audio-keyboard-response","519","1078424","0.0-3.0-1.431","../audio/43-3-fem.mp3"," ","","um","","","",""
"","1181","audio-keyboard-response","520","1079880","0.0-3.0-1.432","../audio/43-4-fem.mp3"," ","","colchão","","","",""
"","869","audio-keyboard-response","521","1081015","0.0-3.0-1.433","../audio/43-5-fem.mp3"," ","","velho","","","",""
"","848","audio-keyboard-response","522","1082136","0.0-3.0-1.434","../audio/43-6-fem.mp3"," ","","e","","","",""
"","1371","audio-keyboard-response","523","1083784","0.0-3.0-1.435","../audio/43-7-fem.mp3"," ","","imundo","","","",""
"","832","audio-keyboard-response","524","1084888","0.0-3.0-1.436","../audio/43-8-fem.mp3"," ","","na","","","",""
"","2600","audio-keyboard-response","525","1087768","0.0-3.0-1.437","../audio/43-9-fem.mp3"," ","","casa.","","","",""
"","null","html-keyboard-response","526","1089046","0.0-3.0-0.438-0.438","<span style= ""font-size:30px; font-family: monospace"">+</span>","null","fixation","","","","",""
"","629","audio-keyboard-response","527","1089960","0.0-3.0-1.438","../audio/44-1-masc.mp3"," ","","Meus","","","",""
"","611","audio-keyboard-response","528","1090840","0.0-3.0-1.439","../audio/44-2-masc.mp3"," ","","irmãos","","","",""
"","829","audio-keyboard-response","529","1091943","0.0-3.0-1.440","../audio/44-3-masc.mp3"," ","","brigam","","","",""
"","832","audio-keyboard-response","530","1093048","0.0-3.0-1.441","../audio/44-4-masc.mp3"," ","","por","","","",""
"","1528","audio-keyboard-response","531","1094856","0.0-3.0-1.442","../audio/44-5-masc.mp3"," ","","bobagem","","","",""
"","891","audio-keyboard-response","532","1096024","0.0-3.0-1.443","../audio/44-6-masc.mp3"," ","","todos","","","",""
"","672","audio-keyboard-response","533","1096968","0.0-3.0-1.444","../audio/44-7-masc.mp3"," ","","os","","","",""
"","1491","audio-keyboard-response","534","1098728","0.0-3.0-1.445","../audio/44-8-masc.mp3"," ","","dias.","","","",""
"","null","html-keyboard-response","535","1100004","0.0-3.0-0.446-0.446","<span style= ""font-size:30px; font-family: monospace"">+</span>","null","fixation","","","","",""
"","61","audio-keyboard-response","536","1100328","0.0-3.0-1.446","../audio/41-1-masc.mp3"," ","","A","","","",""
"","1171","audio-keyboard-response","537","1101768","0.0-3.0-1.447","../audio/41-2-masc.mp3"," ","","novela","","","",""
"","709","audio-keyboard-response","538","1102760","0.0-3.0-1.448","../audio/41-3-masc.mp3"," ","","falava","","","",""
"","720","audio-keyboard-response","539","1103752","0.0-3.0-1.449","../audio/41-4-masc.mp3"," ","","de","","","",""
"","931","audio-keyboard-response","540","1104968","0.0-3.0-1.450","../audio/41-5-masc.mp3"," ","","paixão","","","",""
"","739","audio-keyboard-response","541","1105976","0.0-3.0-1.451","../audio/41-6-masc.mp3"," ","","e","","","",""
"","7061","audio-keyboard-response","542","1113320","0.0-3.0-1.452","../audio/41-7-masc.mp3"," ","","comédia.","","","",""
"","null","html-keyboard-response","543","1114596","0.0-3.0-0.453-0.453","<span style= ""font-size:30px; font-family: monospace"">+</span>","null","fixation","","","","",""
"","891","audio-keyboard-response","544","1115768","0.0-3.0-1.453","../audio/45-1-fem.mp3"," ","","O","","","",""
"","880","audio-keyboard-response","545","1116920","0.0-3.0-1.454","../audio/45-2-fem.mp3"," ","","homem","","","",""
"","880","audio-keyboard-response","546","1118072","0.0-3.0-1.455","../audio/45-3-fem.mp3"," ","","pagou","","","",""
"","760","audio-keyboard-response","547","1119096","0.0-3.0-1.456","../audio/45-4-fem.mp3"," ","","o","","","",""
"","1059","audio-keyboard-response","548","1120423","0.0-3.0-1.457","../audio/45-5-fem.mp3"," ","","aluguel","","","",""
"","739","audio-keyboard-response","549","1121432","0.0-3.0-1.458","../audio/45-6-fem.mp3"," ","","com","","","",""
"","6781","audio-keyboard-response","550","1128487","0.0-3.0-1.459","../audio/45-7-fem.mp3"," ","","atraso.","","","",""
"","2007","html-keyboard-response","551","1130760","0.0-3.0-2.459-0.459","<span style=""font-size:25px; font-family: monospace"">O homem pagou o aluguel em dia?</span>","s","","","O homem pagou o aluguel em dia?","null","exp-sent","false"
"","null","html-keyboard-response","552","1132274","0.0-3.0-0.460-0.460","<span style= ""font-size:30px; font-family: monospace"">+</span>","null","fixation","","","","",""
"","891","audio-keyboard-response","553","1133448","0.0-3.0-1.460","../audio/67-1-masc.mp3"," ","","Minha","","","",""
"","611","audio-keyboard-response","554","1134328","0.0-3.0-1.461","../audio/67-2-masc.mp3"," ","","tia","","","",""
"","869","audio-keyboard-response","555","1135463","0.0-3.0-1.462","../audio/67-3-masc.mp3"," ","","comprou","","","",""
"","651","audio-keyboard-response","556","1136391","0.0-3.0-1.463","../audio/67-4-masc.mp3"," ","","um","","","",""
"","1011","audio-keyboard-response","557","1137671","0.0-3.0-1.464","../audio/67-5-masc.mp3"," ","","cordão","","","",""
"","811","audio-keyboard-response","558","1138743","0.0-3.0-1.465","../audio/67-6-masc.mp3"," ","","para","","","",""
"","672","audio-keyboard-response","559","1139687","0.0-3.0-1.466","../audio/67-7-masc.mp3"," ","","o","","","",""
"","2291","audio-keyboard-response","560","1142247","0.0-3.0-1.467","../audio/67-8-masc.mp3"," ","","varal.","","","",""
"","null","html-keyboard-response","561","1143513","0.0-3.0-0.468-0.468","<span style= ""font-size:30px; font-family: monospace"">+</span>","null","fixation","","","","",""
"","200","audio-keyboard-response","562","1143975","0.0-3.0-1.468","../audio/66-1-masc.mp3"," ","","Não","","","",""
"","1069","audio-keyboard-response","563","1145319","0.0-3.0-1.469","../audio/66-2-masc.mp3"," ","","gosto","","","",""
"","720","audio-keyboard-response","564","1146311","0.0-3.0-1.470","../audio/66-3-masc.mp3"," ","","de","","","",""
"","861","audio-keyboard-response","565","1147447","0.0-3.0-1.471","../audio/66-4-masc.mp3"," ","","gente","","","",""
"","2909","audio-keyboard-response","566","1150631","0.0-3.0-1.472","../audio/66-5-masc.mp3"," ","","egoísta","","","",""
"","1051","audio-keyboard-response","567","1151959","0.0-3.0-1.473","../audio/66-6-masc.mp3"," ","","nem","","","",""
"","4931","audio-keyboard-response","568","1157159","0.0-3.0-1.474","../audio/66-7-masc.mp3"," ","","chata.","","","",""
"","null","html-keyboard-response","569","1158440","0.0-3.0-0.475-0.475","<span style= ""font-size:30px; font-family: monospace"">+</span>","null","fixation","","","","",""
"","731","audio-keyboard-response","570","1159447","0.0-3.0-1.475","../audio/68-1-fem.mp3"," ","","Meu","","","",""
"","1011","audio-keyboard-response","571","1160727","0.0-3.0-1.476","../audio/68-2-fem.mp3"," ","","irmão","","","",""
"","1339","audio-keyboard-response","572","1162343","0.0-3.0-1.477","../audio/68-3-fem.mp3"," ","","teve","","","",""
"","752","audio-keyboard-response","573","1163367","0.0-3.0-1.478","../audio/68-4-fem.mp3"," ","","um","","","",""
"","968","audio-keyboard-response","574","1164615","0.0-3.0-1.479","../audio/68-5-fem.mp3"," ","","noivado","","","",""
"","1168","audio-keyboard-response","575","1166055","0.0-3.0-1.480","../audio/68-6-fem.mp3"," ","","longo","","","",""
"","989","audio-keyboard-response","576","1167319","0.0-3.0-1.481","../audio/68-7-fem.mp3"," ","","e","","","",""
"","1251","audio-keyboard-response","577","1168839","0.0-3.0-1.482","../audio/68-8-fem.mp3"," ","","maravilhoso.","","","",""
"","null","html-keyboard-response","578","1170118","0.0-3.0-0.483-0.483","<span style= ""font-size:30px; font-family: monospace"">+</span>","null","fixation","","","","",""
"","1840","audio-keyboard-response","579","1172247","0.0-3.0-1.483","../audio/69-1-masc.mp3"," ","","A","","","",""
"","949","audio-keyboard-response","580","1173463","0.0-3.0-1.484","../audio/69-2-masc.mp3"," ","","loja","","","",""
"","1019","audio-keyboard-response","581","1174743","0.0-3.0-1.485","../audio/69-3-masc.mp3"," ","","recebeu","","","",""
"","699","audio-keyboard-response","582","1175703","0.0-3.0-1.486","../audio/69-4-masc.mp3"," ","","uma","","","",""
"","992","audio-keyboard-response","583","1176967","0.0-3.0-1.487","../audio/69-5-masc.mp3"," ","","poltrona","","","",""
"","819","audio-keyboard-response","584","1178055","0.0-3.0-1.488","../audio/69-6-masc.mp3"," ","","de","","","",""
"","1211","audio-keyboard-response","585","1179527","0.0-3.0-1.489","../audio/69-7-masc.mp3"," ","","couro","","","",""
"","3909","audio-keyboard-response","586","1183719","0.0-3.0-1.490","../audio/69-8-masc.mp3"," ","","preto.","","","",""
"","null","html-keyboard-response","587","1184982","0.0-3.0-0.491-0.491","<span style= ""font-size:30px; font-family: monospace"">+</span>","null","fixation","","","","",""
"","691","audio-keyboard-response","588","1185959","0.0-3.0-1.491","../audio/70-1-fem.mp3"," ","","O","","","",""
"","589","audio-keyboard-response","589","1186823","0.0-3.0-1.492","../audio/70-2-fem.mp3"," ","","meu","","","",""
"","619","audio-keyboard-response","590","1187703","0.0-3.0-1.493","../audio/70-3-fem.mp3"," ","","filho","","","",""
"","701","audio-keyboard-response","591","1188679","0.0-3.0-1.494","../audio/70-4-fem.mp3"," ","","tem","","","",""
"","720","audio-keyboard-response","592","1189671","0.0-3.0-1.495","../audio/70-5-fem.mp3"," ","","medo","","","",""
"","720","audio-keyboard-response","593","1190663","0.0-3.0-1.496","../audio/70-6-fem.mp3"," ","","de","","","",""
"","1341","audio-keyboard-response","594","1192279","0.0-3.0-1.497","../audio/70-7-fem.mp3"," ","","enguia","","","",""
"","771","audio-keyboard-response","595","1193319","0.0-3.0-1.498","../audio/70-8-fem.mp3"," ","","e","","","",""
"","1280","audio-keyboard-response","596","1194871","0.0-3.0-1.499","../audio/70-9-fem.mp3"," ","","beija-flor.","","","",""
"","1675","html-keyboard-response","597","1196807","0.0-3.0-2.499-0.499","<span style=""font-size:25px; font-family: monospace"">O filho tem medo de tigre?</span>","n","","","O filho tem medo de tigre?","null","exp-sent","false"
"","null","html-keyboard-response","598","1198331","0.0-3.0-0.500-0.500","<span style= ""font-size:30px; font-family: monospace"">+</span>","null","fixation","","","","",""
"","541","audio-keyboard-response","599","1199159","0.0-3.0-1.500","../audio/74-1-fem.mp3"," ","","Este","","","",""
"","509","audio-keyboard-response","600","1199943","0.0-3.0-1.501","../audio/74-2-fem.mp3"," ","","emprego","","","",""
"","941","audio-keyboard-response","601","1201159","0.0-3.0-1.502","../audio/74-3-fem.mp3"," ","","é","","","",""
"","1000","audio-keyboard-response","602","1202439","0.0-3.0-1.503","../audio/74-4-fem.mp3"," ","","muito","","","",""
"","1240","audio-keyboard-response","603","1203959","0.0-3.0-1.504","../audio/74-5-fem.mp3"," ","","cansativo","","","",""
"","699","audio-keyboard-response","604","1204935","0.0-3.0-1.505","../audio/74-6-fem.mp3"," ","","a","","","",""
"","1099","audio-keyboard-response","605","1206311","0.0-3.0-1.506","../audio/74-7-fem.mp3"," ","","longo","","","",""
"","840","audio-keyboard-response","606","1207415","0.0-3.0-1.507","../audio/74-8-fem.mp3"," ","","prazo.","","","",""
"","null","html-keyboard-response","607","1208682","0.0-3.0-0.508-0.508","<span style= ""font-size:30px; font-family: monospace"">+</span>","null","fixation","","","","",""
"","4579","audio-keyboard-response","608","1213543","0.0-3.0-1.508","../audio/72-1-masc.mp3"," ","","A","","","",""
"","1021","audio-keyboard-response","609","1214839","0.0-3.0-1.509","../audio/72-2-masc.mp3"," ","","vencedora","","","",""
"","869","audio-keyboard-response","610","1215975","0.0-3.0-1.510","../audio/72-3-masc.mp3"," ","","recebeu","","","",""
"","789","audio-keyboard-response","611","1217031","0.0-3.0-1.511","../audio/72-4-masc.mp3"," ","","um","","","",""
"","1021","audio-keyboard-response","612","1218327","0.0-3.0-1.512","../audio/72-5-masc.mp3"," ","","prêmio","","","",""
"","851","audio-keyboard-response","613","1219447","0.0-3.0-1.513","../audio/72-6-masc.mp3"," ","","em","","","",""
"","3171","audio-keyboard-response","614","1222887","0.0-3.0-1.514","../audio/72-7-masc.mp3"," ","","dinheiro.","","","",""
"","null","html-keyboard-response","615","1224157","0.0-3.0-0.515-0.515","<span style= ""font-size:30px; font-family: monospace"">+</span>","null","fixation","","","","",""
"","789","audio-keyboard-response","616","1225223","0.0-3.0-1.515","../audio/73-1-masc.mp3"," ","","O","","","",""
"","992","audio-keyboard-response","617","1226487","0.0-3.0-1.516","../audio/73-2-masc.mp3"," ","","cliente","","","",""
"","629","audio-keyboard-response","618","1227399","0.0-3.0-1.517","../audio/73-3-masc.mp3"," ","","era","","","",""
"","699","audio-keyboard-response","619","1228375","0.0-3.0-1.518","../audio/73-4-masc.mp3"," ","","um","","","",""
"","1200","audio-keyboard-response","620","1229847","0.0-3.0-1.519","../audio/73-5-masc.mp3"," ","","homem","","","",""
"","909","audio-keyboard-response","621","1231031","0.0-3.0-1.520","../audio/73-6-masc.mp3"," ","","muito","","","",""
"","1992","audio-keyboard-response","622","1233287","0.0-3.0-1.521","../audio/73-7-masc.mp3"," ","","educado.","","","",""
"","null","html-keyboard-response","623","1234561","0.0-3.0-0.522-0.522","<span style= ""font-size:30px; font-family: monospace"">+</span>","null","fixation","","","","",""
"","600","audio-keyboard-response","624","1235479","0.0-3.0-1.522","../audio/71-1-fem.mp3"," ","","Minhas","","","",""
"","939","audio-keyboard-response","625","1236695","0.0-3.0-1.523","../audio/71-2-fem.mp3"," ","","comidas","","","",""
"","1061","audio-keyboard-response","626","1238039","0.0-3.0-1.524","../audio/71-3-fem.mp3"," ","","favoritas","","","",""
"","931","audio-keyboard-response","627","1239239","0.0-3.0-1.525","../audio/71-4-fem.mp3"," ","","são","","","",""
"","1229","audio-keyboard-response","628","1240743","0.0-3.0-1.526","../audio/71-5-fem.mp3"," ","","morango","","","",""
"","789","audio-keyboard-response","629","1241799","0.0-3.0-1.527","../audio/71-6-fem.mp3"," ","","e","","","",""
"","1819","audio-keyboard-response","630","1243895","0.0-3.0-1.528","../audio/71-7-fem.mp3"," ","","uva.","","","",""
"","null","html-keyboard-response","631","1245165","0.0-3.0-0.529-0.529","<span style= ""font-size:30px; font-family: monospace"">+</span>","null","fixation","","","","",""
"","1339","audio-keyboard-response","632","1246791","0.0-3.0-1.529","../audio/75-1-fem.mp3"," ","","Só","","","",""
"","1280","audio-keyboard-response","633","1248343","0.0-3.0-1.530","../audio/75-2-fem.mp3"," ","","existe","","","",""
"","880","audio-keyboard-response","634","1249495","0.0-3.0-1.531","../audio/75-3-fem.mp3"," ","","uma","","","",""
"","840","audio-keyboard-response","635","1250631","0.0-3.0-1.532","../audio/75-4-fem.mp3"," ","","pessoa","","","",""
"","1469","audio-keyboard-response","636","1252375","0.0-3.0-1.533","../audio/75-5-fem.mp3"," ","","canhota","","","",""
"","939","audio-keyboard-response","637","1253591","0.0-3.0-1.534","../audio/75-6-fem.mp3"," ","","nesta","","","",""
"","2280","audio-keyboard-response","638","1256135","0.0-3.0-1.535","../audio/75-7-fem.mp3"," ","","cidade.","","","",""
"","2167","html-keyboard-response","639","1258567","0.0-3.0-2.535-0.535","<span style=""font-size:25px; font-family: monospace"">Só existe uma pessoa canhota na cidade?</span>","n","","","Só existe uma pessoa canhota na cidade?","null","exp-sent","false"
"","null","html-keyboard-response","640","1260092","0.0-3.0-0.536-0.536","<span style= ""font-size:30px; font-family: monospace"">+</span>","null","fixation","","","","",""
"","621","audio-keyboard-response","641","1260999","0.0-3.0-1.536","../audio/09-1-fem.mp3"," ","","O","","","",""
"","909","audio-keyboard-response","642","1262183","0.0-3.0-1.537","../audio/09-2-fem.mp3"," ","","rapaz","","","",""
"","1021","audio-keyboard-response","643","1263479","0.0-3.0-1.538","../audio/09-3-fem.mp3"," ","","limpou","","","",""
"","680","audio-keyboard-response","644","1264439","0.0-3.0-1.539","../audio/09-4-fem.mp3"," ","","o","","","",""
"","869","audio-keyboard-response","645","1265575","0.0-3.0-1.540","../audio/09-5-fem.mp3"," ","","terreno","","","",""
"","632","audio-keyboard-response","646","1266487","0.0-3.0-1.541","../audio/09-6-fem.mp3"," ","","com","","","",""
"","851","audio-keyboard-response","647","1267607","0.0-3.0-1.542","../audio/09-7-fem.mp3"," ","","uma","","","",""
"","4240","audio-keyboard-response","648","1272119","0.0-3.0-1.543","../audio/09-8-fem.mp3"," ","","pá.","","","",""
"","null","html-keyboard-response","649","1273376","0.0-3.0-0.544-0.544","<span style= ""font-size:30px; font-family: monospace"">+</span>","null","fixation","","","","",""
"","1091","audio-keyboard-response","650","1274759","0.0-3.0-1.544","../audio/07-1-fem.mp3"," ","","Meu","","","",""
"","720","audio-keyboard-response","651","1275751","0.0-3.0-1.545","../audio/07-2-fem.mp3"," ","","filho","","","",""
"","1000","audio-keyboard-response","652","1277015","0.0-3.0-1.546","../audio/07-3-fem.mp3"," ","","é","","","",""
"","952","audio-keyboard-response","653","1278247","0.0-3.0-1.547","../audio/07-4-fem.mp3"," ","","muito","","","",""
"","1048","audio-keyboard-response","654","1279575","0.0-3.0-1.548","../audio/07-5-fem.mp3"," ","","responsável","","","",""
"","1339","audio-keyboard-response","655","1281191","0.0-3.0-1.549","../audio/07-6-fem.mp3"," ","","nos","","","",""
"","3051","audio-keyboard-response","656","1284503","0.0-3.0-1.550","../audio/07-7-fem.mp3"," ","","estudos.","","","",""
"","null","html-keyboard-response","657","1285763","0.0-3.0-0.551-0.551","<span style= ""font-size:30px; font-family: monospace"">+</span>","null","fixation","","","","",""
"","1128","audio-keyboard-response","658","1287175","0.0-3.0-1.551","../audio/06-1-masc.mp3"," ","","Ouvimos","","","",""
"","688","audio-keyboard-response","659","1288135","0.0-3.0-1.552","../audio/06-2-masc.mp3"," ","","a","","","",""
"","821","audio-keyboard-response","660","1289239","0.0-3.0-1.553","../audio/06-3-masc.mp3"," ","","fala","","","",""
"","611","audio-keyboard-response","661","1290119","0.0-3.0-1.554","../audio/06-4-masc.mp3"," ","","do","","","",""
"","869","audio-keyboard-response","662","1291271","0.0-3.0-1.555","../audio/06-5-masc.mp3"," ","","profeta","","","",""
"","960","audio-keyboard-response","663","1292503","0.0-3.0-1.556","../audio/06-6-masc.mp3"," ","","no","","","",""
"","4141","audio-keyboard-response","664","1296919","0.0-3.0-1.557","../audio/06-7-masc.mp3"," ","","púlpito","","","",""
"","1291","audio-keyboard-response","665","1298487","0.0-3.0-1.558","../audio/06-8-masc.mp3"," ","","da","","","",""
"","2099","audio-keyboard-response","666","1300855","0.0-3.0-1.559","../audio/06-9-masc.mp3"," ","","igreja.","","","",""
"","null","html-keyboard-response","667","1302119","0.0-3.0-0.560-0.560","<span style= ""font-size:30px; font-family: monospace"">+</span>","null","fixation","","","","",""
"","821","audio-keyboard-response","668","1303207","0.0-3.0-1.560","../audio/08-1-fem.mp3"," ","","A","","","",""
"","800","audio-keyboard-response","669","1304279","0.0-3.0-1.561","../audio/08-2-fem.mp3"," ","","receita","","","",""
"","1000","audio-keyboard-response","670","1305543","0.0-3.0-1.562","../audio/08-3-fem.mp3"," ","","pede","","","",""
"","779","audio-keyboard-response","671","1306583","0.0-3.0-1.563","../audio/08-4-fem.mp3"," ","","um","","","",""
"","1040","audio-keyboard-response","672","1307895","0.0-3.0-1.564","../audio/08-5-fem.mp3"," ","","litro","","","",""
"","632","audio-keyboard-response","673","1308807","0.0-3.0-1.565","../audio/08-6-fem.mp3"," ","","de","","","",""
"","789","audio-keyboard-response","674","1309879","0.0-3.0-1.566","../audio/08-7-fem.mp3"," ","","leite","","","",""
"","3579","audio-keyboard-response","675","1313735","0.0-3.0-1.567","../audio/08-8-fem.mp3"," ","","integral.","","","",""
"","null","html-keyboard-response","676","1315009","0.0-3.0-0.568-0.568","<span style= ""font-size:30px; font-family: monospace"">+</span>","null","fixation","","","","",""
"","552","audio-keyboard-response","677","1315847","0.0-3.0-1.568","../audio/10-1-fem.mp3"," ","","O","","","",""
"","739","audio-keyboard-response","678","1316871","0.0-3.0-1.569","../audio/10-2-fem.mp3"," ","","pássaro","","","",""
"","1080","audio-keyboard-response","679","1318215","0.0-3.0-1.570","../audio/10-3-fem.mp3"," ","","azul","","","",""
"","859","audio-keyboard-response","680","1319334","0.0-3.0-1.571","../audio/10-4-fem.mp3"," ","","estava","","","",""
"","608","audio-keyboard-response","681","1320214","0.0-3.0-1.572","../audio/10-5-fem.mp3"," ","","vivo","","","",""
"","659","audio-keyboard-response","682","1321142","0.0-3.0-1.573","../audio/10-6-fem.mp3"," ","","e","","","",""
"","771","audio-keyboard-response","683","1322182","0.0-3.0-1.574","../audio/10-7-fem.mp3"," ","","em","","","",""
"","2821","audio-keyboard-response","684","1325286","0.0-3.0-1.575","../audio/10-8-fem.mp3"," ","","segurança.","","","",""
"","1827","html-keyboard-response","685","1327366","0.0-3.0-2.575-0.575","<span style=""font-size:25px; font-family: monospace"">O pássaro vermelho estava em segurança?</span>","s","","","O pássaro vermelho estava em segurança?","null","exp-sent","false"
"","null","html-keyboard-response","686","1328894","0.0-3.0-0.576-0.576","<span style= ""font-size:30px; font-family: monospace"">+</span>","null","fixation","","","","",""
"","891","audio-keyboard-response","687","1330070","0.0-3.0-1.576","../audio/38-1-fem.mp3"," ","","A","","","",""
"","1000","audio-keyboard-response","688","1331350","0.0-3.0-1.577","../audio/38-2-fem.mp3"," ","","empresa","","","",""
"","781","audio-keyboard-response","689","1332406","0.0-3.0-1.578","../audio/38-3-fem.mp3"," ","","criou","","","",""
"","691","audio-keyboard-response","690","1333366","0.0-3.0-1.579","../audio/38-4-fem.mp3"," ","","a","","","",""
"","509","audio-keyboard-response","691","1334134","0.0-3.0-1.580","../audio/38-5-fem.mp3"," ","","patente","","","",""
"","2128","audio-keyboard-response","692","1336534","0.0-3.0-1.581","../audio/38-6-fem.mp3"," ","","da","","","",""
"","4421","audio-keyboard-response","693","1341238","0.0-3.0-1.582","../audio/38-7-fem.mp3"," ","","frigideira.","","","",""
"","null","html-keyboard-response","694","1342498","0.0-3.0-0.583-0.583","<span style= ""font-size:30px; font-family: monospace"">+</span>","null","fixation","","","","",""
"","131","audio-keyboard-response","695","1342902","0.0-3.0-1.583","../audio/37-1-masc.mp3"," ","","Eu","","","",""
"","1160","audio-keyboard-response","696","1344326","0.0-3.0-1.584","../audio/37-2-masc.mp3"," ","","adoro","","","",""
"","869","audio-keyboard-response","697","1345462","0.0-3.0-1.585","../audio/37-3-masc.mp3"," ","","suco","","","",""
"","611","audio-keyboard-response","698","1346342","0.0-3.0-1.586","../audio/37-4-masc.mp3"," ","","de","","","",""
"","941","audio-keyboard-response","699","1347558","0.0-3.0-1.587","../audio/37-5-masc.mp3"," ","","manga","","","",""
"","629","audio-keyboard-response","700","1348454","0.0-3.0-1.588","../audio/37-6-masc.mp3"," ","","com","","","",""
"","920","audio-keyboard-response","701","1349654","0.0-3.0-1.589","../audio/37-7-masc.mp3"," ","","hortelã.","","","",""
"","null","html-keyboard-response","702","1350930","0.0-3.0-0.590-0.590","<span style= ""font-size:30px; font-family: monospace"">+</span>","null","fixation","","","","",""
"","859","audio-keyboard-response","703","1352054","0.0-3.0-1.590","../audio/39-1-masc.mp3"," ","","O","","","",""
"","1240","audio-keyboard-response","704","1353574","0.0-3.0-1.591","../audio/39-2-masc.mp3"," ","","conselho","","","",""
"","629","audio-keyboard-response","705","1354470","0.0-3.0-1.592","../audio/39-3-masc.mp3"," ","","foi","","","",""
"","621","audio-keyboard-response","706","1355366","0.0-3.0-1.593","../audio/39-4-masc.mp3"," ","","muito","","","",""
"","1069","audio-keyboard-response","707","1356710","0.0-3.0-1.594","../audio/39-5-masc.mp3"," ","","útil","","","",""
"","731","audio-keyboard-response","708","1357718","0.0-3.0-1.595","../audio/39-6-masc.mp3"," ","","para","","","",""
"","909","audio-keyboard-response","709","1358902","0.0-3.0-1.596","../audio/39-7-masc.mp3"," ","","minha","","","",""
"","7331","audio-keyboard-response","710","1366502","0.0-3.0-1.597","../audio/39-8-masc.mp3"," ","","tia.","","","",""
"","null","html-keyboard-response","711","1367781","0.0-3.0-0.598-0.598","<span style= ""font-size:30px; font-family: monospace"">+</span>","null","fixation","","","","",""
"","781","audio-keyboard-response","712","1368838","0.0-3.0-1.598","../audio/36-1-fem.mp3"," ","","Meu","","","",""
"","859","audio-keyboard-response","713","1369974","0.0-3.0-1.599","../audio/36-2-fem.mp3"," ","","tio","","","",""
"","1000","audio-keyboard-response","714","1371254","0.0-3.0-1.600","../audio/36-3-fem.mp3"," ","","comprou","","","",""
"","691","audio-keyboard-response","715","1372230","0.0-3.0-1.601","../audio/36-4-fem.mp3"," ","","um","","","",""
"","989","audio-keyboard-response","716","1373494","0.0-3.0-1.602","../audio/36-5-fem.mp3"," ","","filtro","","","",""
"","749","audio-keyboard-response","717","1374518","0.0-3.0-1.603","../audio/36-6-fem.mp3"," ","","de","","","",""
"","840","audio-keyboard-response","718","1375622","0.0-3.0-1.604","../audio/36-7-fem.mp3"," ","","água","","","",""
"","992","audio-keyboard-response","719","1376886","0.0-3.0-1.605","../audio/36-8-fem.mp3"," ","","hoje","","","",""
"","1589","audio-keyboard-response","720","1378758","0.0-3.0-1.606","../audio/36-9-fem.mp3"," ","","cedo.","","","",""
"","null","html-keyboard-response","721","1380035","0.0-3.0-0.607-0.607","<span style= ""font-size:30px; font-family: monospace"">+</span>","null","fixation","","","","",""
"","651","audio-keyboard-response","722","1380966","0.0-3.0-1.607","../audio/40-1-fem.mp3"," ","","O","","","",""
"","1360","audio-keyboard-response","723","1382598","0.0-3.0-1.608","../audio/40-2-fem.mp3"," ","","jogo","","","",""
"","821","audio-keyboard-response","724","1383686","0.0-3.0-1.609","../audio/40-3-fem.mp3"," ","","falava","","","",""
"","960","audio-keyboard-response","725","1384918","0.0-3.0-1.610","../audio/40-4-fem.mp3"," ","","de","","","",""
"","2200","audio-keyboard-response","726","1387382","0.0-3.0-1.611","../audio/40-5-fem.mp3"," ","","fantasia","","","",""
"","771","audio-keyboard-response","727","1388422","0.0-3.0-1.612","../audio/40-6-fem.mp3"," ","","e","","","",""
"","851","audio-keyboard-response","728","1389542","0.0-3.0-1.613","../audio/40-7-fem.mp3"," ","","de","","","",""
"","7269","audio-keyboard-response","729","1397094","0.0-3.0-1.614","../audio/40-8-fem.mp3"," ","","aventura.","","","",""
"","1693","html-keyboard-response","730","1399047","0.0-3.0-2.614-0.614","<span style=""font-size:25px; font-family: monospace"">O jogo tinha fantasia e aventura?</span>","n","","","O jogo tinha fantasia e aventura?","null","exp-sent","false"
"[{""page_index"":0,""viewing_time"":10233}]","10233","instructions","731","1409791","0.0-4.0","","","","","","","",""
