[
	{
		"view_history": [
			{
				"page_index": 0,
				"viewing_time": 118224
			}
		],
		"rt": 118224,
		"trial_type": "instructions",
		"trial_index": 0,
		"time_elapsed": 118228,
		"internal_node_id": "0.0-0.0"
	},
	{
		"rt": 182754,
		"response": {
			"reading_habits_printed_magazines": "Todos os dias",
			"reading_habits_printed_newspapers": "Todos os dias",
			"reading_habits_books": "Alguns dias da semana",
			"reading_habits_printed_socialmedias": "Todos os dias"
		},
		"question_order": [
			0,
			1,
			2,
			3
		],
		"trial_type": "survey-multi-choice",
		"trial_index": 1,
		"time_elapsed": 301084,
		"internal_node_id": "0.0-1.0"
	},
	{
		"rt": 73546,
		"response": {
			"reading_habits_virtual_magazines": "Todos os dias",
			"reading_habits_virtual_newspapers": "Todos os dias",
			"reading_habits_books": "Todos os dias",
			"reading_habits_virtual_socialmedias": "Todos os dias"
		},
		"question_order": [
			0,
			1,
			2,
			3
		],
		"trial_type": "survey-multi-choice",
		"trial_index": 2,
		"time_elapsed": 374732,
		"internal_node_id": "0.0-2.0"
	},
	{
		"rt": 64233,
		"response": {
			"reading_habits_other_which": "",
			"reading_habits_other_frequency": ""
		},
		"trial_type": "survey-text",
		"trial_index": 3,
		"time_elapsed": 439068,
		"internal_node_id": "0.0-3.0"
	}
]