[
	{
		"view_history": [
			{
				"page_index": 0,
				"viewing_time": 5411
			}
		],
		"rt": 5411,
		"trial_type": "instructions",
		"trial_index": 0,
		"time_elapsed": 5412,
		"internal_node_id": "0.0-0.0"
	},
	{
		"rt": 36382,
		"response": {
			"tcle": "Concordo voluntariamente em participar da pesquisa conforme texto acima."
		},
		"question_order": [
			0
		],
		"trial_type": "survey-multi-choice",
		"trial_index": 1,
		"time_elapsed": 42005,
		"internal_node_id": "0.0-1.0"
	},
	{
		"rt": 16091,
		"response": {
			"email": "G1T3T"
		},
		"trial_type": "survey-text",
		"trial_index": 2,
		"time_elapsed": 59164,
		"internal_node_id": "0.0-2.0"
	}
]