"view_history","rt","trial_type","trial_index","time_elapsed","internal_node_id","stimulus","response","class","status","answer","correct","trial","letters"
"[{""page_index"":0,""viewing_time"":34798}]","34798","instructions","0","34800","0.0-0.0","","","","","","","",""
"","null","html-keyboard-response","1","35402","0.0-1.0-0.0","+","null","","","","","",""
"","8437","html-keyboard-response","2","43840","0.0-1.0-1.0","calmaria","n","null","noncog","word","S","prac","null"
"","null","html-keyboard-response","3","44342","0.0-1.0-0.1","+","null","","","","","",""
"","5993","html-keyboard-response","4","50335","0.0-1.0-1.1","crante","n","null","noncog","pseudo","N","prac","null"
"","null","html-keyboard-response","5","50836","0.0-1.0-0.2","+","null","","","","","",""
"","5370","html-keyboard-response","6","56207","0.0-1.0-1.2","daja","n","null","noncog","pseudo","N","prac","null"
"","null","html-keyboard-response","7","56708","0.0-1.0-0.3","+","null","","","","","",""
"","3082","html-keyboard-response","8","59791","0.0-1.0-1.3","oliva","s","null","cog","word","S","prac","null"
"","null","html-keyboard-response","9","60292","0.0-1.0-0.4","+","null","","","","","",""
"","123","html-keyboard-response","10","60415","0.0-1.0-1.4","plibar","n","null","noncog","pseudo","N","prac","null"
"","null","html-keyboard-response","11","60917","0.0-1.0-0.5","+","null","","","","","",""
"","2154","html-keyboard-response","12","63071","0.0-1.0-1.5","chassi","s","null","cog","word","S","prac","null"
"","null","html-keyboard-response","13","63572","0.0-1.0-0.6","+","null","","","","","",""
"","2795","html-keyboard-response","14","66367","0.0-1.0-1.6","órgão","s","null","noncog","word","S","prac","null"
"[{""page_index"":0,""viewing_time"":5240}]","5240","instructions","15","71608","0.0-2.0","","","","","","","",""
"","null","html-keyboard-response","16","72210","0.0-3.0-0.0","+","null","","","","","",""
"","9581","html-keyboard-response","17","81792","0.0-3.0-1.0","garastia","n","null","noncog","pseudo","N","exp","null"
"","null","html-keyboard-response","18","82292","0.0-3.0-0.1","+","null","","","","","",""
"","3034","html-keyboard-response","19","85327","0.0-3.0-1.1","multiplicar","s","v","cog","word","S","exp","11"
"","null","html-keyboard-response","20","85828","0.0-3.0-0.2","+","null","","","","","",""
"","3499","html-keyboard-response","21","89327","0.0-3.0-1.2","montanha","s","n","cog","word","S","exp","8"
"","null","html-keyboard-response","22","89831","0.0-3.0-0.3","+","null","","","","","",""
"","1784","html-keyboard-response","23","91615","0.0-3.0-1.3","mania","s","n","cog","word","S","exp","5"
"","null","html-keyboard-response","24","92116","0.0-3.0-0.4","+","null","","","","","",""
"","6843","html-keyboard-response","25","98959","0.0-3.0-1.4","berquesa","n","null","noncog","pseudo","N","exp","null"
"","null","html-keyboard-response","26","99460","0.0-3.0-0.5","+","null","","","","","",""
"","5018","html-keyboard-response","27","104479","0.0-3.0-1.5","terdia","n","null","noncog","pseudo","N","exp","null"
"","null","html-keyboard-response","28","104980","0.0-3.0-0.6","+","null","","","","","",""
"","1451","html-keyboard-response","29","106431","0.0-3.0-1.6","dia","s","n","noncog","word","S","exp","3"
"","null","html-keyboard-response","30","106932","0.0-3.0-0.7","+","null","","","","","",""
"","8491","html-keyboard-response","31","115423","0.0-3.0-1.7","aitrou","n","null","noncog","pseudo","N","exp","null"
"","null","html-keyboard-response","32","115924","0.0-3.0-0.8","+","null","","","","","",""
"","1643","html-keyboard-response","33","117567","0.0-3.0-1.8","francês","s","a","cog","word","S","exp","7"
"","null","html-keyboard-response","34","118068","0.0-3.0-0.9","+","null","","","","","",""
"","9179","html-keyboard-response","35","127247","0.0-3.0-1.9","prantal","n","null","noncog","pseudo","N","exp","null"
"","null","html-keyboard-response","36","127754","0.0-3.0-0.10","+","null","","","","","",""
"","2276","html-keyboard-response","37","130031","0.0-3.0-1.10","traduzir","s","v","cog","word","S","exp","8"
"","null","html-keyboard-response","38","130532","0.0-3.0-0.11","+","null","","","","","",""
"","7978","html-keyboard-response","39","138511","0.0-3.0-1.11","enedro","n","null","noncog","pseudo","N","exp","null"
"","null","html-keyboard-response","40","139013","0.0-3.0-0.12","+","null","","","","","",""
"","1578","html-keyboard-response","41","140591","0.0-3.0-1.12","socorro","s","n","noncog","word","S","exp","7"
"","null","html-keyboard-response","42","141092","0.0-3.0-0.13","+","null","","","","","",""
"","1435","html-keyboard-response","43","142527","0.0-3.0-1.13","telefone","s","n","cog","word","S","exp","8"
"","null","html-keyboard-response","44","143028","0.0-3.0-0.14","+","null","","","","","",""
"","2939","html-keyboard-response","45","145967","0.0-3.0-1.14","nivelado","s","a","cog","word","S","exp","8"
"","null","html-keyboard-response","46","146468","0.0-3.0-0.15","+","null","","","","","",""
"","2314","html-keyboard-response","47","148782","0.0-3.0-1.15","telafonir","s","null","noncog","pseudo","N","exp","null"
"","null","html-keyboard-response","48","149283","0.0-3.0-0.16","+","null","","","","","",""
"","4859","html-keyboard-response","49","154143","0.0-3.0-1.16","hedoru","s","null","noncog","pseudo","N","exp","null"
"","null","html-keyboard-response","50","154644","0.0-3.0-0.17","+","null","","","","","",""
"","5082","html-keyboard-response","51","159727","0.0-3.0-1.17","beima","n","null","noncog","pseudo","N","exp","null"
"","null","html-keyboard-response","52","160229","0.0-3.0-0.18","+","null","","","","","",""
"","5337","html-keyboard-response","53","165566","0.0-3.0-1.18","revear","s","null","noncog","pseudo","N","exp","null"
"","null","html-keyboard-response","54","166068","0.0-3.0-0.19","+","null","","","","","",""
"","1786","html-keyboard-response","55","167855","0.0-3.0-1.19","trabalhar","s","v","noncog","word","S","exp","9"
"","null","html-keyboard-response","56","168355","0.0-3.0-0.20","+","null","","","","","",""
"","4843","html-keyboard-response","57","173199","0.0-3.0-1.20","delomir","n","null","noncog","pseudo","N","exp","null"
"","null","html-keyboard-response","58","173700","0.0-3.0-0.21","+","null","","","","","",""
"","5003","html-keyboard-response","59","178703","0.0-3.0-1.21","pangos","n","null","noncog","pseudo","N","exp","null"
"","null","html-keyboard-response","60","179204","0.0-3.0-0.22","+","null","","","","","",""
"","11323","html-keyboard-response","61","190527","0.0-3.0-1.22","manais","n","null","noncog","pseudo","N","exp","null"
"","null","html-keyboard-response","62","191029","0.0-3.0-0.23","+","null","","","","","",""
"","11513","html-keyboard-response","63","202543","0.0-3.0-1.23","mua","n","null","noncog","pseudo","N","exp","null"
"","null","html-keyboard-response","64","203043","0.0-3.0-0.24","+","null","","","","","",""
"","2219","html-keyboard-response","65","205262","0.0-3.0-1.24","areia","s","n","noncog","word","S","exp","5"
"","null","html-keyboard-response","66","205763","0.0-3.0-0.25","+","null","","","","","",""
"","5083","html-keyboard-response","67","210846","0.0-3.0-1.25","atapdar","s","null","noncog","pseudo","N","exp","null"
"","null","html-keyboard-response","68","211360","0.0-3.0-0.26","+","null","","","","","",""
"","2702","html-keyboard-response","69","214063","0.0-3.0-1.26","distraído","s","a","cog","word","S","exp","9"
"","null","html-keyboard-response","70","214563","0.0-3.0-0.27","+","null","","","","","",""
"","4347","html-keyboard-response","71","218910","0.0-3.0-1.27","afual","n","null","noncog","pseudo","N","exp","null"
"","null","html-keyboard-response","72","219412","0.0-3.0-0.28","+","null","","","","","",""
"","4666","html-keyboard-response","73","224079","0.0-3.0-1.28","bracos","n","null","noncog","pseudo","N","exp","null"
"","null","html-keyboard-response","74","224579","0.0-3.0-0.29","+","null","","","","","",""
"","7707","html-keyboard-response","75","232286","0.0-3.0-1.29","orupas","n","null","noncog","pseudo","N","exp","null"
"","null","html-keyboard-response","76","232788","0.0-3.0-0.30","+","null","","","","","",""
"","4650","html-keyboard-response","77","237439","0.0-3.0-1.30","esprotiar","s","null","noncog","pseudo","N","exp","null"
"","null","html-keyboard-response","78","237940","0.0-3.0-0.31","+","null","","","","","",""
"","1386","html-keyboard-response","79","239326","0.0-3.0-1.31","reduzir","s","v","cog","word","S","exp","7"
"","null","html-keyboard-response","80","239828","0.0-3.0-0.32","+","null","","","","","",""
"","1898","html-keyboard-response","81","241726","0.0-3.0-1.32","nevela","s","null","noncog","pseudo","N","exp","null"
"","null","html-keyboard-response","82","242240","0.0-3.0-0.33","+","null","","","","","",""
"","3806","html-keyboard-response","83","246046","0.0-3.0-1.33","parceter","n","null","noncog","pseudo","N","exp","null"
"","null","html-keyboard-response","84","246550","0.0-3.0-0.34","+","null","","","","","",""
"","3448","html-keyboard-response","85","249998","0.0-3.0-1.34","planalto","s","n","cog","word","S","exp","8"
"","null","html-keyboard-response","86","250500","0.0-3.0-0.35","+","null","","","","","",""
"","3817","html-keyboard-response","87","254318","0.0-3.0-1.35","taberia","s","null","noncog","pseudo","N","exp","null"
"","null","html-keyboard-response","88","254819","0.0-3.0-0.36","+","null","","","","","",""
"","1451","html-keyboard-response","89","256270","0.0-3.0-1.36","barco","s","n","cog","word","S","exp","5"
"","null","html-keyboard-response","90","256771","0.0-3.0-0.37","+","null","","","","","",""
"","1499","html-keyboard-response","91","258270","0.0-3.0-1.37","frotes","s","null","noncog","pseudo","N","exp","null"
"","null","html-keyboard-response","92","258772","0.0-3.0-0.38","+","null","","","","","",""
"","4106","html-keyboard-response","93","262878","0.0-3.0-1.38","dipata","n","null","noncog","pseudo","N","exp","null"
"","null","html-keyboard-response","94","263379","0.0-3.0-0.39","+","null","","","","","",""
"","4779","html-keyboard-response","95","268158","0.0-3.0-1.39","bachir","n","null","noncog","pseudo","N","exp","null"
"","null","html-keyboard-response","96","268659","0.0-3.0-0.40","+","null","","","","","",""
"","3035","html-keyboard-response","97","271694","0.0-3.0-1.40","salpicado","s","a","noncog","word","S","exp","9"
"","null","html-keyboard-response","98","272195","0.0-3.0-0.41","+","null","","","","","",""
"","2570","html-keyboard-response","99","274766","0.0-3.0-1.41","morno","s","a","noncog","word","S","exp","5"
"","null","html-keyboard-response","100","275281","0.0-3.0-0.42","+","null","","","","","",""
"","1549","html-keyboard-response","101","276830","0.0-3.0-1.42","tronca","s","null","noncog","pseudo","N","exp","null"
"","null","html-keyboard-response","102","277331","0.0-3.0-0.43","+","null","","","","","",""
"","5706","html-keyboard-response","103","283038","0.0-3.0-1.43","ideisa","n","null","noncog","pseudo","N","exp","null"
"","null","html-keyboard-response","104","283539","0.0-3.0-0.44","+","null","","","","","",""
"","1851","html-keyboard-response","105","285390","0.0-3.0-1.44","aivões","s","null","noncog","pseudo","N","exp","null"
"","null","html-keyboard-response","106","285891","0.0-3.0-0.45","+","null","","","","","",""
"","1130","html-keyboard-response","107","287022","0.0-3.0-1.45","tela","s","n","noncog","word","S","exp","4"
"","null","html-keyboard-response","108","287523","0.0-3.0-0.46","+","null","","","","","",""
"","2699","html-keyboard-response","109","290222","0.0-3.0-1.46","apontar","s","v","noncog","word","S","exp","7"
"","null","html-keyboard-response","110","290723","0.0-3.0-0.47","+","null","","","","","",""
"","9914","html-keyboard-response","111","300638","0.0-3.0-1.47","candifência","n","null","noncog","pseudo","N","exp","null"
"","null","html-keyboard-response","112","301139","0.0-3.0-0.48","+","null","","","","","",""
"","2971","html-keyboard-response","113","304110","0.0-3.0-1.48","mabras","s","null","noncog","pseudo","N","exp","null"
"","null","html-keyboard-response","114","304612","0.0-3.0-0.49","+","null","","","","","",""
"","1450","html-keyboard-response","115","306062","0.0-3.0-1.49","mudança","s","n","noncog","word","S","exp","7"
"","null","html-keyboard-response","116","306563","0.0-3.0-0.50","+","null","","","","","",""
"","3419","html-keyboard-response","117","309982","0.0-3.0-1.50","atitro","n","null","noncog","pseudo","N","exp","null"
"","null","html-keyboard-response","118","310483","0.0-3.0-0.51","+","null","","","","","",""
"","4731","html-keyboard-response","119","315214","0.0-3.0-1.51","tatear","n","v","cog","word","S","exp","6"
"","null","html-keyboard-response","120","315716","0.0-3.0-0.52","+","null","","","","","",""
"","4378","html-keyboard-response","121","320094","0.0-3.0-1.52","esperar","s","v","cog","word","S","exp","7"
"","null","html-keyboard-response","122","320595","0.0-3.0-0.53","+","null","","","","","",""
"","1675","html-keyboard-response","123","322270","0.0-3.0-1.53","anjo","s","n","cog","word","S","exp","4"
"","null","html-keyboard-response","124","322771","0.0-3.0-0.54","+","null","","","","","",""
"","3466","html-keyboard-response","125","326238","0.0-3.0-1.54","aparme","s","null","noncog","pseudo","N","exp","null"
"","null","html-keyboard-response","126","326744","0.0-3.0-0.55","+","null","","","","","",""
"","3845","html-keyboard-response","127","330590","0.0-3.0-1.55","costra","n","null","noncog","pseudo","N","exp","null"
"","null","html-keyboard-response","128","331090","0.0-3.0-0.56","+","null","","","","","",""
"","3083","html-keyboard-response","129","334174","0.0-3.0-1.56","perbas","n","null","noncog","pseudo","N","exp","null"
"","null","html-keyboard-response","130","334687","0.0-3.0-0.57","+","null","","","","","",""
"","3150","html-keyboard-response","131","337838","0.0-3.0-1.57","verde","s","a","noncog","word","S","exp","5"
"","null","html-keyboard-response","132","338339","0.0-3.0-0.58","+","null","","","","","",""
"","1643","html-keyboard-response","133","339982","0.0-3.0-1.58","morar","s","v","noncog","word","S","exp","5"
"","null","html-keyboard-response","134","340483","0.0-3.0-0.59","+","null","","","","","",""
"","11115","html-keyboard-response","135","351598","0.0-3.0-1.59","cascata","n","n","noncog","word","S","exp","7"
"","null","html-keyboard-response","136","352099","0.0-3.0-0.60","+","null","","","","","",""
"","4778","html-keyboard-response","137","356878","0.0-3.0-1.60","dencosto","s","null","noncog","pseudo","N","exp","null"
"","null","html-keyboard-response","138","357379","0.0-3.0-0.61","+","null","","","","","",""
"","1690","html-keyboard-response","139","359070","0.0-3.0-1.61","melão","s","n","cog","word","S","exp","5"
"","null","html-keyboard-response","140","359571","0.0-3.0-0.62","+","null","","","","","",""
"","2555","html-keyboard-response","141","362126","0.0-3.0-1.62","adoçar","s","v","noncog","word","S","exp","6"
"","null","html-keyboard-response","142","362627","0.0-3.0-0.63","+","null","","","","","",""
"","1643","html-keyboard-response","143","364270","0.0-3.0-1.63","memória","s","n","cog","word","S","exp","7"
"","null","html-keyboard-response","144","364770","0.0-3.0-0.64","+","null","","","","","",""
"","2251","html-keyboard-response","145","367022","0.0-3.0-1.64","cápsula","s","n","noncog","word","S","exp","7"
"","null","html-keyboard-response","146","367523","0.0-3.0-0.65","+","null","","","","","",""
"","3387","html-keyboard-response","147","370910","0.0-3.0-1.65","afonher","n","null","noncog","pseudo","N","exp","null"
"","null","html-keyboard-response","148","371410","0.0-3.0-0.66","+","null","","","","","",""
"","2331","html-keyboard-response","149","373742","0.0-3.0-1.66","rédesa","s","null","noncog","pseudo","N","exp","null"
"","null","html-keyboard-response","150","374243","0.0-3.0-0.67","+","null","","","","","",""
"","2507","html-keyboard-response","151","376750","0.0-3.0-1.67","raspar","s","v","noncog","word","S","exp","6"
"","null","html-keyboard-response","152","377250","0.0-3.0-0.68","+","null","","","","","",""
"","1739","html-keyboard-response","153","378990","0.0-3.0-1.68","tímido","s","a","cog","word","S","exp","6"
"","null","html-keyboard-response","154","379491","0.0-3.0-0.69","+","null","","","","","",""
"","2010","html-keyboard-response","155","381502","0.0-3.0-1.69","bancada","s","n","noncog","word","S","exp","7"
"","null","html-keyboard-response","156","382002","0.0-3.0-0.70","+","null","","","","","",""
"","1835","html-keyboard-response","157","383838","0.0-3.0-1.70","imitar","s","v","cog","word","S","exp","6"
"","null","html-keyboard-response","158","384338","0.0-3.0-0.71","+","null","","","","","",""
"","1147","html-keyboard-response","159","385486","0.0-3.0-1.71","grave","s","a","cog","word","S","exp","5"
"","null","html-keyboard-response","160","385986","0.0-3.0-0.72","+","null","","","","","",""
"","2571","html-keyboard-response","161","388558","0.0-3.0-1.72","lapestra","n","null","noncog","pseudo","N","exp","null"
"","null","html-keyboard-response","162","389064","0.0-3.0-0.73","+","null","","","","","",""
"","4741","html-keyboard-response","163","393806","0.0-3.0-1.73","crolatário","n","null","noncog","pseudo","N","exp","null"
"","null","html-keyboard-response","164","394307","0.0-3.0-0.74","+","null","","","","","",""
"","1258","html-keyboard-response","165","395566","0.0-3.0-1.74","glória","s","n","cog","word","S","exp","6"
"","null","html-keyboard-response","166","396067","0.0-3.0-0.75","+","null","","","","","",""
"","1866","html-keyboard-response","167","397934","0.0-3.0-1.75","fasdas","s","null","noncog","pseudo","N","exp","null"
"","null","html-keyboard-response","168","398435","0.0-3.0-0.76","+","null","","","","","",""
"","5291","html-keyboard-response","169","403726","0.0-3.0-1.76","gruja","s","null","noncog","pseudo","N","exp","null"
"","null","html-keyboard-response","170","404230","0.0-3.0-0.77","+","null","","","","","",""
"","6855","html-keyboard-response","171","411086","0.0-3.0-1.77","conjerto","n","null","noncog","pseudo","N","exp","null"
"","null","html-keyboard-response","172","411587","0.0-3.0-0.78","+","null","","","","","",""
"","2026","html-keyboard-response","173","413614","0.0-3.0-1.78","temperar","s","v","noncog","word","S","exp","8"
"","null","html-keyboard-response","174","414114","0.0-3.0-0.79","+","null","","","","","",""
"","1819","html-keyboard-response","175","415934","0.0-3.0-1.79","carregar","s","v","noncog","word","S","exp","8"
"","null","html-keyboard-response","176","416435","0.0-3.0-0.80","+","null","","","","","",""
"","1130","html-keyboard-response","177","417566","0.0-3.0-1.80","liso","s","n","noncog","word","S","exp","4"
"","null","html-keyboard-response","178","418067","0.0-3.0-0.81","+","null","","","","","",""
"","3450","html-keyboard-response","179","421518","0.0-3.0-1.81","ensuas","s","null","noncog","pseudo","N","exp","null"
"","null","html-keyboard-response","180","422018","0.0-3.0-0.82","+","null","","","","","",""
"","47355","html-keyboard-response","181","469373","0.0-3.0-1.82","irratinte","n","null","noncog","pseudo","N","exp","null"
"","null","html-keyboard-response","182","469874","0.0-3.0-0.83","+","null","","","","","",""
"","3562","html-keyboard-response","183","473437","0.0-3.0-1.83","filosofia","s","n","cog","word","S","exp","9"
"","null","html-keyboard-response","184","473938","0.0-3.0-0.84","+","null","","","","","",""
"","18619","html-keyboard-response","185","492557","0.0-3.0-1.84","avenas","s","null","noncog","pseudo","N","exp","null"
"","null","html-keyboard-response","186","493058","0.0-3.0-0.85","+","null","","","","","",""
"","5242","html-keyboard-response","187","498301","0.0-3.0-1.85","encelhor","s","null","noncog","pseudo","N","exp","null"
"","null","html-keyboard-response","188","498802","0.0-3.0-0.86","+","null","","","","","",""
"","2363","html-keyboard-response","189","501165","0.0-3.0-1.86","morija","s","null","noncog","pseudo","N","exp","null"
"","null","html-keyboard-response","190","501671","0.0-3.0-0.87","+","null","","","","","",""
"","3157","html-keyboard-response","191","504829","0.0-3.0-1.87","medalha","s","n","cog","word","S","exp","7"
"","null","html-keyboard-response","192","505331","0.0-3.0-0.88","+","null","","","","","",""
"","1658","html-keyboard-response","193","506989","0.0-3.0-1.88","esfoce","s","null","noncog","pseudo","N","exp","null"
"","null","html-keyboard-response","194","507490","0.0-3.0-0.89","+","null","","","","","",""
"","3355","html-keyboard-response","195","510845","0.0-3.0-1.89","ênclio","s","null","noncog","pseudo","N","exp","null"
"","null","html-keyboard-response","196","511349","0.0-3.0-0.90","+","null","","","","","",""
"","5240","html-keyboard-response","197","516589","0.0-3.0-1.90","abieso","n","null","noncog","pseudo","N","exp","null"
"","null","html-keyboard-response","198","517090","0.0-3.0-0.91","+","null","","","","","",""
"","5770","html-keyboard-response","199","522861","0.0-3.0-1.91","braras","n","null","noncog","pseudo","N","exp","null"
"","null","html-keyboard-response","200","523362","0.0-3.0-0.92","+","null","","","","","",""
"","2331","html-keyboard-response","201","525693","0.0-3.0-1.92","comércio","s","n","noncog","word","S","exp","8"
"","null","html-keyboard-response","202","526194","0.0-3.0-0.93","+","null","","","","","",""
"","2891","html-keyboard-response","203","529085","0.0-3.0-1.93","bagunceira","s","a","noncog","word","S","exp","10"
"","null","html-keyboard-response","204","529590","0.0-3.0-0.94","+","null","","","","","",""
"","6758","html-keyboard-response","205","536349","0.0-3.0-1.94","alpica","s","null","noncog","pseudo","N","exp","null"
"","null","html-keyboard-response","206","536850","0.0-3.0-0.95","+","null","","","","","",""
"","1194","html-keyboard-response","207","538045","0.0-3.0-1.95","azul","s","n","noncog","word","S","exp","4"
"","null","html-keyboard-response","208","538547","0.0-3.0-0.96","+","null","","","","","",""
"","1530","html-keyboard-response","209","540077","0.0-3.0-1.96","carona","s","n","noncog","word","S","exp","6"
"","null","html-keyboard-response","210","540578","0.0-3.0-0.97","+","null","","","","","",""
"","3579","html-keyboard-response","211","544157","0.0-3.0-1.97","jastor","n","null","noncog","pseudo","N","exp","null"
"","null","html-keyboard-response","212","544658","0.0-3.0-0.98","+","null","","","","","",""
"","1387","html-keyboard-response","213","546045","0.0-3.0-1.98","nacional","s","a","cog","word","S","exp","8"
"","null","html-keyboard-response","214","546546","0.0-3.0-0.99","+","null","","","","","",""
"","3706","html-keyboard-response","215","550253","0.0-3.0-1.99","aletiê","n","null","noncog","pseudo","N","exp","null"
"","null","html-keyboard-response","216","550754","0.0-3.0-0.100","+","null","","","","","",""
"","2011","html-keyboard-response","217","552765","0.0-3.0-1.100","brincar","s","v","noncog","word","S","exp","7"
"","null","html-keyboard-response","218","553274","0.0-3.0-0.101","+","null","","","","","",""
"","6178","html-keyboard-response","219","559453","0.0-3.0-1.101","protas","n","null","noncog","pseudo","N","exp","null"
"","null","html-keyboard-response","220","559955","0.0-3.0-0.102","+","null","","","","","",""
"","1514","html-keyboard-response","221","561469","0.0-3.0-1.102","bandido","s","n","cog","word","S","exp","7"
"","null","html-keyboard-response","222","561970","0.0-3.0-0.103","+","null","","","","","",""
"","1643","html-keyboard-response","223","563613","0.0-3.0-1.103","lagoa","s","n","cog","word","S","exp","5"
"","null","html-keyboard-response","224","564114","0.0-3.0-0.104","+","null","","","","","",""
"","2010","html-keyboard-response","225","566125","0.0-3.0-1.104","independente","s","a","noncog","word","S","exp","12"
"","null","html-keyboard-response","226","566627","0.0-3.0-0.105","+","null","","","","","",""
"","2650","html-keyboard-response","227","569277","0.0-3.0-1.105","boreta","s","null","noncog","pseudo","N","exp","null"
"","null","html-keyboard-response","228","569778","0.0-3.0-0.106","+","null","","","","","",""
"","1819","html-keyboard-response","229","571597","0.0-3.0-1.106","extravagante","s","a","cog","word","S","exp","12"
"","null","html-keyboard-response","230","572098","0.0-3.0-0.107","+","null","","","","","",""
"","1195","html-keyboard-response","231","573293","0.0-3.0-1.107","espaço","s","n","cog","word","S","exp","6"
"","null","html-keyboard-response","232","573794","0.0-3.0-0.108","+","null","","","","","",""
"","4410","html-keyboard-response","233","578205","0.0-3.0-1.108","enxerido","s","a","noncog","word","S","exp","8"
"","null","html-keyboard-response","234","578712","0.0-3.0-0.109","+","null","","","","","",""
"","1220","html-keyboard-response","235","579933","0.0-3.0-1.109","especial","s","a","cog","word","S","exp","8"
"","null","html-keyboard-response","236","580435","0.0-3.0-0.110","+","null","","","","","",""
"","1386","html-keyboard-response","237","581821","0.0-3.0-1.110","jantar","s","v","noncog","word","S","exp","6"
"","null","html-keyboard-response","238","582322","0.0-3.0-0.111","+","null","","","","","",""
"","2171","html-keyboard-response","239","584493","0.0-3.0-1.111","propaganda","s","n","cog","word","S","exp","10"
"","null","html-keyboard-response","240","584994","0.0-3.0-0.112","+","null","","","","","",""
"","2458","html-keyboard-response","241","587453","0.0-3.0-1.112","faínas","n","null","noncog","pseudo","N","exp","null"
"","null","html-keyboard-response","242","587954","0.0-3.0-0.113","+","null","","","","","",""
"","1370","html-keyboard-response","243","589325","0.0-3.0-1.113","grátis","s","a","cog","word","S","exp","6"
"","null","html-keyboard-response","244","589826","0.0-3.0-0.114","+","null","","","","","",""
"","1882","html-keyboard-response","245","591709","0.0-3.0-1.114","manfa","n","null","noncog","pseudo","N","exp","null"
"","null","html-keyboard-response","246","592210","0.0-3.0-0.115","+","null","","","","","",""
"","3882","html-keyboard-response","247","596093","0.0-3.0-1.115","usnado","n","null","noncog","pseudo","N","exp","null"
"","null","html-keyboard-response","248","596595","0.0-3.0-0.116","+","null","","","","","",""
"","3322","html-keyboard-response","249","599917","0.0-3.0-1.116","motre","n","null","noncog","pseudo","N","exp","null"
"","null","html-keyboard-response","250","600418","0.0-3.0-0.117","+","null","","","","","",""
"","4618","html-keyboard-response","251","605037","0.0-3.0-1.117","ronronar","n","v","cog","word","S","exp","8"
"","null","html-keyboard-response","252","605538","0.0-3.0-0.118","+","null","","","","","",""
"","1626","html-keyboard-response","253","607165","0.0-3.0-1.118","perdão","s","n","noncog","word","S","exp","6"
"","null","html-keyboard-response","254","607666","0.0-3.0-0.119","+","null","","","","","",""
"","5402","html-keyboard-response","255","613069","0.0-3.0-1.119","uchães","s","null","noncog","pseudo","N","exp","null"
"","null","html-keyboard-response","256","613570","0.0-3.0-0.120","+","null","","","","","",""
"","3290","html-keyboard-response","257","616861","0.0-3.0-1.120","quenzina","s","null","noncog","pseudo","N","exp","null"
"","null","html-keyboard-response","258","617361","0.0-3.0-0.121","+","null","","","","","",""
"","4331","html-keyboard-response","259","621693","0.0-3.0-1.121","resmungar","s","v","noncog","word","S","exp","9"
"","null","html-keyboard-response","260","622194","0.0-3.0-0.122","+","null","","","","","",""
"","5339","html-keyboard-response","261","627533","0.0-3.0-1.122","rovaz","s","null","noncog","pseudo","N","exp","null"
"","null","html-keyboard-response","262","628035","0.0-3.0-0.123","+","null","","","","","",""
"","1945","html-keyboard-response","263","629981","0.0-3.0-1.123","nervoso","s","a","noncog","word","S","exp","7"
"","null","html-keyboard-response","264","630481","0.0-3.0-0.124","+","null","","","","","",""
"","2027","html-keyboard-response","265","632509","0.0-3.0-1.124","refletir","s","v","cog","word","S","exp","8"
"","null","html-keyboard-response","266","633010","0.0-3.0-0.125","+","null","","","","","",""
"","1994","html-keyboard-response","267","635005","0.0-3.0-1.125","tinta","s","n","cog","word","S","exp","5"
"","null","html-keyboard-response","268","635506","0.0-3.0-0.126","+","null","","","","","",""
"","5242","html-keyboard-response","269","640748","0.0-3.0-1.126","usfiga","s","null","noncog","pseudo","N","exp","null"
"","null","html-keyboard-response","270","641250","0.0-3.0-0.127","+","null","","","","","",""
"","5898","html-keyboard-response","271","647149","0.0-3.0-1.127","grótis","n","null","noncog","pseudo","N","exp","null"
"","null","html-keyboard-response","272","647650","0.0-3.0-0.128","+","null","","","","","",""
"","2010","html-keyboard-response","273","649661","0.0-3.0-1.128","fino","s","a","cog","word","S","exp","4"
"","null","html-keyboard-response","274","650162","0.0-3.0-0.129","+","null","","","","","",""
"","1754","html-keyboard-response","275","651916","0.0-3.0-1.129","sábio","s","n","noncog","word","S","exp","5"
"","null","html-keyboard-response","276","652418","0.0-3.0-0.130","+","null","","","","","",""
"","4042","html-keyboard-response","277","656461","0.0-3.0-1.130","pantufa","n","n","cog","word","S","exp","7"
"","null","html-keyboard-response","278","656962","0.0-3.0-0.131","+","null","","","","","",""
"","4795","html-keyboard-response","279","661757","0.0-3.0-1.131","ejerro","s","null","noncog","pseudo","N","exp","null"
"","null","html-keyboard-response","280","662257","0.0-3.0-0.132","+","null","","","","","",""
"","3083","html-keyboard-response","281","665341","0.0-3.0-1.132","ilhure","s","null","noncog","pseudo","N","exp","null"
"","null","html-keyboard-response","282","665842","0.0-3.0-0.133","+","null","","","","","",""
"","2618","html-keyboard-response","283","668461","0.0-3.0-1.133","delirar","n","v","noncog","word","S","exp","7"
"","null","html-keyboard-response","284","668961","0.0-3.0-0.134","+","null","","","","","",""
"","6475","html-keyboard-response","285","675437","0.0-3.0-1.134","arranjar","s","v","cog","word","S","exp","8"
"","null","html-keyboard-response","286","675938","0.0-3.0-0.135","+","null","","","","","",""
"","2394","html-keyboard-response","287","678333","0.0-3.0-1.135","promessa","s","n","noncog","word","S","exp","8"
"","null","html-keyboard-response","288","678834","0.0-3.0-0.136","+","null","","","","","",""
"","1610","html-keyboard-response","289","680445","0.0-3.0-1.136","chato","s","n","noncog","word","S","exp","5"
"","null","html-keyboard-response","290","680945","0.0-3.0-0.137","+","null","","","","","",""
"","2139","html-keyboard-response","291","683084","0.0-3.0-1.137","farcas","s","null","noncog","pseudo","N","exp","null"
"","null","html-keyboard-response","292","683588","0.0-3.0-0.138","+","null","","","","","",""
"","1304","html-keyboard-response","293","684892","0.0-3.0-1.138","carro","s","n","noncog","word","S","exp","5"
"","null","html-keyboard-response","294","685393","0.0-3.0-0.139","+","null","","","","","",""
"","3291","html-keyboard-response","295","688684","0.0-3.0-1.139","prever","s","v","cog","word","S","exp","6"
"","null","html-keyboard-response","296","689188","0.0-3.0-0.140","+","null","","","","","",""
"","1752","html-keyboard-response","297","690940","0.0-3.0-1.140","convidado","s","n","noncog","word","S","exp","9"
"","null","html-keyboard-response","298","691442","0.0-3.0-0.141","+","null","","","","","",""
"","922","html-keyboard-response","299","692364","0.0-3.0-1.141","verdade","s","n","cog","word","S","exp","7"
"","null","html-keyboard-response","300","692866","0.0-3.0-0.142","+","null","","","","","",""
"","2138","html-keyboard-response","301","695004","0.0-3.0-1.142","cirado","n","null","noncog","pseudo","N","exp","null"
"","null","html-keyboard-response","302","695506","0.0-3.0-0.143","+","null","","","","","",""
"","1994","html-keyboard-response","303","697500","0.0-3.0-1.143","agravar","s","v","cog","word","S","exp","7"
"","null","html-keyboard-response","304","698006","0.0-3.0-0.144","+","null","","","","","",""
"","886","html-keyboard-response","305","698892","0.0-3.0-1.144","país","s","n","noncog","word","S","exp","4"
"","null","html-keyboard-response","306","699400","0.0-3.0-0.145","+","null","","","","","",""
"","1460","html-keyboard-response","307","700860","0.0-3.0-1.145","oper","n","null","noncog","pseudo","N","exp","null"
"","null","html-keyboard-response","308","701361","0.0-3.0-0.146","+","null","","","","","",""
"","1851","html-keyboard-response","309","703212","0.0-3.0-1.146","hipócrita","s","a","noncog","word","S","exp","9"
"","null","html-keyboard-response","310","703714","0.0-3.0-0.147","+","null","","","","","",""
"","3770","html-keyboard-response","311","707484","0.0-3.0-1.147","suipestar","s","null","noncog","pseudo","N","exp","null"
"","null","html-keyboard-response","312","707985","0.0-3.0-0.148","+","null","","","","","",""
"","1643","html-keyboard-response","313","709628","0.0-3.0-1.148","hébies","n","null","noncog","pseudo","N","exp","null"
"","null","html-keyboard-response","314","710130","0.0-3.0-0.149","+","null","","","","","",""
"","2138","html-keyboard-response","315","712268","0.0-3.0-1.149","promeção","s","null","noncog","pseudo","N","exp","null"
"","null","html-keyboard-response","316","712769","0.0-3.0-0.150","+","null","","","","","",""
"","1403","html-keyboard-response","317","714172","0.0-3.0-1.150","undivídio","s","null","noncog","pseudo","N","exp","null"
"","null","html-keyboard-response","318","714673","0.0-3.0-0.151","+","null","","","","","",""
"","2155","html-keyboard-response","319","716828","0.0-3.0-1.151","prenas","s","null","noncog","pseudo","N","exp","null"
"","null","html-keyboard-response","320","717330","0.0-3.0-0.152","+","null","","","","","",""
"","2106","html-keyboard-response","321","719436","0.0-3.0-1.152","liberal","s","a","cog","word","S","exp","7"
"","null","html-keyboard-response","322","719937","0.0-3.0-0.153","+","null","","","","","",""
"","3163","html-keyboard-response","323","723100","0.0-3.0-1.153","podilo","n","null","noncog","pseudo","N","exp","null"
"","null","html-keyboard-response","324","723601","0.0-3.0-0.154","+","null","","","","","",""
"","2171","html-keyboard-response","325","725772","0.0-3.0-1.154","matinal","s","a","cog","word","S","exp","7"
"","null","html-keyboard-response","326","726273","0.0-3.0-0.155","+","null","","","","","",""
"","1995","html-keyboard-response","327","728268","0.0-3.0-1.155","aperor","s","null","noncog","pseudo","N","exp","null"
"","null","html-keyboard-response","328","728770","0.0-3.0-0.156","+","null","","","","","",""
"","1610","html-keyboard-response","329","730380","0.0-3.0-1.156","gordo","s","a","noncog","word","S","exp","5"
"","null","html-keyboard-response","330","730882","0.0-3.0-0.157","+","null","","","","","",""
"","2538","html-keyboard-response","331","733420","0.0-3.0-1.157","macras","n","null","noncog","pseudo","N","exp","null"
"","null","html-keyboard-response","332","733921","0.0-3.0-0.158","+","null","","","","","",""
"","1818","html-keyboard-response","333","735740","0.0-3.0-1.158","ofreta","s","null","noncog","pseudo","N","exp","null"
"","null","html-keyboard-response","334","736242","0.0-3.0-0.159","+","null","","","","","",""
"","4522","html-keyboard-response","335","740764","0.0-3.0-1.159","verceja","n","null","noncog","pseudo","N","exp","null"
"","null","html-keyboard-response","336","741266","0.0-3.0-0.160","+","null","","","","","",""
"","2154","html-keyboard-response","337","743420","0.0-3.0-1.160","franda","s","null","noncog","pseudo","N","exp","null"
"","null","html-keyboard-response","338","743922","0.0-3.0-0.161","+","null","","","","","",""
"","4042","html-keyboard-response","339","747964","0.0-3.0-1.161","senareta","n","null","noncog","pseudo","N","exp","null"
"","null","html-keyboard-response","340","748466","0.0-3.0-0.162","+","null","","","","","",""
"","1882","html-keyboard-response","341","750348","0.0-3.0-1.162","cinema","s","n","cog","word","S","exp","6"
"","null","html-keyboard-response","342","750849","0.0-3.0-0.163","+","null","","","","","",""
"","1802","html-keyboard-response","343","752652","0.0-3.0-1.163","árovre","n","null","noncog","pseudo","N","exp","null"
"","null","html-keyboard-response","344","753154","0.0-3.0-0.164","+","null","","","","","",""
"","1002","html-keyboard-response","345","754156","0.0-3.0-1.164","tênis","s","n","cog","word","S","exp","5"
"","null","html-keyboard-response","346","754658","0.0-3.0-0.165","+","null","","","","","",""
"","2810","html-keyboard-response","347","757468","0.0-3.0-1.165","preferir","s","v","cog","word","S","exp","8"
"","null","html-keyboard-response","348","757969","0.0-3.0-0.166","+","null","","","","","",""
"","2891","html-keyboard-response","349","760860","0.0-3.0-1.166","instruído","s","a","noncog","word","S","exp","9"
"","null","html-keyboard-response","350","761362","0.0-3.0-0.167","+","null","","","","","",""
"","1226","html-keyboard-response","351","762588","0.0-3.0-1.167","filme","s","n","cog","word","S","exp","5"
"","null","html-keyboard-response","352","763088","0.0-3.0-0.168","+","null","","","","","",""
"","3147","html-keyboard-response","353","766236","0.0-3.0-1.168","cenada","s","null","noncog","pseudo","N","exp","null"
"","null","html-keyboard-response","354","766738","0.0-3.0-0.169","+","null","","","","","",""
"","2138","html-keyboard-response","355","768876","0.0-3.0-1.169","âgnulo","n","null","noncog","pseudo","N","exp","null"
"","null","html-keyboard-response","356","769377","0.0-3.0-0.170","+","null","","","","","",""
"","3035","html-keyboard-response","357","772412","0.0-3.0-1.170","espinho","s","n","noncog","word","S","exp","7"
"","null","html-keyboard-response","358","772917","0.0-3.0-0.171","+","null","","","","","",""
"","7766","html-keyboard-response","359","780684","0.0-3.0-1.171","ocinto","s","null","noncog","pseudo","N","exp","null"
"","null","html-keyboard-response","360","781186","0.0-3.0-0.172","+","null","","","","","",""
"","3577","html-keyboard-response","361","784764","0.0-3.0-1.172","casuas","s","null","noncog","pseudo","N","exp","null"
"","null","html-keyboard-response","362","785277","0.0-3.0-0.173","+","null","","","","","",""
"","1166","html-keyboard-response","363","786444","0.0-3.0-1.173","trenos","s","null","noncog","pseudo","N","exp","null"
"","null","html-keyboard-response","364","786946","0.0-3.0-0.174","+","null","","","","","",""
"","1098","html-keyboard-response","365","788044","0.0-3.0-1.174","revista","s","n","cog","word","S","exp","7"
"","null","html-keyboard-response","366","788545","0.0-3.0-0.175","+","null","","","","","",""
"","3018","html-keyboard-response","367","791564","0.0-3.0-1.175","lagras","n","null","noncog","pseudo","N","exp","null"
"","null","html-keyboard-response","368","792065","0.0-3.0-0.176","+","null","","","","","",""
"","4090","html-keyboard-response","369","796156","0.0-3.0-1.176","pimada","s","null","noncog","pseudo","N","exp","null"
"","null","html-keyboard-response","370","796656","0.0-3.0-0.177","+","null","","","","","",""
"","1803","html-keyboard-response","371","798460","0.0-3.0-1.177","alfabeto","s","n","cog","word","S","exp","8"
"","null","html-keyboard-response","372","798961","0.0-3.0-0.178","+","null","","","","","",""
"","1467","html-keyboard-response","373","800428","0.0-3.0-1.178","trair","s","v","cog","word","S","exp","5"
"","null","html-keyboard-response","374","800929","0.0-3.0-0.179","+","null","","","","","",""
"","3035","html-keyboard-response","375","803964","0.0-3.0-1.179","deselegante","s","a","noncog","word","S","exp","11"
"","null","html-keyboard-response","376","804465","0.0-3.0-0.180","+","null","","","","","",""
"","4859","html-keyboard-response","377","809324","0.0-3.0-1.180","loaco","n","null","noncog","pseudo","N","exp","null"
"","null","html-keyboard-response","378","809825","0.0-3.0-0.181","+","null","","","","","",""
"","2970","html-keyboard-response","379","812796","0.0-3.0-1.181","dacada","n","null","noncog","pseudo","N","exp","null"
"","null","html-keyboard-response","380","813297","0.0-3.0-0.182","+","null","","","","","",""
"","1546","html-keyboard-response","381","814844","0.0-3.0-1.182","sustentar","s","v","noncog","word","S","exp","9"
"","null","html-keyboard-response","382","815344","0.0-3.0-0.183","+","null","","","","","",""
"","1867","html-keyboard-response","383","817212","0.0-3.0-1.183","pega-pega","s","n","noncog","word","S","exp","8"
"","null","html-keyboard-response","384","817713","0.0-3.0-0.184","+","null","","","","","",""
"","651","html-keyboard-response","385","818364","0.0-3.0-1.184","tio","s","n","noncog","word","S","exp","3"
"","null","html-keyboard-response","386","818865","0.0-3.0-0.185","+","null","","","","","",""
"","1786","html-keyboard-response","387","820652","0.0-3.0-1.185","oricia","n","null","noncog","pseudo","N","exp","null"
"","null","html-keyboard-response","388","821153","0.0-3.0-0.186","+","null","","","","","",""
"","1211","html-keyboard-response","389","822364","0.0-3.0-1.186","euorpa","s","null","noncog","pseudo","N","exp","null"
"","null","html-keyboard-response","390","822868","0.0-3.0-0.187","+","null","","","","","",""
"","1879","html-keyboard-response","391","824747","0.0-3.0-1.187","vitrive","n","null","noncog","pseudo","N","exp","null"
"","null","html-keyboard-response","392","825249","0.0-3.0-0.188","+","null","","","","","",""
"","2090","html-keyboard-response","393","827340","0.0-3.0-1.188","selir","s","null","noncog","pseudo","N","exp","null"
"","null","html-keyboard-response","394","827840","0.0-3.0-0.189","+","null","","","","","",""
"","1739","html-keyboard-response","395","829580","0.0-3.0-1.189","escumo","n","null","noncog","pseudo","N","exp","null"
"","null","html-keyboard-response","396","830081","0.0-3.0-0.190","+","null","","","","","",""
"","1531","html-keyboard-response","397","831612","0.0-3.0-1.190","atrasar","s","v","noncog","word","S","exp","7"
"","null","html-keyboard-response","398","832113","0.0-3.0-0.191","+","null","","","","","",""
"","2939","html-keyboard-response","399","835052","0.0-3.0-1.191","enxarto","s","null","noncog","pseudo","N","exp","null"
"","null","html-keyboard-response","400","835553","0.0-3.0-0.192","+","null","","","","","",""
"","2826","html-keyboard-response","401","838380","0.0-3.0-1.192","detative","n","null","noncog","pseudo","N","exp","null"
"","null","html-keyboard-response","402","838881","0.0-3.0-0.193","+","null","","","","","",""
"","1947","html-keyboard-response","403","840828","0.0-3.0-1.193","risbos","n","null","noncog","pseudo","N","exp","null"
"","null","html-keyboard-response","404","841329","0.0-3.0-0.194","+","null","","","","","",""
"","2283","html-keyboard-response","405","843612","0.0-3.0-1.194","sanque","s","null","noncog","pseudo","N","exp","null"
"","null","html-keyboard-response","406","844113","0.0-3.0-0.195","+","null","","","","","",""
"","810","html-keyboard-response","407","844924","0.0-3.0-1.195","livro","s","n","cog","word","S","exp","5"
"","null","html-keyboard-response","408","845424","0.0-3.0-0.196","+","null","","","","","",""
"","2619","html-keyboard-response","409","848044","0.0-3.0-1.196","tartos","n","null","noncog","pseudo","N","exp","null"
"","null","html-keyboard-response","410","848544","0.0-3.0-0.197","+","null","","","","","",""
"","3163","html-keyboard-response","411","851707","0.0-3.0-1.197","pitada","n","n","noncog","word","S","exp","6"
"","null","html-keyboard-response","412","852208","0.0-3.0-0.198","+","null","","","","","",""
"","859","html-keyboard-response","413","853068","0.0-3.0-1.198","cerca","s","n","noncog","word","S","exp","5"
"","null","html-keyboard-response","414","853568","0.0-3.0-0.199","+","null","","","","","",""
"","1035","html-keyboard-response","415","854604","0.0-3.0-1.199","crutas","s","null","noncog","pseudo","N","exp","null"
"","null","html-keyboard-response","416","855110","0.0-3.0-0.200","+","null","","","","","",""
"","1589","html-keyboard-response","417","856699","0.0-3.0-1.200","sintonizar","s","v","noncog","word","S","exp","10"
"","null","html-keyboard-response","418","857201","0.0-3.0-0.201","+","null","","","","","",""
"","36219","html-keyboard-response","419","893420","0.0-3.0-1.201","bibarconato","n","null","noncog","pseudo","N","exp","null"
"","null","html-keyboard-response","420","893921","0.0-3.0-0.202","+","null","","","","","",""
"","4218","html-keyboard-response","421","898139","0.0-3.0-1.202","fogão","s","n","noncog","word","S","exp","5"
"","null","html-keyboard-response","422","898641","0.0-3.0-0.203","+","null","","","","","",""
"","1498","html-keyboard-response","423","900139","0.0-3.0-1.203","disbrituir","s","null","noncog","pseudo","N","exp","null"
"","null","html-keyboard-response","424","900641","0.0-3.0-0.204","+","null","","","","","",""
"","1546","html-keyboard-response","425","902187","0.0-3.0-1.204","animado","s","a","noncog","word","S","exp","7"
"","null","html-keyboard-response","426","902688","0.0-3.0-0.205","+","null","","","","","",""
"","1883","html-keyboard-response","427","904572","0.0-3.0-1.205","papai","s","n","cog","word","S","exp","5"
"","null","html-keyboard-response","428","905073","0.0-3.0-0.206","+","null","","","","","",""
"","1514","html-keyboard-response","429","906587","0.0-3.0-1.206","vervas","s","null","noncog","pseudo","N","exp","null"
"","null","html-keyboard-response","430","907088","0.0-3.0-0.207","+","null","","","","","",""
"","22475","html-keyboard-response","431","929563","0.0-3.0-1.207","aemaça","s","null","noncog","pseudo","N","exp","null"
"","null","html-keyboard-response","432","930065","0.0-3.0-0.208","+","null","","","","","",""
"","8042","html-keyboard-response","433","938107","0.0-3.0-1.208","oecano","n","null","noncog","pseudo","N","exp","null"
"","null","html-keyboard-response","434","938609","0.0-3.0-0.209","+","null","","","","","",""
"","2073","html-keyboard-response","435","940683","0.0-3.0-1.209","drama","s","n","cog","word","S","exp","5"
"","null","html-keyboard-response","436","941184","0.0-3.0-0.210","+","null","","","","","",""
"","1003","html-keyboard-response","437","942187","0.0-3.0-1.210","civil","s","a","cog","word","S","exp","5"
"","null","html-keyboard-response","438","942688","0.0-3.0-0.211","+","null","","","","","",""
"","1563","html-keyboard-response","439","944251","0.0-3.0-1.211","espionar","s","v","cog","word","S","exp","8"
"","null","html-keyboard-response","440","944752","0.0-3.0-0.212","+","null","","","","","",""
"","4170","html-keyboard-response","441","948923","0.0-3.0-1.212","fusbão","n","null","noncog","pseudo","N","exp","null"
"","null","html-keyboard-response","442","949425","0.0-3.0-0.213","+","null","","","","","",""
"","1626","html-keyboard-response","443","951051","0.0-3.0-1.213","motros","s","null","noncog","pseudo","N","exp","null"
"","null","html-keyboard-response","444","951553","0.0-3.0-0.214","+","null","","","","","",""
"","5898","html-keyboard-response","445","957451","0.0-3.0-1.214","plinta","n","null","noncog","pseudo","N","exp","null"
"","null","html-keyboard-response","446","957953","0.0-3.0-0.215","+","null","","","","","",""
"","2618","html-keyboard-response","447","960571","0.0-3.0-1.215","bambu","s","n","cog","word","S","exp","5"
"","null","html-keyboard-response","448","961087","0.0-3.0-0.216","+","null","","","","","",""
"","748","html-keyboard-response","449","961835","0.0-3.0-1.216","fofo","s","a","noncog","word","S","exp","4"
"","null","html-keyboard-response","450","962337","0.0-3.0-0.217","+","null","","","","","",""
"","2330","html-keyboard-response","451","964667","0.0-3.0-1.217","açúcar","s","n","noncog","word","S","exp","6"
"","null","html-keyboard-response","452","965168","0.0-3.0-0.218","+","null","","","","","",""
"","1099","html-keyboard-response","453","966267","0.0-3.0-1.218","destino","s","n","cog","word","S","exp","7"
"","null","html-keyboard-response","454","966768","0.0-3.0-0.219","+","null","","","","","",""
"","3002","html-keyboard-response","455","969771","0.0-3.0-1.219","fratos","n","null","noncog","pseudo","N","exp","null"
"","null","html-keyboard-response","456","970273","0.0-3.0-0.220","+","null","","","","","",""
"","6074","html-keyboard-response","457","976347","0.0-3.0-1.220","pneucania","n","null","noncog","pseudo","N","exp","null"
"","null","html-keyboard-response","458","976849","0.0-3.0-0.221","+","null","","","","","",""
"","1690","html-keyboard-response","459","978539","0.0-3.0-1.221","gertas","n","null","noncog","pseudo","N","exp","null"
"","null","html-keyboard-response","460","979040","0.0-3.0-0.222","+","null","","","","","",""
"","1083","html-keyboard-response","461","980123","0.0-3.0-1.222","pritas","n","null","noncog","pseudo","N","exp","null"
"","null","html-keyboard-response","462","980625","0.0-3.0-0.223","+","null","","","","","",""
"","2538","html-keyboard-response","463","983163","0.0-3.0-1.223","pedaço","s","n","noncog","word","S","exp","6"
"","null","html-keyboard-response","464","983664","0.0-3.0-0.224","+","null","","","","","",""
"","1306","html-keyboard-response","465","984971","0.0-3.0-1.224","burtos","s","null","noncog","pseudo","N","exp","null"
"","null","html-keyboard-response","466","985472","0.0-3.0-0.225","+","null","","","","","",""
"","923","html-keyboard-response","467","986395","0.0-3.0-1.225","cravo","s","n","noncog","word","S","exp","5"
"","null","html-keyboard-response","468","986897","0.0-3.0-0.226","+","null","","","","","",""
"","1210","html-keyboard-response","469","988107","0.0-3.0-1.226","viver","s","v","cog","word","S","exp","5"
"","null","html-keyboard-response","470","988609","0.0-3.0-0.227","+","null","","","","","",""
"","1417","html-keyboard-response","471","990027","0.0-3.0-1.227","agressivo","s","a","cog","word","S","exp","9"
"","null","html-keyboard-response","472","990528","0.0-3.0-0.228","+","null","","","","","",""
"","859","html-keyboard-response","473","991387","0.0-3.0-1.228","uçar","s","null","noncog","pseudo","N","exp","null"
"","null","html-keyboard-response","474","991888","0.0-3.0-0.229","+","null","","","","","",""
"","1163","html-keyboard-response","475","993051","0.0-3.0-1.229","pulmão","s","n","noncog","word","S","exp","6"
"","null","html-keyboard-response","476","993552","0.0-3.0-0.230","+","null","","","","","",""
"","970","html-keyboard-response","477","994523","0.0-3.0-1.230","cristal","s","n","cog","word","S","exp","7"
"","null","html-keyboard-response","478","995023","0.0-3.0-0.231","+","null","","","","","",""
"","3164","html-keyboard-response","479","998187","0.0-3.0-1.231","dilheira","n","null","noncog","pseudo","N","exp","null"
"","null","html-keyboard-response","480","998689","0.0-3.0-0.232","+","null","","","","","",""
"","890","html-keyboard-response","481","999579","0.0-3.0-1.232","mal","s","a","cog","word","S","exp","3"
"","null","html-keyboard-response","482","1000081","0.0-3.0-0.233","+","null","","","","","",""
"","1594","html-keyboard-response","483","1001675","0.0-3.0-1.233","gilha","s","null","noncog","pseudo","N","exp","null"
"","null","html-keyboard-response","484","1002179","0.0-3.0-0.234","+","null","","","","","",""
"","1175","html-keyboard-response","485","1003355","0.0-3.0-1.234","chorão","s","a","noncog","word","S","exp","6"
"","null","html-keyboard-response","486","1003856","0.0-3.0-0.235","+","null","","","","","",""
"","2123","html-keyboard-response","487","1005979","0.0-3.0-1.235","lorfaz","s","null","noncog","pseudo","N","exp","null"
"","null","html-keyboard-response","488","1006480","0.0-3.0-0.236","+","null","","","","","",""
"","1019","html-keyboard-response","489","1007499","0.0-3.0-1.236","ótimo","s","a","noncog","word","S","exp","5"
"","null","html-keyboard-response","490","1008000","0.0-3.0-0.237","+","null","","","","","",""
"","5114","html-keyboard-response","491","1013115","0.0-3.0-1.237","dobradiça","s","n","noncog","word","S","exp","9"
"","null","html-keyboard-response","492","1013616","0.0-3.0-0.238","+","null","","","","","",""
"","762","html-keyboard-response","493","1014379","0.0-3.0-1.238","nome","s","n","cog","word","S","exp","4"
"","null","html-keyboard-response","494","1014881","0.0-3.0-0.239","+","null","","","","","",""
"","2313","html-keyboard-response","495","1017195","0.0-3.0-1.239","incomodar","s","v","noncog","word","S","exp","9"
