[
	{
		"view_history": [
			{
				"page_index": 0,
				"viewing_time": 1403
			},
			{
				"page_index": 1,
				"viewing_time": 3687
			}
		],
		"rt": 5090,
		"trial_type": "instructions",
		"trial_index": 0,
		"time_elapsed": 5091,
		"internal_node_id": "0.0-0.0"
	},
	{
		"rt": null,
		"stimulus": "<span style= \"font-size:30px; font-family: monospace\">+</span>",
		"response": null,
		"trial_part": "fixation",
		"trial_type": "html-keyboard-response",
		"trial_index": 1,
		"time_elapsed": 6213,
		"internal_node_id": "0.0-1.0-0.0-0.0"
	},
	{
		"rt": 4451,
		"stimulus": "<span style=\"font-size:30px; font-family: monospace\">O</span>",
		"response": " ",
		"trial": "prac-sent",
		"word": "O",
		"trial_type": "html-keyboard-response",
		"trial_index": 2,
		"time_elapsed": 10923,
		"internal_node_id": "0.0-1.0-1.0"
	},
	{
		"rt": 3828,
		"stimulus": "<span style=\"font-size:30px; font-family: monospace\">dia</span>",
		"response": " ",
		"trial": "prac-sent",
		"word": "dia",
		"trial_type": "html-keyboard-response",
		"trial_index": 3,
		"time_elapsed": 15020,
		"internal_node_id": "0.0-1.0-1.1"
	},
	{
		"rt": 7401,
		"stimulus": "<span style=\"font-size:30px; font-family: monospace\">estará</span>",
		"response": " ",
		"trial": "prac-sent",
		"word": "estará",
		"trial_type": "html-keyboard-response",
		"trial_index": 4,
		"time_elapsed": 22683,
		"internal_node_id": "0.0-1.0-1.2"
	},
	{
		"rt": 6003,
		"stimulus": "<span style=\"font-size:30px; font-family: monospace\">cheio</span>",
		"response": " ",
		"trial": "prac-sent",
		"word": "cheio",
		"trial_type": "html-keyboard-response",
		"trial_index": 5,
		"time_elapsed": 28956,
		"internal_node_id": "0.0-1.0-1.3"
	},
	{
		"rt": 2997,
		"stimulus": "<span style=\"font-size:30px; font-family: monospace\">de</span>",
		"response": " ",
		"trial": "prac-sent",
		"word": "de",
		"trial_type": "html-keyboard-response",
		"trial_index": 6,
		"time_elapsed": 32220,
		"internal_node_id": "0.0-1.0-1.4"
	},
	{
		"rt": 2549,
		"stimulus": "<span style=\"font-size:30px; font-family: monospace\">nuvens</span>",
		"response": " ",
		"trial": "prac-sent",
		"word": "nuvens",
		"trial_type": "html-keyboard-response",
		"trial_index": 7,
		"time_elapsed": 35020,
		"internal_node_id": "0.0-1.0-1.5"
	},
	{
		"rt": 1781,
		"stimulus": "<span style=\"font-size:30px; font-family: monospace\">hoje.</span>",
		"response": " ",
		"trial": "prac-sent",
		"word": "hoje.",
		"trial_type": "html-keyboard-response",
		"trial_index": 8,
		"time_elapsed": 37052,
		"internal_node_id": "0.0-1.0-1.6"
	},
	{
		"rt": null,
		"stimulus": "<span style= \"font-size:30px; font-family: monospace\">+</span>",
		"response": null,
		"trial_part": "fixation",
		"trial_type": "html-keyboard-response",
		"trial_index": 9,
		"time_elapsed": 38304,
		"internal_node_id": "0.0-1.0-0.7-0.7"
	},
	{
		"rt": 0,
		"stimulus": "<span style=\"font-size:30px; font-family: monospace\">A</span>",
		"response": " ",
		"trial": "prac-sent",
		"word": "A",
		"trial_type": "html-keyboard-response",
		"trial_index": 10,
		"time_elapsed": 38556,
		"internal_node_id": "0.0-1.0-1.7"
	},
	{
		"rt": 2789,
		"stimulus": "<span style=\"font-size:30px; font-family: monospace\">caneca</span>",
		"response": " ",
		"trial": "prac-sent",
		"word": "caneca",
		"trial_type": "html-keyboard-response",
		"trial_index": 11,
		"time_elapsed": 41595,
		"internal_node_id": "0.0-1.0-1.8"
	},
	{
		"rt": 2853,
		"stimulus": "<span style=\"font-size:30px; font-family: monospace\">colorida</span>",
		"response": " ",
		"trial": "prac-sent",
		"word": "colorida",
		"trial_type": "html-keyboard-response",
		"trial_index": 12,
		"time_elapsed": 44700,
		"internal_node_id": "0.0-1.0-1.9"
	},
	{
		"rt": 3797,
		"stimulus": "<span style=\"font-size:30px; font-family: monospace\">caiu</span>",
		"response": " ",
		"trial": "prac-sent",
		"word": "caiu",
		"trial_type": "html-keyboard-response",
		"trial_index": 13,
		"time_elapsed": 48748,
		"internal_node_id": "0.0-1.0-1.10"
	},
	{
		"rt": 2453,
		"stimulus": "<span style=\"font-size:30px; font-family: monospace\">da</span>",
		"response": " ",
		"trial": "prac-sent",
		"word": "da",
		"trial_type": "html-keyboard-response",
		"trial_index": 14,
		"time_elapsed": 51452,
		"internal_node_id": "0.0-1.0-1.11"
	},
	{
		"rt": 7013,
		"stimulus": "<span style=\"font-size:30px; font-family: monospace\">mesa</span>",
		"response": " ",
		"trial": "prac-sent",
		"word": "mesa",
		"trial_type": "html-keyboard-response",
		"trial_index": 15,
		"time_elapsed": 58716,
		"internal_node_id": "0.0-1.0-1.12"
	},
	{
		"rt": 13093,
		"stimulus": "<span style=\"font-size:30px; font-family: monospace\">de</span>",
		"response": " ",
		"trial": "prac-sent",
		"word": "de",
		"trial_type": "html-keyboard-response",
		"trial_index": 16,
		"time_elapsed": 72060,
		"internal_node_id": "0.0-1.0-1.13"
	},
	{
		"rt": 3221,
		"stimulus": "<span style=\"font-size:30px; font-family: monospace\">jantar.</span>",
		"response": " ",
		"trial": "prac-comp",
		"word": "jantar.",
		"trial_type": "html-keyboard-response",
		"trial_index": 17,
		"time_elapsed": 75532,
		"internal_node_id": "0.0-1.0-1.14"
	},
	{
		"rt": 17108,
		"stimulus": "<span style=\"font-size:30px; font-family: monospace\">A caneca permaneceu na mesa?</span>",
		"response": "s",
		"question": "A caneca permaneceu na mesa?",
		"answer": "não",
		"trial": "prac-comp",
		"trial_type": "html-keyboard-response",
		"trial_index": 18,
		"time_elapsed": 92892,
		"internal_node_id": "0.0-1.0-2.14-0.14",
		"accuracy": false
	},
	{
		"view_history": [
			{
				"page_index": 0,
				"viewing_time": 10276
			}
		],
		"rt": 10276,
		"trial_type": "instructions",
		"trial_index": 19,
		"time_elapsed": 103668,
		"internal_node_id": "0.0-2.0"
	},
	{
		"rt": null,
		"stimulus": "<span style= \"font-size:30px; font-family: monospace\">+</span>",
		"response": null,
		"trial_part": "fixation",
		"trial_type": "html-keyboard-response",
		"trial_index": 20,
		"time_elapsed": 104770,
		"internal_node_id": "0.0-3.0-0.0-0.0"
	},
	{
		"rt": 1839,
		"stimulus": "<span style=\"font-size:30px; font-family: monospace\">A</span>",
		"response": " ",
		"trial": "exp-sent",
		"word": "A",
		"trial_type": "html-keyboard-response",
		"trial_index": 21,
		"time_elapsed": 106860,
		"internal_node_id": "0.0-3.0-1.0"
	},
	{
		"rt": 1957,
		"stimulus": "<span style=\"font-size:30px; font-family: monospace\">senhora</span>",
		"response": " ",
		"trial": "exp-sent",
		"word": "senhora",
		"trial_type": "html-keyboard-response",
		"trial_index": 22,
		"time_elapsed": 109067,
		"internal_node_id": "0.0-3.0-1.1"
	},
	{
		"rt": 2469,
		"stimulus": "<span style=\"font-size:30px; font-family: monospace\">cumprimentou</span>",
		"response": " ",
		"trial": "exp-sent",
		"word": "cumprimentou",
		"trial_type": "html-keyboard-response",
		"trial_index": 23,
		"time_elapsed": 111787,
		"internal_node_id": "0.0-3.0-1.2"
	},
	{
		"rt": 996,
		"stimulus": "<span style=\"font-size:30px; font-family: monospace\">o</span>",
		"response": " ",
		"trial": "exp-sent",
		"word": "o",
		"trial_type": "html-keyboard-response",
		"trial_index": 24,
		"time_elapsed": 113035,
		"internal_node_id": "0.0-3.0-1.3"
	},
	{
		"rt": 2725,
		"stimulus": "<span style=\"font-size:30px; font-family: monospace\">operador</span>",
		"response": " ",
		"trial": "exp-sent",
		"word": "operador",
		"trial_type": "html-keyboard-response",
		"trial_index": 25,
		"time_elapsed": 116011,
		"internal_node_id": "0.0-3.0-1.4"
	},
	{
		"rt": 996,
		"stimulus": "<span style=\"font-size:30px; font-family: monospace\">de</span>",
		"response": " ",
		"trial": "exp-sent",
		"word": "de",
		"trial_type": "html-keyboard-response",
		"trial_index": 26,
		"time_elapsed": 117259,
		"internal_node_id": "0.0-3.0-1.5"
	},
	{
		"rt": 1620,
		"stimulus": "<span style=\"font-size:30px; font-family: monospace\">caixa.</span>",
		"response": " ",
		"trial": "exp-sent",
		"word": "caixa.",
		"trial_type": "html-keyboard-response",
		"trial_index": 27,
		"time_elapsed": 119131,
		"internal_node_id": "0.0-3.0-1.6"
	},
	{
		"rt": null,
		"stimulus": "<span style= \"font-size:30px; font-family: monospace\">+</span>",
		"response": null,
		"trial_part": "fixation",
		"trial_type": "html-keyboard-response",
		"trial_index": 28,
		"time_elapsed": 120389,
		"internal_node_id": "0.0-3.0-0.7-0.7"
	},
	{
		"rt": 699,
		"stimulus": "<span style=\"font-size:30px; font-family: monospace\">A</span>",
		"response": " ",
		"trial": "exp-sent",
		"word": "A",
		"trial_type": "html-keyboard-response",
		"trial_index": 29,
		"time_elapsed": 121339,
		"internal_node_id": "0.0-3.0-1.7"
	},
	{
		"rt": 965,
		"stimulus": "<span style=\"font-size:30px; font-family: monospace\">gente</span>",
		"response": " ",
		"trial": "exp-sent",
		"word": "gente",
		"trial_type": "html-keyboard-response",
		"trial_index": 30,
		"time_elapsed": 122555,
		"internal_node_id": "0.0-3.0-1.8"
	},
	{
		"rt": 1077,
		"stimulus": "<span style=\"font-size:30px; font-family: monospace\">viu</span>",
		"response": " ",
		"trial": "exp-sent",
		"word": "viu",
		"trial_type": "html-keyboard-response",
		"trial_index": 31,
		"time_elapsed": 123883,
		"internal_node_id": "0.0-3.0-1.9"
	},
	{
		"rt": 789,
		"stimulus": "<span style=\"font-size:30px; font-family: monospace\">o</span>",
		"response": " ",
		"trial": "exp-sent",
		"word": "o",
		"trial_type": "html-keyboard-response",
		"trial_index": 32,
		"time_elapsed": 124923,
		"internal_node_id": "0.0-3.0-1.10"
	},
	{
		"rt": 4597,
		"stimulus": "<span style=\"font-size:30px; font-family: monospace\">eclipse</span>",
		"response": " ",
		"trial": "exp-sent",
		"word": "eclipse",
		"trial_type": "html-keyboard-response",
		"trial_index": 33,
		"time_elapsed": 129771,
		"internal_node_id": "0.0-3.0-1.11"
	},
	{
		"rt": 2357,
		"stimulus": "<span style=\"font-size:30px; font-family: monospace\">lunar</span>",
		"response": " ",
		"trial": "exp-sent",
		"word": "lunar",
		"trial_type": "html-keyboard-response",
		"trial_index": 34,
		"time_elapsed": 132379,
		"internal_node_id": "0.0-3.0-1.12"
	},
	{
		"rt": 1752,
		"stimulus": "<span style=\"font-size:30px; font-family: monospace\">durante</span>",
		"response": " ",
		"trial": "exp-sent",
		"word": "durante",
		"trial_type": "html-keyboard-response",
		"trial_index": 35,
		"time_elapsed": 134395,
		"internal_node_id": "0.0-3.0-1.13"
	},
	{
		"rt": 1285,
		"stimulus": "<span style=\"font-size:30px; font-family: monospace\">o</span>",
		"response": " ",
		"trial": "exp-sent",
		"word": "o",
		"trial_type": "html-keyboard-response",
		"trial_index": 36,
		"time_elapsed": 135931,
		"internal_node_id": "0.0-3.0-1.14"
	},
	{
		"rt": 1589,
		"stimulus": "<span style=\"font-size:30px; font-family: monospace\">dia.</span>",
		"response": " ",
		"trial": "exp-sent",
		"word": "dia.",
		"trial_type": "html-keyboard-response",
		"trial_index": 37,
		"time_elapsed": 137770,
		"internal_node_id": "0.0-3.0-1.15"
	},
	{
		"rt": null,
		"stimulus": "<span style= \"font-size:30px; font-family: monospace\">+</span>",
		"response": null,
		"trial_part": "fixation",
		"trial_type": "html-keyboard-response",
		"trial_index": 38,
		"time_elapsed": 139022,
		"internal_node_id": "0.0-3.0-0.16-0.16"
	},
	{
		"rt": 802,
		"stimulus": "<span style=\"font-size:30px; font-family: monospace\">A</span>",
		"response": " ",
		"trial": "exp-sent",
		"word": "A",
		"trial_type": "html-keyboard-response",
		"trial_index": 39,
		"time_elapsed": 140075,
		"internal_node_id": "0.0-3.0-1.16"
	},
	{
		"rt": 4373,
		"stimulus": "<span style=\"font-size:30px; font-family: monospace\">mordida</span>",
		"response": " ",
		"trial": "exp-sent",
		"word": "mordida",
		"trial_type": "html-keyboard-response",
		"trial_index": 40,
		"time_elapsed": 144699,
		"internal_node_id": "0.0-3.0-1.17"
	},
	{
		"rt": 4997,
		"stimulus": "<span style=\"font-size:30px; font-family: monospace\">do</span>",
		"response": " ",
		"trial": "exp-sent",
		"word": "do",
		"trial_type": "html-keyboard-response",
		"trial_index": 41,
		"time_elapsed": 149947,
		"internal_node_id": "0.0-3.0-1.18"
	},
	{
		"rt": 4645,
		"stimulus": "<span style=\"font-size:30px; font-family: monospace\">cachorro</span>",
		"response": " ",
		"trial": "exp-sent",
		"word": "cachorro",
		"trial_type": "html-keyboard-response",
		"trial_index": 42,
		"time_elapsed": 154843,
		"internal_node_id": "0.0-3.0-1.19"
	},
	{
		"rt": 2021,
		"stimulus": "<span style=\"font-size:30px; font-family: monospace\">voraz</span>",
		"response": " ",
		"trial": "exp-sent",
		"word": "voraz",
		"trial_type": "html-keyboard-response",
		"trial_index": 43,
		"time_elapsed": 157115,
		"internal_node_id": "0.0-3.0-1.20"
	},
	{
		"rt": 6981,
		"stimulus": "<span style=\"font-size:30px; font-family: monospace\">causou</span>",
		"response": " ",
		"trial": "exp-sent",
		"word": "causou",
		"trial_type": "html-keyboard-response",
		"trial_index": 44,
		"time_elapsed": 164347,
		"internal_node_id": "0.0-3.0-1.21"
	},
	{
		"rt": 1413,
		"stimulus": "<span style=\"font-size:30px; font-family: monospace\">uma</span>",
		"response": " ",
		"trial": "exp-sent",
		"word": "uma",
		"trial_type": "html-keyboard-response",
		"trial_index": 45,
		"time_elapsed": 166011,
		"internal_node_id": "0.0-3.0-1.22"
	},
	{
		"rt": 5925,
		"stimulus": "<span style=\"font-size:30px; font-family: monospace\">cicatriz.</span>",
		"response": " ",
		"trial": "exp-sent",
		"word": "cicatriz.",
		"trial_type": "html-keyboard-response",
		"trial_index": 46,
		"time_elapsed": 172186,
		"internal_node_id": "0.0-3.0-1.23"
	},
	{
		"rt": null,
		"stimulus": "<span style= \"font-size:30px; font-family: monospace\">+</span>",
		"response": null,
		"trial_part": "fixation",
		"trial_type": "html-keyboard-response",
		"trial_index": 47,
		"time_elapsed": 173438,
		"internal_node_id": "0.0-3.0-0.24-0.24"
	},
	{
		"rt": 1857,
		"stimulus": "<span style=\"font-size:30px; font-family: monospace\">Elas</span>",
		"response": " ",
		"trial": "exp-sent",
		"word": "Elas",
		"trial_type": "html-keyboard-response",
		"trial_index": 48,
		"time_elapsed": 175547,
		"internal_node_id": "0.0-3.0-1.24"
	},
	{
		"rt": 1205,
		"stimulus": "<span style=\"font-size:30px; font-family: monospace\">não</span>",
		"response": " ",
		"trial": "exp-sent",
		"word": "não",
		"trial_type": "html-keyboard-response",
		"trial_index": 49,
		"time_elapsed": 177003,
		"internal_node_id": "0.0-3.0-1.25"
	},
	{
		"rt": 2484,
		"stimulus": "<span style=\"font-size:30px; font-family: monospace\">viram</span>",
		"response": " ",
		"trial": "exp-sent",
		"word": "viram",
		"trial_type": "html-keyboard-response",
		"trial_index": 50,
		"time_elapsed": 179739,
		"internal_node_id": "0.0-3.0-1.26"
	},
	{
		"rt": 5924,
		"stimulus": "<span style=\"font-size:30px; font-family: monospace\">nenhuma</span>",
		"response": " ",
		"trial": "exp-sent",
		"word": "nenhuma",
		"trial_type": "html-keyboard-response",
		"trial_index": 51,
		"time_elapsed": 185914,
		"internal_node_id": "0.0-3.0-1.27"
	},
	{
		"rt": 2549,
		"stimulus": "<span style=\"font-size:30px; font-family: monospace\">diferença</span>",
		"response": " ",
		"trial": "exp-sent",
		"word": "diferença",
		"trial_type": "html-keyboard-response",
		"trial_index": 52,
		"time_elapsed": 188714,
		"internal_node_id": "0.0-3.0-1.28"
	},
	{
		"rt": 3061,
		"stimulus": "<span style=\"font-size:30px; font-family: monospace\">entre</span>",
		"response": " ",
		"trial": "exp-sent",
		"word": "entre",
		"trial_type": "html-keyboard-response",
		"trial_index": 53,
		"time_elapsed": 192026,
		"internal_node_id": "0.0-3.0-1.29"
	},
	{
		"rt": 1924,
		"stimulus": "<span style=\"font-size:30px; font-family: monospace\">os</span>",
		"response": " ",
		"trial": "exp-sent",
		"word": "os",
		"trial_type": "html-keyboard-response",
		"trial_index": 54,
		"time_elapsed": 194202,
		"internal_node_id": "0.0-3.0-1.30"
	},
	{
		"rt": 2661,
		"stimulus": "<span style=\"font-size:30px; font-family: monospace\">textos.</span>",
		"response": " ",
		"trial": "exp-sent",
		"word": "textos.",
		"trial_type": "html-keyboard-response",
		"trial_index": 55,
		"time_elapsed": 197115,
		"internal_node_id": "0.0-3.0-1.31"
	},
	{
		"rt": null,
		"stimulus": "<span style= \"font-size:30px; font-family: monospace\">+</span>",
		"response": null,
		"trial_part": "fixation",
		"trial_type": "html-keyboard-response",
		"trial_index": 56,
		"time_elapsed": 198366,
		"internal_node_id": "0.0-3.0-0.32-0.32"
	},
	{
		"rt": 1617,
		"stimulus": "<span style=\"font-size:30px; font-family: monospace\">Amanhã</span>",
		"response": " ",
		"trial": "exp-sent",
		"word": "Amanhã",
		"trial_type": "html-keyboard-response",
		"trial_index": 57,
		"time_elapsed": 200234,
		"internal_node_id": "0.0-3.0-1.32"
	},
	{
		"rt": 1013,
		"stimulus": "<span style=\"font-size:30px; font-family: monospace\">vai</span>",
		"response": " ",
		"trial": "exp-sent",
		"word": "vai",
		"trial_type": "html-keyboard-response",
		"trial_index": 58,
		"time_elapsed": 201499,
		"internal_node_id": "0.0-3.0-1.33"
	},
	{
		"rt": 1717,
		"stimulus": "<span style=\"font-size:30px; font-family: monospace\">ter</span>",
		"response": " ",
		"trial": "exp-sent",
		"word": "ter",
		"trial_type": "html-keyboard-response",
		"trial_index": 59,
		"time_elapsed": 203466,
		"internal_node_id": "0.0-3.0-1.34"
	},
	{
		"rt": 789,
		"stimulus": "<span style=\"font-size:30px; font-family: monospace\">um</span>",
		"response": " ",
		"trial": "exp-sent",
		"word": "um",
		"trial_type": "html-keyboard-response",
		"trial_index": 60,
		"time_elapsed": 204506,
		"internal_node_id": "0.0-3.0-1.35"
	},
	{
		"rt": 1956,
		"stimulus": "<span style=\"font-size:30px; font-family: monospace\">bazar</span>",
		"response": " ",
		"trial": "exp-sent",
		"word": "bazar",
		"trial_type": "html-keyboard-response",
		"trial_index": 61,
		"time_elapsed": 206714,
		"internal_node_id": "0.0-3.0-1.36"
	},
	{
		"rt": 1109,
		"stimulus": "<span style=\"font-size:30px; font-family: monospace\">no</span>",
		"response": " ",
		"trial": "exp-sent",
		"word": "no",
		"trial_type": "html-keyboard-response",
		"trial_index": 62,
		"time_elapsed": 208074,
		"internal_node_id": "0.0-3.0-1.37"
	},
	{
		"rt": 1442,
		"stimulus": "<span style=\"font-size:30px; font-family: monospace\">bairro.</span>",
		"response": " ",
		"trial": "comp",
		"word": "bairro.",
		"trial_type": "html-keyboard-response",
		"trial_index": 63,
		"time_elapsed": 209771,
		"internal_node_id": "0.0-3.0-1.38"
	},
	{
		"rt": 18789,
		"stimulus": "<span style=\"font-size:30px; font-family: monospace\">Amanhã vai acontecer um bazar no bairro?</span>",
		"response": "s",
		"question": "Amanhã vai acontecer um bazar no bairro?",
		"answer": "sim",
		"trial": "comp",
		"trial_type": "html-keyboard-response",
		"trial_index": 64,
		"time_elapsed": 228811,
		"internal_node_id": "0.0-3.0-2.38-0.38",
		"accuracy": false
	},
	{
		"rt": null,
		"stimulus": "<span style= \"font-size:30px; font-family: monospace\">+</span>",
		"response": null,
		"trial_part": "fixation",
		"trial_type": "html-keyboard-response",
		"trial_index": 65,
		"time_elapsed": 230312,
		"internal_node_id": "0.0-3.0-0.39-0.39"
	},
	{
		"rt": 3212,
		"stimulus": "<span style=\"font-size:30px; font-family: monospace\">Minha</span>",
		"response": " ",
		"trial": "exp-sent",
		"word": "Minha",
		"trial_type": "html-keyboard-response",
		"trial_index": 66,
		"time_elapsed": 233787,
		"internal_node_id": "0.0-3.0-1.39"
	},
	{
		"rt": 2021,
		"stimulus": "<span style=\"font-size:30px; font-family: monospace\">prima</span>",
		"response": " ",
		"trial": "exp-sent",
		"word": "prima",
		"trial_type": "html-keyboard-response",
		"trial_index": 67,
		"time_elapsed": 236059,
		"internal_node_id": "0.0-3.0-1.40"
	},
	{
		"rt": 1445,
		"stimulus": "<span style=\"font-size:30px; font-family: monospace\">trocou</span>",
		"response": " ",
		"trial": "exp-sent",
		"word": "trocou",
		"trial_type": "html-keyboard-response",
		"trial_index": 68,
		"time_elapsed": 237755,
		"internal_node_id": "0.0-3.0-1.41"
	},
	{
		"rt": 8373,
		"stimulus": "<span style=\"font-size:30px; font-family: monospace\">a</span>",
		"response": " ",
		"trial": "exp-sent",
		"word": "a",
		"trial_type": "html-keyboard-response",
		"trial_index": 69,
		"time_elapsed": 246379,
		"internal_node_id": "0.0-3.0-1.42"
	},
	{
		"rt": 2462,
		"stimulus": "<span style=\"font-size:30px; font-family: monospace\">tela</span>",
		"response": " ",
		"trial": "exp-sent",
		"word": "tela",
		"trial_type": "html-keyboard-response",
		"trial_index": 70,
		"time_elapsed": 249098,
		"internal_node_id": "0.0-3.0-1.43"
	},
	{
		"rt": 1061,
		"stimulus": "<span style=\"font-size:30px; font-family: monospace\">do</span>",
		"response": " ",
		"trial": "exp-sent",
		"word": "do",
		"trial_type": "html-keyboard-response",
		"trial_index": 71,
		"time_elapsed": 250411,
		"internal_node_id": "0.0-3.0-1.44"
	},
	{
		"rt": 6692,
		"stimulus": "<span style=\"font-size:30px; font-family: monospace\">celular</span>",
		"response": " ",
		"trial": "exp-sent",
		"word": "celular",
		"trial_type": "html-keyboard-response",
		"trial_index": 72,
		"time_elapsed": 257354,
		"internal_node_id": "0.0-3.0-1.45"
	},
	{
		"rt": 1205,
		"stimulus": "<span style=\"font-size:30px; font-family: monospace\">duas</span>",
		"response": " ",
		"trial": "exp-sent",
		"word": "duas",
		"trial_type": "html-keyboard-response",
		"trial_index": 73,
		"time_elapsed": 258810,
		"internal_node_id": "0.0-3.0-1.46"
	},
	{
		"rt": 1845,
		"stimulus": "<span style=\"font-size:30px; font-family: monospace\">vezes.</span>",
		"response": " ",
		"trial": "exp-sent",
		"word": "vezes.",
		"trial_type": "html-keyboard-response",
		"trial_index": 74,
		"time_elapsed": 260906,
		"internal_node_id": "0.0-3.0-1.47"
	},
	{
		"rt": null,
		"stimulus": "<span style= \"font-size:30px; font-family: monospace\">+</span>",
		"response": null,
		"trial_part": "fixation",
		"trial_type": "html-keyboard-response",
		"trial_index": 75,
		"time_elapsed": 262158,
		"internal_node_id": "0.0-3.0-0.48-0.48"
	},
	{
		"rt": 1025,
		"stimulus": "<span style=\"font-size:30px; font-family: monospace\">Agora</span>",
		"response": " ",
		"trial": "exp-sent",
		"word": "Agora",
		"trial_type": "html-keyboard-response",
		"trial_index": 76,
		"time_elapsed": 263435,
		"internal_node_id": "0.0-3.0-1.48"
	},
	{
		"rt": 933,
		"stimulus": "<span style=\"font-size:30px; font-family: monospace\">a</span>",
		"response": " ",
		"trial": "exp-sent",
		"word": "a",
		"trial_type": "html-keyboard-response",
		"trial_index": 77,
		"time_elapsed": 264619,
		"internal_node_id": "0.0-3.0-1.49"
	},
	{
		"rt": 1093,
		"stimulus": "<span style=\"font-size:30px; font-family: monospace\">minha</span>",
		"response": " ",
		"trial": "exp-sent",
		"word": "minha",
		"trial_type": "html-keyboard-response",
		"trial_index": 78,
		"time_elapsed": 265963,
		"internal_node_id": "0.0-3.0-1.50"
	},
	{
		"rt": 2517,
		"stimulus": "<span style=\"font-size:30px; font-family: monospace\">única</span>",
		"response": " ",
		"trial": "exp-sent",
		"word": "única",
		"trial_type": "html-keyboard-response",
		"trial_index": 79,
		"time_elapsed": 268731,
		"internal_node_id": "0.0-3.0-1.51"
	},
	{
		"rt": 6533,
		"stimulus": "<span style=\"font-size:30px; font-family: monospace\">preocupação</span>",
		"response": " ",
		"trial": "exp-sent",
		"word": "preocupação",
		"trial_type": "html-keyboard-response",
		"trial_index": 80,
		"time_elapsed": 275515,
		"internal_node_id": "0.0-3.0-1.52"
	},
	{
		"rt": 852,
		"stimulus": "<span style=\"font-size:30px; font-family: monospace\">é</span>",
		"response": " ",
		"trial": "exp-sent",
		"word": "é",
		"trial_type": "html-keyboard-response",
		"trial_index": 81,
		"time_elapsed": 276619,
		"internal_node_id": "0.0-3.0-1.53"
	},
	{
		"rt": 1013,
		"stimulus": "<span style=\"font-size:30px; font-family: monospace\">um</span>",
		"response": " ",
		"trial": "exp-sent",
		"word": "um",
		"trial_type": "html-keyboard-response",
		"trial_index": 82,
		"time_elapsed": 277883,
		"internal_node_id": "0.0-3.0-1.54"
	},
	{
		"rt": 2309,
		"stimulus": "<span style=\"font-size:30px; font-family: monospace\">descanso</span>",
		"response": " ",
		"trial": "exp-sent",
		"word": "descanso",
		"trial_type": "html-keyboard-response",
		"trial_index": 83,
		"time_elapsed": 280443,
		"internal_node_id": "0.0-3.0-1.55"
	},
	{
		"rt": 2309,
		"stimulus": "<span style=\"font-size:30px; font-family: monospace\">tranquilo.</span>",
		"response": " ",
		"trial": "exp-sent",
		"word": "tranquilo.",
		"trial_type": "html-keyboard-response",
		"trial_index": 84,
		"time_elapsed": 283003,
		"internal_node_id": "0.0-3.0-1.56"
	},
	{
		"rt": null,
		"stimulus": "<span style= \"font-size:30px; font-family: monospace\">+</span>",
		"response": null,
		"trial_part": "fixation",
		"trial_type": "html-keyboard-response",
		"trial_index": 85,
		"time_elapsed": 284255,
		"internal_node_id": "0.0-3.0-0.57-0.57"
	},
	{
		"rt": 1185,
		"stimulus": "<span style=\"font-size:30px; font-family: monospace\">A</span>",
		"response": " ",
		"trial": "exp-sent",
		"word": "A",
		"trial_type": "html-keyboard-response",
		"trial_index": 86,
		"time_elapsed": 285691,
		"internal_node_id": "0.0-3.0-1.57"
	},
	{
		"rt": 1092,
		"stimulus": "<span style=\"font-size:30px; font-family: monospace\">criança</span>",
		"response": " ",
		"trial": "exp-sent",
		"word": "criança",
		"trial_type": "html-keyboard-response",
		"trial_index": 87,
		"time_elapsed": 287034,
		"internal_node_id": "0.0-3.0-1.58"
	},
	{
		"rt": 1158,
		"stimulus": "<span style=\"font-size:30px; font-family: monospace\">ganhou</span>",
		"response": " ",
		"trial": "exp-sent",
		"word": "ganhou",
		"trial_type": "html-keyboard-response",
		"trial_index": 88,
		"time_elapsed": 288443,
		"internal_node_id": "0.0-3.0-1.59"
	},
	{
		"rt": 740,
		"stimulus": "<span style=\"font-size:30px; font-family: monospace\">um</span>",
		"response": " ",
		"trial": "exp-sent",
		"word": "um",
		"trial_type": "html-keyboard-response",
		"trial_index": 89,
		"time_elapsed": 289434,
		"internal_node_id": "0.0-3.0-1.60"
	},
	{
		"rt": 1493,
		"stimulus": "<span style=\"font-size:30px; font-family: monospace\">presente</span>",
		"response": " ",
		"trial": "exp-sent",
		"word": "presente",
		"trial_type": "html-keyboard-response",
		"trial_index": 90,
		"time_elapsed": 291179,
		"internal_node_id": "0.0-3.0-1.61"
	},
	{
		"rt": 3301,
		"stimulus": "<span style=\"font-size:30px; font-family: monospace\">maravilhoso.</span>",
		"response": " ",
		"trial": "exp-sent",
		"word": "maravilhoso.",
		"trial_type": "html-keyboard-response",
		"trial_index": 91,
		"time_elapsed": 294730,
		"internal_node_id": "0.0-3.0-1.62"
	},
	{
		"rt": null,
		"stimulus": "<span style= \"font-size:30px; font-family: monospace\">+</span>",
		"response": null,
		"trial_part": "fixation",
		"trial_type": "html-keyboard-response",
		"trial_index": 92,
		"time_elapsed": 295982,
		"internal_node_id": "0.0-3.0-0.63-0.63"
	},
	{
		"rt": 453,
		"stimulus": "<span style=\"font-size:30px; font-family: monospace\">Os</span>",
		"response": " ",
		"trial": "exp-sent",
		"word": "Os",
		"trial_type": "html-keyboard-response",
		"trial_index": 93,
		"time_elapsed": 296698,
		"internal_node_id": "0.0-3.0-1.63"
	},
	{
		"rt": 1509,
		"stimulus": "<span style=\"font-size:30px; font-family: monospace\">bichos</span>",
		"response": " ",
		"trial": "exp-sent",
		"word": "bichos",
		"trial_type": "html-keyboard-response",
		"trial_index": 94,
		"time_elapsed": 298458,
		"internal_node_id": "0.0-3.0-1.64"
	},
	{
		"rt": 1253,
		"stimulus": "<span style=\"font-size:30px; font-family: monospace\">têm</span>",
		"response": " ",
		"trial": "exp-sent",
		"word": "têm",
		"trial_type": "html-keyboard-response",
		"trial_index": 95,
		"time_elapsed": 299962,
		"internal_node_id": "0.0-3.0-1.65"
	},
	{
		"rt": 1252,
		"stimulus": "<span style=\"font-size:30px; font-family: monospace\">um</span>",
		"response": " ",
		"trial": "exp-sent",
		"word": "um",
		"trial_type": "html-keyboard-response",
		"trial_index": 96,
		"time_elapsed": 301466,
		"internal_node_id": "0.0-3.0-1.66"
	},
	{
		"rt": 5845,
		"stimulus": "<span style=\"font-size:30px; font-family: monospace\">instinto</span>",
		"response": " ",
		"trial": "exp-sent",
		"word": "instinto",
		"trial_type": "html-keyboard-response",
		"trial_index": 97,
		"time_elapsed": 307562,
		"internal_node_id": "0.0-3.0-1.67"
	},
	{
		"rt": 804,
		"stimulus": "<span style=\"font-size:30px; font-family: monospace\">de</span>",
		"response": " ",
		"trial": "exp-sent",
		"word": "de",
		"trial_type": "html-keyboard-response",
		"trial_index": 98,
		"time_elapsed": 308618,
		"internal_node_id": "0.0-3.0-1.68"
	},
	{
		"rt": 5973,
		"stimulus": "<span style=\"font-size:30px; font-family: monospace\">sobrevivência</span>",
		"response": " ",
		"trial": "exp-sent",
		"word": "sobrevivência",
		"trial_type": "html-keyboard-response",
		"trial_index": 99,
		"time_elapsed": 314842,
		"internal_node_id": "0.0-3.0-1.69"
	},
	{
		"rt": 2101,
		"stimulus": "<span style=\"font-size:30px; font-family: monospace\">forte.</span>",
		"response": " ",
		"trial": "exp-sent",
		"word": "forte.",
		"trial_type": "html-keyboard-response",
		"trial_index": 100,
		"time_elapsed": 317194,
		"internal_node_id": "0.0-3.0-1.70"
	},
	{
		"rt": null,
		"stimulus": "<span style= \"font-size:30px; font-family: monospace\">+</span>",
		"response": null,
		"trial_part": "fixation",
		"trial_type": "html-keyboard-response",
		"trial_index": 101,
		"time_elapsed": 318447,
		"internal_node_id": "0.0-3.0-0.71-0.71"
	},
	{
		"rt": 1521,
		"stimulus": "<span style=\"font-size:30px; font-family: monospace\">Aquele</span>",
		"response": " ",
		"trial": "exp-sent",
		"word": "Aquele",
		"trial_type": "html-keyboard-response",
		"trial_index": 102,
		"time_elapsed": 320218,
		"internal_node_id": "0.0-3.0-1.71"
	},
	{
		"rt": 1637,
		"stimulus": "<span style=\"font-size:30px; font-family: monospace\">menino</span>",
		"response": " ",
		"trial": "exp-sent",
		"word": "menino",
		"trial_type": "html-keyboard-response",
		"trial_index": 103,
		"time_elapsed": 322106,
		"internal_node_id": "0.0-3.0-1.72"
	},
	{
		"rt": 1509,
		"stimulus": "<span style=\"font-size:30px; font-family: monospace\">alto</span>",
		"response": " ",
		"trial": "exp-sent",
		"word": "alto",
		"trial_type": "html-keyboard-response",
		"trial_index": 104,
		"time_elapsed": 323866,
		"internal_node_id": "0.0-3.0-1.73"
	},
	{
		"rt": 1061,
		"stimulus": "<span style=\"font-size:30px; font-family: monospace\">é</span>",
		"response": " ",
		"trial": "exp-sent",
		"word": "é",
		"trial_type": "html-keyboard-response",
		"trial_index": 105,
		"time_elapsed": 325178,
		"internal_node_id": "0.0-3.0-1.74"
	},
	{
		"rt": 5029,
		"stimulus": "<span style=\"font-size:30px; font-family: monospace\">exibido</span>",
		"response": " ",
		"trial": "exp-sent",
		"word": "exibido",
		"trial_type": "html-keyboard-response",
		"trial_index": 106,
		"time_elapsed": 330458,
		"internal_node_id": "0.0-3.0-1.75"
	},
	{
		"rt": 2325,
		"stimulus": "<span style=\"font-size:30px; font-family: monospace\">e</span>",
		"response": " ",
		"trial": "exp-sent",
		"word": "e",
		"trial_type": "html-keyboard-response",
		"trial_index": 107,
		"time_elapsed": 333034,
		"internal_node_id": "0.0-3.0-1.76"
	},
	{
		"rt": 2582,
		"stimulus": "<span style=\"font-size:30px; font-family: monospace\">sovina.</span>",
		"response": " ",
		"trial": "comp",
		"word": "sovina.",
		"trial_type": "html-keyboard-response",
		"trial_index": 108,
		"time_elapsed": 335866,
		"internal_node_id": "0.0-3.0-1.77"
	},
	{
		"rt": 17669,
		"stimulus": "<span style=\"font-size:30px; font-family: monospace\">Aquele menino é humilde?</span>",
		"response": "s",
		"question": "Aquele menino é humilde?",
		"answer": "não",
		"trial": "comp",
		"trial_type": "html-keyboard-response",
		"trial_index": 109,
		"time_elapsed": 353786,
		"internal_node_id": "0.0-3.0-2.77-0.77",
		"accuracy": false
	},
	{
		"rt": null,
		"stimulus": "<span style= \"font-size:30px; font-family: monospace\">+</span>",
		"response": null,
		"trial_part": "fixation",
		"trial_type": "html-keyboard-response",
		"trial_index": 110,
		"time_elapsed": 355288,
		"internal_node_id": "0.0-3.0-0.78-0.78"
	},
	{
		"rt": 199,
		"stimulus": "<span style=\"font-size:30px; font-family: monospace\">O</span>",
		"response": " ",
		"trial": "exp-sent",
		"word": "O",
		"trial_type": "html-keyboard-response",
		"trial_index": 111,
		"time_elapsed": 355738,
		"internal_node_id": "0.0-3.0-1.78"
	},
	{
		"rt": 2325,
		"stimulus": "<span style=\"font-size:30px; font-family: monospace\">texto</span>",
		"response": " ",
		"trial": "exp-sent",
		"word": "texto",
		"trial_type": "html-keyboard-response",
		"trial_index": 112,
		"time_elapsed": 358314,
		"internal_node_id": "0.0-3.0-1.79"
	},
	{
		"rt": 3237,
		"stimulus": "<span style=\"font-size:30px; font-family: monospace\">trazia</span>",
		"response": " ",
		"trial": "exp-sent",
		"word": "trazia",
		"trial_type": "html-keyboard-response",
		"trial_index": 113,
		"time_elapsed": 361802,
		"internal_node_id": "0.0-3.0-1.80"
	},
	{
		"rt": 1349,
		"stimulus": "<span style=\"font-size:30px; font-family: monospace\">um</span>",
		"response": " ",
		"trial": "exp-sent",
		"word": "um",
		"trial_type": "html-keyboard-response",
		"trial_index": 114,
		"time_elapsed": 363402,
		"internal_node_id": "0.0-3.0-1.81"
	},
	{
		"rt": 4933,
		"stimulus": "<span style=\"font-size:30px; font-family: monospace\">argumento</span>",
		"response": " ",
		"trial": "exp-sent",
		"word": "argumento",
		"trial_type": "html-keyboard-response",
		"trial_index": 115,
		"time_elapsed": 368586,
		"internal_node_id": "0.0-3.0-1.82"
	},
	{
		"rt": 2068,
		"stimulus": "<span style=\"font-size:30px; font-family: monospace\">central</span>",
		"response": " ",
		"trial": "exp-sent",
		"word": "central",
		"trial_type": "html-keyboard-response",
		"trial_index": 116,
		"time_elapsed": 370906,
		"internal_node_id": "0.0-3.0-1.83"
	},
	{
		"rt": 1749,
		"stimulus": "<span style=\"font-size:30px; font-family: monospace\">para</span>",
		"response": " ",
		"trial": "exp-sent",
		"word": "para",
		"trial_type": "html-keyboard-response",
		"trial_index": 117,
		"time_elapsed": 372906,
		"internal_node_id": "0.0-3.0-1.84"
	},
	{
		"rt": 1061,
		"stimulus": "<span style=\"font-size:30px; font-family: monospace\">a</span>",
		"response": " ",
		"trial": "exp-sent",
		"word": "a",
		"trial_type": "html-keyboard-response",
		"trial_index": 118,
		"time_elapsed": 374218,
		"internal_node_id": "0.0-3.0-1.85"
	},
	{
		"rt": 3013,
		"stimulus": "<span style=\"font-size:30px; font-family: monospace\">conversa.</span>",
		"response": " ",
		"trial": "exp-sent",
		"word": "conversa.",
		"trial_type": "html-keyboard-response",
		"trial_index": 119,
		"time_elapsed": 377482,
		"internal_node_id": "0.0-3.0-1.86"
	},
	{
		"rt": null,
		"stimulus": "<span style= \"font-size:30px; font-family: monospace\">+</span>",
		"response": null,
		"trial_part": "fixation",
		"trial_type": "html-keyboard-response",
		"trial_index": 120,
		"time_elapsed": 378735,
		"internal_node_id": "0.0-3.0-0.87-0.87"
	},
	{
		"rt": 4033,
		"stimulus": "<span style=\"font-size:30px; font-family: monospace\">Ontem</span>",
		"response": " ",
		"trial": "exp-sent",
		"word": "Ontem",
		"trial_type": "html-keyboard-response",
		"trial_index": 121,
		"time_elapsed": 383018,
		"internal_node_id": "0.0-3.0-1.87"
	},
	{
		"rt": 1220,
		"stimulus": "<span style=\"font-size:30px; font-family: monospace\">a</span>",
		"response": " ",
		"trial": "exp-sent",
		"word": "a",
		"trial_type": "html-keyboard-response",
		"trial_index": 122,
		"time_elapsed": 384490,
		"internal_node_id": "0.0-3.0-1.88"
	},
	{
		"rt": 6708,
		"stimulus": "<span style=\"font-size:30px; font-family: monospace\">temperatura</span>",
		"response": " ",
		"trial": "exp-sent",
		"word": "temperatura",
		"trial_type": "html-keyboard-response",
		"trial_index": 123,
		"time_elapsed": 391450,
		"internal_node_id": "0.0-3.0-1.89"
	},
	{
		"rt": 1253,
		"stimulus": "<span style=\"font-size:30px; font-family: monospace\">estava</span>",
		"response": " ",
		"trial": "exp-sent",
		"word": "estava",
		"trial_type": "html-keyboard-response",
		"trial_index": 124,
		"time_elapsed": 392954,
		"internal_node_id": "0.0-3.0-1.90"
	},
	{
		"rt": 853,
		"stimulus": "<span style=\"font-size:30px; font-family: monospace\">amena</span>",
		"response": " ",
		"trial": "exp-sent",
		"word": "amena",
		"trial_type": "html-keyboard-response",
		"trial_index": 125,
		"time_elapsed": 394058,
		"internal_node_id": "0.0-3.0-1.91"
	},
	{
		"rt": 3685,
		"stimulus": "<span style=\"font-size:30px; font-family: monospace\">durante</span>",
		"response": " ",
		"trial": "exp-sent",
		"word": "durante",
		"trial_type": "html-keyboard-response",
		"trial_index": 126,
		"time_elapsed": 397994,
		"internal_node_id": "0.0-3.0-1.92"
	},
	{
		"rt": 1109,
		"stimulus": "<span style=\"font-size:30px; font-family: monospace\">o</span>",
		"response": " ",
		"trial": "exp-sent",
		"word": "o",
		"trial_type": "html-keyboard-response",
		"trial_index": 127,
		"time_elapsed": 399354,
		"internal_node_id": "0.0-3.0-1.93"
	},
	{
		"rt": 933,
		"stimulus": "<span style=\"font-size:30px; font-family: monospace\">dia.</span>",
		"response": " ",
		"trial": "exp-sent",
		"word": "dia.",
		"trial_type": "html-keyboard-response",
		"trial_index": 128,
		"time_elapsed": 400538,
		"internal_node_id": "0.0-3.0-1.94"
	},
	{
		"rt": null,
		"stimulus": "<span style= \"font-size:30px; font-family: monospace\">+</span>",
		"response": null,
		"trial_part": "fixation",
		"trial_type": "html-keyboard-response",
		"trial_index": 129,
		"time_elapsed": 401790,
		"internal_node_id": "0.0-3.0-0.95-0.95"
	},
	{
		"rt": 2432,
		"stimulus": "<span style=\"font-size:30px; font-family: monospace\">Havia</span>",
		"response": " ",
		"trial": "exp-sent",
		"word": "Havia",
		"trial_type": "html-keyboard-response",
		"trial_index": 130,
		"time_elapsed": 404474,
		"internal_node_id": "0.0-3.0-1.95"
	},
	{
		"rt": 10629,
		"stimulus": "<span style=\"font-size:30px; font-family: monospace\">um</span>",
		"response": " ",
		"trial": "exp-sent",
		"word": "um",
		"trial_type": "html-keyboard-response",
		"trial_index": 131,
		"time_elapsed": 415353,
		"internal_node_id": "0.0-3.0-1.96"
	},
	{
		"rt": 6453,
		"stimulus": "<span style=\"font-size:30px; font-family: monospace\">machucado</span>",
		"response": " ",
		"trial": "exp-sent",
		"word": "machucado",
		"trial_type": "html-keyboard-response",
		"trial_index": 132,
		"time_elapsed": 422057,
		"internal_node_id": "0.0-3.0-1.97"
	},
	{
		"rt": 4789,
		"stimulus": "<span style=\"font-size:30px; font-family: monospace\">no</span>",
		"response": " ",
		"trial": "exp-sent",
		"word": "no",
		"trial_type": "html-keyboard-response",
		"trial_index": 133,
		"time_elapsed": 427097,
		"internal_node_id": "0.0-3.0-1.98"
	},
	{
		"rt": 1006,
		"stimulus": "<span style=\"font-size:30px; font-family: monospace\">dedo</span>",
		"response": " ",
		"trial": "exp-sent",
		"word": "dedo",
		"trial_type": "html-keyboard-response",
		"trial_index": 134,
		"time_elapsed": 428361,
		"internal_node_id": "0.0-3.0-1.99"
	},
	{
		"rt": 805,
		"stimulus": "<span style=\"font-size:30px; font-family: monospace\">da</span>",
		"response": " ",
		"trial": "exp-sent",
		"word": "da",
		"trial_type": "html-keyboard-response",
		"trial_index": 135,
		"time_elapsed": 429417,
		"internal_node_id": "0.0-3.0-1.100"
	},
	{
		"rt": 2149,
		"stimulus": "<span style=\"font-size:30px; font-family: monospace\">criança.</span>",
		"response": " ",
		"trial": "exp-sent",
		"word": "criança.",
		"trial_type": "html-keyboard-response",
		"trial_index": 136,
		"time_elapsed": 431817,
		"internal_node_id": "0.0-3.0-1.101"
	},
	{
		"rt": null,
		"stimulus": "<span style= \"font-size:30px; font-family: monospace\">+</span>",
		"response": null,
		"trial_part": "fixation",
		"trial_type": "html-keyboard-response",
		"trial_index": 137,
		"time_elapsed": 433069,
		"internal_node_id": "0.0-3.0-0.102-0.102"
	},
	{
		"rt": 801,
		"stimulus": "<span style=\"font-size:30px; font-family: monospace\">A</span>",
		"response": " ",
		"trial": "exp-sent",
		"word": "A",
		"trial_type": "html-keyboard-response",
		"trial_index": 138,
		"time_elapsed": 434121,
		"internal_node_id": "0.0-3.0-1.102"
	},
	{
		"rt": 5301,
		"stimulus": "<span style=\"font-size:30px; font-family: monospace\">borboleta</span>",
		"response": " ",
		"trial": "exp-sent",
		"word": "borboleta",
		"trial_type": "html-keyboard-response",
		"trial_index": 139,
		"time_elapsed": 439673,
		"internal_node_id": "0.0-3.0-1.103"
	},
	{
		"rt": 2549,
		"stimulus": "<span style=\"font-size:30px; font-family: monospace\">pousou</span>",
		"response": " ",
		"trial": "exp-sent",
		"word": "pousou",
		"trial_type": "html-keyboard-response",
		"trial_index": 140,
		"time_elapsed": 442473,
		"internal_node_id": "0.0-3.0-1.104"
	},
	{
		"rt": 3077,
		"stimulus": "<span style=\"font-size:30px; font-family: monospace\">no</span>",
		"response": " ",
		"trial": "exp-sent",
		"word": "no",
		"trial_type": "html-keyboard-response",
		"trial_index": 141,
		"time_elapsed": 445801,
		"internal_node_id": "0.0-3.0-1.105"
	},
	{
		"rt": 1509,
		"stimulus": "<span style=\"font-size:30px; font-family: monospace\">ombro</span>",
		"response": " ",
		"trial": "exp-sent",
		"word": "ombro",
		"trial_type": "html-keyboard-response",
		"trial_index": 142,
		"time_elapsed": 447561,
		"internal_node_id": "0.0-3.0-1.106"
	},
	{
		"rt": 1525,
		"stimulus": "<span style=\"font-size:30px; font-family: monospace\">daquela</span>",
		"response": " ",
		"trial": "exp-sent",
		"word": "daquela",
		"trial_type": "html-keyboard-response",
		"trial_index": 143,
		"time_elapsed": 449337,
		"internal_node_id": "0.0-3.0-1.107"
	},
	{
		"rt": 5573,
		"stimulus": "<span style=\"font-size:30px; font-family: monospace\">moça.</span>",
		"response": " ",
		"trial": "exp-sent",
		"word": "moça.",
		"trial_type": "html-keyboard-response",
		"trial_index": 144,
		"time_elapsed": 455161,
		"internal_node_id": "0.0-3.0-1.108"
	},
	{
		"rt": null,
		"stimulus": "<span style= \"font-size:30px; font-family: monospace\">+</span>",
		"response": null,
		"trial_part": "fixation",
		"trial_type": "html-keyboard-response",
		"trial_index": 145,
		"time_elapsed": 456413,
		"internal_node_id": "0.0-3.0-0.109-0.109"
	},
	{
		"rt": 1712,
		"stimulus": "<span style=\"font-size:30px; font-family: monospace\">Eu</span>",
		"response": " ",
		"trial": "exp-sent",
		"word": "Eu",
		"trial_type": "html-keyboard-response",
		"trial_index": 146,
		"time_elapsed": 458377,
		"internal_node_id": "0.0-3.0-1.109"
	},
	{
		"rt": 1749,
		"stimulus": "<span style=\"font-size:30px; font-family: monospace\">quero</span>",
		"response": " ",
		"trial": "exp-sent",
		"word": "quero",
		"trial_type": "html-keyboard-response",
		"trial_index": 147,
		"time_elapsed": 460377,
		"internal_node_id": "0.0-3.0-1.110"
	},
	{
		"rt": 1109,
		"stimulus": "<span style=\"font-size:30px; font-family: monospace\">um</span>",
		"response": " ",
		"trial": "exp-sent",
		"word": "um",
		"trial_type": "html-keyboard-response",
		"trial_index": 148,
		"time_elapsed": 461737,
		"internal_node_id": "0.0-3.0-1.111"
	},
	{
		"rt": 2292,
		"stimulus": "<span style=\"font-size:30px; font-family: monospace\">namorado</span>",
		"response": " ",
		"trial": "exp-sent",
		"word": "namorado",
		"trial_type": "html-keyboard-response",
		"trial_index": 149,
		"time_elapsed": 464281,
		"internal_node_id": "0.0-3.0-1.112"
	},
	{
		"rt": 2756,
		"stimulus": "<span style=\"font-size:30px; font-family: monospace\">honesto</span>",
		"response": " ",
		"trial": "exp-sent",
		"word": "honesto",
		"trial_type": "html-keyboard-response",
		"trial_index": 150,
		"time_elapsed": 467289,
		"internal_node_id": "0.0-3.0-1.113"
	},
	{
		"rt": 1157,
		"stimulus": "<span style=\"font-size:30px; font-family: monospace\">e</span>",
		"response": " ",
		"trial": "exp-sent",
		"word": "e",
		"trial_type": "html-keyboard-response",
		"trial_index": 151,
		"time_elapsed": 468697,
		"internal_node_id": "0.0-3.0-1.114"
	},
	{
		"rt": 4037,
		"stimulus": "<span style=\"font-size:30px; font-family: monospace\">compreensivo.</span>",
		"response": " ",
		"trial": "comp",
		"word": "compreensivo.",
		"trial_type": "html-keyboard-response",
		"trial_index": 152,
		"time_elapsed": 472985,
		"internal_node_id": "0.0-3.0-1.115"
	},
	{
		"rt": 4821,
		"stimulus": "<span style=\"font-size:30px; font-family: monospace\">Eu quero um namorado honesto?</span>",
		"response": "s",
		"question": "Eu quero um namorado honesto?",
		"answer": "sim",
		"trial": "comp",
		"trial_type": "html-keyboard-response",
		"trial_index": 153,
		"time_elapsed": 478057,
		"internal_node_id": "0.0-3.0-2.115-0.115",
		"accuracy": false
	},
	{
		"rt": null,
		"stimulus": "<span style= \"font-size:30px; font-family: monospace\">+</span>",
		"response": null,
		"trial_part": "fixation",
		"trial_type": "html-keyboard-response",
		"trial_index": 154,
		"time_elapsed": 479559,
		"internal_node_id": "0.0-3.0-0.116-0.116"
	},
	{
		"rt": 3480,
		"stimulus": "<span style=\"font-size:30px; font-family: monospace\">Ursos</span>",
		"response": " ",
		"trial": "exp-sent",
		"word": "Ursos",
		"trial_type": "html-keyboard-response",
		"trial_index": 155,
		"time_elapsed": 483289,
		"internal_node_id": "0.0-3.0-1.116"
	},
	{
		"rt": 1492,
		"stimulus": "<span style=\"font-size:30px; font-family: monospace\">têm</span>",
		"response": " ",
		"trial": "exp-sent",
		"word": "têm",
		"trial_type": "html-keyboard-response",
		"trial_index": 156,
		"time_elapsed": 485033,
		"internal_node_id": "0.0-3.0-1.117"
	},
	{
		"rt": 1125,
		"stimulus": "<span style=\"font-size:30px; font-family: monospace\">uma</span>",
		"response": " ",
		"trial": "exp-sent",
		"word": "uma",
		"trial_type": "html-keyboard-response",
		"trial_index": 157,
		"time_elapsed": 486409,
		"internal_node_id": "0.0-3.0-1.118"
	},
	{
		"rt": 1317,
		"stimulus": "<span style=\"font-size:30px; font-family: monospace\">patada</span>",
		"response": " ",
		"trial": "exp-sent",
		"word": "patada",
		"trial_type": "html-keyboard-response",
		"trial_index": 158,
		"time_elapsed": 487977,
		"internal_node_id": "0.0-3.0-1.119"
	},
	{
		"rt": 1445,
		"stimulus": "<span style=\"font-size:30px; font-family: monospace\">brutal</span>",
		"response": " ",
		"trial": "exp-sent",
		"word": "brutal",
		"trial_type": "html-keyboard-response",
		"trial_index": 159,
		"time_elapsed": 489673,
		"internal_node_id": "0.0-3.0-1.120"
	},
	{
		"rt": 884,
		"stimulus": "<span style=\"font-size:30px; font-family: monospace\">e</span>",
		"response": " ",
		"trial": "exp-sent",
		"word": "e",
		"trial_type": "html-keyboard-response",
		"trial_index": 160,
		"time_elapsed": 490809,
		"internal_node_id": "0.0-3.0-1.121"
	},
	{
		"rt": 3110,
		"stimulus": "<span style=\"font-size:30px; font-family: monospace\">poderosa.</span>",
		"response": " ",
		"trial": "exp-sent",
		"word": "poderosa.",
		"trial_type": "html-keyboard-response",
		"trial_index": 161,
		"time_elapsed": 494169,
		"internal_node_id": "0.0-3.0-1.122"
	},
	{
		"rt": null,
		"stimulus": "<span style= \"font-size:30px; font-family: monospace\">+</span>",
		"response": null,
		"trial_part": "fixation",
		"trial_type": "html-keyboard-response",
		"trial_index": 162,
		"time_elapsed": 495434,
		"internal_node_id": "0.0-3.0-0.123-0.123"
	},
	{
		"rt": 564,
		"stimulus": "<span style=\"font-size:30px; font-family: monospace\">Eu</span>",
		"response": " ",
		"trial": "exp-sent",
		"word": "Eu",
		"trial_type": "html-keyboard-response",
		"trial_index": 163,
		"time_elapsed": 496249,
		"internal_node_id": "0.0-3.0-1.123"
	},
	{
		"rt": 869,
		"stimulus": "<span style=\"font-size:30px; font-family: monospace\">fiz</span>",
		"response": " ",
		"trial": "exp-sent",
		"word": "fiz",
		"trial_type": "html-keyboard-response",
		"trial_index": 164,
		"time_elapsed": 497369,
		"internal_node_id": "0.0-3.0-1.124"
	},
	{
		"rt": 1877,
		"stimulus": "<span style=\"font-size:30px; font-family: monospace\">aulas</span>",
		"response": " ",
		"trial": "exp-sent",
		"word": "aulas",
		"trial_type": "html-keyboard-response",
		"trial_index": 165,
		"time_elapsed": 499497,
		"internal_node_id": "0.0-3.0-1.125"
	},
	{
		"rt": 1253,
		"stimulus": "<span style=\"font-size:30px; font-family: monospace\">de</span>",
		"response": " ",
		"trial": "exp-sent",
		"word": "de",
		"trial_type": "html-keyboard-response",
		"trial_index": 166,
		"time_elapsed": 501001,
		"internal_node_id": "0.0-3.0-1.126"
	},
	{
		"rt": 1685,
		"stimulus": "<span style=\"font-size:30px; font-family: monospace\">espanhol</span>",
		"response": " ",
		"trial": "exp-sent",
		"word": "espanhol",
		"trial_type": "html-keyboard-response",
		"trial_index": 167,
		"time_elapsed": 502937,
		"internal_node_id": "0.0-3.0-1.127"
	},
	{
		"rt": 1093,
		"stimulus": "<span style=\"font-size:30px; font-family: monospace\">nesta</span>",
		"response": " ",
		"trial": "exp-sent",
		"word": "nesta",
		"trial_type": "html-keyboard-response",
		"trial_index": 168,
		"time_elapsed": 504281,
		"internal_node_id": "0.0-3.0-1.128"
	},
	{
		"rt": 1093,
		"stimulus": "<span style=\"font-size:30px; font-family: monospace\">cidade.</span>",
		"response": " ",
		"trial": "exp-sent",
		"word": "cidade.",
		"trial_type": "html-keyboard-response",
		"trial_index": 169,
		"time_elapsed": 505625,
		"internal_node_id": "0.0-3.0-1.129"
	},
	{
		"rt": null,
		"stimulus": "<span style= \"font-size:30px; font-family: monospace\">+</span>",
		"response": null,
		"trial_part": "fixation",
		"trial_type": "html-keyboard-response",
		"trial_index": 170,
		"time_elapsed": 506878,
		"internal_node_id": "0.0-3.0-0.130-0.130"
	},
	{
		"rt": 7185,
		"stimulus": "<span style=\"font-size:30px; font-family: monospace\">Ele</span>",
		"response": " ",
		"trial": "exp-sent",
		"word": "Ele",
		"trial_type": "html-keyboard-response",
		"trial_index": 171,
		"time_elapsed": 514313,
		"internal_node_id": "0.0-3.0-1.130"
	},
	{
		"rt": 1470,
		"stimulus": "<span style=\"font-size:30px; font-family: monospace\">comprou</span>",
		"response": " ",
		"trial": "exp-sent",
		"word": "comprou",
		"trial_type": "html-keyboard-response",
		"trial_index": 172,
		"time_elapsed": 516041,
		"internal_node_id": "0.0-3.0-1.131"
	},
	{
		"rt": 1028,
		"stimulus": "<span style=\"font-size:30px; font-family: monospace\">mais</span>",
		"response": " ",
		"trial": "exp-sent",
		"word": "mais",
		"trial_type": "html-keyboard-response",
		"trial_index": 173,
		"time_elapsed": 517321,
		"internal_node_id": "0.0-3.0-1.132"
	},
	{
		"rt": 1093,
		"stimulus": "<span style=\"font-size:30px; font-family: monospace\">uma</span>",
		"response": " ",
		"trial": "exp-sent",
		"word": "uma",
		"trial_type": "html-keyboard-response",
		"trial_index": 174,
		"time_elapsed": 518665,
		"internal_node_id": "0.0-3.0-1.133"
	},
	{
		"rt": 2981,
		"stimulus": "<span style=\"font-size:30px; font-family: monospace\">esponja</span>",
		"response": " ",
		"trial": "exp-sent",
		"word": "esponja",
		"trial_type": "html-keyboard-response",
		"trial_index": 175,
		"time_elapsed": 521897,
		"internal_node_id": "0.0-3.0-1.134"
	},
	{
		"rt": 933,
		"stimulus": "<span style=\"font-size:30px; font-family: monospace\">para</span>",
		"response": " ",
		"trial": "exp-sent",
		"word": "para",
		"trial_type": "html-keyboard-response",
		"trial_index": 176,
		"time_elapsed": 523081,
		"internal_node_id": "0.0-3.0-1.135"
	},
	{
		"rt": 788,
		"stimulus": "<span style=\"font-size:30px; font-family: monospace\">a</span>",
		"response": " ",
		"trial": "exp-sent",
		"word": "a",
		"trial_type": "html-keyboard-response",
		"trial_index": 177,
		"time_elapsed": 524121,
		"internal_node_id": "0.0-3.0-1.136"
	},
	{
		"rt": 2277,
		"stimulus": "<span style=\"font-size:30px; font-family: monospace\">cozinha.</span>",
		"response": " ",
		"trial": "exp-sent",
		"word": "cozinha.",
		"trial_type": "html-keyboard-response",
		"trial_index": 178,
		"time_elapsed": 526649,
		"internal_node_id": "0.0-3.0-1.137"
	},
	{
		"rt": null,
		"stimulus": "<span style= \"font-size:30px; font-family: monospace\">+</span>",
		"response": null,
		"trial_part": "fixation",
		"trial_type": "html-keyboard-response",
		"trial_index": 179,
		"time_elapsed": 527906,
		"internal_node_id": "0.0-3.0-0.138-0.138"
	},
	{
		"rt": 1180,
		"stimulus": "<span style=\"font-size:30px; font-family: monospace\">Ele</span>",
		"response": " ",
		"trial": "exp-sent",
		"word": "Ele",
		"trial_type": "html-keyboard-response",
		"trial_index": 180,
		"time_elapsed": 529337,
		"internal_node_id": "0.0-3.0-1.138"
	},
	{
		"rt": 1957,
		"stimulus": "<span style=\"font-size:30px; font-family: monospace\">teve</span>",
		"response": " ",
		"trial": "exp-sent",
		"word": "teve",
		"trial_type": "html-keyboard-response",
		"trial_index": 181,
		"time_elapsed": 531545,
		"internal_node_id": "0.0-3.0-1.139"
	},
	{
		"rt": 1333,
		"stimulus": "<span style=\"font-size:30px; font-family: monospace\">um</span>",
		"response": " ",
		"trial": "exp-sent",
		"word": "um",
		"trial_type": "html-keyboard-response",
		"trial_index": 182,
		"time_elapsed": 533129,
		"internal_node_id": "0.0-3.0-1.140"
	},
	{
		"rt": 1766,
		"stimulus": "<span style=\"font-size:30px; font-family: monospace\">sono</span>",
		"response": " ",
		"trial": "exp-sent",
		"word": "sono",
		"trial_type": "html-keyboard-response",
		"trial_index": 183,
		"time_elapsed": 535145,
		"internal_node_id": "0.0-3.0-1.141"
	},
	{
		"rt": 2277,
		"stimulus": "<span style=\"font-size:30px; font-family: monospace\">bizarro</span>",
		"response": " ",
		"trial": "exp-sent",
		"word": "bizarro",
		"trial_type": "html-keyboard-response",
		"trial_index": 184,
		"time_elapsed": 537673,
		"internal_node_id": "0.0-3.0-1.142"
	},
	{
		"rt": 1269,
		"stimulus": "<span style=\"font-size:30px; font-family: monospace\">sem</span>",
		"response": " ",
		"trial": "exp-sent",
		"word": "sem",
		"trial_type": "html-keyboard-response",
		"trial_index": 185,
		"time_elapsed": 539192,
		"internal_node_id": "0.0-3.0-1.143"
	},
	{
		"rt": 1158,
		"stimulus": "<span style=\"font-size:30px; font-family: monospace\">nenhum</span>",
		"response": " ",
		"trial": "exp-sent",
		"word": "nenhum",
		"trial_type": "html-keyboard-response",
		"trial_index": 186,
		"time_elapsed": 540600,
		"internal_node_id": "0.0-3.0-1.144"
	},
	{
		"rt": 1429,
		"stimulus": "<span style=\"font-size:30px; font-family: monospace\">motivo.</span>",
		"response": " ",
		"trial": "exp-sent",
		"word": "motivo.",
		"trial_type": "html-keyboard-response",
		"trial_index": 187,
		"time_elapsed": 542280,
		"internal_node_id": "0.0-3.0-1.145"
	},
	{
		"rt": null,
		"stimulus": "<span style= \"font-size:30px; font-family: monospace\">+</span>",
		"response": null,
		"trial_part": "fixation",
		"trial_type": "html-keyboard-response",
		"trial_index": 188,
		"time_elapsed": 543533,
		"internal_node_id": "0.0-3.0-0.146-0.146"
	},
	{
		"rt": 1105,
		"stimulus": "<span style=\"font-size:30px; font-family: monospace\">A</span>",
		"response": " ",
		"trial": "exp-sent",
		"word": "A",
		"trial_type": "html-keyboard-response",
		"trial_index": 189,
		"time_elapsed": 544888,
		"internal_node_id": "0.0-3.0-1.146"
	},
	{
		"rt": 1397,
		"stimulus": "<span style=\"font-size:30px; font-family: monospace\">moça</span>",
		"response": " ",
		"trial": "exp-sent",
		"word": "moça",
		"trial_type": "html-keyboard-response",
		"trial_index": 190,
		"time_elapsed": 546536,
		"internal_node_id": "0.0-3.0-1.147"
	},
	{
		"rt": 932,
		"stimulus": "<span style=\"font-size:30px; font-family: monospace\">comprou</span>",
		"response": " ",
		"trial": "exp-sent",
		"word": "comprou",
		"trial_type": "html-keyboard-response",
		"trial_index": 191,
		"time_elapsed": 547720,
		"internal_node_id": "0.0-3.0-1.148"
	},
	{
		"rt": 804,
		"stimulus": "<span style=\"font-size:30px; font-family: monospace\">um</span>",
		"response": " ",
		"trial": "exp-sent",
		"word": "um",
		"trial_type": "html-keyboard-response",
		"trial_index": 192,
		"time_elapsed": 548776,
		"internal_node_id": "0.0-3.0-1.149"
	},
	{
		"rt": 7637,
		"stimulus": "<span style=\"font-size:30px; font-family: monospace\">diamante</span>",
		"response": " ",
		"trial": "exp-sent",
		"word": "diamante",
		"trial_type": "html-keyboard-response",
		"trial_index": 193,
		"time_elapsed": 556664,
		"internal_node_id": "0.0-3.0-1.150"
	},
	{
		"rt": 1188,
		"stimulus": "<span style=\"font-size:30px; font-family: monospace\">para</span>",
		"response": " ",
		"trial": "exp-sent",
		"word": "para",
		"trial_type": "html-keyboard-response",
		"trial_index": 194,
		"time_elapsed": 558104,
		"internal_node_id": "0.0-3.0-1.151"
	},
	{
		"rt": 885,
		"stimulus": "<span style=\"font-size:30px; font-family: monospace\">sua</span>",
		"response": " ",
		"trial": "exp-sent",
		"word": "sua",
		"trial_type": "html-keyboard-response",
		"trial_index": 195,
		"time_elapsed": 559240,
		"internal_node_id": "0.0-3.0-1.152"
	},
	{
		"rt": 853,
		"stimulus": "<span style=\"font-size:30px; font-family: monospace\">prima.</span>",
		"response": " ",
		"trial": "comp",
		"word": "prima.",
		"trial_type": "html-keyboard-response",
		"trial_index": 196,
		"time_elapsed": 560344,
		"internal_node_id": "0.0-3.0-1.153"
	},
	{
		"rt": 18853,
		"stimulus": "<span style=\"font-size:30px; font-family: monospace\">A moça comprou um diamante?</span>",
		"response": "s",
		"question": "A moça comprou um diamante?",
		"answer": "sim",
		"trial": "comp",
		"trial_type": "html-keyboard-response",
		"trial_index": 197,
		"time_elapsed": 579448,
		"internal_node_id": "0.0-3.0-2.153-0.153",
		"accuracy": false
	},
	{
		"rt": null,
		"stimulus": "<span style= \"font-size:30px; font-family: monospace\">+</span>",
		"response": null,
		"trial_part": "fixation",
		"trial_type": "html-keyboard-response",
		"trial_index": 198,
		"time_elapsed": 580960,
		"internal_node_id": "0.0-3.0-0.154-0.154"
	},
	{
		"rt": 877,
		"stimulus": "<span style=\"font-size:30px; font-family: monospace\">O</span>",
		"response": " ",
		"trial": "exp-sent",
		"word": "O",
		"trial_type": "html-keyboard-response",
		"trial_index": 199,
		"time_elapsed": 582088,
		"internal_node_id": "0.0-3.0-1.154"
	},
	{
		"rt": 1333,
		"stimulus": "<span style=\"font-size:30px; font-family: monospace\">travesseiro</span>",
		"response": " ",
		"trial": "exp-sent",
		"word": "travesseiro",
		"trial_type": "html-keyboard-response",
		"trial_index": 200,
		"time_elapsed": 583672,
		"internal_node_id": "0.0-3.0-1.155"
	},
	{
		"rt": 1077,
		"stimulus": "<span style=\"font-size:30px; font-family: monospace\">era</span>",
		"response": " ",
		"trial": "exp-sent",
		"word": "era",
		"trial_type": "html-keyboard-response",
		"trial_index": 201,
		"time_elapsed": 585000,
		"internal_node_id": "0.0-3.0-1.156"
	},
	{
		"rt": 982,
		"stimulus": "<span style=\"font-size:30px; font-family: monospace\">muito</span>",
		"response": " ",
		"trial": "exp-sent",
		"word": "muito",
		"trial_type": "html-keyboard-response",
		"trial_index": 202,
		"time_elapsed": 586232,
		"internal_node_id": "0.0-3.0-1.157"
	},
	{
		"rt": 2532,
		"stimulus": "<span style=\"font-size:30px; font-family: monospace\">macio</span>",
		"response": " ",
		"trial": "exp-sent",
		"word": "macio",
		"trial_type": "html-keyboard-response",
		"trial_index": 203,
		"time_elapsed": 589016,
		"internal_node_id": "0.0-3.0-1.158"
	},
	{
		"rt": 822,
		"stimulus": "<span style=\"font-size:30px; font-family: monospace\">e</span>",
		"response": " ",
		"trial": "exp-sent",
		"word": "e",
		"trial_type": "html-keyboard-response",
		"trial_index": 204,
		"time_elapsed": 590088,
		"internal_node_id": "0.0-3.0-1.159"
	},
	{
		"rt": 4020,
		"stimulus": "<span style=\"font-size:30px; font-family: monospace\">confortável.</span>",
		"response": " ",
		"trial": "exp-sent",
		"word": "confortável.",
		"trial_type": "html-keyboard-response",
		"trial_index": 205,
		"time_elapsed": 594360,
		"internal_node_id": "0.0-3.0-1.160"
	},
	{
		"rt": null,
		"stimulus": "<span style= \"font-size:30px; font-family: monospace\">+</span>",
		"response": null,
		"trial_part": "fixation",
		"trial_type": "html-keyboard-response",
		"trial_index": 206,
		"time_elapsed": 595612,
		"internal_node_id": "0.0-3.0-0.161-0.161"
	},
	{
		"rt": 1457,
		"stimulus": "<span style=\"font-size:30px; font-family: monospace\">Hoje</span>",
		"response": " ",
		"trial": "exp-sent",
		"word": "Hoje",
		"trial_type": "html-keyboard-response",
		"trial_index": 207,
		"time_elapsed": 597320,
		"internal_node_id": "0.0-3.0-1.161"
	},
	{
		"rt": 837,
		"stimulus": "<span style=\"font-size:30px; font-family: monospace\">a</span>",
		"response": " ",
		"trial": "exp-sent",
		"word": "a",
		"trial_type": "html-keyboard-response",
		"trial_index": 208,
		"time_elapsed": 598408,
		"internal_node_id": "0.0-3.0-1.162"
	},
	{
		"rt": 1332,
		"stimulus": "<span style=\"font-size:30px; font-family: monospace\">atendente</span>",
		"response": " ",
		"trial": "exp-sent",
		"word": "atendente",
		"trial_type": "html-keyboard-response",
		"trial_index": 209,
		"time_elapsed": 599992,
		"internal_node_id": "0.0-3.0-1.163"
	},
	{
		"rt": 1413,
		"stimulus": "<span style=\"font-size:30px; font-family: monospace\">estava</span>",
		"response": " ",
		"trial": "exp-sent",
		"word": "estava",
		"trial_type": "html-keyboard-response",
		"trial_index": 210,
		"time_elapsed": 601656,
		"internal_node_id": "0.0-3.0-1.164"
	},
	{
		"rt": 1640,
		"stimulus": "<span style=\"font-size:30px; font-family: monospace\">furiosa</span>",
		"response": " ",
		"trial": "exp-sent",
		"word": "furiosa",
		"trial_type": "html-keyboard-response",
		"trial_index": 211,
		"time_elapsed": 603560,
		"internal_node_id": "0.0-3.0-1.165"
	},
	{
		"rt": 1013,
		"stimulus": "<span style=\"font-size:30px; font-family: monospace\">com</span>",
		"response": " ",
		"trial": "exp-sent",
		"word": "com",
		"trial_type": "html-keyboard-response",
		"trial_index": 212,
		"time_elapsed": 604824,
		"internal_node_id": "0.0-3.0-1.166"
	},
	{
		"rt": 916,
		"stimulus": "<span style=\"font-size:30px; font-family: monospace\">o</span>",
		"response": " ",
		"trial": "exp-sent",
		"word": "o",
		"trial_type": "html-keyboard-response",
		"trial_index": 213,
		"time_elapsed": 605992,
		"internal_node_id": "0.0-3.0-1.167"
	},
	{
		"rt": 1893,
		"stimulus": "<span style=\"font-size:30px; font-family: monospace\">cliente.</span>",
		"response": " ",
		"trial": "exp-sent",
		"word": "cliente.",
		"trial_type": "html-keyboard-response",
		"trial_index": 214,
		"time_elapsed": 608136,
		"internal_node_id": "0.0-3.0-1.168"
	},
	{
		"rt": null,
		"stimulus": "<span style= \"font-size:30px; font-family: monospace\">+</span>",
		"response": null,
		"trial_part": "fixation",
		"trial_type": "html-keyboard-response",
		"trial_index": 215,
		"time_elapsed": 609388,
		"internal_node_id": "0.0-3.0-0.169-0.169"
	},
	{
		"rt": 481,
		"stimulus": "<span style=\"font-size:30px; font-family: monospace\">O</span>",
		"response": " ",
		"trial": "exp-sent",
		"word": "O",
		"trial_type": "html-keyboard-response",
		"trial_index": 216,
		"time_elapsed": 610120,
		"internal_node_id": "0.0-3.0-1.169"
	},
	{
		"rt": 1350,
		"stimulus": "<span style=\"font-size:30px; font-family: monospace\">vizinho</span>",
		"response": " ",
		"trial": "exp-sent",
		"word": "vizinho",
		"trial_type": "html-keyboard-response",
		"trial_index": 217,
		"time_elapsed": 611720,
		"internal_node_id": "0.0-3.0-1.170"
	},
	{
		"rt": 899,
		"stimulus": "<span style=\"font-size:30px; font-family: monospace\">é</span>",
		"response": " ",
		"trial": "exp-sent",
		"word": "é",
		"trial_type": "html-keyboard-response",
		"trial_index": 218,
		"time_elapsed": 612872,
		"internal_node_id": "0.0-3.0-1.171"
	},
	{
		"rt": 837,
		"stimulus": "<span style=\"font-size:30px; font-family: monospace\">um</span>",
		"response": " ",
		"trial": "exp-sent",
		"word": "um",
		"trial_type": "html-keyboard-response",
		"trial_index": 219,
		"time_elapsed": 613960,
		"internal_node_id": "0.0-3.0-1.172"
	},
	{
		"rt": 4597,
		"stimulus": "<span style=\"font-size:30px; font-family: monospace\">arquiteto</span>",
		"response": " ",
		"trial": "exp-sent",
		"word": "arquiteto",
		"trial_type": "html-keyboard-response",
		"trial_index": 220,
		"time_elapsed": 618808,
		"internal_node_id": "0.0-3.0-1.173"
	},
	{
		"rt": 1060,
		"stimulus": "<span style=\"font-size:30px; font-family: monospace\">muito</span>",
		"response": " ",
		"trial": "exp-sent",
		"word": "muito",
		"trial_type": "html-keyboard-response",
		"trial_index": 221,
		"time_elapsed": 620120,
		"internal_node_id": "0.0-3.0-1.174"
	},
	{
		"rt": 2197,
		"stimulus": "<span style=\"font-size:30px; font-family: monospace\">excêntrico.</span>",
		"response": " ",
		"trial": "exp-sent",
		"word": "excêntrico.",
		"trial_type": "html-keyboard-response",
		"trial_index": 222,
		"time_elapsed": 622568,
		"internal_node_id": "0.0-3.0-1.175"
	},
	{
		"rt": null,
		"stimulus": "<span style= \"font-size:30px; font-family: monospace\">+</span>",
		"response": null,
		"trial_part": "fixation",
		"trial_type": "html-keyboard-response",
		"trial_index": 223,
		"time_elapsed": 623820,
		"internal_node_id": "0.0-3.0-0.176-0.176"
	},
	{
		"rt": 577,
		"stimulus": "<span style=\"font-size:30px; font-family: monospace\">A</span>",
		"response": " ",
		"trial": "exp-sent",
		"word": "A",
		"trial_type": "html-keyboard-response",
		"trial_index": 224,
		"time_elapsed": 624648,
		"internal_node_id": "0.0-3.0-1.176"
	},
	{
		"rt": 740,
		"stimulus": "<span style=\"font-size:30px; font-family: monospace\">nossa</span>",
		"response": " ",
		"trial": "exp-sent",
		"word": "nossa",
		"trial_type": "html-keyboard-response",
		"trial_index": 225,
		"time_elapsed": 625640,
		"internal_node_id": "0.0-3.0-1.177"
	},
	{
		"rt": 853,
		"stimulus": "<span style=\"font-size:30px; font-family: monospace\">colega</span>",
		"response": " ",
		"trial": "exp-sent",
		"word": "colega",
		"trial_type": "html-keyboard-response",
		"trial_index": 226,
		"time_elapsed": 626744,
		"internal_node_id": "0.0-3.0-1.178"
	},
	{
		"rt": 917,
		"stimulus": "<span style=\"font-size:30px; font-family: monospace\">foi</span>",
		"response": " ",
		"trial": "exp-sent",
		"word": "foi",
		"trial_type": "html-keyboard-response",
		"trial_index": 227,
		"time_elapsed": 627912,
		"internal_node_id": "0.0-3.0-1.179"
	},
	{
		"rt": 1285,
		"stimulus": "<span style=\"font-size:30px; font-family: monospace\">má</span>",
		"response": " ",
		"trial": "exp-sent",
		"word": "má",
		"trial_type": "html-keyboard-response",
		"trial_index": 228,
		"time_elapsed": 629448,
		"internal_node_id": "0.0-3.0-1.180"
	},
	{
		"rt": 1365,
		"stimulus": "<span style=\"font-size:30px; font-family: monospace\">com</span>",
		"response": " ",
		"trial": "exp-sent",
		"word": "com",
		"trial_type": "html-keyboard-response",
		"trial_index": 229,
		"time_elapsed": 631064,
		"internal_node_id": "0.0-3.0-1.181"
	},
	{
		"rt": 869,
		"stimulus": "<span style=\"font-size:30px; font-family: monospace\">as</span>",
		"response": " ",
		"trial": "exp-sent",
		"word": "as",
		"trial_type": "html-keyboard-response",
		"trial_index": 230,
		"time_elapsed": 632184,
		"internal_node_id": "0.0-3.0-1.182"
	},
	{
		"rt": 1269,
		"stimulus": "<span style=\"font-size:30px; font-family: monospace\">crianças.</span>",
		"response": " ",
		"trial": "exp-sent",
		"word": "crianças.",
		"trial_type": "html-keyboard-response",
		"trial_index": 231,
		"time_elapsed": 633704,
		"internal_node_id": "0.0-3.0-1.183"
	},
	{
		"rt": null,
		"stimulus": "<span style= \"font-size:30px; font-family: monospace\">+</span>",
		"response": null,
		"trial_part": "fixation",
		"trial_type": "html-keyboard-response",
		"trial_index": 232,
		"time_elapsed": 634956,
		"internal_node_id": "0.0-3.0-0.184-0.184"
	},
	{
		"rt": 672,
		"stimulus": "<span style=\"font-size:30px; font-family: monospace\">Virtudes</span>",
		"response": " ",
		"trial": "exp-sent",
		"word": "Virtudes",
		"trial_type": "html-keyboard-response",
		"trial_index": 233,
		"time_elapsed": 635880,
		"internal_node_id": "0.0-3.0-1.184"
	},
	{
		"rt": 805,
		"stimulus": "<span style=\"font-size:30px; font-family: monospace\">não</span>",
		"response": " ",
		"trial": "exp-sent",
		"word": "não",
		"trial_type": "html-keyboard-response",
		"trial_index": 234,
		"time_elapsed": 636936,
		"internal_node_id": "0.0-3.0-1.185"
	},
	{
		"rt": 868,
		"stimulus": "<span style=\"font-size:30px; font-family: monospace\">são</span>",
		"response": " ",
		"trial": "exp-sent",
		"word": "são",
		"trial_type": "html-keyboard-response",
		"trial_index": 235,
		"time_elapsed": 638056,
		"internal_node_id": "0.0-3.0-1.186"
	},
	{
		"rt": 3893,
		"stimulus": "<span style=\"font-size:30px; font-family: monospace\">preguiça,</span>",
		"response": " ",
		"trial": "exp-sent",
		"word": "preguiça,",
		"trial_type": "html-keyboard-response",
		"trial_index": 236,
		"time_elapsed": 642200,
		"internal_node_id": "0.0-3.0-1.187"
	},
	{
		"rt": 1139,
		"stimulus": "<span style=\"font-size:30px; font-family: monospace\">gula</span>",
		"response": " ",
		"trial": "exp-sent",
		"word": "gula",
		"trial_type": "html-keyboard-response",
		"trial_index": 237,
		"time_elapsed": 643592,
		"internal_node_id": "0.0-3.0-1.188"
	},
	{
		"rt": 12485,
		"stimulus": "<span style=\"font-size:30px; font-family: monospace\">nem</span>",
		"response": " ",
		"trial": "exp-sent",
		"word": "nem",
		"trial_type": "html-keyboard-response",
		"trial_index": 238,
		"time_elapsed": 656328,
		"internal_node_id": "0.0-3.0-1.189"
	},
	{
		"rt": 6021,
		"stimulus": "<span style=\"font-size:30px; font-family: monospace\">ganância.</span>",
		"response": " ",
		"trial": "comp",
		"word": "ganância.",
		"trial_type": "html-keyboard-response",
		"trial_index": 239,
		"time_elapsed": 662600,
		"internal_node_id": "0.0-3.0-1.190"
	},
	{
		"rt": 15509,
		"stimulus": "<span style=\"font-size:30px; font-family: monospace\">Preguiça é uma virtude?</span>",
		"response": "n",
		"question": "Preguiça é uma virtude?",
		"answer": "não",
		"trial": "comp",
		"trial_type": "html-keyboard-response",
		"trial_index": 240,
		"time_elapsed": 678360,
		"internal_node_id": "0.0-3.0-2.190-0.190",
		"accuracy": false
	},
	{
		"rt": null,
		"stimulus": "<span style= \"font-size:30px; font-family: monospace\">+</span>",
		"response": null,
		"trial_part": "fixation",
		"trial_type": "html-keyboard-response",
		"trial_index": 241,
		"time_elapsed": 679863,
		"internal_node_id": "0.0-3.0-0.191-0.191"
	},
	{
		"rt": 390,
		"stimulus": "<span style=\"font-size:30px; font-family: monospace\">Barulho</span>",
		"response": " ",
		"trial": "exp-sent",
		"word": "Barulho",
		"trial_type": "html-keyboard-response",
		"trial_index": 242,
		"time_elapsed": 680504,
		"internal_node_id": "0.0-3.0-1.191"
	},
	{
		"rt": 2741,
		"stimulus": "<span style=\"font-size:30px; font-family: monospace\">de</span>",
		"response": " ",
		"trial": "exp-sent",
		"word": "de",
		"trial_type": "html-keyboard-response",
		"trial_index": 243,
		"time_elapsed": 683496,
		"internal_node_id": "0.0-3.0-1.192"
	},
	{
		"rt": 2084,
		"stimulus": "<span style=\"font-size:30px; font-family: monospace\">carros</span>",
		"response": " ",
		"trial": "exp-sent",
		"word": "carros",
		"trial_type": "html-keyboard-response",
		"trial_index": 244,
		"time_elapsed": 685832,
		"internal_node_id": "0.0-3.0-1.193"
	},
	{
		"rt": 3557,
		"stimulus": "<span style=\"font-size:30px; font-family: monospace\">é</span>",
		"response": " ",
		"trial": "exp-sent",
		"word": "é",
		"trial_type": "html-keyboard-response",
		"trial_index": 245,
		"time_elapsed": 689640,
		"internal_node_id": "0.0-3.0-1.194"
	},
	{
		"rt": 6820,
		"stimulus": "<span style=\"font-size:30px; font-family: monospace\">irritante</span>",
		"response": " ",
		"trial": "exp-sent",
		"word": "irritante",
		"trial_type": "html-keyboard-response",
		"trial_index": 246,
		"time_elapsed": 696712,
		"internal_node_id": "0.0-3.0-1.195"
	},
	{
		"rt": 821,
		"stimulus": "<span style=\"font-size:30px; font-family: monospace\">para</span>",
		"response": " ",
		"trial": "exp-sent",
		"word": "para",
		"trial_type": "html-keyboard-response",
		"trial_index": 247,
		"time_elapsed": 697784,
		"internal_node_id": "0.0-3.0-1.196"
	},
	{
		"rt": 773,
		"stimulus": "<span style=\"font-size:30px; font-family: monospace\">a</span>",
		"response": " ",
		"trial": "exp-sent",
		"word": "a",
		"trial_type": "html-keyboard-response",
		"trial_index": 248,
		"time_elapsed": 698808,
		"internal_node_id": "0.0-3.0-1.197"
	},
	{
		"rt": 837,
		"stimulus": "<span style=\"font-size:30px; font-family: monospace\">moça.</span>",
		"response": " ",
		"trial": "exp-sent",
		"word": "moça.",
		"trial_type": "html-keyboard-response",
		"trial_index": 249,
		"time_elapsed": 699896,
		"internal_node_id": "0.0-3.0-1.198"
	},
	{
		"rt": null,
		"stimulus": "<span style= \"font-size:30px; font-family: monospace\">+</span>",
		"response": null,
		"trial_part": "fixation",
		"trial_type": "html-keyboard-response",
		"trial_index": 250,
		"time_elapsed": 701148,
		"internal_node_id": "0.0-3.0-0.199-0.199"
	},
	{
		"rt": 1249,
		"stimulus": "<span style=\"font-size:30px; font-family: monospace\">A</span>",
		"response": " ",
		"trial": "exp-sent",
		"word": "A",
		"trial_type": "html-keyboard-response",
		"trial_index": 251,
		"time_elapsed": 702648,
		"internal_node_id": "0.0-3.0-1.199"
	},
	{
		"rt": 757,
		"stimulus": "<span style=\"font-size:30px; font-family: monospace\">loja</span>",
		"response": " ",
		"trial": "exp-sent",
		"word": "loja",
		"trial_type": "html-keyboard-response",
		"trial_index": 252,
		"time_elapsed": 703656,
		"internal_node_id": "0.0-3.0-1.200"
	},
	{
		"rt": 949,
		"stimulus": "<span style=\"font-size:30px; font-family: monospace\">também</span>",
		"response": " ",
		"trial": "exp-sent",
		"word": "também",
		"trial_type": "html-keyboard-response",
		"trial_index": 253,
		"time_elapsed": 704856,
		"internal_node_id": "0.0-3.0-1.201"
	},
	{
		"rt": 1221,
		"stimulus": "<span style=\"font-size:30px; font-family: monospace\">vende</span>",
		"response": " ",
		"trial": "exp-sent",
		"word": "vende",
		"trial_type": "html-keyboard-response",
		"trial_index": 254,
		"time_elapsed": 706328,
		"internal_node_id": "0.0-3.0-1.202"
	},
	{
		"rt": 965,
		"stimulus": "<span style=\"font-size:30px; font-family: monospace\">taça</span>",
		"response": " ",
		"trial": "exp-sent",
		"word": "taça",
		"trial_type": "html-keyboard-response",
		"trial_index": 255,
		"time_elapsed": 707544,
		"internal_node_id": "0.0-3.0-1.203"
	},
	{
		"rt": 917,
		"stimulus": "<span style=\"font-size:30px; font-family: monospace\">de</span>",
		"response": " ",
		"trial": "exp-sent",
		"word": "de",
		"trial_type": "html-keyboard-response",
		"trial_index": 256,
		"time_elapsed": 708712,
		"internal_node_id": "0.0-3.0-1.204"
	},
	{
		"rt": 1493,
		"stimulus": "<span style=\"font-size:30px; font-family: monospace\">vinho</span>",
		"response": " ",
		"trial": "exp-sent",
		"word": "vinho",
		"trial_type": "html-keyboard-response",
		"trial_index": 257,
		"time_elapsed": 710456,
		"internal_node_id": "0.0-3.0-1.205"
	},
	{
		"rt": 756,
		"stimulus": "<span style=\"font-size:30px; font-family: monospace\">e</span>",
		"response": " ",
		"trial": "exp-sent",
		"word": "e",
		"trial_type": "html-keyboard-response",
		"trial_index": 258,
		"time_elapsed": 711463,
		"internal_node_id": "0.0-3.0-1.206"
	},
	{
		"rt": 3717,
		"stimulus": "<span style=\"font-size:30px; font-family: monospace\">espumante.</span>",
		"response": " ",
		"trial": "exp-sent",
		"word": "espumante.",
		"trial_type": "html-keyboard-response",
		"trial_index": 259,
		"time_elapsed": 715432,
		"internal_node_id": "0.0-3.0-1.207"
	},
	{
		"rt": null,
		"stimulus": "<span style= \"font-size:30px; font-family: monospace\">+</span>",
		"response": null,
		"trial_part": "fixation",
		"trial_type": "html-keyboard-response",
		"trial_index": 260,
		"time_elapsed": 716683,
		"internal_node_id": "0.0-3.0-0.208-0.208"
	},
	{
		"rt": 449,
		"stimulus": "<span style=\"font-size:30px; font-family: monospace\">A</span>",
		"response": " ",
		"trial": "exp-sent",
		"word": "A",
		"trial_type": "html-keyboard-response",
		"trial_index": 261,
		"time_elapsed": 717384,
		"internal_node_id": "0.0-3.0-1.208"
	},
	{
		"rt": 2085,
		"stimulus": "<span style=\"font-size:30px; font-family: monospace\">bruxa</span>",
		"response": " ",
		"trial": "exp-sent",
		"word": "bruxa",
		"trial_type": "html-keyboard-response",
		"trial_index": 262,
		"time_elapsed": 719720,
		"internal_node_id": "0.0-3.0-1.209"
	},
	{
		"rt": 1188,
		"stimulus": "<span style=\"font-size:30px; font-family: monospace\">tinha</span>",
		"response": " ",
		"trial": "exp-sent",
		"word": "tinha",
		"trial_type": "html-keyboard-response",
		"trial_index": 263,
		"time_elapsed": 721160,
		"internal_node_id": "0.0-3.0-1.210"
	},
	{
		"rt": 693,
		"stimulus": "<span style=\"font-size:30px; font-family: monospace\">uma</span>",
		"response": " ",
		"trial": "exp-sent",
		"word": "uma",
		"trial_type": "html-keyboard-response",
		"trial_index": 264,
		"time_elapsed": 722103,
		"internal_node_id": "0.0-3.0-1.211"
	},
	{
		"rt": 3605,
		"stimulus": "<span style=\"font-size:30px; font-family: monospace\">vassoura</span>",
		"response": " ",
		"trial": "exp-sent",
		"word": "vassoura",
		"trial_type": "html-keyboard-response",
		"trial_index": 265,
		"time_elapsed": 725959,
		"internal_node_id": "0.0-3.0-1.212"
	},
	{
		"rt": 789,
		"stimulus": "<span style=\"font-size:30px; font-family: monospace\">e</span>",
		"response": " ",
		"trial": "exp-sent",
		"word": "e",
		"trial_type": "html-keyboard-response",
		"trial_index": 266,
		"time_elapsed": 726999,
		"internal_node_id": "0.0-3.0-1.213"
	},
	{
		"rt": 757,
		"stimulus": "<span style=\"font-size:30px; font-family: monospace\">um</span>",
		"response": " ",
		"trial": "exp-sent",
		"word": "um",
		"trial_type": "html-keyboard-response",
		"trial_index": 267,
		"time_elapsed": 728007,
		"internal_node_id": "0.0-3.0-1.214"
	},
	{
		"rt": 1125,
		"stimulus": "<span style=\"font-size:30px; font-family: monospace\">gato.</span>",
		"response": " ",
		"trial": "exp-sent",
		"word": "gato.",
		"trial_type": "html-keyboard-response",
		"trial_index": 268,
		"time_elapsed": 729383,
		"internal_node_id": "0.0-3.0-1.215"
	},
	{
		"rt": null,
		"stimulus": "<span style= \"font-size:30px; font-family: monospace\">+</span>",
		"response": null,
		"trial_part": "fixation",
		"trial_type": "html-keyboard-response",
		"trial_index": 269,
		"time_elapsed": 730635,
		"internal_node_id": "0.0-3.0-0.216-0.216"
	},
	{
		"rt": 416,
		"stimulus": "<span style=\"font-size:30px; font-family: monospace\">Eu</span>",
		"response": " ",
		"trial": "exp-sent",
		"word": "Eu",
		"trial_type": "html-keyboard-response",
		"trial_index": 270,
		"time_elapsed": 731302,
		"internal_node_id": "0.0-3.0-1.216"
	},
	{
		"rt": 853,
		"stimulus": "<span style=\"font-size:30px; font-family: monospace\">me</span>",
		"response": " ",
		"trial": "exp-sent",
		"word": "me",
		"trial_type": "html-keyboard-response",
		"trial_index": 271,
		"time_elapsed": 732407,
		"internal_node_id": "0.0-3.0-1.217"
	},
	{
		"rt": 1909,
		"stimulus": "<span style=\"font-size:30px; font-family: monospace\">divirto</span>",
		"response": " ",
		"trial": "exp-sent",
		"word": "divirto",
		"trial_type": "html-keyboard-response",
		"trial_index": 272,
		"time_elapsed": 734567,
		"internal_node_id": "0.0-3.0-1.218"
	},
	{
		"rt": 789,
		"stimulus": "<span style=\"font-size:30px; font-family: monospace\">em</span>",
		"response": " ",
		"trial": "exp-sent",
		"word": "em",
		"trial_type": "html-keyboard-response",
		"trial_index": 273,
		"time_elapsed": 735607,
		"internal_node_id": "0.0-3.0-1.219"
	},
	{
		"rt": 1589,
		"stimulus": "<span style=\"font-size:30px; font-family: monospace\">festas</span>",
		"response": " ",
		"trial": "exp-sent",
		"word": "festas",
		"trial_type": "html-keyboard-response",
		"trial_index": 274,
		"time_elapsed": 737447,
		"internal_node_id": "0.0-3.0-1.220"
	},
	{
		"rt": 981,
		"stimulus": "<span style=\"font-size:30px; font-family: monospace\">de</span>",
		"response": " ",
		"trial": "exp-sent",
		"word": "de",
		"trial_type": "html-keyboard-response",
		"trial_index": 275,
		"time_elapsed": 738679,
		"internal_node_id": "0.0-3.0-1.221"
	},
	{
		"rt": 1429,
		"stimulus": "<span style=\"font-size:30px; font-family: monospace\">criança.</span>",
		"response": " ",
		"trial": "exp-sent",
		"word": "criança.",
		"trial_type": "html-keyboard-response",
		"trial_index": 276,
		"time_elapsed": 740359,
		"internal_node_id": "0.0-3.0-1.222"
	},
	{
		"rt": null,
		"stimulus": "<span style= \"font-size:30px; font-family: monospace\">+</span>",
		"response": null,
		"trial_part": "fixation",
		"trial_type": "html-keyboard-response",
		"trial_index": 277,
		"time_elapsed": 741611,
		"internal_node_id": "0.0-3.0-0.223-0.223"
	},
	{
		"rt": 432,
		"stimulus": "<span style=\"font-size:30px; font-family: monospace\">A</span>",
		"response": " ",
		"trial": "exp-sent",
		"word": "A",
		"trial_type": "html-keyboard-response",
		"trial_index": 278,
		"time_elapsed": 742294,
		"internal_node_id": "0.0-3.0-1.223"
	},
	{
		"rt": 917,
		"stimulus": "<span style=\"font-size:30px; font-family: monospace\">janela</span>",
		"response": " ",
		"trial": "exp-sent",
		"word": "janela",
		"trial_type": "html-keyboard-response",
		"trial_index": 279,
		"time_elapsed": 743463,
		"internal_node_id": "0.0-3.0-1.224"
	},
	{
		"rt": 565,
		"stimulus": "<span style=\"font-size:30px; font-family: monospace\">alta</span>",
		"response": " ",
		"trial": "exp-sent",
		"word": "alta",
		"trial_type": "html-keyboard-response",
		"trial_index": 280,
		"time_elapsed": 744279,
		"internal_node_id": "0.0-3.0-1.225"
	},
	{
		"rt": 613,
		"stimulus": "<span style=\"font-size:30px; font-family: monospace\">estava</span>",
		"response": " ",
		"trial": "exp-sent",
		"word": "estava",
		"trial_type": "html-keyboard-response",
		"trial_index": 281,
		"time_elapsed": 745143,
		"internal_node_id": "0.0-3.0-1.226"
	},
	{
		"rt": 1269,
		"stimulus": "<span style=\"font-size:30px; font-family: monospace\">quebrada</span>",
		"response": " ",
		"trial": "exp-sent",
		"word": "quebrada",
		"trial_type": "html-keyboard-response",
		"trial_index": 282,
		"time_elapsed": 746663,
		"internal_node_id": "0.0-3.0-1.227"
	},
	{
		"rt": 549,
		"stimulus": "<span style=\"font-size:30px; font-family: monospace\">desde</span>",
		"response": " ",
		"trial": "exp-sent",
		"word": "desde",
		"trial_type": "html-keyboard-response",
		"trial_index": 283,
		"time_elapsed": 747463,
		"internal_node_id": "0.0-3.0-1.228"
	},
	{
		"rt": 853,
		"stimulus": "<span style=\"font-size:30px; font-family: monospace\">ontem.</span>",
		"response": " ",
		"trial": "comp",
		"word": "ontem.",
		"trial_type": "html-keyboard-response",
		"trial_index": 284,
		"time_elapsed": 748567,
		"internal_node_id": "0.0-3.0-1.229"
	},
	{
		"rt": 19285,
		"stimulus": "<span style=\"font-size:30px; font-family: monospace\">A janela alta estava quebrada?</span>",
		"response": "n",
		"question": "A janela alta estava quebrada?",
		"answer": "sim",
		"trial": "comp",
		"trial_type": "html-keyboard-response",
		"trial_index": 285,
		"time_elapsed": 768103,
		"internal_node_id": "0.0-3.0-2.229-0.229",
		"accuracy": false
	},
	{
		"rt": null,
		"stimulus": "<span style= \"font-size:30px; font-family: monospace\">+</span>",
		"response": null,
		"trial_part": "fixation",
		"trial_type": "html-keyboard-response",
		"trial_index": 286,
		"time_elapsed": 769604,
		"internal_node_id": "0.0-3.0-0.230-0.230"
	},
	{
		"rt": 6039,
		"stimulus": "<span style=\"font-size:30px; font-family: monospace\">Ele</span>",
		"response": " ",
		"trial": "exp-sent",
		"word": "Ele",
		"trial_type": "html-keyboard-response",
		"trial_index": 287,
		"time_elapsed": 775895,
		"internal_node_id": "0.0-3.0-1.230"
	},
	{
		"rt": 1413,
		"stimulus": "<span style=\"font-size:30px; font-family: monospace\">é</span>",
		"response": " ",
		"trial": "exp-sent",
		"word": "é",
		"trial_type": "html-keyboard-response",
		"trial_index": 288,
		"time_elapsed": 777559,
		"internal_node_id": "0.0-3.0-1.231"
	},
	{
		"rt": 2533,
		"stimulus": "<span style=\"font-size:30px; font-family: monospace\">um</span>",
		"response": " ",
		"trial": "exp-sent",
		"word": "um",
		"trial_type": "html-keyboard-response",
		"trial_index": 289,
		"time_elapsed": 780343,
		"internal_node_id": "0.0-3.0-1.232"
	},
	{
		"rt": 1406,
		"stimulus": "<span style=\"font-size:30px; font-family: monospace\">pai</span>",
		"response": " ",
		"trial": "exp-sent",
		"word": "pai",
		"trial_type": "html-keyboard-response",
		"trial_index": 290,
		"time_elapsed": 782007,
		"internal_node_id": "0.0-3.0-1.233"
	},
	{
		"rt": 8517,
		"stimulus": "<span style=\"font-size:30px; font-family: monospace\">ausente</span>",
		"response": " ",
		"trial": "exp-sent",
		"word": "ausente",
		"trial_type": "html-keyboard-response",
		"trial_index": 291,
		"time_elapsed": 790775,
		"internal_node_id": "0.0-3.0-1.234"
	},
	{
		"rt": 1824,
		"stimulus": "<span style=\"font-size:30px; font-family: monospace\">e</span>",
		"response": " ",
		"trial": "exp-sent",
		"word": "e",
		"trial_type": "html-keyboard-response",
		"trial_index": 292,
		"time_elapsed": 792855,
		"internal_node_id": "0.0-3.0-1.235"
	},
	{
		"rt": 1188,
		"stimulus": "<span style=\"font-size:30px; font-family: monospace\">muito</span>",
		"response": " ",
		"trial": "exp-sent",
		"word": "muito",
		"trial_type": "html-keyboard-response",
		"trial_index": 293,
		"time_elapsed": 794295,
		"internal_node_id": "0.0-3.0-1.236"
	},
	{
		"rt": 3941,
		"stimulus": "<span style=\"font-size:30px; font-family: monospace\">fofoqueiro.</span>",
		"response": " ",
		"trial": "exp-sent",
		"word": "fofoqueiro.",
		"trial_type": "html-keyboard-response",
		"trial_index": 294,
		"time_elapsed": 798487,
		"internal_node_id": "0.0-3.0-1.237"
	},
	{
		"rt": null,
		"stimulus": "<span style= \"font-size:30px; font-family: monospace\">+</span>",
		"response": null,
		"trial_part": "fixation",
		"trial_type": "html-keyboard-response",
		"trial_index": 295,
		"time_elapsed": 799739,
		"internal_node_id": "0.0-3.0-0.238-0.238"
	},
	{
		"rt": 596,
		"stimulus": "<span style=\"font-size:30px; font-family: monospace\">O</span>",
		"response": " ",
		"trial": "exp-sent",
		"word": "O",
		"trial_type": "html-keyboard-response",
		"trial_index": 296,
		"time_elapsed": 800599,
		"internal_node_id": "0.0-3.0-1.238"
	},
	{
		"rt": 1573,
		"stimulus": "<span style=\"font-size:30px; font-family: monospace\">filho</span>",
		"response": " ",
		"trial": "exp-sent",
		"word": "filho",
		"trial_type": "html-keyboard-response",
		"trial_index": 297,
		"time_elapsed": 802423,
		"internal_node_id": "0.0-3.0-1.239"
	},
	{
		"rt": 917,
		"stimulus": "<span style=\"font-size:30px; font-family: monospace\">lavou</span>",
		"response": " ",
		"trial": "exp-sent",
		"word": "lavou",
		"trial_type": "html-keyboard-response",
		"trial_index": 298,
		"time_elapsed": 803591,
		"internal_node_id": "0.0-3.0-1.240"
	},
	{
		"rt": 676,
		"stimulus": "<span style=\"font-size:30px; font-family: monospace\">a</span>",
		"response": " ",
		"trial": "exp-sent",
		"word": "a",
		"trial_type": "html-keyboard-response",
		"trial_index": 299,
		"time_elapsed": 804519,
		"internal_node_id": "0.0-3.0-1.241"
	},
	{
		"rt": 837,
		"stimulus": "<span style=\"font-size:30px; font-family: monospace\">roupa</span>",
		"response": " ",
		"trial": "exp-sent",
		"word": "roupa",
		"trial_type": "html-keyboard-response",
		"trial_index": 300,
		"time_elapsed": 805607,
		"internal_node_id": "0.0-3.0-1.242"
	},
	{
		"rt": 916,
		"stimulus": "<span style=\"font-size:30px; font-family: monospace\">sem</span>",
		"response": " ",
		"trial": "exp-sent",
		"word": "sem",
		"trial_type": "html-keyboard-response",
		"trial_index": 301,
		"time_elapsed": 806775,
		"internal_node_id": "0.0-3.0-1.243"
	},
	{
		"rt": 3044,
		"stimulus": "<span style=\"font-size:30px; font-family: monospace\">nenhuma</span>",
		"response": " ",
		"trial": "exp-sent",
		"word": "nenhuma",
		"trial_type": "html-keyboard-response",
		"trial_index": 302,
		"time_elapsed": 810071,
		"internal_node_id": "0.0-3.0-1.244"
	},
	{
		"rt": 1205,
		"stimulus": "<span style=\"font-size:30px; font-family: monospace\">ajuda.</span>",
		"response": " ",
		"trial": "exp-sent",
		"word": "ajuda.",
		"trial_type": "html-keyboard-response",
		"trial_index": 303,
		"time_elapsed": 811527,
		"internal_node_id": "0.0-3.0-1.245"
	},
	{
		"rt": null,
		"stimulus": "<span style= \"font-size:30px; font-family: monospace\">+</span>",
		"response": null,
		"trial_part": "fixation",
		"trial_type": "html-keyboard-response",
		"trial_index": 304,
		"time_elapsed": 812779,
		"internal_node_id": "0.0-3.0-0.246-0.246"
	},
	{
		"rt": 825,
		"stimulus": "<span style=\"font-size:30px; font-family: monospace\">O</span>",
		"response": " ",
		"trial": "exp-sent",
		"word": "O",
		"trial_type": "html-keyboard-response",
		"trial_index": 305,
		"time_elapsed": 813863,
		"internal_node_id": "0.0-3.0-1.246"
	},
	{
		"rt": 2613,
		"stimulus": "<span style=\"font-size:30px; font-family: monospace\">menino</span>",
		"response": " ",
		"trial": "exp-sent",
		"word": "menino",
		"trial_type": "html-keyboard-response",
		"trial_index": 306,
		"time_elapsed": 816727,
		"internal_node_id": "0.0-3.0-1.247"
	},
	{
		"rt": 3445,
		"stimulus": "<span style=\"font-size:30px; font-family: monospace\">quebrou</span>",
		"response": " ",
		"trial": "exp-sent",
		"word": "quebrou",
		"trial_type": "html-keyboard-response",
		"trial_index": 307,
		"time_elapsed": 820423,
		"internal_node_id": "0.0-3.0-1.248"
	},
	{
		"rt": 1204,
		"stimulus": "<span style=\"font-size:30px; font-family: monospace\">a</span>",
		"response": " ",
		"trial": "exp-sent",
		"word": "a",
		"trial_type": "html-keyboard-response",
		"trial_index": 308,
		"time_elapsed": 821879,
		"internal_node_id": "0.0-3.0-1.249"
	},
	{
		"rt": 2069,
		"stimulus": "<span style=\"font-size:30px; font-family: monospace\">perna</span>",
		"response": " ",
		"trial": "exp-sent",
		"word": "perna",
		"trial_type": "html-keyboard-response",
		"trial_index": 309,
		"time_elapsed": 824199,
		"internal_node_id": "0.0-3.0-1.250"
	},
	{
		"rt": 1061,
		"stimulus": "<span style=\"font-size:30px; font-family: monospace\">nos</span>",
		"response": " ",
		"trial": "exp-sent",
		"word": "nos",
		"trial_type": "html-keyboard-response",
		"trial_index": 310,
		"time_elapsed": 825511,
		"internal_node_id": "0.0-3.0-1.251"
	},
	{
		"rt": 3285,
		"stimulus": "<span style=\"font-size:30px; font-family: monospace\">esportes.</span>",
		"response": " ",
		"trial": "exp-sent",
		"word": "esportes.",
		"trial_type": "html-keyboard-response",
		"trial_index": 311,
		"time_elapsed": 829047,
		"internal_node_id": "0.0-3.0-1.252"
	},
	{
		"rt": null,
		"stimulus": "<span style= \"font-size:30px; font-family: monospace\">+</span>",
		"response": null,
		"trial_part": "fixation",
		"trial_type": "html-keyboard-response",
		"trial_index": 312,
		"time_elapsed": 830300,
		"internal_node_id": "0.0-3.0-0.253-0.253"
	},
	{
		"rt": 783,
		"stimulus": "<span style=\"font-size:30px; font-family: monospace\">Ela</span>",
		"response": " ",
		"trial": "exp-sent",
		"word": "Ela",
		"trial_type": "html-keyboard-response",
		"trial_index": 313,
		"time_elapsed": 831335,
		"internal_node_id": "0.0-3.0-1.253"
	},
	{
		"rt": 1237,
		"stimulus": "<span style=\"font-size:30px; font-family: monospace\">brincou</span>",
		"response": " ",
		"trial": "exp-sent",
		"word": "brincou",
		"trial_type": "html-keyboard-response",
		"trial_index": 314,
		"time_elapsed": 832823,
		"internal_node_id": "0.0-3.0-1.254"
	},
	{
		"rt": 837,
		"stimulus": "<span style=\"font-size:30px; font-family: monospace\">com</span>",
		"response": " ",
		"trial": "exp-sent",
		"word": "com",
		"trial_type": "html-keyboard-response",
		"trial_index": 315,
		"time_elapsed": 833911,
		"internal_node_id": "0.0-3.0-1.255"
	},
	{
		"rt": 1060,
		"stimulus": "<span style=\"font-size:30px; font-family: monospace\">uma</span>",
		"response": " ",
		"trial": "exp-sent",
		"word": "uma",
		"trial_type": "html-keyboard-response",
		"trial_index": 316,
		"time_elapsed": 835223,
		"internal_node_id": "0.0-3.0-1.256"
	},
	{
		"rt": 1012,
		"stimulus": "<span style=\"font-size:30px; font-family: monospace\">menina</span>",
		"response": " ",
		"trial": "exp-sent",
		"word": "menina",
		"trial_type": "html-keyboard-response",
		"trial_index": 317,
		"time_elapsed": 836487,
		"internal_node_id": "0.0-3.0-1.257"
	},
	{
		"rt": 709,
		"stimulus": "<span style=\"font-size:30px; font-family: monospace\">da</span>",
		"response": " ",
		"trial": "exp-sent",
		"word": "da",
		"trial_type": "html-keyboard-response",
		"trial_index": 318,
		"time_elapsed": 837447,
		"internal_node_id": "0.0-3.0-1.258"
	},
	{
		"rt": 1077,
		"stimulus": "<span style=\"font-size:30px; font-family: monospace\">turma.</span>",
		"response": " ",
		"trial": "exp-sent",
		"word": "turma.",
		"trial_type": "html-keyboard-response",
		"trial_index": 319,
		"time_elapsed": 838775,
		"internal_node_id": "0.0-3.0-1.259"
	},
	{
		"rt": null,
		"stimulus": "<span style= \"font-size:30px; font-family: monospace\">+</span>",
		"response": null,
		"trial_part": "fixation",
		"trial_type": "html-keyboard-response",
		"trial_index": 320,
		"time_elapsed": 840028,
		"internal_node_id": "0.0-3.0-0.260-0.260"
	},
	{
		"rt": 464,
		"stimulus": "<span style=\"font-size:30px; font-family: monospace\">Ele</span>",
		"response": " ",
		"trial": "exp-sent",
		"word": "Ele",
		"trial_type": "html-keyboard-response",
		"trial_index": 321,
		"time_elapsed": 840743,
		"internal_node_id": "0.0-3.0-1.260"
	},
	{
		"rt": 725,
		"stimulus": "<span style=\"font-size:30px; font-family: monospace\">esteve</span>",
		"response": " ",
		"trial": "exp-sent",
		"word": "esteve",
		"trial_type": "html-keyboard-response",
		"trial_index": 322,
		"time_elapsed": 841719,
		"internal_node_id": "0.0-3.0-1.261"
	},
	{
		"rt": 757,
		"stimulus": "<span style=\"font-size:30px; font-family: monospace\">no</span>",
		"response": " ",
		"trial": "exp-sent",
		"word": "no",
		"trial_type": "html-keyboard-response",
		"trial_index": 323,
		"time_elapsed": 842727,
		"internal_node_id": "0.0-3.0-1.262"
	},
	{
		"rt": 1045,
		"stimulus": "<span style=\"font-size:30px; font-family: monospace\">escritório</span>",
		"response": " ",
		"trial": "exp-sent",
		"word": "escritório",
		"trial_type": "html-keyboard-response",
		"trial_index": 324,
		"time_elapsed": 844023,
		"internal_node_id": "0.0-3.0-1.263"
	},
	{
		"rt": 661,
		"stimulus": "<span style=\"font-size:30px; font-family: monospace\">o</span>",
		"response": " ",
		"trial": "exp-sent",
		"word": "o",
		"trial_type": "html-keyboard-response",
		"trial_index": 325,
		"time_elapsed": 844935,
		"internal_node_id": "0.0-3.0-1.264"
	},
	{
		"rt": 789,
		"stimulus": "<span style=\"font-size:30px; font-family: monospace\">dia</span>",
		"response": " ",
		"trial": "exp-sent",
		"word": "dia",
		"trial_type": "html-keyboard-response",
		"trial_index": 326,
		"time_elapsed": 845975,
		"internal_node_id": "0.0-3.0-1.265"
	},
	{
		"rt": 805,
		"stimulus": "<span style=\"font-size:30px; font-family: monospace\">inteiro.</span>",
		"response": " ",
		"trial": "comp",
		"word": "inteiro.",
		"trial_type": "html-keyboard-response",
		"trial_index": 327,
		"time_elapsed": 847031,
		"internal_node_id": "0.0-3.0-1.266"
	},
	{
		"rt": 9236,
		"stimulus": "<span style=\"font-size:30px; font-family: monospace\">Ele esteve no parque o dia inteiro?</span>",
		"response": "n",
		"question": "Ele esteve no parque o dia inteiro?",
		"answer": "não",
		"trial": "comp",
		"trial_type": "html-keyboard-response",
		"trial_index": 328,
		"time_elapsed": 856519,
		"internal_node_id": "0.0-3.0-2.266-0.266",
		"accuracy": false
	},
	{
		"rt": null,
		"stimulus": "<span style= \"font-size:30px; font-family: monospace\">+</span>",
		"response": null,
		"trial_part": "fixation",
		"trial_type": "html-keyboard-response",
		"trial_index": 329,
		"time_elapsed": 858021,
		"internal_node_id": "0.0-3.0-0.267-0.267"
	},
	{
		"rt": 1142,
		"stimulus": "<span style=\"font-size:30px; font-family: monospace\">Preciso</span>",
		"response": " ",
		"trial": "exp-sent",
		"word": "Preciso",
		"trial_type": "html-keyboard-response",
		"trial_index": 330,
		"time_elapsed": 859414,
		"internal_node_id": "0.0-3.0-1.267"
	},
	{
		"rt": 901,
		"stimulus": "<span style=\"font-size:30px; font-family: monospace\">de</span>",
		"response": " ",
		"trial": "exp-sent",
		"word": "de",
		"trial_type": "html-keyboard-response",
		"trial_index": 331,
		"time_elapsed": 860566,
		"internal_node_id": "0.0-3.0-1.268"
	},
	{
		"rt": 661,
		"stimulus": "<span style=\"font-size:30px; font-family: monospace\">um</span>",
		"response": " ",
		"trial": "exp-sent",
		"word": "um",
		"trial_type": "html-keyboard-response",
		"trial_index": 332,
		"time_elapsed": 861478,
		"internal_node_id": "0.0-3.0-1.269"
	},
	{
		"rt": 3956,
		"stimulus": "<span style=\"font-size:30px; font-family: monospace\">relatório</span>",
		"response": " ",
		"trial": "exp-sent",
		"word": "relatório",
		"trial_type": "html-keyboard-response",
		"trial_index": 333,
		"time_elapsed": 865686,
		"internal_node_id": "0.0-3.0-1.270"
	},
	{
		"rt": 2390,
		"stimulus": "<span style=\"font-size:30px; font-family: monospace\">oficial</span>",
		"response": " ",
		"trial": "exp-sent",
		"word": "oficial",
		"trial_type": "html-keyboard-response",
		"trial_index": 334,
		"time_elapsed": 868326,
		"internal_node_id": "0.0-3.0-1.271"
	},
	{
		"rt": 805,
		"stimulus": "<span style=\"font-size:30px; font-family: monospace\">para</span>",
		"response": " ",
		"trial": "exp-sent",
		"word": "para",
		"trial_type": "html-keyboard-response",
		"trial_index": 335,
		"time_elapsed": 869382,
		"internal_node_id": "0.0-3.0-1.272"
	},
	{
		"rt": 1173,
		"stimulus": "<span style=\"font-size:30px; font-family: monospace\">amanhã.</span>",
		"response": " ",
		"trial": "exp-sent",
		"word": "amanhã.",
		"trial_type": "html-keyboard-response",
		"trial_index": 336,
		"time_elapsed": 870806,
		"internal_node_id": "0.0-3.0-1.273"
	},
	{
		"rt": null,
		"stimulus": "<span style= \"font-size:30px; font-family: monospace\">+</span>",
		"response": null,
		"trial_part": "fixation",
		"trial_type": "html-keyboard-response",
		"trial_index": 337,
		"time_elapsed": 872069,
		"internal_node_id": "0.0-3.0-0.274-0.274"
	},
	{
		"rt": 439,
		"stimulus": "<span style=\"font-size:30px; font-family: monospace\">Ele</span>",
		"response": " ",
		"trial": "exp-sent",
		"word": "Ele",
		"trial_type": "html-keyboard-response",
		"trial_index": 338,
		"time_elapsed": 872758,
		"internal_node_id": "0.0-3.0-1.274"
	},
	{
		"rt": 916,
		"stimulus": "<span style=\"font-size:30px; font-family: monospace\">viu</span>",
		"response": " ",
		"trial": "exp-sent",
		"word": "viu",
		"trial_type": "html-keyboard-response",
		"trial_index": 339,
		"time_elapsed": 873926,
		"internal_node_id": "0.0-3.0-1.275"
	},
	{
		"rt": 1045,
