[
	{
		"view_history": [
			{
				"page_index": 0,
				"viewing_time": 3157
			}
		],
		"rt": 3157,
		"trial_type": "instructions",
		"trial_index": 0,
		"time_elapsed": 3158,
		"internal_node_id": "0.0-0.0"
	},
	{
		"rt": 4910,
		"response": {
			"tcle": "Concordo voluntariamente em participar da pesquisa conforme texto acima."
		},
		"question_order": [
			0
		],
		"trial_type": "survey-multi-choice",
		"trial_index": 1,
		"time_elapsed": 8270,
		"internal_node_id": "0.0-1.0"
	},
	{
		"rt": 7786,
		"response": {
			"email": "65OXP"
		},
		"trial_type": "survey-text",
		"trial_index": 2,
		"time_elapsed": 17118,
		"internal_node_id": "0.0-2.0"
	}
]