"view_history","rt","trial_type","trial_index","time_elapsed","internal_node_id","stimulus","response","trial_part","word","question","answer","trial","accuracy"
"[{""page_index"":0,""viewing_time"":15806},{""page_index"":1,""viewing_time"":3960}]","19766","instructions","0","19764","0.0-0.0","","","","","","","",""
"","null","html-keyboard-response","1","20890","0.0-1.0-0.0-0.0","<span style= ""font-size:30px; font-family: monospace"">+</span>","null","fixation","","","","",""
"","10352","audio-keyboard-response","2","31525","0.0-1.0-1.0","../audio/prac-question-1-1.mp3"," ","","O","","","",""
"","4128","audio-keyboard-response","3","35940","0.0-1.0-1.1","../audio/prac-question-1-2.mp3"," ","","dia","","","",""
"","1880","audio-keyboard-response","4","38100","0.0-1.0-1.2","../audio/prac-question-1-3.mp3"," ","","estará","","","",""
"","1261","audio-keyboard-response","5","39636","0.0-1.0-1.3","../audio/prac-question-1-4.mp3"," ","","cheio","","","",""
"","1091","audio-keyboard-response","6","40996","0.0-1.0-1.4","../audio/prac-question-1-5.mp3"," ","","de","","","",""
"","1480","audio-keyboard-response","7","42772","0.0-1.0-1.5","../audio/prac-question-1-6.mp3"," ","","nuvens","","","",""
"","979","audio-keyboard-response","8","44020","0.0-1.0-1.6","../audio/prac-question-1-7.mp3"," ","","hoje.","","","",""
"","null","html-keyboard-response","9","45290","0.0-1.0-0.7-0.7","<span style= ""font-size:30px; font-family: monospace"">+</span>","null","fixation","","","","",""
"","680","audio-keyboard-response","10","46244","0.0-1.0-1.7","../audio/prac-question-2-1.mp3"," ","","A","","","",""
"","1120","audio-keyboard-response","11","47636","0.0-1.0-1.8","../audio/prac-question-2-2.mp3"," ","","caneca","","","",""
"","1160","audio-keyboard-response","12","49076","0.0-1.0-1.9","../audio/prac-question-2-3.mp3"," ","","colorida","","","",""
"","909","audio-keyboard-response","13","50260","0.0-1.0-1.10","../audio/prac-question-2-4.mp3"," ","","caiu","","","",""
"","720","audio-keyboard-response","14","51252","0.0-1.0-1.11","../audio/prac-question-2-5.mp3"," ","","da","","","",""
"","1592","audio-keyboard-response","15","53124","0.0-1.0-1.12","../audio/prac-question-2-6.mp3"," ","","mesa","","","",""
"","1160","audio-keyboard-response","16","54580","0.0-1.0-1.13","../audio/prac-question-2-7.mp3"," ","","de","","","",""
"","1211","audio-keyboard-response","17","56068","0.0-1.0-1.14","../audio/prac-question-2-8.mp3"," ","","jantar.","","","",""
"","23402","html-keyboard-response","18","79732","0.0-1.0-2.14-0.14","<span style=""font-size:25px; font-family: monospace"">A caneca era colorida?</span>","s","","","A caneca era colorida?","null","prac-sent","false"
"[{""page_index"":0,""viewing_time"":8476}]","8476","instructions","19","88717","0.0-2.0","","","","","","","",""
"","null","html-keyboard-response","20","89819","0.0-3.0-0.0-0.0","<span style= ""font-size:30px; font-family: monospace"">+</span>","null","fixation","","","","",""
"","2901","audio-keyboard-response","21","92981","0.0-3.0-1.0","../audio/59-1-fem.mp3"," ","","O","","","",""
"","1779","audio-keyboard-response","22","95044","0.0-3.0-1.1","../audio/59-2-fem.mp3"," ","","carteiro","","","",""
"","1240","audio-keyboard-response","23","96564","0.0-3.0-1.2","../audio/59-3-fem.mp3"," ","","fez","","","",""
"","1072","audio-keyboard-response","24","97908","0.0-3.0-1.3","../audio/59-4-fem.mp3"," ","","uma","","","",""
"","709","audio-keyboard-response","25","98901","0.0-3.0-1.4","../audio/59-5-fem.mp3"," ","","tentativa","","","",""
"","949","audio-keyboard-response","26","100132","0.0-3.0-1.5","../audio/59-6-fem.mp3"," ","","de","","","",""
"","1749","audio-keyboard-response","27","102164","0.0-3.0-1.6","../audio/59-7-fem.mp3"," ","","entrega.","","","",""
"","null","html-keyboard-response","28","103430","0.0-3.0-0.7-0.7","<span style= ""font-size:30px; font-family: monospace"">+</span>","null","fixation","","","","",""
"","1080","audio-keyboard-response","29","104772","0.0-3.0-1.7","../audio/56-1-fem.mp3"," ","","A","","","",""
"","891","audio-keyboard-response","30","105941","0.0-3.0-1.8","../audio/56-2-fem.mp3"," ","","moça","","","",""
"","880","audio-keyboard-response","31","107108","0.0-3.0-1.9","../audio/56-3-fem.mp3"," ","","foi","","","",""
"","691","audio-keyboard-response","32","108068","0.0-3.0-1.10","../audio/56-4-fem.mp3"," ","","à","","","",""
"","859","audio-keyboard-response","33","109204","0.0-3.0-1.11","../audio/56-5-fem.mp3"," ","","agência","","","",""
"","949","audio-keyboard-response","34","110436","0.0-3.0-1.12","../audio/56-6-fem.mp3"," ","","bancária","","","",""
"","1832","audio-keyboard-response","35","112548","0.0-3.0-1.13","../audio/56-7-fem.mp3"," ","","ontem","","","",""
"","1059","audio-keyboard-response","36","113876","0.0-3.0-1.14","../audio/56-8-fem.mp3"," ","","de","","","",""
"","1061","audio-keyboard-response","37","115221","0.0-3.0-1.15","../audio/56-9-fem.mp3"," ","","tarde.","","","",""
"","null","html-keyboard-response","38","116510","0.0-3.0-0.16-0.16","<span style= ""font-size:30px; font-family: monospace"">+</span>","null","fixation","","","","",""
"","109","audio-keyboard-response","39","116900","0.0-3.0-1.16","../audio/58-1-fem.mp3"," ","","Havia","","","",""
"","1549","audio-keyboard-response","40","118740","0.0-3.0-1.17","../audio/58-2-fem.mp3"," ","","apenas","","","",""
"","1309","audio-keyboard-response","41","120324","0.0-3.0-1.18","../audio/58-3-fem.mp3"," ","","um","","","",""
"","1240","audio-keyboard-response","42","121844","0.0-3.0-1.19","../audio/58-4-fem.mp3"," ","","último","","","",""
"","1381","audio-keyboard-response","43","123508","0.0-3.0-1.20","../audio/58-5-fem.mp3"," ","","herdeiro","","","",""
"","1109","audio-keyboard-response","44","124885","0.0-3.0-1.21","../audio/58-6-fem.mp3"," ","","do","","","",""
"","1099","audio-keyboard-response","45","126276","0.0-3.0-1.22","../audio/58-7-fem.mp3"," ","","dinheiro.","","","",""
"","null","html-keyboard-response","46","127560","0.0-3.0-0.23-0.23","<span style= ""font-size:30px; font-family: monospace"">+</span>","null","fixation","","","","",""
"","891","audio-keyboard-response","47","128740","0.0-3.0-1.23","../audio/57-1-fem.mp3"," ","","O","","","",""
"","1400","audio-keyboard-response","48","130421","0.0-3.0-1.24","../audio/57-2-fem.mp3"," ","","capitão","","","",""
"","1389","audio-keyboard-response","49","132100","0.0-3.0-1.25","../audio/57-3-fem.mp3"," ","","deu","","","",""
"","1379","audio-keyboard-response","50","133764","0.0-3.0-1.26","../audio/57-4-fem.mp3"," ","","uma","","","",""
"","1621","audio-keyboard-response","51","135652","0.0-3.0-1.27","../audio/57-5-fem.mp3"," ","","instrução","","","",""
"","880","audio-keyboard-response","52","136820","0.0-3.0-1.28","../audio/57-6-fem.mp3"," ","","para","","","",""
"","1088","audio-keyboard-response","53","138196","0.0-3.0-1.29","../audio/57-7-fem.mp3"," ","","as","","","",""
"","1152","audio-keyboard-response","54","139621","0.0-3.0-1.30","../audio/57-8-fem.mp3"," ","","pessoas.","","","",""
"","null","html-keyboard-response","55","140902","0.0-3.0-0.31-0.31","<span style= ""font-size:30px; font-family: monospace"">+</span>","null","fixation","","","","",""
"","1371","audio-keyboard-response","56","142550","0.0-3.0-1.31","../audio/60-1-fem.mp3"," ","","Ondas","","","",""
"","939","audio-keyboard-response","57","143766","0.0-3.0-1.32","../audio/60-2-fem.mp3"," ","","têm","","","",""
"","1091","audio-keyboard-response","58","145142","0.0-3.0-1.33","../audio/60-3-fem.mp3"," ","","um","","","",""
"","1400","audio-keyboard-response","59","146822","0.0-3.0-1.34","../audio/60-4-fem.mp3"," ","","impacto","","","",""
"","2309","audio-keyboard-response","60","149414","0.0-3.0-1.35","../audio/60-5-fem.mp3"," ","","destrutivo","","","",""
"","1341","audio-keyboard-response","61","151030","0.0-3.0-1.36","../audio/60-6-fem.mp3"," ","","no","","","",""
"","1731","audio-keyboard-response","62","153046","0.0-3.0-1.37","../audio/60-7-fem.mp3"," ","","litoral.","","","",""
"","27478","html-keyboard-response","63","180790","0.0-3.0-2.37-0.37","<span style=""font-size:25px; font-family: monospace"">Ondas têm um impacto destrutivo?</span>","n","","","Ondas têm um impacto destrutivo?","null","exp-sent","false"
"","null","html-keyboard-response","64","182311","0.0-3.0-0.38-0.38","<span style= ""font-size:30px; font-family: monospace"">+</span>","null","fixation","","","","",""
"","1440","audio-keyboard-response","65","184022","0.0-3.0-1.38","../audio/72-1-fem.mp3"," ","","A","","","",""
"","2392","audio-keyboard-response","66","186694","0.0-3.0-1.39","../audio/72-2-fem.mp3"," ","","vencedora","","","",""
"","1728","audio-keyboard-response","67","188710","0.0-3.0-1.40","../audio/72-3-fem.mp3"," ","","recebeu","","","",""
"","5248","audio-keyboard-response","68","194230","0.0-3.0-1.41","../audio/72-4-fem.mp3"," ","","um","","","",""
"","3000","audio-keyboard-response","69","197494","0.0-3.0-1.42","../audio/72-5-fem.mp3"," ","","prêmio","","","",""
"","1680","audio-keyboard-response","70","199446","0.0-3.0-1.43","../audio/72-6-fem.mp3"," ","","em","","","",""
"","2371","audio-keyboard-response","71","202081","0.0-3.0-1.44","../audio/72-7-fem.mp3"," ","","dinheiro.","","","",""
"","null","html-keyboard-response","72","203350","0.0-3.0-0.45-0.45","<span style= ""font-size:30px; font-family: monospace"">+</span>","null","fixation","","","","",""
"","1141","audio-keyboard-response","73","204770","0.0-3.0-1.45","../audio/73-1-fem.mp3"," ","","O","","","",""
"","1749","audio-keyboard-response","74","206802","0.0-3.0-1.46","../audio/73-2-fem.mp3"," ","","cliente","","","",""
"","1571","audio-keyboard-response","75","208658","0.0-3.0-1.47","../audio/73-3-fem.mp3"," ","","era","","","",""
"","1520","audio-keyboard-response","76","210466","0.0-3.0-1.48","../audio/73-4-fem.mp3"," ","","um","","","",""
"","1232","audio-keyboard-response","77","211969","0.0-3.0-1.49","../audio/73-5-fem.mp3"," ","","homem","","","",""
"","1579","audio-keyboard-response","78","213825","0.0-3.0-1.50","../audio/73-6-fem.mp3"," ","","muito","","","",""
"","2360","audio-keyboard-response","79","216466","0.0-3.0-1.51","../audio/73-7-fem.mp3"," ","","educado.","","","",""
"","null","html-keyboard-response","80","217728","0.0-3.0-0.52-0.52","<span style= ""font-size:30px; font-family: monospace"">+</span>","null","fixation","","","","",""
"","3251","audio-keyboard-response","81","221249","0.0-3.0-1.52","../audio/74-1-masc.mp3"," ","","Este","","","",""
"","1571","audio-keyboard-response","82","223089","0.0-3.0-1.53","../audio/74-2-masc.mp3"," ","","emprego","","","",""
"","1059","audio-keyboard-response","83","224433","0.0-3.0-1.54","../audio/74-3-masc.mp3"," ","","é","","","",""
"","1029","audio-keyboard-response","84","225745","0.0-3.0-1.55","../audio/74-4-masc.mp3"," ","","muito","","","",""
"","992","audio-keyboard-response","85","227009","0.0-3.0-1.56","../audio/74-5-masc.mp3"," ","","cansativo","","","",""
"","789","audio-keyboard-response","86","228081","0.0-3.0-1.57","../audio/74-6-masc.mp3"," ","","a","","","",""
"","971","audio-keyboard-response","87","229329","0.0-3.0-1.58","../audio/74-7-masc.mp3"," ","","longo","","","",""
"","840","audio-keyboard-response","88","230449","0.0-3.0-1.59","../audio/74-8-masc.mp3"," ","","prazo.","","","",""
"","null","html-keyboard-response","89","231727","0.0-3.0-0.60-0.60","<span style= ""font-size:30px; font-family: monospace"">+</span>","null","fixation","","","","",""
"","1440","audio-keyboard-response","90","233457","0.0-3.0-1.60","../audio/71-1-fem.mp3"," ","","Minhas","","","",""
"","1019","audio-keyboard-response","91","234753","0.0-3.0-1.61","../audio/71-2-fem.mp3"," ","","comidas","","","",""
"","739","audio-keyboard-response","92","235778","0.0-3.0-1.62","../audio/71-3-fem.mp3"," ","","favoritas","","","",""
"","1000","audio-keyboard-response","93","237058","0.0-3.0-1.63","../audio/71-4-fem.mp3"," ","","são","","","",""
"","989","audio-keyboard-response","94","238321","0.0-3.0-1.64","../audio/71-5-fem.mp3"," ","","morango","","","",""
"","709","audio-keyboard-response","95","239313","0.0-3.0-1.65","../audio/71-6-fem.mp3"," ","","e","","","",""
"","941","audio-keyboard-response","96","240529","0.0-3.0-1.66","../audio/71-7-fem.mp3"," ","","uva.","","","",""
"","null","html-keyboard-response","97","241797","0.0-3.0-0.67-0.67","<span style= ""font-size:30px; font-family: monospace"">+</span>","null","fixation","","","","",""
"","1011","audio-keyboard-response","98","243089","0.0-3.0-1.67","../audio/75-1-fem.mp3"," ","","Só","","","",""
"","869","audio-keyboard-response","99","244241","0.0-3.0-1.68","../audio/75-2-fem.mp3"," ","","existe","","","",""
"","720","audio-keyboard-response","100","245233","0.0-3.0-1.69","../audio/75-3-fem.mp3"," ","","uma","","","",""
"","821","audio-keyboard-response","101","246337","0.0-3.0-1.70","../audio/75-4-fem.mp3"," ","","pessoa","","","",""
"","720","audio-keyboard-response","102","247329","0.0-3.0-1.71","../audio/75-5-fem.mp3"," ","","canhota","","","",""
"","739","audio-keyboard-response","103","248353","0.0-3.0-1.72","../audio/75-6-fem.mp3"," ","","nesta","","","",""
"","1021","audio-keyboard-response","104","249649","0.0-3.0-1.73","../audio/75-7-fem.mp3"," ","","cidade.","","","",""
"","7572","html-keyboard-response","105","257490","0.0-3.0-2.73-0.73","<span style=""font-size:25px; font-family: monospace"">Só existe uma pessoa canhota na cidade?</span>","s","","","Só existe uma pessoa canhota na cidade?","null","exp-sent","false"
"","null","html-keyboard-response","106","259017","0.0-3.0-0.74-0.74","<span style= ""font-size:30px; font-family: monospace"">+</span>","null","fixation","","","","",""
"","1091","audio-keyboard-response","107","260401","0.0-3.0-1.74","../audio/29-1-fem.mp3"," ","","Hoje","","","",""
"","1184","audio-keyboard-response","108","261858","0.0-3.0-1.75","../audio/29-2-fem.mp3"," ","","vamos","","","",""
"","821","audio-keyboard-response","109","262965","0.0-3.0-1.76","../audio/29-3-fem.mp3"," ","","fazer","","","",""
"","971","audio-keyboard-response","110","264213","0.0-3.0-1.77","../audio/29-4-fem.mp3"," ","","uma","","","",""
"","880","audio-keyboard-response","111","265381","0.0-3.0-1.78","../audio/29-5-fem.mp3"," ","","atividade","","","",""
"","1539","audio-keyboard-response","112","267237","0.0-3.0-1.79","../audio/29-6-fem.mp3"," ","","sobre","","","",""
"","1291","audio-keyboard-response","113","268805","0.0-3.0-1.80","../audio/29-7-fem.mp3"," ","","fauna","","","",""
"","1160","audio-keyboard-response","114","270245","0.0-3.0-1.81","../audio/29-8-fem.mp3"," ","","marinha.","","","",""
"","null","html-keyboard-response","115","271531","0.0-3.0-0.82-0.82","<span style= ""font-size:30px; font-family: monospace"">+</span>","null","fixation","","","","",""
"","1411","audio-keyboard-response","116","273221","0.0-3.0-1.82","../audio/26-1-fem.mp3"," ","","Amanhã","","","",""
"","1099","audio-keyboard-response","117","274597","0.0-3.0-1.83","../audio/26-2-fem.mp3"," ","","temos","","","",""
"","1149","audio-keyboard-response","118","276069","0.0-3.0-1.84","../audio/26-3-fem.mp3"," ","","festa","","","",""
"","869","audio-keyboard-response","119","277205","0.0-3.0-1.85","../audio/26-4-fem.mp3"," ","","na","","","",""
"","1131","audio-keyboard-response","120","278613","0.0-3.0-1.86","../audio/26-5-fem.mp3"," ","","piscina","","","",""
"","840","audio-keyboard-response","121","279733","0.0-3.0-1.87","../audio/26-6-fem.mp3"," ","","o","","","",""
"","848","audio-keyboard-response","122","280869","0.0-3.0-1.88","../audio/26-7-fem.mp3"," ","","dia","","","",""
"","819","audio-keyboard-response","123","281957","0.0-3.0-1.89","../audio/26-8-fem.mp3"," ","","todo.","","","",""
"","null","html-keyboard-response","124","283241","0.0-3.0-0.90-0.90","<span style= ""font-size:30px; font-family: monospace"">+</span>","null","fixation","","","","",""
"","1339","audio-keyboard-response","125","284869","0.0-3.0-1.90","../audio/28-1-masc.mp3"," ","","O","","","",""
"","1029","audio-keyboard-response","126","286165","0.0-3.0-1.91","../audio/28-2-masc.mp3"," ","","time","","","",""
"","931","audio-keyboard-response","127","287365","0.0-3.0-1.92","../audio/28-3-masc.mp3"," ","","quer","","","",""
"","851","audio-keyboard-response","128","288485","0.0-3.0-1.93","../audio/28-4-masc.mp3"," ","","a","","","",""
"","1120","audio-keyboard-response","129","289877","0.0-3.0-1.94","../audio/28-5-masc.mp3"," ","","vitória","","","",""
"","861","audio-keyboard-response","130","291013","0.0-3.0-1.95","../audio/28-6-masc.mp3"," ","","no","","","",""
"","1069","audio-keyboard-response","131","292357","0.0-3.0-1.96","../audio/28-7-masc.mp3"," ","","jogo","","","",""
"","832","audio-keyboard-response","132","293461","0.0-3.0-1.97","../audio/28-8-masc.mp3"," ","","de","","","",""
"","800","audio-keyboard-response","133","294549","0.0-3.0-1.98","../audio/28-9-masc.mp3"," ","","vôlei.","","","",""
"","null","html-keyboard-response","134","295821","0.0-3.0-0.99-0.99","<span style= ""font-size:30px; font-family: monospace"">+</span>","null","fixation","","","","",""
"","592","audio-keyboard-response","135","296693","0.0-3.0-1.99","../audio/27-1-fem.mp3"," ","","O","","","",""
"","909","audio-keyboard-response","136","297877","0.0-3.0-1.100","../audio/27-2-fem.mp3"," ","","dinheiro","","","",""
"","1011","audio-keyboard-response","137","299157","0.0-3.0-1.101","../audio/27-3-fem.mp3"," ","","chegou","","","",""
"","741","audio-keyboard-response","138","300165","0.0-3.0-1.102","../audio/27-4-fem.mp3"," ","","à","","","",""
"","781","audio-keyboard-response","139","301221","0.0-3.0-1.103","../audio/27-5-fem.mp3"," ","","elite","","","",""
"","821","audio-keyboard-response","140","302325","0.0-3.0-1.104","../audio/27-6-fem.mp3"," ","","deste","","","",""
"","891","audio-keyboard-response","141","303493","0.0-3.0-1.105","../audio/27-7-fem.mp3"," ","","país.","","","",""
"","null","html-keyboard-response","142","304781","0.0-3.0-0.106-0.106","<span style= ""font-size:30px; font-family: monospace"">+</span>","null","fixation","","","","",""
"","1120","audio-keyboard-response","143","306181","0.0-3.0-1.106","../audio/30-1-masc.mp3"," ","","O","","","",""
"","1320","audio-keyboard-response","144","307781","0.0-3.0-1.107","../audio/30-2-masc.mp3"," ","","funcionário","","","",""
"","1149","audio-keyboard-response","145","309205","0.0-3.0-1.108","../audio/30-3-masc.mp3"," ","","entregou","","","",""
"","720","audio-keyboard-response","146","310197","0.0-3.0-1.109","../audio/30-4-masc.mp3"," ","","o","","","",""
"","1160","audio-keyboard-response","147","311637","0.0-3.0-1.110","../audio/30-5-masc.mp3"," ","","restante","","","",""
"","861","audio-keyboard-response","148","312773","0.0-3.0-1.111","../audio/30-6-masc.mp3"," ","","do","","","",""
"","891","audio-keyboard-response","149","313941","0.0-3.0-1.112","../audio/30-7-masc.mp3"," ","","dinheiro.","","","",""
"","6252","html-keyboard-response","150","320453","0.0-3.0-2.112-0.112","<span style=""font-size:25px; font-family: monospace"">O funcionário entregou o contrato?</span>","n","","","O funcionário entregou o contrato?","null","exp-sent","false"
"","null","html-keyboard-response","151","321971","0.0-3.0-0.113-0.113","<span style= ""font-size:30px; font-family: monospace"">+</span>","null","fixation","","","","",""
"","1059","audio-keyboard-response","152","323317","0.0-3.0-1.113","../audio/08-1-fem.mp3"," ","","A","","","",""
"","2789","audio-keyboard-response","153","326389","0.0-3.0-1.114","../audio/08-2-fem.mp3"," ","","receita","","","",""
"","1320","audio-keyboard-response","154","327989","0.0-3.0-1.115","../audio/08-3-fem.mp3"," ","","pede","","","",""
"","760","audio-keyboard-response","155","329029","0.0-3.0-1.116","../audio/08-4-fem.mp3"," ","","um","","","",""
"","1408","audio-keyboard-response","156","330709","0.0-3.0-1.117","../audio/08-5-fem.mp3"," ","","litro","","","",""
"","3272","audio-keyboard-response","157","334261","0.0-3.0-1.118","../audio/08-6-fem.mp3"," ","","de","","","",""
"","2472","audio-keyboard-response","158","337012","0.0-3.0-1.119","../audio/08-7-fem.mp3"," ","","leite","","","",""
"","2400","audio-keyboard-response","159","339701","0.0-3.0-1.120","../audio/08-8-fem.mp3"," ","","integral.","","","",""
"","null","html-keyboard-response","160","340972","0.0-3.0-0.121-0.121","<span style= ""font-size:30px; font-family: monospace"">+</span>","null","fixation","","","","",""
"","2099","audio-keyboard-response","161","343349","0.0-3.0-1.121","../audio/09-1-masc.mp3"," ","","O","","","",""
"","2192","audio-keyboard-response","162","345813","0.0-3.0-1.122","../audio/09-2-masc.mp3"," ","","rapaz","","","",""
"","1488","audio-keyboard-response","163","347589","0.0-3.0-1.123","../audio/09-3-masc.mp3"," ","","limpou","","","",""
"","1592","audio-keyboard-response","164","349461","0.0-3.0-1.124","../audio/09-4-masc.mp3"," ","","o","","","",""
"","1419","audio-keyboard-response","165","351156","0.0-3.0-1.125","../audio/09-5-masc.mp3"," ","","terreno","","","",""
"","1131","audio-keyboard-response","166","352565","0.0-3.0-1.126","../audio/09-6-masc.mp3"," ","","com","","","",""
"","901","audio-keyboard-response","167","353732","0.0-3.0-1.127","../audio/09-7-masc.mp3"," ","","uma","","","",""
"","909","audio-keyboard-response","168","354916","0.0-3.0-1.128","../audio/09-8-masc.mp3"," ","","pá.","","","",""
"","null","html-keyboard-response","169","356180","0.0-3.0-0.129-0.129","<span style= ""font-size:30px; font-family: monospace"">+</span>","null","fixation","","","","",""
"","1179","audio-keyboard-response","170","357637","0.0-3.0-1.129","../audio/07-1-fem.mp3"," ","","Meu","","","",""
"","811","audio-keyboard-response","171","358725","0.0-3.0-1.130","../audio/07-2-fem.mp3"," ","","filho","","","",""
"","851","audio-keyboard-response","172","359845","0.0-3.0-1.131","../audio/07-3-fem.mp3"," ","","é","","","",""
"","851","audio-keyboard-response","173","360981","0.0-3.0-1.132","../audio/07-4-fem.mp3"," ","","muito","","","",""
"","1011","audio-keyboard-response","174","362277","0.0-3.0-1.133","../audio/07-5-fem.mp3"," ","","responsável","","","",""
"","1301","audio-keyboard-response","175","363845","0.0-3.0-1.134","../audio/07-6-fem.mp3"," ","","nos","","","",""
"","1280","audio-keyboard-response","176","365397","0.0-3.0-1.135","../audio/07-7-fem.mp3"," ","","estudos.","","","",""
"","null","html-keyboard-response","177","366660","0.0-3.0-0.136-0.136","<span style= ""font-size:30px; font-family: monospace"">+</span>","null","fixation","","","","",""
"","1469","audio-keyboard-response","178","368405","0.0-3.0-1.136","../audio/06-1-masc.mp3"," ","","Ouvimos","","","",""
"","1011","audio-keyboard-response","179","369701","0.0-3.0-1.137","../audio/06-2-masc.mp3"," ","","a","","","",""
"","1269","audio-keyboard-response","180","371237","0.0-3.0-1.138","../audio/06-3-masc.mp3"," ","","fala","","","",""
"","949","audio-keyboard-response","181","372469","0.0-3.0-1.139","../audio/06-4-masc.mp3"," ","","do","","","",""
"","920","audio-keyboard-response","182","373652","0.0-3.0-1.140","../audio/06-5-masc.mp3"," ","","profeta","","","",""
"","971","audio-keyboard-response","183","374901","0.0-3.0-1.141","../audio/06-6-masc.mp3"," ","","no","","","",""
"","1339","audio-keyboard-response","184","376516","0.0-3.0-1.142","../audio/06-7-masc.mp3"," ","","púlpito","","","",""
"","1051","audio-keyboard-response","185","377844","0.0-3.0-1.143","../audio/06-8-masc.mp3"," ","","da","","","",""
"","1261","audio-keyboard-response","186","379381","0.0-3.0-1.144","../audio/06-9-masc.mp3"," ","","igreja.","","","",""
"","null","html-keyboard-response","187","380660","0.0-3.0-0.145-0.145","<span style= ""font-size:30px; font-family: monospace"">+</span>","null","fixation","","","","",""
"","1149","audio-keyboard-response","188","382085","0.0-3.0-1.145","../audio/10-1-fem.mp3"," ","","O","","","",""
"","1131","audio-keyboard-response","189","383492","0.0-3.0-1.146","../audio/10-2-fem.mp3"," ","","pássaro","","","",""
"","909","audio-keyboard-response","190","384676","0.0-3.0-1.147","../audio/10-3-fem.mp3"," ","","azul","","","",""
"","1429","audio-keyboard-response","191","386388","0.0-3.0-1.148","../audio/10-4-fem.mp3"," ","","estava","","","",""
"","1139","audio-keyboard-response","192","387796","0.0-3.0-1.149","../audio/10-5-fem.mp3"," ","","vivo","","","",""
"","1072","audio-keyboard-response","193","389140","0.0-3.0-1.150","../audio/10-6-fem.mp3"," ","","e","","","",""
"","912","audio-keyboard-response","194","390340","0.0-3.0-1.151","../audio/10-7-fem.mp3"," ","","em","","","",""
"","1232","audio-keyboard-response","195","391860","0.0-3.0-1.152","../audio/10-8-fem.mp3"," ","","segurança.","","","",""
"","5842","html-keyboard-response","196","397972","0.0-3.0-2.152-0.152","<span style=""font-size:25px; font-family: monospace"">O pássaro vermelho estava em segurança?</span>","s","","","O pássaro vermelho estava em segurança?","null","exp-sent","false"
"","null","html-keyboard-response","197","399490","0.0-3.0-0.153-0.153","<span style= ""font-size:30px; font-family: monospace"">+</span>","null","fixation","","","","",""
"","1219","audio-keyboard-response","198","400996","0.0-3.0-1.153","../audio/13-1-fem.mp3"," ","","Para","","","",""
"","1832","audio-keyboard-response","199","403092","0.0-3.0-1.154","../audio/13-2-fem.mp3"," ","","mim","","","",""
"","1219","audio-keyboard-response","200","404596","0.0-3.0-1.155","../audio/13-3-fem.mp3"," ","","é","","","",""
"","1429","audio-keyboard-response","201","406308","0.0-3.0-1.156","../audio/13-4-fem.mp3"," ","","muito","","","",""
"","1509","audio-keyboard-response","202","408084","0.0-3.0-1.157","../audio/13-5-fem.mp3"," ","","difícil","","","",""
"","1269","audio-keyboard-response","203","409636","0.0-3.0-1.158","../audio/13-6-fem.mp3"," ","","acordar","","","",""
"","1451","audio-keyboard-response","204","411364","0.0-3.0-1.159","../audio/13-7-fem.mp3"," ","","cedo.","","","",""
"","null","html-keyboard-response","205","412640","0.0-3.0-0.160-0.160","<span style= ""font-size:30px; font-family: monospace"">+</span>","null","fixation","","","","",""
"","611","audio-keyboard-response","206","413524","0.0-3.0-1.160","../audio/11-1-fem.mp3"," ","","Elas","","","",""
"","1379","audio-keyboard-response","207","415188","0.0-3.0-1.161","../audio/11-2-fem.mp3"," ","","gostam","","","",""
"","1029","audio-keyboard-response","208","416484","0.0-3.0-1.162","../audio/11-3-fem.mp3"," ","","muito","","","",""
"","800","audio-keyboard-response","209","417556","0.0-3.0-1.163","../audio/11-4-fem.mp3"," ","","de","","","",""
"","920","audio-keyboard-response","210","418756","0.0-3.0-1.164","../audio/11-5-fem.mp3"," ","","aritmética","","","",""
"","1269","audio-keyboard-response","211","420308","0.0-3.0-1.165","../audio/11-6-fem.mp3"," ","","e","","","",""
"","1069","audio-keyboard-response","212","421668","0.0-3.0-1.166","../audio/11-7-fem.mp3"," ","","de","","","",""
"","1189","audio-keyboard-response","213","423124","0.0-3.0-1.167","../audio/11-8-fem.mp3"," ","","leitura.","","","",""
"","null","html-keyboard-response","214","424399","0.0-3.0-0.168-0.168","<span style= ""font-size:30px; font-family: monospace"">+</span>","null","fixation","","","","",""
"","989","audio-keyboard-response","215","425668","0.0-3.0-1.168","../audio/12-1-masc.mp3"," ","","O","","","",""
"","941","audio-keyboard-response","216","426884","0.0-3.0-1.169","../audio/12-2-masc.mp3"," ","","dia","","","",""
"","1029","audio-keyboard-response","217","428196","0.0-3.0-1.170","../audio/12-3-masc.mp3"," ","","estava","","","",""
"","891","audio-keyboard-response","218","429364","0.0-3.0-1.171","../audio/12-4-masc.mp3"," ","","quente,","","","",""
"","1109","audio-keyboard-response","219","430756","0.0-3.0-1.172","../audio/12-5-masc.mp3"," ","","tranquilo","","","",""
"","891","audio-keyboard-response","220","431924","0.0-3.0-1.173","../audio/12-6-masc.mp3"," ","","e","","","",""
"","880","audio-keyboard-response","221","433076","0.0-3.0-1.174","../audio/12-7-masc.mp3"," ","","ensolarado.","","","",""
"","null","html-keyboard-response","222","434360","0.0-3.0-0.175-0.175","<span style= ""font-size:30px; font-family: monospace"">+</span>","null","fixation","","","","",""
"","789","audio-keyboard-response","223","435428","0.0-3.0-1.175","../audio/14-1-masc.mp3"," ","","O","","","",""
"","952","audio-keyboard-response","224","436660","0.0-3.0-1.176","../audio/14-2-masc.mp3"," ","","cachorro","","","",""
"","669","audio-keyboard-response","225","437604","0.0-3.0-1.177","../audio/14-3-masc.mp3"," ","","é","","","",""
"","901","audio-keyboard-response","226","438804","0.0-3.0-1.178","../audio/14-4-masc.mp3"," ","","muito","","","",""
"","1021","audio-keyboard-response","227","440100","0.0-3.0-1.179","../audio/14-5-masc.mp3"," ","","fiel","","","",""
"","909","audio-keyboard-response","228","441284","0.0-3.0-1.180","../audio/14-6-masc.mp3"," ","","a","","","",""
"","1131","audio-keyboard-response","229","442689","0.0-3.0-1.181","../audio/14-7-masc.mp3"," ","","seus","","","",""
"","1120","audio-keyboard-response","230","444098","0.0-3.0-1.182","../audio/14-8-masc.mp3"," ","","donos.","","","",""
"","null","html-keyboard-response","231","445378","0.0-3.0-0.183-0.183","<span style= ""font-size:30px; font-family: monospace"">+</span>","null","fixation","","","","",""
"","931","audio-keyboard-response","232","446594","0.0-3.0-1.183","../audio/15-1-fem.mp3"," ","","Meu","","","",""
"","981","audio-keyboard-response","233","447842","0.0-3.0-1.184","../audio/15-2-fem.mp3"," ","","primo","","","",""
"","960","audio-keyboard-response","234","449074","0.0-3.0-1.185","../audio/15-3-fem.mp3"," ","","é","","","",""
"","781","audio-keyboard-response","235","450130","0.0-3.0-1.186","../audio/15-4-fem.mp3"," ","","um","","","",""
"","1008","audio-keyboard-response","236","451426","0.0-3.0-1.187","../audio/15-5-fem.mp3"," ","","grande","","","",""
"","979","audio-keyboard-response","237","452674","0.0-3.0-1.188","../audio/15-6-fem.mp3"," ","","vendedor","","","",""
"","1181","audio-keyboard-response","238","454130","0.0-3.0-1.189","../audio/15-7-fem.mp3"," ","","de","","","",""
"","939","audio-keyboard-response","239","455346","0.0-3.0-1.190","../audio/15-8-fem.mp3"," ","","carros.","","","",""
"","4186","html-keyboard-response","240","459794","0.0-3.0-2.190-0.190","<span style=""font-size:25px; font-family: monospace"">O primo é um vendedor de carros?</span>","s","","","O primo é um vendedor de carros?","null","exp-sent","false"
"","null","html-keyboard-response","241","461318","0.0-3.0-0.191-0.191","<span style= ""font-size:30px; font-family: monospace"">+</span>","null","fixation","","","","",""
"","1560","audio-keyboard-response","242","463154","0.0-3.0-1.191","../audio/02-2-fem.mp3"," ","","Havia","","","",""
"","12320","audio-keyboard-response","243","475730","0.0-3.0-1.192","../audio/02-2-fem.mp3"," ","","um","","","",""
"","1429","audio-keyboard-response","244","477442","0.0-3.0-1.193","../audio/02-3-fem.mp3"," ","","cheiro","","","",""
"","709","audio-keyboard-response","245","478434","0.0-3.0-1.194","../audio/02-4-fem.mp3"," ","","de","","","",""
"","3021","audio-keyboard-response","246","481729","0.0-3.0-1.195","../audio/02-5-fem.mp3"," ","","gasolina","","","",""
"","1411","audio-keyboard-response","247","483409","0.0-3.0-1.196","../audio/02-6-fem.mp3"," ","","na","","","",""
"","1251","audio-keyboard-response","248","484930","0.0-3.0-1.197","../audio/02-7-fem.mp3"," ","","garagem.","","","",""
"","null","html-keyboard-response","249","486203","0.0-3.0-0.198-0.198","<span style= ""font-size:30px; font-family: monospace"">+</span>","null","fixation","","","","",""
"","251","audio-keyboard-response","250","486738","0.0-3.0-1.198","../audio/04-1-masc.mp3"," ","","Duzentos","","","",""
"","1200","audio-keyboard-response","251","488226","0.0-3.0-1.199","../audio/04-2-masc.mp3"," ","","carros","","","",""
"","952","audio-keyboard-response","252","489458","0.0-3.0-1.200","../audio/04-3-masc.mp3"," ","","passaram","","","",""
"","832","audio-keyboard-response","253","490578","0.0-3.0-1.201","../audio/04-4-masc.mp3"," ","","pela","","","",""
"","1120","audio-keyboard-response","254","491969","0.0-3.0-1.202","../audio/04-5-masc.mp3"," ","","ponte","","","",""
"","960","audio-keyboard-response","255","493202","0.0-3.0-1.203","../audio/04-6-masc.mp3"," ","","hoje","","","",""
"","1149","audio-keyboard-response","256","494626","0.0-3.0-1.204","../audio/04-7-masc.mp3"," ","","de","","","",""
"","2848","audio-keyboard-response","257","497746","0.0-3.0-1.205","../audio/04-8-masc.mp3"," ","","tarde.","","","",""
"","null","html-keyboard-response","258","499017","0.0-3.0-0.206-0.206","<span style= ""font-size:30px; font-family: monospace"">+</span>","null","fixation","","","","",""
"","789","audio-keyboard-response","259","500082","0.0-3.0-1.206","../audio/01-1-masc.mp3"," ","","O","","","",""
"","899","audio-keyboard-response","260","501266","0.0-3.0-1.207","../audio/01-2-masc.mp3"," ","","menino","","","",""
"","1000","audio-keyboard-response","261","502530","0.0-3.0-1.208","../audio/01-3-masc.mp3"," ","","derrubou","","","",""
"","800","audio-keyboard-response","262","503603","0.0-3.0-1.209","../audio/01-4-masc.mp3"," ","","a","","","",""
"","931","audio-keyboard-response","263","504819","0.0-3.0-1.210","../audio/01-5-masc.mp3"," ","","guitarra","","","",""
"","968","audio-keyboard-response","264","506067","0.0-3.0-1.211","../audio/01-6-masc.mp3"," ","","no","","","",""
"","891","audio-keyboard-response","265","507235","0.0-3.0-1.212","../audio/01-7-masc.mp3"," ","","chão.","","","",""
"","null","html-keyboard-response","266","508499","0.0-3.0-0.213-0.213","<span style= ""font-size:30px; font-family: monospace"">+</span>","null","fixation","","","","",""
"","779","audio-keyboard-response","267","509555","0.0-3.0-1.213","../audio/03-1-masc.mp3"," ","","O","","","",""
"","1040","audio-keyboard-response","268","510867","0.0-3.0-1.214","../audio/03-2-masc.mp3"," ","","coelho","","","",""
"","912","audio-keyboard-response","269","512051","0.0-3.0-1.215","../audio/03-3-masc.mp3"," ","","foi","","","",""
"","1440","audio-keyboard-response","270","513779","0.0-3.0-1.216","../audio/03-4-masc.mp3"," ","","bastante","","","",""
"","1360","audio-keyboard-response","271","515411","0.0-3.0-1.217","../audio/03-5-masc.mp3"," ","","dócil","","","",""
"","859","audio-keyboard-response","272","516547","0.0-3.0-1.218","../audio/03-6-masc.mp3"," ","","com","","","",""
"","1400","audio-keyboard-response","273","518211","0.0-3.0-1.219","../audio/03-7-masc.mp3"," ","","as","","","",""
"","1091","audio-keyboard-response","274","519571","0.0-3.0-1.220","../audio/03-8-masc.mp3"," ","","crianças.","","","",""
"","null","html-keyboard-response","275","520849","0.0-3.0-0.221-0.221","<span style= ""font-size:30px; font-family: monospace"">+</span>","null","fixation","","","","",""
"","1248","audio-keyboard-response","276","522387","0.0-3.0-1.221","../audio/05-1-fem.mp3"," ","","A","","","",""
"","1589","audio-keyboard-response","277","524243","0.0-3.0-1.222","../audio/05-2-fem.mp3"," ","","vendedora","","","",""
"","1051","audio-keyboard-response","278","525571","0.0-3.0-1.223","../audio/05-3-fem.mp3"," ","","ajudou","","","",""
"","1131","audio-keyboard-response","279","526980","0.0-3.0-1.224","../audio/05-4-fem.mp3"," ","","um","","","",""
"","3491","audio-keyboard-response","280","530755","0.0-3.0-1.225","../audio/05-5-fem.mp3"," ","","turista","","","",""
"","1301","audio-keyboard-response","281","532323","0.0-3.0-1.226","../audio/05-6-fem.mp3"," ","","na","","","",""
"","5291","audio-keyboard-response","282","537891","0.0-3.0-1.227","../audio/05-7-fem.mp3"," ","","loja.","","","",""
"","15428","html-keyboard-response","283","553588","0.0-3.0-2.227-0.227","<span style=""font-size:25px; font-family: monospace"">A vendedora ajudou um turista?</span>","n","","","A vendedora ajudou um turista?","null","exp-sent","false"
"","null","html-keyboard-response","284","555119","0.0-3.0-0.228-0.228","<span style= ""font-size:30px; font-family: monospace"">+</span>","null","fixation","","","","",""
"","1419","audio-keyboard-response","285","556835","0.0-3.0-1.228","../audio/18-1-fem.mp3"," ","","O","","","",""
"","1832","audio-keyboard-response","286","558931","0.0-3.0-1.229","../audio/18-2-fem.mp3"," ","","enredo","","","",""
"","1069","audio-keyboard-response","287","560323","0.0-3.0-1.230","../audio/18-3-fem.mp3"," ","","traz","","","",""
"","789","audio-keyboard-response","288","561395","0.0-3.0-1.231","../audio/18-4-fem.mp3"," ","","um","","","",""
"","960","audio-keyboard-response","289","562627","0.0-3.0-1.232","../audio/18-5-fem.mp3"," ","","dragão","","","",""
"","1248","audio-keyboard-response","290","564146","0.0-3.0-1.233","../audio/18-6-fem.mp3"," ","","forte","","","",""
"","848","audio-keyboard-response","291","565266","0.0-3.0-1.234","../audio/18-7-fem.mp3"," ","","e","","","",""
"","1200","audio-keyboard-response","292","566738","0.0-3.0-1.235","../audio/18-8-fem.mp3"," ","","solitário.","","","",""
"","null","html-keyboard-response","293","568007","0.0-3.0-0.236-0.236","<span style= ""font-size:30px; font-family: monospace"">+</span>","null","fixation","","","","",""
"","819","audio-keyboard-response","294","569106","0.0-3.0-1.236","../audio/19-1-fem.mp3"," ","","O","","","",""
"","2221","audio-keyboard-response","295","571602","0.0-3.0-1.237","../audio/19-2-fem.mp3"," ","","menino","","","",""
"","1451","audio-keyboard-response","296","573330","0.0-3.0-1.238","../audio/19-3-fem.mp3"," ","","ganhou","","","",""
"","1149","audio-keyboard-response","297","574754","0.0-3.0-1.239","../audio/19-4-fem.mp3"," ","","uma","","","",""
"","1171","audio-keyboard-response","298","576210","0.0-3.0-1.240","../audio/19-5-fem.mp3"," ","","bala","","","",""
"","1088","audio-keyboard-response","299","577586","0.0-3.0-1.241","../audio/19-6-fem.mp3"," ","","depois","","","",""
"","872","audio-keyboard-response","300","578738","0.0-3.0-1.242","../audio/19-7-fem.mp3"," ","","do","","","",""
"","760","audio-keyboard-response","301","579778","0.0-3.0-1.243","../audio/19-8-fem.mp3"," ","","almoço.","","","",""
"","null","html-keyboard-response","302","581058","0.0-3.0-0.244-0.244","<span style= ""font-size:30px; font-family: monospace"">+</span>","null","fixation","","","","",""
"","109","audio-keyboard-response","303","581442","0.0-3.0-1.244","../audio/17-1-masc.mp3"," ","","Falaram","","","",""
"","1301","audio-keyboard-response","304","583009","0.0-3.0-1.245","../audio/17-2-masc.mp3"," ","","da","","","",""
"","971","audio-keyboard-response","305","584258","0.0-3.0-1.246","../audio/17-3-masc.mp3"," ","","lei","","","",""
"","939","audio-keyboard-response","306","585474","0.0-3.0-1.247","../audio/17-4-masc.mp3"," ","","no","","","",""
"","981","audio-keyboard-response","307","586738","0.0-3.0-1.248","../audio/17-5-masc.mp3"," ","","ministério","","","",""
"","1011","audio-keyboard-response","308","588034","0.0-3.0-1.249","../audio/17-6-masc.mp3"," ","","diversas","","","",""
"","1051","audio-keyboard-response","309","589362","0.0-3.0-1.250","../audio/17-7-masc.mp3"," ","","vezes.","","","",""
"","null","html-keyboard-response","310","590648","0.0-3.0-0.251-0.251","<span style= ""font-size:30px; font-family: monospace"">+</span>","null","fixation","","","","",""
"","709","audio-keyboard-response","311","591634","0.0-3.0-1.251","../audio/16-1-fem.mp3"," ","","Eu","","","",""
"","901","audio-keyboard-response","312","592802","0.0-3.0-1.252","../audio/16-2-fem.mp3"," ","","nunca","","","",""
"","960","audio-keyboard-response","313","594034","0.0-3.0-1.253","../audio/16-3-fem.mp3"," ","","conheci","","","",""
"","971","audio-keyboard-response","314","595282","0.0-3.0-1.254","../audio/16-4-fem.mp3"," ","","um","","","",""
"","1219","audio-keyboard-response","315","596786","0.0-3.0-1.255","../audio/16-5-fem.mp3"," ","","general","","","",""
"","912","audio-keyboard-response","316","597969","0.0-3.0-1.256","../audio/16-6-fem.mp3"," ","","do","","","",""
"","1080","audio-keyboard-response","317","599330","0.0-3.0-1.257","../audio/16-7-fem.mp3"," ","","exército.","","","",""
"","null","html-keyboard-response","318","600607","0.0-3.0-0.258-0.258","<span style= ""font-size:30px; font-family: monospace"">+</span>","null","fixation","","","","",""
"","720","audio-keyboard-response","319","601618","0.0-3.0-1.258","../audio/20-1-fem.mp3"," ","","O","","","",""
"","931","audio-keyboard-response","320","602834","0.0-3.0-1.259","../audio/20-2-fem.mp3"," ","","colega","","","",""
"","912","audio-keyboard-response","321","604018","0.0-3.0-1.260","../audio/20-3-fem.mp3"," ","","parecia","","","",""
"","1152","audio-keyboard-response","322","605458","0.0-3.0-1.261","../audio/20-4-fem.mp3"," ","","muito","","","",""
"","1171","audio-keyboard-response","323","606914","0.0-3.0-1.262","../audio/20-5-fem.mp3"," ","","gripado","","","",""
"","1000","audio-keyboard-response","324","608194","0.0-3.0-1.263","../audio/20-6-fem.mp3"," ","","no","","","",""
"","981","audio-keyboard-response","325","609458","0.0-3.0-1.264","../audio/20-7-fem.mp3"," ","","dia","","","",""
"","1352","audio-keyboard-response","326","611089","0.0-3.0-1.265","../audio/20-8-fem.mp3"," ","","anterior.","","","",""
"","8884","html-keyboard-response","327","620242","0.0-3.0-2.265-0.265","<span style=""font-size:25px; font-family: monospace"">O colega parecia muito gripado?</span>","n","","","O colega parecia muito gripado?","null","exp-sent","false"
"","null","html-keyboard-response","328","621762","0.0-3.0-0.266-0.266","<span style= ""font-size:30px; font-family: monospace"">+</span>","null","fixation","","","","",""
"","1389","audio-keyboard-response","329","623418","0.0-3.0-1.266","../audio/51-1-fem.mp3"," ","","Suco","","","",""
"","1032","audio-keyboard-response","330","624730","0.0-3.0-1.267","../audio/51-2-fem.mp3"," ","","de","","","",""
"","1461","audio-keyboard-response","331","626474","0.0-3.0-1.268","../audio/51-3-fem.mp3"," ","","acerola","","","",""
"","1080","audio-keyboard-response","332","627834","0.0-3.0-1.269","../audio/51-4-fem.mp3"," ","","é","","","",""
"","1299","audio-keyboard-response","333","629418","0.0-3.0-1.270","../audio/51-5-fem.mp3"," ","","azedo","","","",""
"","949","audio-keyboard-response","334","630634","0.0-3.0-1.271","../audio/51-6-fem.mp3"," ","","e","","","",""
"","1069","audio-keyboard-response","335","631978","0.0-3.0-1.272","../audio/51-7-fem.mp3"," ","","até","","","",""
"","2152","audio-keyboard-response","336","634410","0.0-3.0-1.273","../audio/51-8-fem.mp3"," ","","barato.","","","",""
"","null","html-keyboard-response","337","635690","0.0-3.0-0.274-0.274","<span style= ""font-size:30px; font-family: monospace"">+</span>","null","fixation","","","","",""
"","1171","audio-keyboard-response","338","637146","0.0-3.0-1.274","../audio/52-1-masc.mp3"," ","","Às","","","",""
"","981","audio-keyboard-response","339","638410","0.0-3.0-1.275","../audio/52-2-masc.mp3"," ","","vezes","","","",""
"","821","audio-keyboard-response","340","639514","0.0-3.0-1.276","../audio/52-3-masc.mp3"," ","","eu","","","",""
"","819","audio-keyboard-response","341","640618","0.0-3.0-1.277","../audio/52-4-masc.mp3"," ","","tenho","","","",""
"","952","audio-keyboard-response","342","641850","0.0-3.0-1.278","../audio/52-5-masc.mp3"," ","","azia","","","",""
"","912","audio-keyboard-response","343","643050","0.0-3.0-1.279","../audio/52-6-masc.mp3"," ","","depois","","","",""
"","821","audio-keyboard-response","344","644154","0.0-3.0-1.280","../audio/52-7-masc.mp3"," ","","da","","","",""
"","1000","audio-keyboard-response","345","645434","0.0-3.0-1.281","../audio/52-8-masc.mp3"," ","","janta.","","","",""
"","null","html-keyboard-response","346","646710","0.0-3.0-0.282-0.282","<span style= ""font-size:30px; font-family: monospace"">+</span>","null","fixation","","","","",""
"","1051","audio-keyboard-response","347","648042","0.0-3.0-1.282","../audio/54-1-fem.mp3"," ","","Estou","","","",""
"","739","audio-keyboard-response","348","649066","0.0-3.0-1.283","../audio/54-2-fem.mp3"," ","","com","","","",""
"","941","audio-keyboard-response","349","650282","0.0-3.0-1.284","../audio/54-3-fem.mp3"," ","","medo","","","",""
"","771","audio-keyboard-response","350","651322","0.0-3.0-1.285","../audio/54-4-fem.mp3"," ","","da","","","",""
"","768","audio-keyboard-response","351","652378","0.0-3.0-1.286","../audio/54-5-fem.mp3"," ","","atual","","","",""
"","1451","audio-keyboard-response","352","654106","0.0-3.0-1.287","../audio/54-6-fem.mp3"," ","","organização","","","",""
"","731","audio-keyboard-response","353","655114","0.0-3.0-1.288","../audio/54-7-fem.mp3"," ","","do","","","",""
"","1251","audio-keyboard-response","354","656650","0.0-3.0-1.289","../audio/54-8-fem.mp3"," ","","país.","","","",""
"","null","html-keyboard-response","355","657940","0.0-3.0-0.290-0.290","<span style= ""font-size:30px; font-family: monospace"">+</span>","null","fixation","","","","",""
"","851","audio-keyboard-response","356","659066","0.0-3.0-1.290","../audio/53-1-masc.mp3"," ","","O","","","",""
"","1091","audio-keyboard-response","357","660426","0.0-3.0-1.291","../audio/53-2-masc.mp3"," ","","médico","","","",""
"","731","audio-keyboard-response","358","661434","0.0-3.0-1.292","../audio/53-3-masc.mp3"," ","","foi","","","",""
"","891","audio-keyboard-response","359","662602","0.0-3.0-1.293","../audio/53-4-masc.mp3"," ","","bastante","","","",""
"","768","audio-keyboard-response","360","663658","0.0-3.0-1.294","../audio/53-5-masc.mp3"," ","","preciso","","","",""
"","941","audio-keyboard-response","361","664874","0.0-3.0-1.295","../audio/53-6-masc.mp3"," ","","durante","","","",""
"","760","audio-keyboard-response","362","665914","0.0-3.0-1.296","../audio/53-7-masc.mp3"," ","","a","","","",""
"","949","audio-keyboard-response","363","667146","0.0-3.0-1.297","../audio/53-8-masc.mp3"," ","","cirurgia.","","","",""
"","null","html-keyboard-response","364","668420","0.0-3.0-0.298-0.298","<span style= ""font-size:30px; font-family: monospace"">+</span>","null","fixation","","","","",""
"","752","audio-keyboard-response","365","669450","0.0-3.0-1.298","../audio/55-1-fem.mp3"," ","","O","","","",""
"","1048","audio-keyboard-response","366","670778","0.0-3.0-1.299","../audio/55-2-fem.mp3"," ","","insulto","","","",""
"","1520","audio-keyboard-response","367","672570","0.0-3.0-1.300","../audio/55-3-fem.mp3"," ","","recente","","","",""
"","968","audio-keyboard-response","368","673818","0.0-3.0-1.301","../audio/55-4-fem.mp3"," ","","causou","","","",""
"","1021","audio-keyboard-response","369","675114","0.0-3.0-1.302","../audio/55-5-fem.mp3"," ","","indignação","","","",""
"","941","audio-keyboard-response","370","676330","0.0-3.0-1.303","../audio/55-6-fem.mp3"," ","","em","","","",""
"","880","audio-keyboard-response","371","677498","0.0-3.0-1.304","../audio/55-7-fem.mp3"," ","","todos.","","","",""
"","6276","html-keyboard-response","372","684028","0.0-3.0-2.304-0.304","<span style=""font-size:25px; font-family: monospace"">O insulto causou calmaria?</span>","n","","","O insulto causou calmaria?","null","exp-sent","false"
"","null","html-keyboard-response","373","685552","0.0-3.0-0.305-0.305","<span style= ""font-size:30px; font-family: monospace"">+</span>","null","fixation","","","","",""
"","1131","audio-keyboard-response","374","686956","0.0-3.0-1.305","../audio/62-1-fem.mp3"," ","","As","","","",""
"","1581","audio-keyboard-response","375","688811","0.0-3.0-1.306","../audio/62-2-fem.mp3"," ","","artesãs","","","",""
"","1312","audio-keyboard-response","376","690412","0.0-3.0-1.307","../audio/62-3-fem.mp3"," ","","gostam","","","",""
"","2240","audio-keyboard-response","377","692940","0.0-3.0-1.308","../audio/62-4-fem.mp3"," ","","de","","","",""
"","2061","audio-keyboard-response","378","695276","0.0-3.0-1.309","../audio/62-5-fem.mp3"," ","","maquiagem","","","",""
"","931","audio-keyboard-response","379","696492","0.0-3.0-1.310","../audio/62-6-fem.mp3"," ","","e","","","",""
"","1040","audio-keyboard-response","380","697820","0.0-3.0-1.311","../audio/62-7-fem.mp3"," ","","de","","","",""
"","3349","audio-keyboard-response","381","701436","0.0-3.0-1.312","../audio/62-8-fem.mp3"," ","","crochê.","","","",""
"","null","html-keyboard-response","382","702691","0.0-3.0-0.313-0.313","<span style= ""font-size:30px; font-family: monospace"">+</span>","null","fixation","","","","",""
"","1819","audio-keyboard-response","383","704780","0.0-3.0-1.313","../audio/61-1-fem.mp3"," ","","Aquele","","","",""
"","1080","audio-keyboard-response","384","706124","0.0-3.0-1.314","../audio/61-2-fem.mp3"," ","","senhor","","","",""
"","909","audio-keyboard-response","385","707308","0.0-3.0-1.315","../audio/61-3-fem.mp3"," ","","é","","","",""
"","1109","audio-keyboard-response","386","708700","0.0-3.0-1.316","../audio/61-4-fem.mp3"," ","","muito","","","",""
"","1859","audio-keyboard-response","387","710828","0.0-3.0-1.317","../audio/61-5-fem.mp3"," ","","sovina","","","",""
"","1080","audio-keyboard-response","388","712188","0.0-3.0-1.318","../audio/61-6-fem.mp3"," ","","e","","","",""
"","2432","audio-keyboard-response","389","714892","0.0-3.0-1.319","../audio/61-7-fem.mp3"," ","","inflexível.","","","",""
"","null","html-keyboard-response","390","716172","0.0-3.0-0.320-0.320","<span style= ""font-size:30px; font-family: monospace"">+</span>","null","fixation","","","","",""
"","880","audio-keyboard-response","391","717324","0.0-3.0-1.320","../audio/63-1-fem.mp3"," ","","A","","","",""
"","1120","audio-keyboard-response","392","718732","0.0-3.0-1.321","../audio/63-2-fem.mp3"," ","","chuva","","","",""
"","1019","audio-keyboard-response","393","720060","0.0-3.0-1.322","../audio/63-3-fem.mp3"," ","","entrou","","","",""
"","1320","audio-keyboard-response","394","721644","0.0-3.0-1.323","../audio/63-4-fem.mp3"," ","","pela","","","",""
"","1040","audio-keyboard-response","395","722972","0.0-3.0-1.324","../audio/63-5-fem.mp3"," ","","abertura","","","",""
"","1128","audio-keyboard-response","396","724380","0.0-3.0-1.325","../audio/63-6-fem.mp3"," ","","na","","","",""
"","1349","audio-keyboard-response","397","725996","0.0-3.0-1.326","../audio/63-7-fem.mp3"," ","","janela.","","","",""
"","null","html-keyboard-response","398","727261","0.0-3.0-0.327-0.327","<span style= ""font-size:30px; font-family: monospace"">+</span>","null","fixation","","","","",""
"","941","audio-keyboard-response","399","728476","0.0-3.0-1.327","../audio/64-1-masc.mp3"," ","","O","","","",""
"","1029","audio-keyboard-response","400","729788","0.0-3.0-1.328","../audio/64-2-masc.mp3"," ","","dia","","","",""
"","1091","audio-keyboard-response","401","731148","0.0-3.0-1.329","../audio/64-3-masc.mp3"," ","","começou","","","",""
"","869","audio-keyboard-response","402","732300","0.0-3.0-1.330","../audio/64-4-masc.mp3"," ","","com","","","",""
"","1112","audio-keyboard-response","403","733692","0.0-3.0-1.331","../audio/64-5-masc.mp3"," ","","garoa","","","",""
"","931","audio-keyboard-response","404","734908","0.0-3.0-1.332","../audio/64-6-masc.mp3"," ","","gelada","","","",""
"","840","audio-keyboard-response","405","736028","0.0-3.0-1.333","../audio/64-7-masc.mp3"," ","","e","","","",""
"","992","audio-keyboard-response","406","737292","0.0-3.0-1.334","../audio/64-8-masc.mp3"," ","","leve.","","","",""
"","null","html-keyboard-response","407","738572","0.0-3.0-0.335-0.335","<span style= ""font-size:30px; font-family: monospace"">+</span>","null","fixation","","","","",""
"","672","audio-keyboard-response","408","739532","0.0-3.0-1.335","../audio/65-1-fem.mp3"," ","","O","","","",""
"","1091","audio-keyboard-response","409","740908","0.0-3.0-1.336","../audio/65-2-fem.mp3"," ","","fantasma","","","",""
"","920","audio-keyboard-response","410","742108","0.0-3.0-1.337","../audio/65-3-fem.mp3"," ","","veio","","","",""
"","861","audio-keyboard-response","411","743244","0.0-3.0-1.338","../audio/65-4-fem.mp3"," ","","da","","","",""
"","1221","audio-keyboard-response","412","744737","0.0-3.0-1.339","../audio/65-5-fem.mp3"," ","","escuridão","","","",""
"","760","audio-keyboard-response","413","745762","0.0-3.0-1.340","../audio/65-6-fem.mp3"," ","","do","","","",""
"","1059","audio-keyboard-response","414","747105","0.0-3.0-1.341","../audio/65-7-fem.mp3"," ","","armário.","","","",""
"","6091","html-keyboard-response","415","753458","0.0-3.0-2.341-0.341","<span style=""font-size:25px; font-family: monospace"">O fantasma veio da escuridão do armário?</span>","s","","","O fantasma veio da escuridão do armário?","null","exp-sent","false"
"","null","html-keyboard-response","416","754983","0.0-3.0-0.342-0.342","<span style= ""font-size:30px; font-family: monospace"">+</span>","null","fixation","","","","",""
"","920","audio-keyboard-response","417","756178","0.0-3.0-1.342","../audio/68-1-masc.mp3"," ","","Meu","","","",""
"","1109","audio-keyboard-response","418","757585","0.0-3.0-1.343","../audio/68-2-masc.mp3"," ","","irmão","","","",""
"","1059","audio-keyboard-response","419","758913","0.0-3.0-1.344","../audio/68-3-masc.mp3"," ","","teve","","","",""
"","1131","audio-keyboard-response","420","760321","0.0-3.0-1.345","../audio/68-4-masc.mp3"," ","","um","","","",""
"","1640","audio-keyboard-response","421","762241","0.0-3.0-1.346","../audio/68-5-masc.mp3"," ","","noivado","","","",""
"","1280","audio-keyboard-response","422","763793","0.0-3.0-1.347","../audio/68-6-masc.mp3"," ","","longo","","","",""
"","1091","audio-keyboard-response","423","765153","0.0-3.0-1.348","../audio/68-7-masc.mp3"," ","","e","","","",""
"","1381","audio-keyboard-response","424","766818","0.0-3.0-1.349","../audio/68-8-masc.mp3"," ","","maravilhoso.","","","",""
"","null","html-keyboard-response","425","768097","0.0-3.0-0.350-0.350","<span style= ""font-size:30px; font-family: monospace"">+</span>","null","fixation","","","","",""
"","192","audio-keyboard-response","426","768577","0.0-3.0-1.350","../audio/69-1-fem.mp3"," ","","A","","","",""
"","1528","audio-keyboard-response","427","770385","0.0-3.0-1.351","../audio/69-2-fem.mp3"," ","","loja","","","",""
"","1280","audio-keyboard-response","428","771937","0.0-3.0-1.352","../audio/69-3-fem.mp3"," ","","recebeu","","","",""
"","1032","audio-keyboard-response","429","773249","0.0-3.0-1.353","../audio/69-4-fem.mp3"," ","","uma","","","",""
"","1451","audio-keyboard-response","430","774977","0.0-3.0-1.354","../audio/69-5-fem.mp3"," ","","poltrona","","","",""
"","1128","audio-keyboard-response","431","776385","0.0-3.0-1.355","../audio/69-6-fem.mp3"," ","","de","","","",""
"","1669","audio-keyboard-response","432","778321","0.0-3.0-1.356","../audio/69-7-fem.mp3"," ","","couro","","","",""
"","1571","audio-keyboard-response","433","780178","0.0-3.0-1.357","../audio/69-8-fem.mp3"," ","","preto.","","","",""
"","null","html-keyboard-response","434","781457","0.0-3.0-0.358-0.358","<span style= ""font-size:30px; font-family: monospace"">+</span>","null","fixation","","","","",""
"","488","audio-keyboard-response","435","782225","0.0-3.0-1.358","../audio/66-1-masc.mp3"," ","","Não","","","",""
"","1560","audio-keyboard-response","436","784049","0.0-3.0-1.359","../audio/66-2-masc.mp3"," ","","gosto","","","",""
"","728","audio-keyboard-response","437","785058","0.0-3.0-1.360","../audio/66-3-masc.mp3"," ","","de","","","",""
"","880","audio-keyboard-response","438","786209","0.0-3.0-1.361","../audio/66-4-masc.mp3"," ","","gente","","","",""
"","1280","audio-keyboard-response","439","787761","0.0-3.0-1.362","../audio/66-5-masc.mp3"," ","","egoísta","","","",""
"","1091","audio-keyboard-response","440","789121","0.0-3.0-1.363","../audio/66-6-masc.mp3"," ","","nem","","","",""
"","1251","audio-keyboard-response","441","790657","0.0-3.0-1.364","../audio/66-7-masc.mp3"," ","","chata.","","","",""
"","null","html-keyboard-response","442","791927","0.0-3.0-0.365-0.365","<span style= ""font-size:30px; font-family: monospace"">+</span>","null","fixation","","","","",""
"","1000","audio-keyboard-response","443","793201","0.0-3.0-1.365","../audio/67-1-fem.mp3"," ","","Minha","","","",""
"","1149","audio-keyboard-response","444","794625","0.0-3.0-1.366","../audio/67-2-fem.mp3"," ","","tia","","","",""
"","1029","audio-keyboard-response","445","795921","0.0-3.0-1.367","../audio/67-3-fem.mp3"," ","","comprou","","","",""
"","851","audio-keyboard-response","446","797042","0.0-3.0-1.368","../audio/67-4-fem.mp3"," ","","um","","","",""
"","1251","audio-keyboard-response","447","798577","0.0-3.0-1.369","../audio/67-5-fem.mp3"," ","","cordão","","","",""
"","1192","audio-keyboard-response","448","800049","0.0-3.0-1.370","../audio/67-6-fem.mp3"," ","","para","","","",""
"","928","audio-keyboard-response","449","801265","0.0-3.0-1.371","../audio/67-7-fem.mp3"," ","","o","","","",""
"","1189","audio-keyboard-response","450","802721","0.0-3.0-1.372","../audio/67-8-fem.mp3"," ","","varal.","","","",""
"","null","html-keyboard-response","451","803997","0.0-3.0-0.373-0.373","<span style= ""font-size:30px; font-family: monospace"">+</span>","null","fixation","","","","",""
"","800","audio-keyboard-response","452","805067","0.0-3.0-1.373","../audio/70-1-masc.mp3"," ","","O","","","",""
"","840","audio-keyboard-response","453","806187","0.0-3.0-1.374","../audio/70-2-masc.mp3"," ","","meu","","","",""
"","1109","audio-keyboard-response","454","807579","0.0-3.0-1.375","../audio/70-3-masc.mp3"," ","","filho","","","",""
"","979","audio-keyboard-response","455","808827","0.0-3.0-1.376","../audio/70-4-masc.mp3"," ","","tem","","","",""
"","771","audio-keyboard-response","456","809867","0.0-3.0-1.377","../audio/70-5-masc.mp3"," ","","medo","","","",""
"","800","audio-keyboard-response","457","810939","0.0-3.0-1.378","../audio/70-6-masc.mp3"," ","","de","","","",""
"","1112","audio-keyboard-response","458","812331","0.0-3.0-1.379","../audio/70-7-masc.mp3"," ","","enguia","","","",""
"","811","audio-keyboard-response","459","813403","0.0-3.0-1.380","../audio/70-8-masc.mp3"," ","","e","","","",""
"","1029","audio-keyboard-response","460","814715","0.0-3.0-1.381","../audio/70-9-masc.mp3"," ","","beija-flor.","","","",""
"","4054","html-keyboard-response","461","819035","0.0-3.0-2.381-0.381","<span style=""font-size:25px; font-family: monospace"">O filho tem medo de tigre?</span>","n","","","O filho tem medo de tigre?","null","exp-sent","false"
"","null","html-keyboard-response","462","820551","0.0-3.0-0.382-0.382","<span style= ""font-size:30px; font-family: monospace"">+</span>","null","fixation","","","","",""
"","2211","audio-keyboard-response","463","823035","0.0-3.0-1.382","../audio/78-1-masc.mp3"," ","","Eles","","","",""
"","1000","audio-keyboard-response","464","824315","0.0-3.0-1.383","../audio/78-2-masc.mp3"," ","","trazem","","","",""
"","901","audio-keyboard-response","465","825483","0.0-3.0-1.384","../audio/78-3-masc.mp3"," ","","um","","","",""
"","1200","audio-keyboard-response","466","826955","0.0-3.0-1.385","../audio/78-4-masc.mp3"," ","","fato","","","",""
"","1699","audio-keyboard-response","467","828939","0.0-3.0-1.386","../audio/78-5-masc.mp3"," ","","urgente","","","",""
"","1392","audio-keyboard-response","468","830603","0.0-3.0-1.387","../audio/78-6-masc.mp3"," ","","todos","","","",""
"","960","audio-keyboard-response","469","831851","0.0-3.0-1.388","../audio/78-7-masc.mp3"," ","","os","","","",""
"","1120","audio-keyboard-response","470","833243","0.0-3.0-1.389","../audio/78-8-masc.mp3"," ","","dias.","","","",""
"","null","html-keyboard-response","471","834521","0.0-3.0-0.390-0.390","<span style= ""font-size:30px; font-family: monospace"">+</span>","null","fixation","","","","",""
"","189","audio-keyboard-response","472","834987","0.0-3.0-1.390","../audio/77-1-fem.mp3"," ","","A","","","",""
"","1301","audio-keyboard-response","473","836572","0.0-3.0-1.391","../audio/77-2-fem.mp3"," ","","criança","","","",""
"","1128","audio-keyboard-response","474","837979","0.0-3.0-1.392","../audio/77-3-fem.mp3"," ","","ficou","","","",""
"","1080","audio-keyboard-response","475","839323","0.0-3.0-1.393","../audio/77-4-fem.mp3"," ","","muito","","","",""
"","1291","audio-keyboard-response","476","840892","0.0-3.0-1.394","../audio/77-5-fem.mp3"," ","","feliz","","","",""
"","1360","audio-keyboard-response","477","842523","0.0-3.0-1.395","../audio/77-6-fem.mp3"," ","","com","","","",""
"","1291","audio-keyboard-response","478","844107","0.0-3.0-1.396","../audio/77-7-fem.mp3"," ","","o","","","",""
"","1701","audio-keyboard-response","479","846091","0.0-3.0-1.397","../audio/77-8-fem.mp3"," ","","brinquedo.","","","",""
"","null","html-keyboard-response","480","847381","0.0-3.0-0.398-0.398","<span style= ""font-size:30px; font-family: monospace"">+</span>","null","fixation","","","","",""
"","1861","audio-keyboard-response","481","849515","0.0-3.0-1.398","../audio/76-1-masc.mp3"," ","","O","","","",""
"","1389","audio-keyboard-response","482","851179","0.0-3.0-1.399","../audio/76-2-masc.mp3"," ","","bisavô","","","",""
"","1592","audio-keyboard-response","483","853051","0.0-3.0-1.400","../audio/76-3-masc.mp3"," ","","comprou","","","",""
"","1019","audio-keyboard-response","484","854347","0.0-3.0-1.401","../audio/76-4-masc.mp3"," ","","um","","","",""
"","2091","audio-keyboard-response","485","856715","0.0-3.0-1.402","../audio/76-5-masc.mp3"," ","","ralador","","","",""
"","749","audio-keyboard-response","486","857755","0.0-3.0-1.403","../audio/76-6-masc.mp3"," ","","de","","","",""
"","2040","audio-keyboard-response","487","860075","0.0-3.0-1.404","../audio/76-7-masc.mp3"," ","","queijo.","","","",""
"","null","html-keyboard-response","488","861352","0.0-3.0-0.405-0.405","<span style= ""font-size:30px; font-family: monospace"">+</span>","null","fixation","","","","",""
"","1131","audio-keyboard-response","489","862763","0.0-3.0-1.405","../audio/79-1-masc.mp3"," ","","A","","","",""
"","992","audio-keyboard-response","490","864043","0.0-3.0-1.406","../audio/79-2-masc.mp3"," ","","médica","","","",""
"","1429","audio-keyboard-response","491","865757","0.0-3.0-1.407","../audio/79-3-masc.mp3"," ","","verificou","","","",""
"","941","audio-keyboard-response","492","866973","0.0-3.0-1.408","../audio/79-4-masc.mp3"," ","","a","","","",""
"","1181","audio-keyboard-response","493","868444","0.0-3.0-1.409","../audio/79-5-masc.mp3"," ","","gengiva","","","",""
"","2160","audio-keyboard-response","494","870893","0.0-3.0-1.410","../audio/79-6-masc.mp3"," ","","por","","","",""
"","1221","audio-keyboard-response","495","872397","0.0-3.0-1.411","../audio/79-7-masc.mp3"," ","","último.","","","",""
"","null","html-keyboard-response","496","873662","0.0-3.0-0.412-0.412","<span style= ""font-size:30px; font-family: monospace"">+</span>","null","fixation","","","","",""
"","1421","audio-keyboard-response","497","875357","0.0-3.0-1.412","../audio/80-1-masc.mp3"," ","","Meu","","","",""
"","1280","audio-keyboard-response","498","876909","0.0-3.0-1.413","../audio/80-2-masc.mp3"," ","","primo","","","",""
"","971","audio-keyboard-response","499","878157","0.0-3.0-1.414","../audio/80-3-masc.mp3"," ","","conheceu","","","",""
"","811","audio-keyboard-response","500","879244","0.0-3.0-1.415","../audio/80-4-masc.mp3"," ","","um","","","",""
"","1019","audio-keyboard-response","501","880541","0.0-3.0-1.416","../audio/80-5-masc.mp3"," ","","jovem","","","",""
"","869","audio-keyboard-response","502","881677","0.0-3.0-1.417","../audio/80-6-masc.mp3"," ","","amável","","","",""
"","789","audio-keyboard-response","503","882749","0.0-3.0-1.418","../audio/80-7-masc.mp3"," ","","e","","","",""
"","1000","audio-keyboard-response","504","884029","0.0-3.0-1.419","../audio/80-8-masc.mp3"," ","","confiante.","","","",""
"","6296","html-keyboard-response","505","890589","0.0-3.0-2.419-0.419","<span style=""font-size:25px; font-family: monospace"">O primo conheceu um jovem irritante?</span>","n","","","O primo conheceu um jovem irritante?","null","exp-sent","false"
"","null","html-keyboard-response","506","892109","0.0-3.0-0.420-0.420","<span style= ""font-size:30px; font-family: monospace"">+</span>","null","fixation","","","","",""
"","811","audio-keyboard-response","507","893213","0.0-3.0-1.420","../audio/37-1-fem.mp3"," ","","Eu","","","",""
"","1000","audio-keyboard-response","508","894493","0.0-3.0-1.421","../audio/37-2-fem.mp3"," ","","adoro","","","",""
"","1200","audio-keyboard-response","509","895965","0.0-3.0-1.422","../audio/37-3-fem.mp3"," ","","suco","","","",""
"","1099","audio-keyboard-response","510","897341","0.0-3.0-1.423","../audio/37-4-fem.mp3"," ","","de","","","",""
"","1520","audio-keyboard-response","511","899133","0.0-3.0-1.424","../audio/37-5-fem.mp3"," ","","manga","","","",""
"","1128","audio-keyboard-response","512","900541","0.0-3.0-1.425","../audio/37-6-fem.mp3"," ","","com","","","",""
"","1469","audio-keyboard-response","513","902301","0.0-3.0-1.426","../audio/37-7-fem.mp3"," ","","hortelã.","","","",""
"","null","html-keyboard-response","514","903572","0.0-3.0-0.427-0.427","<span style= ""font-size:30px; font-family: monospace"">+</span>","null","fixation","","","","",""
"","768","audio-keyboard-response","515","904621","0.0-3.0-1.427","../audio/39-1-fem.mp3"," ","","O","","","",""
"","1480","audio-keyboard-response","516","906381","0.0-3.0-1.428","../audio/39-2-fem.mp3"," ","","conselho","","","",""
"","979","audio-keyboard-response","517","907629","0.0-3.0-1.429","../audio/39-3-fem.mp3"," ","","foi","","","",""
"","1171","audio-keyboard-response","518","909069","0.0-3.0-1.430","../audio/39-4-fem.mp3"," ","","muito","","","",""
"","1011","audio-keyboard-response","519","910349","0.0-3.0-1.431","../audio/39-5-fem.mp3"," ","","útil","","","",""
"","1051","audio-keyboard-response","520","911677","0.0-3.0-1.432","../audio/39-6-fem.mp3"," ","","para","","","",""
"","1051","audio-keyboard-response","521","913005","0.0-3.0-1.433","../audio/39-7-fem.mp3"," ","","minha","","","",""
"","981","audio-keyboard-response","522","914285","0.0-3.0-1.434","../audio/39-8-fem.mp3"," ","","tia.","","","",""
"","null","html-keyboard-response","523","915552","0.0-3.0-0.435-0.435","<span style= ""font-size:30px; font-family: monospace"">+</span>","null","fixation","","","","",""
"","760","audio-keyboard-response","524","916589","0.0-3.0-1.435","../audio/38-1-masc.mp3"," ","","A","","","",""
"","1179","audio-keyboard-response","525","918061","0.0-3.0-1.436","../audio/38-2-masc.mp3"," ","","empresa","","","",""
"","1040","audio-keyboard-response","526","919373","0.0-3.0-1.437","../audio/38-3-masc.mp3"," ","","criou","","","",""
"","1048","audio-keyboard-response","527","920701","0.0-3.0-1.438","../audio/38-4-masc.mp3"," ","","a","","","",""
"","1181","audio-keyboard-response","528","922157","0.0-3.0-1.439","../audio/38-5-masc.mp3"," ","","patente","","","",""
"","1139","audio-keyboard-response","529","923581","0.0-3.0-1.440","../audio/38-6-masc.mp3"," ","","da","","","",""
"","979","audio-keyboard-response","530","924829","0.0-3.0-1.441","../audio/38-7-masc.mp3"," ","","frigideira.","","","",""
"","null","html-keyboard-response","531","926097","0.0-3.0-0.442-0.442","<span style= ""font-size:30px; font-family: monospace"">+</span>","null","fixation","","","","",""
"","920","audio-keyboard-response","532","927297","0.0-3.0-1.442","../audio/36-1-masc.mp3"," ","","Meu","","","",""
"","2648","audio-keyboard-response","533","930225","0.0-3.0-1.443","../audio/36-2-masc.mp3"," ","","tio","","","",""
"","2080","audio-keyboard-response","534","932577","0.0-3.0-1.444","../audio/36-3-masc.mp3"," ","","comprou","","","",""
"","960","audio-keyboard-response","535","933825","0.0-3.0-1.445","../audio/36-4-masc.mp3"," ","","um","","","",""
"","1312","audio-keyboard-response","536","935408","0.0-3.0-1.446","../audio/36-5-masc.mp3"," ","","filtro","","","",""
"","1099","audio-keyboard-response","537","936785","0.0-3.0-1.447","../audio/36-6-masc.mp3"," ","","de","","","",""
"","1248","audio-keyboard-response","538","938305","0.0-3.0-1.448","../audio/36-7-masc.mp3"," ","","água","","","",""
"","792","audio-keyboard-response","539","939377","0.0-3.0-1.449","../audio/36-8-masc.mp3"," ","","hoje","","","",""
"","1120","audio-keyboard-response","540","940769","0.0-3.0-1.450","../audio/36-9-masc.mp3"," ","","cedo.","","","",""
"","null","html-keyboard-response","541","942046","0.0-3.0-0.451-0.451","<span style= ""font-size:30px; font-family: monospace"">+</span>","null","fixation","","","","",""
"","939","audio-keyboard-response","542","943265","0.0-3.0-1.451","../audio/40-1-masc.mp3"," ","","O","","","",""
"","1181","audio-keyboard-response","543","944721","0.0-3.0-1.452","../audio/40-2-masc.mp3"," ","","jogo","","","",""
"","1309","audio-keyboard-response","544","946305","0.0-3.0-1.453","../audio/40-3-masc.mp3"," ","","falava","","","",""
"","840","audio-keyboard-response","545","947425","0.0-3.0-1.454","../audio/40-4-masc.mp3"," ","","de","","","",""
"","880","audio-keyboard-response","546","948593","0.0-3.0-1.455","../audio/40-5-masc.mp3"," ","","fantasia","","","",""
"","880","audio-keyboard-response","547","949745","0.0-3.0-1.456","../audio/40-6-masc.mp3"," ","","e","","","",""
"","880","audio-keyboard-response","548","950897","0.0-3.0-1.457","../audio/40-7-masc.mp3"," ","","de","","","",""
"","1091","audio-keyboard-response","549","952273","0.0-3.0-1.458","../audio/40-8-masc.mp3"," ","","aventura.","","","",""
"","5880","html-keyboard-response","550","958417","0.0-3.0-2.458-0.458","<span style=""font-size:25px; font-family: monospace"">O jogo tinha fantasia e aventura?</span>","s","","","O jogo tinha fantasia e aventura?","null","exp-sent","false"
"","null","html-keyboard-response","551","959947","0.0-3.0-0.459-0.459","<span style= ""font-size:30px; font-family: monospace"">+</span>","null","fixation","","","","",""
"","1040","audio-keyboard-response","552","961265","0.0-3.0-1.459","../audio/46-1-masc.mp3"," ","","Meu","","","",""
"","1032","audio-keyboard-response","553","962577","0.0-3.0-1.460","../audio/46-2-masc.mp3"," ","","primo","","","",""
"","1061","audio-keyboard-response","554","963921","0.0-3.0-1.461","../audio/46-3-masc.mp3"," ","","estava","","","",""
"","1360","audio-keyboard-response","555","965553","0.0-3.0-1.462","../audio/46-4-masc.mp3"," ","","muito","","","",""
"","2869","audio-keyboard-response","556","968705","0.0-3.0-1.463","../audio/46-5-masc.mp3"," ","","deprimido","","","",""
"","1611","audio-keyboard-response","557","970593","0.0-3.0-1.464","../audio/46-6-masc.mp3"," ","","no","","","",""
"","2029","audio-keyboard-response","558","972897","0.0-3.0-1.465","../audio/46-7-masc.mp3"," ","","inverno.","","","",""
"","null","html-keyboard-response","559","974166","0.0-3.0-0.466-0.466","<span style= ""font-size:30px; font-family: monospace"">+</span>","null","fixation","","","","",""
"","1731","audio-keyboard-response","560","976161","0.0-3.0-1.466","../audio/48-1-masc.mp3"," ","","Ela","","","",""
"","1400","audio-keyboard-response","561","977841","0.0-3.0-1.467","../audio/48-2-masc.mp3"," ","","come","","","",""
"","1400","audio-keyboard-response","562","979521","0.0-3.0-1.468","../audio/48-3-masc.mp3"," ","","feijão","","","",""
"","1120","audio-keyboard-response","563","980913","0.0-3.0-1.469","../audio/48-4-masc.mp3"," ","","com","","","",""
"","1141","audio-keyboard-response","564","982321","0.0-3.0-1.470","../audio/48-5-masc.mp3"," ","","arroz","","","",""
"","1109","audio-keyboard-response","565","983713","0.0-3.0-1.471","../audio/48-6-masc.mp3"," ","","todos","","","",""
"","1112","audio-keyboard-response","566","985089","0.0-3.0-1.472","../audio/48-7-masc.mp3"," ","","os","","","",""
"","1040","audio-keyboard-response","567","986416","0.0-3.0-1.473","../audio/48-8-masc.mp3"," ","","dias.","","","",""
"","null","html-keyboard-response","568","987695","0.0-3.0-0.474-0.474","<span style= ""font-size:30px; font-family: monospace"">+</span>","null","fixation","","","","",""
"","880","audio-keyboard-response","569","988847","0.0-3.0-1.474","../audio/49-1-fem.mp3"," ","","Eu","","","",""
"","939","audio-keyboard-response","570","990064","0.0-3.0-1.475","../audio/49-2-fem.mp3"," ","","quero","","","",""
"","811","audio-keyboard-response","571","991152","0.0-3.0-1.476","../audio/49-3-fem.mp3"," ","","um","","","",""
"","981","audio-keyboard-response","572","992400","0.0-3.0-1.477","../audio/49-4-fem.mp3"," ","","lanche","","","",""
"","1141","audio-keyboard-response","573","993808","0.0-3.0-1.478","../audio/49-5-fem.mp3"," ","","duplo","","","",""
"","960","audio-keyboard-response","574","995056","0.0-3.0-1.479","../audio/49-6-fem.mp3"," ","","e","","","",""
"","931","audio-keyboard-response","575","996272","0.0-3.0-1.480","../audio/49-7-fem.mp3"," ","","um","","","",""
"","1040","audio-keyboard-response","576","997584","0.0-3.0-1.481","../audio/49-8-fem.mp3"," ","","suco.","","","",""
"","null","html-keyboard-response","577","998856","0.0-3.0-0.482-0.482","<span style= ""font-size:30px; font-family: monospace"">+</span>","null","fixation","","","","",""
"","792","audio-keyboard-response","578","999936","0.0-3.0-1.482","../audio/47-1-masc.mp3"," ","","O","","","",""
"","1149","audio-keyboard-response","579","1001360","0.0-3.0-1.483","../audio/47-2-masc.mp3"," ","","tio","","","",""
"","1811","audio-keyboard-response","580","1003440","0.0-3.0-1.484","../audio/47-3-masc.mp3"," ","","recusou","","","",""
"","811","audio-keyboard-response","581","1004528","0.0-3.0-1.485","../audio/47-4-masc.mp3"," ","","a","","","",""
"","960","audio-keyboard-response","582","1005776","0.0-3.0-1.486","../audio/47-5-masc.mp3"," ","","sobremesa","","","",""
"","1000","audio-keyboard-response","583","1007056","0.0-3.0-1.487","../audio/47-6-masc.mp3"," ","","no","","","",""
"","960","audio-keyboard-response","584","1008304","0.0-3.0-1.488","../audio/47-7-masc.mp3"," ","","almoço.","","","",""
"","null","html-keyboard-response","585","1009565","0.0-3.0-0.489-0.489","<span style= ""font-size:30px; font-family: monospace"">+</span>","null","fixation","","","","",""
"","739","audio-keyboard-response","586","1010592","0.0-3.0-1.489","../audio/50-1-masc.mp3"," ","","O","","","",""
"","1141","audio-keyboard-response","587","1012016","0.0-3.0-1.490","../audio/50-2-masc.mp3"," ","","pássaro","","","",""
"","859","audio-keyboard-response","588","1013152","0.0-3.0-1.491","../audio/50-3-masc.mp3"," ","","fugiu","","","",""
"","840","audio-keyboard-response","589","1014304","0.0-3.0-1.492","../audio/50-4-masc.mp3"," ","","da","","","",""
"","872","audio-keyboard-response","590","1015456","0.0-3.0-1.493","../audio/50-5-masc.mp3"," ","","gaiola","","","",""
"","880","audio-keyboard-response","591","1016608","0.0-3.0-1.494","../audio/50-6-masc.mp3"," ","","pela","","","",""
"","920","audio-keyboard-response","592","1017808","0.0-3.0-1.495","../audio/50-7-masc.mp3"," ","","portinhola.","","","",""
"","12670","html-keyboard-response","593","1030736","0.0-3.0-2.495-0.495","<span style=""font-size:25px; font-family: monospace"">O pássaro fugiu da gaiola?</span>","s","","","O pássaro fugiu da gaiola?","null","exp-sent","false"
"","null","html-keyboard-response","594","1032265","0.0-3.0-0.496-0.496","<span style= ""font-size:30px; font-family: monospace"">+</span>","null","fixation","","","","",""
"","2520","audio-keyboard-response","595","1035072","0.0-3.0-1.496","../audio/24-1-fem.mp3"," ","","As","","","",""
"","1181","audio-keyboard-response","596","1036527","0.0-3.0-1.497","../audio/24-2-fem.mp3"," ","","crianças","","","",""
"","1099","audio-keyboard-response","597","1037904","0.0-3.0-1.498","../audio/24-3-fem.mp3"," ","","vão","","","",""
"","1051","audio-keyboard-response","598","1039232","0.0-3.0-1.499","../audio/24-4-fem.mp3"," ","","ao","","","",""
"","1392","audio-keyboard-response","599","1040896","0.0-3.0-1.500","../audio/24-5-fem.mp3"," ","","cinema","","","",""
"","1080","audio-keyboard-response","600","1042256","0.0-3.0-1.501","../audio/24-6-fem.mp3"," ","","mais","","","",""
"","1011","audio-keyboard-response","601","1043552","0.0-3.0-1.502","../audio/24-7-fem.mp3"," ","","tarde.","","","",""
"","null","html-keyboard-response","602","1044836","0.0-3.0-0.503-0.503","<span style= ""font-size:30px; font-family: monospace"">+</span>","null","fixation","","","","",""
"","811","audio-keyboard-response","603","1045920","0.0-3.0-1.503","../audio/22-1-fem.mp3"," ","","Eu","","","",""
"","1331","audio-keyboard-response","604","1047516","0.0-3.0-1.504","../audio/22-2-fem.mp3"," ","","detesto","","","",""
"","1101","audio-keyboard-response","605","1048924","0.0-3.0-1.505","../audio/22-3-fem.mp3"," ","","fumaça","","","",""
"","899","audio-keyboard-response","606","1050108","0.0-3.0-1.506","../audio/22-4-fem.mp3"," ","","de","","","",""
"","1120","audio-keyboard-response","607","1051500","0.0-3.0-1.507","../audio/22-5-fem.mp3"," ","","cachimbo","","","",""
"","1109","audio-keyboard-response","608","1052876","0.0-3.0-1.508","../audio/22-6-fem.mp3"," ","","e","","","",""
"","1101","audio-keyboard-response","609","1054236","0.0-3.0-1.509","../audio/22-7-fem.mp3"," ","","de","","","",""
"","1771","audio-keyboard-response","610","1056284","0.0-3.0-1.510","../audio/22-8-fem.mp3"," ","","cigarro.","","","",""
"","null","html-keyboard-response","611","1057561","0.0-3.0-0.511-0.511","<span style= ""font-size:30px; font-family: monospace"">+</span>","null","fixation","","","","",""
"","1680","audio-keyboard-response","612","1059516","0.0-3.0-1.511","../audio/21-1-fem.mp3"," ","","Precisamos","","","",""
"","1040","audio-keyboard-response","613","1060828","0.0-3.0-1.512","../audio/21-2-fem.mp3"," ","","de","","","",""
"","1429","audio-keyboard-response","614","1062540","0.0-3.0-1.513","../audio/21-3-fem.mp3"," ","","paciência","","","",""
"","912","audio-keyboard-response","615","1063724","0.0-3.0-1.514","../audio/21-4-fem.mp3"," ","","e","","","",""
"","1040","audio-keyboard-response","616","1065052","0.0-3.0-1.515","../audio/21-5-fem.mp3"," ","","bondade","","","",""
"","989","audio-keyboard-response","617","1066316","0.0-3.0-1.516","../audio/21-6-fem.mp3"," ","","para","","","",""
"","1000","audio-keyboard-response","618","1067596","0.0-3.0-1.517","../audio/21-7-fem.mp3"," ","","um","","","",""
"","1619","audio-keyboard-response","619","1069500","0.0-3.0-1.518","../audio/21-8-fem.mp3"," ","","mundo","","","",""
"","1512","audio-keyboard-response","620","1071292","0.0-3.0-1.519","../audio/21-9-fem.mp3"," ","","melhor.","","","",""
"","null","html-keyboard-response","621","1072572","0.0-3.0-0.520-0.520","<span style= ""font-size:30px; font-family: monospace"">+</span>","null","fixation","","","","",""
"","1472","audio-keyboard-response","622","1074332","0.0-3.0-1.520","../audio/23-1-fem.mp3"," ","","Português","","","",""
"","752","audio-keyboard-response","623","1075372","0.0-3.0-1.521","../audio/23-2-fem.mp3"," ","","é","","","",""
"","1000","audio-keyboard-response","624","1076652","0.0-3.0-1.522","../audio/23-3-fem.mp3"," ","","um","","","",""
"","1331","audio-keyboard-response","625","1078268","0.0-3.0-1.523","../audio/23-4-fem.mp3"," ","","assunto","","","",""
"","1520","audio-keyboard-response","626","1080060","0.0-3.0-1.524","../audio/23-5-fem.mp3"," ","","elementar","","","",""
"","1008","audio-keyboard-response","627","1081340","0.0-3.0-1.525","../audio/23-6-fem.mp3"," ","","para","","","",""
"","819","audio-keyboard-response","628","1082428","0.0-3.0-1.526","../audio/23-7-fem.mp3"," ","","os","","","",""
"","1149","audio-keyboard-response","629","1083852","0.0-3.0-1.527","../audio/23-8-fem.mp3"," ","","alunos.","","","",""
"","null","html-keyboard-response","630","1085122","0.0-3.0-0.528-0.528","<span style= ""font-size:30px; font-family: monospace"">+</span>","null","fixation","","","","",""
"","1000","audio-keyboard-response","631","1086396","0.0-3.0-1.528","../audio/25-1-masc.mp3"," ","","Ela","","","",""
"","1240","audio-keyboard-response","632","1087916","0.0-3.0-1.529","../audio/25-2-masc.mp3"," ","","faz","","","",""
"","1699","audio-keyboard-response","633","1089900","0.0-3.0-1.530","../audio/25-3-masc.mp3"," ","","tanto","","","",""
"","1720","audio-keyboard-response","634","1091883","0.0-3.0-1.531","../audio/25-4-masc.mp3"," ","","cabelo","","","",""
"","1808","audio-keyboard-response","635","1093979","0.0-3.0-1.532","../audio/25-5-masc.mp3"," ","","liso","","","",""
"","1472","audio-keyboard-response","636","1095724","0.0-3.0-1.533","../audio/25-6-masc.mp3"," ","","quanto","","","",""
"","3029","audio-keyboard-response","637","1099036","0.0-3.0-1.534","../audio/25-7-masc.mp3"," ","","cacheado.","","","",""
"","10896","html-keyboard-response","638","1110185","0.0-3.0-2.534-0.534","<span style=""font-size:25px; font-family: monospace"">Ela só faz cabelo cacheado?</span>","s","","","Ela só faz cabelo cacheado?","null","exp-sent","false"
"","null","html-keyboard-response","639","1111709","0.0-3.0-0.535-0.535","<span style= ""font-size:30px; font-family: monospace"">+</span>","null","fixation","","","","",""
"","1901","audio-keyboard-response","640","1113881","0.0-3.0-1.535","../audio/34-1-fem.mp3"," ","","Cobrança","","","",""
"","1891","audio-keyboard-response","641","1116041","0.0-3.0-1.536","../audio/34-2-fem.mp3"," ","","excessiva","","","",""
"","2309","audio-keyboard-response","642","1118633","0.0-3.0-1.537","../audio/34-3-fem.mp3"," ","","é","","","",""
"","1339","audio-keyboard-response","643","1120249","0.0-3.0-1.538","../audio/34-4-fem.mp3"," ","","um","","","",""
"","3048","audio-keyboard-response","644","1123577","0.0-3.0-1.539","../audio/34-5-fem.mp3"," ","","fardo","","","",""
"","1800","audio-keyboard-response","645","1125657","0.0-3.0-1.540","../audio/34-6-fem.mp3"," ","","para","","","",""
"","2731","audio-keyboard-response","646","1128665","0.0-3.0-1.541","../audio/34-7-fem.mp3"," ","","a","","","",""
"","1771","audio-keyboard-response","647","1130729","0.0-3.0-1.542","../audio/34-8-fem.mp3"," ","","cabeça.","","","",""
"","null","html-keyboard-response","648","1131998","0.0-3.0-0.543-0.543","<span style= ""font-size:30px; font-family: monospace"">+</span>","null","fixation","","","","",""
"","189","audio-keyboard-response","649","1132457","0.0-3.0-1.543","../audio/33-1-fem.mp3"," ","","Eles","","","",""
"","1901","audio-keyboard-response","650","1134633","0.0-3.0-1.544","../audio/33-2-fem.mp3"," ","","sabem","","","",""
"","989","audio-keyboard-response","651","1135897","0.0-3.0-1.545","../audio/33-3-fem.mp3"," ","","do","","","",""
"","1421","audio-keyboard-response","652","1137593","0.0-3.0-1.546","../audio/33-4-fem.mp3"," ","","seu","","","",""
"","1379","audio-keyboard-response","653","1139257","0.0-3.0-1.547","../audio/33-5-fem.mp3"," ","","privilégio","","","",""
"","4000","audio-keyboard-response","654","1143529","0.0-3.0-1.548","../audio/33-6-fem.mp3"," ","","nessa","","","",""
"","1461","audio-keyboard-response","655","1145273","0.0-3.0-1.549","../audio/33-7-fem.mp3"," ","","confusão.","","","",""
"","null","html-keyboard-response","656","1146539","0.0-3.0-0.550-0.550","<span style= ""font-size:30px; font-family: monospace"">+</span>","null","fixation","","","","",""
"","1352","audio-keyboard-response","657","1148169","0.0-3.0-1.550","../audio/32-1-masc.mp3"," ","","A","","","",""
"","1141","audio-keyboard-response","658","1149593","0.0-3.0-1.551","../audio/32-2-masc.mp3"," ","","tia","","","",""
"","1291","audio-keyboard-response","659","1151161","0.0-3.0-1.552","../audio/32-3-masc.mp3"," ","","comprou","","","",""
"","1269","audio-keyboard-response","660","1152713","0.0-3.0-1.553","../audio/32-4-masc.mp3"," ","","um","","","",""
"","1211","audio-keyboard-response","661","1154201","0.0-3.0-1.554","../audio/32-5-masc.mp3"," ","","pilão","","","",""
"","2011","audio-keyboard-response","662","1156489","0.0-3.0-1.555","../audio/32-6-masc.mp3"," ","","para","","","",""
"","1040","audio-keyboard-response","663","1157800","0.0-3.0-1.556","../audio/32-7-masc.mp3"," ","","a","","","",""
"","1200","audio-keyboard-response","664","1159273","0.0-3.0-1.557","../audio/32-8-masc.mp3"," ","","cozinha.","","","",""
"","null","html-keyboard-response","665","1160559","0.0-3.0-0.558-0.558","<span style= ""font-size:30px; font-family: monospace"">+</span>","null","fixation","","","","",""
"","891","audio-keyboard-response","666","1161721","0.0-3.0-1.558","../audio/31-1-fem.mp3"," ","","O","","","",""
"","1229","audio-keyboard-response","667","1163225","0.0-3.0-1.559","../audio/31-2-fem.mp3"," ","","padeiro","","","",""
"","960","audio-keyboard-response","668","1164457","0.0-3.0-1.560","../audio/31-3-fem.mp3"," ","","usou","","","",""
"","861","audio-keyboard-response","669","1165593","0.0-3.0-1.561","../audio/31-4-fem.mp3"," ","","a","","","",""
"","1139","audio-keyboard-response","670","1167017","0.0-3.0-1.562","../audio/31-5-fem.mp3"," ","","balança","","","",""
"","752","audio-keyboard-response","671","1168041","0.0-3.0-1.563","../audio/31-6-fem.mp3"," ","","o","","","",""
"","909","audio-keyboard-response","672","1169225","0.0-3.0-1.564","../audio/31-7-fem.mp3"," ","","dia","","","",""
"","1331","audio-keyboard-response","673","1170825","0.0-3.0-1.565","../audio/31-8-fem.mp3"," ","","inteiro.","","","",""
"","null","html-keyboard-response","674","1172089","0.0-3.0-0.566-0.566","<span style= ""font-size:30px; font-family: monospace"">+</span>","null","fixation","","","","",""
"","669","audio-keyboard-response","675","1173033","0.0-3.0-1.566","../audio/35-1-fem.mp3"," ","","A","","","",""
"","1440","audio-keyboard-response","676","1174745","0.0-3.0-1.567","../audio/35-2-fem.mp3"," ","","receita","","","",""
"","1101","audio-keyboard-response","677","1176121","0.0-3.0-1.568","../audio/35-3-fem.mp3"," ","","para","","","",""
"","848","audio-keyboard-response","678","1177257","0.0-3.0-1.569","../audio/35-4-fem.mp3"," ","","a","","","",""
"","1520","audio-keyboard-response","679","1179049","0.0-3.0-1.570","../audio/35-5-fem.mp3"," ","","preparação","","","",""
"","1099","audio-keyboard-response","680","1180425","0.0-3.0-1.571","../audio/35-6-fem.mp3"," ","","do","","","",""
"","1051","audio-keyboard-response","681","1181753","0.0-3.0-1.572","../audio/35-7-fem.mp3"," ","","bolo","","","",""
"","981","audio-keyboard-response","682","1183001","0.0-3.0-1.573","../audio/35-8-fem.mp3"," ","","é","","","",""
"","928","audio-keyboard-response","683","1184217","0.0-3.0-1.574","../audio/35-9-fem.mp3"," ","","leve.","","","",""
"","3972","html-keyboard-response","684","1188441","0.0-3.0-2.574-0.574","<span style=""font-size:25px; font-family: monospace"">A receita do bolo é pesada?</span>","n","","","A receita do bolo é pesada?","null","exp-sent","false"
"","null","html-keyboard-response","685","1189969","0.0-3.0-0.575-0.575","<span style= ""font-size:30px; font-family: monospace"">+</span>","null","fixation","","","","",""
"","1008","audio-keyboard-response","686","1191257","0.0-3.0-1.575","../audio/43-1-masc.mp3"," ","","Eu","","","",""
"","1309","audio-keyboard-response","687","1192825","0.0-3.0-1.576","../audio/43-2-masc.mp3"," ","","achei","","","",""
"","992","audio-keyboard-response","688","1194089","0.0-3.0-1.577","../audio/43-3-masc.mp3"," ","","um","","","",""
"","1600","audio-keyboard-response","689","1195977","0.0-3.0-1.578","../audio/43-4-masc.mp3"," ","","colchão","","","",""
"","1160","audio-keyboard-response","690","1197417","0.0-3.0-1.579","../audio/43-5-masc.mp3"," ","","velho","","","",""
"","952","audio-keyboard-response","691","1198649","0.0-3.0-1.580","../audio/43-6-masc.mp3"," ","","e","","","",""
"","1472","audio-keyboard-response","692","1200409","0.0-3.0-1.581","../audio/43-7-masc.mp3"," ","","imundo","","","",""
"","821","audio-keyboard-response","693","1201513","0.0-3.0-1.582","../audio/43-8-masc.mp3"," ","","na","","","",""
"","899","audio-keyboard-response","694","1202697","0.0-3.0-1.583","../audio/43-9-masc.mp3"," ","","casa.","","","",""
"","null","html-keyboard-response","695","1203969","0.0-3.0-0.584-0.584","<span style= ""font-size:30px; font-family: monospace"">+</span>","null","fixation","","","","",""
"","848","audio-keyboard-response","696","1205097","0.0-3.0-1.584","../audio/42-1-fem.mp3"," ","","Eu","","","",""
"","1029","audio-keyboard-response","697","1206393","0.0-3.0-1.585","../audio/42-2-fem.mp3"," ","","fui","","","",""
"","781","audio-keyboard-response","698","1207449","0.0-3.0-1.586","../audio/42-3-fem.mp3"," ","","a","","","",""
"","920","audio-keyboard-response","699","1208649","0.0-3.0-1.587","../audio/42-4-fem.mp3"," ","","uma","","","",""
"","808","audio-keyboard-response","700","1209737","0.0-3.0-1.588","../audio/42-5-fem.mp3"," ","","loja","","","",""
"","768","audio-keyboard-response","701","1210777","0.0-3.0-1.589","../audio/42-6-fem.mp3"," ","","de","","","",""
"","768","audio-keyboard-response","702","1211817","0.0-3.0-1.590","../audio/42-7-fem.mp3"," ","","móveis","","","",""
"","872","audio-keyboard-response","703","1212969","0.0-3.0-1.591","../audio/42-8-fem.mp3"," ","","no","","","",""
"","872","audio-keyboard-response","704","1214121","0.0-3.0-1.592","../audio/42-9-fem.mp3"," ","","bairro.","","","",""
"","null","html-keyboard-response","705","1215389","0.0-3.0-0.593-0.593","<span style= ""font-size:30px; font-family: monospace"">+</span>","null","fixation","","","","",""
"","1019","audio-keyboard-response","706","1216697","0.0-3.0-1.593","../audio/44-1-fem.mp3"," ","","Meus","","","",""
"","891","audio-keyboard-response","707","1217865","0.0-3.0-1.594","../audio/44-2-fem.mp3"," ","","irmãos","","","",""
"","741","audio-keyboard-response","708","1218873","0.0-3.0-1.595","../audio/44-3-fem.mp3"," ","","brigam","","","",""
"","771","audio-keyboard-response","709","1219929","0.0-3.0-1.596","../audio/44-4-fem.mp3"," ","","por","","","",""
"","952","audio-keyboard-response","710","1221160","0.0-3.0-1.597","../audio/44-5-fem.mp3"," ","","bobagem","","","",""
"","800","audio-keyboard-response","711","1222233","0.0-3.0-1.598","../audio/44-6-fem.mp3"," ","","todos","","","",""
"","669","audio-keyboard-response","712","1223193","0.0-3.0-1.599","../audio/44-7-fem.mp3"," ","","os","","","",""
"","531","audio-keyboard-response","713","1224009","0.0-3.0-1.600","../audio/44-8-fem.mp3"," ","","dias.","","","",""
"","null","html-keyboard-response","714","1225289","0.0-3.0-0.601-0.601","<span style= ""font-size:30px; font-family: monospace"">+</span>","null","fixation","","","","",""
"","1000","audio-keyboard-response","715","1226569","0.0-3.0-1.601","../audio/41-1-masc.mp3"," ","","A","","","",""
"","1368","audio-keyboard-response","716","1228217","0.0-3.0-1.602","../audio/41-2-masc.mp3"," ","","novela","","","",""
"","979","audio-keyboard-response","717","1229465","0.0-3.0-1.603","../audio/41-3-masc.mp3"," ","","falava","","","",""
"","731","audio-keyboard-response","718","1230473","0.0-3.0-1.604","../audio/41-4-masc.mp3"," ","","de","","","",""
"","861","audio-keyboard-response","719","1231614","0.0-3.0-1.605","../audio/41-5-masc.mp3"," ","","paixão","","","",""
"","699","audio-keyboard-response","720","1232590","0.0-3.0-1.606","../audio/41-6-masc.mp3"," ","","e","","","",""
"","861","audio-keyboard-response","721","1233726","0.0-3.0-1.607","../audio/41-7-masc.mp3"," ","","comédia.","","","",""
"","null","html-keyboard-response","722","1235005","0.0-3.0-0.608-0.608","<span style= ""font-size:30px; font-family: monospace"">+</span>","null","fixation","","","","",""
"","720","audio-keyboard-response","723","1235998","0.0-3.0-1.608","../audio/45-1-masc.mp3"," ","","O","","","",""
"","1219","audio-keyboard-response","724","1237502","0.0-3.0-1.609","../audio/45-2-masc.mp3"," ","","homem","","","",""
"","992","audio-keyboard-response","725","1238766","0.0-3.0-1.610","../audio/45-3-masc.mp3"," ","","pagou","","","",""
"","608","audio-keyboard-response","726","1239662","0.0-3.0-1.611","../audio/45-4-masc.mp3"," ","","o","","","",""
"","912","audio-keyboard-response","727","1240846","0.0-3.0-1.612","../audio/45-5-masc.mp3"," ","","aluguel","","","",""
"","720","audio-keyboard-response","728","1241838","0.0-3.0-1.613","../audio/45-6-masc.mp3"," ","","com","","","",""
"","869","audio-keyboard-response","729","1242990","0.0-3.0-1.614","../audio/45-7-masc.mp3"," ","","atraso.","","","",""
"","6210","html-keyboard-response","730","1249454","0.0-3.0-2.614-0.614","<span style=""font-size:25px; font-family: monospace"">O homem pagou o aluguel em dia?</span>","n","","","O homem pagou o aluguel em dia?","null","exp-sent","false"
"[{""page_index"":0,""viewing_time"":15601}]","15601","instructions","731","1265575","0.0-4.0","","","","","","","",""
