"view_history","rt","trial_type","trial_index","time_elapsed","internal_node_id","stimulus","response","class","status","answer","correct","trial","letters"
"[{""page_index"":0,""viewing_time"":60537}]","60537","instructions","0","60538","0.0-0.0","","","","","","","",""
"","null","html-keyboard-response","1","61141","0.0-1.0-0.0","+","null","","","","","",""
"","10060","html-keyboard-response","2","71202","0.0-1.0-1.0","chassi","n","null","cog","word","S","prac","null"
"","null","html-keyboard-response","3","71702","0.0-1.0-0.1","+","null","","","","","",""
"","9931","html-keyboard-response","4","81634","0.0-1.0-1.1","oliva","s","null","cog","word","S","prac","null"
"","null","html-keyboard-response","5","82136","0.0-1.0-0.2","+","null","","","","","",""
"","3162","html-keyboard-response","6","85298","0.0-1.0-1.2","daja","n","null","noncog","pseudo","N","prac","null"
"","null","html-keyboard-response","7","85799","0.0-1.0-0.3","+","null","","","","","",""
"","7354","html-keyboard-response","8","93154","0.0-1.0-1.3","plibar","n","null","noncog","pseudo","N","prac","null"
"","null","html-keyboard-response","9","93655","0.0-1.0-0.4","+","null","","","","","",""
"","5354","html-keyboard-response","10","99010","0.0-1.0-1.4","calmaria","s","null","noncog","word","S","prac","null"
"","null","html-keyboard-response","11","99511","0.0-1.0-0.5","+","null","","","","","",""
"","6986","html-keyboard-response","12","106498","0.0-1.0-1.5","órgão","s","null","noncog","word","S","prac","null"
"","null","html-keyboard-response","13","106999","0.0-1.0-0.6","+","null","","","","","",""
"","8426","html-keyboard-response","14","115426","0.0-1.0-1.6","crante","n","null","noncog","pseudo","N","prac","null"
"[{""page_index"":0,""viewing_time"":34088}]","34088","instructions","15","149514","0.0-2.0","","","","","","","",""
"","null","html-keyboard-response","16","150116","0.0-3.0-0.0","+","null","","","","","",""
"","4221","html-keyboard-response","17","154337","0.0-3.0-1.0","propaganda","n","n","cog","word","S","exp","10"
"","null","html-keyboard-response","18","154838","0.0-3.0-0.1","+","null","","","","","",""
"","4939","html-keyboard-response","19","159777","0.0-3.0-1.1","hipócrita","s","a","noncog","word","S","exp","9"
"","null","html-keyboard-response","20","160278","0.0-3.0-0.2","+","null","","","","","",""
"","4955","html-keyboard-response","21","165233","0.0-3.0-1.2","reduzir","n","v","cog","word","S","exp","7"
"","null","html-keyboard-response","22","165734","0.0-3.0-0.3","+","null","","","","","",""
"","2763","html-keyboard-response","23","168497","0.0-3.0-1.3","undivídio","s","null","noncog","pseudo","N","exp","null"
"","null","html-keyboard-response","24","168998","0.0-3.0-0.4","+","null","","","","","",""
"","2923","html-keyboard-response","25","171921","0.0-3.0-1.4","mudança","s","n","noncog","word","S","exp","7"
"","null","html-keyboard-response","26","172422","0.0-3.0-0.5","+","null","","","","","",""
"","5947","html-keyboard-response","27","178369","0.0-3.0-1.5","aperor","n","null","noncog","pseudo","N","exp","null"
"","null","html-keyboard-response","28","178871","0.0-3.0-0.6","+","null","","","","","",""
"","4282","html-keyboard-response","29","183153","0.0-3.0-1.6","árovre","n","null","noncog","pseudo","N","exp","null"
"","null","html-keyboard-response","30","183654","0.0-3.0-0.7","+","null","","","","","",""
"","3130","html-keyboard-response","31","186785","0.0-3.0-1.7","aitrou","n","null","noncog","pseudo","N","exp","null"
"","null","html-keyboard-response","32","187287","0.0-3.0-0.8","+","null","","","","","",""
"","2890","html-keyboard-response","33","190177","0.0-3.0-1.8","tartos","s","null","noncog","pseudo","N","exp","null"
"","null","html-keyboard-response","34","190679","0.0-3.0-0.9","+","null","","","","","",""
"","2842","html-keyboard-response","35","193521","0.0-3.0-1.9","verceja","s","null","noncog","pseudo","N","exp","null"
"","null","html-keyboard-response","36","194036","0.0-3.0-0.10","+","null","","","","","",""
"","1261","html-keyboard-response","37","195297","0.0-3.0-1.10","verde","s","a","noncog","word","S","exp","5"
"","null","html-keyboard-response","38","195798","0.0-3.0-0.11","+","null","","","","","",""
"","1467","html-keyboard-response","39","197265","0.0-3.0-1.11","atrasar","s","v","noncog","word","S","exp","7"
"","null","html-keyboard-response","40","197766","0.0-3.0-0.12","+","null","","","","","",""
"","2379","html-keyboard-response","41","200145","0.0-3.0-1.12","aparme","n","null","noncog","pseudo","N","exp","null"
"","null","html-keyboard-response","42","200646","0.0-3.0-0.13","+","null","","","","","",""
"","1114","html-keyboard-response","43","201761","0.0-3.0-1.13","fogão","s","n","noncog","word","S","exp","5"
"","null","html-keyboard-response","44","202262","0.0-3.0-0.14","+","null","","","","","",""
"","1178","html-keyboard-response","45","203441","0.0-3.0-1.14","verdade","s","n","cog","word","S","exp","7"
"","null","html-keyboard-response","46","203942","0.0-3.0-0.15","+","null","","","","","",""
"","1659","html-keyboard-response","47","205601","0.0-3.0-1.15","motros","s","null","noncog","pseudo","N","exp","null"
"","null","html-keyboard-response","48","206102","0.0-3.0-0.16","+","null","","","","","",""
"","4858","html-keyboard-response","49","210960","0.0-3.0-1.16","morno","n","a","noncog","word","S","exp","5"
"","null","html-keyboard-response","50","211461","0.0-3.0-0.17","+","null","","","","","",""
"","2347","html-keyboard-response","51","213808","0.0-3.0-1.17","braras","n","null","noncog","pseudo","N","exp","null"
"","null","html-keyboard-response","52","214309","0.0-3.0-0.18","+","null","","","","","",""
"","2619","html-keyboard-response","53","216928","0.0-3.0-1.18","manfa","n","null","noncog","pseudo","N","exp","null"
"","null","html-keyboard-response","54","217429","0.0-3.0-0.19","+","null","","","","","",""
"","2187","html-keyboard-response","55","219616","0.0-3.0-1.19","imitar","s","v","cog","word","S","exp","6"
"","null","html-keyboard-response","56","220118","0.0-3.0-0.20","+","null","","","","","",""
"","4986","html-keyboard-response","57","225104","0.0-3.0-1.20","orupas","n","null","noncog","pseudo","N","exp","null"
"","null","html-keyboard-response","58","225606","0.0-3.0-0.21","+","null","","","","","",""
"","906","html-keyboard-response","59","226512","0.0-3.0-1.21","chorão","s","a","noncog","word","S","exp","6"
"","null","html-keyboard-response","60","227013","0.0-3.0-0.22","+","null","","","","","",""
"","987","html-keyboard-response","61","228000","0.0-3.0-1.22","avenas","s","null","noncog","pseudo","N","exp","null"
"","null","html-keyboard-response","62","228501","0.0-3.0-0.23","+","null","","","","","",""
"","3274","html-keyboard-response","63","231776","0.0-3.0-1.23","barco","s","n","cog","word","S","exp","5"
"","null","html-keyboard-response","64","232277","0.0-3.0-0.24","+","null","","","","","",""
"","1371","html-keyboard-response","65","233648","0.0-3.0-1.24","papai","s","n","cog","word","S","exp","5"
"","null","html-keyboard-response","66","234149","0.0-3.0-0.25","+","null","","","","","",""
"","2011","html-keyboard-response","67","236160","0.0-3.0-1.25","pulmão","s","n","noncog","word","S","exp","6"
"","null","html-keyboard-response","68","236662","0.0-3.0-0.26","+","null","","","","","",""
"","3194","html-keyboard-response","69","239856","0.0-3.0-1.26","mua","n","null","noncog","pseudo","N","exp","null"
"","null","html-keyboard-response","70","240357","0.0-3.0-0.27","+","null","","","","","",""
"","4746","html-keyboard-response","71","245104","0.0-3.0-1.27","bibarconato","n","null","noncog","pseudo","N","exp","null"
"","null","html-keyboard-response","72","245605","0.0-3.0-0.28","+","null","","","","","",""
"","2251","html-keyboard-response","73","247856","0.0-3.0-1.28","ronronar","n","v","cog","word","S","exp","8"
"","null","html-keyboard-response","74","248357","0.0-3.0-0.29","+","null","","","","","",""
"","5147","html-keyboard-response","75","253504","0.0-3.0-1.29","ocinto","n","null","noncog","pseudo","N","exp","null"
"","null","html-keyboard-response","76","254005","0.0-3.0-0.30","+","null","","","","","",""
"","1531","html-keyboard-response","77","255536","0.0-3.0-1.30","bachir","n","null","noncog","pseudo","N","exp","null"
"","null","html-keyboard-response","78","256037","0.0-3.0-0.31","+","null","","","","","",""
"","1371","html-keyboard-response","79","257408","0.0-3.0-1.31","grave","s","a","cog","word","S","exp","5"
"","null","html-keyboard-response","80","257910","0.0-3.0-0.32","+","null","","","","","",""
"","4890","html-keyboard-response","81","262800","0.0-3.0-1.32","preferir","s","v","cog","word","S","exp","8"
"","null","html-keyboard-response","82","263301","0.0-3.0-0.33","+","null","","","","","",""
"","2762","html-keyboard-response","83","266064","0.0-3.0-1.33","resmungar","n","v","noncog","word","S","exp","9"
"","null","html-keyboard-response","84","266565","0.0-3.0-0.34","+","null","","","","","",""
"","4075","html-keyboard-response","85","270640","0.0-3.0-1.34","macras","n","null","noncog","pseudo","N","exp","null"
"","null","html-keyboard-response","86","271141","0.0-3.0-0.35","+","null","","","","","",""
"","2858","html-keyboard-response","87","274000","0.0-3.0-1.35","conjerto","s","null","noncog","pseudo","N","exp","null"
"","null","html-keyboard-response","88","274501","0.0-3.0-0.36","+","null","","","","","",""
"","4811","html-keyboard-response","89","279313","0.0-3.0-1.36","motre","n","null","noncog","pseudo","N","exp","null"
"","null","html-keyboard-response","90","279814","0.0-3.0-0.37","+","null","","","","","",""
"","3866","html-keyboard-response","91","283680","0.0-3.0-1.37","enxerido","s","a","noncog","word","S","exp","8"
"","null","html-keyboard-response","92","284182","0.0-3.0-0.38","+","null","","","","","",""
"","2378","html-keyboard-response","93","286560","0.0-3.0-1.38","medalha","s","n","cog","word","S","exp","7"
"","null","html-keyboard-response","94","287062","0.0-3.0-0.39","+","null","","","","","",""
"","2874","html-keyboard-response","95","289936","0.0-3.0-1.39","quenzina","s","null","noncog","pseudo","N","exp","null"
"","null","html-keyboard-response","96","290438","0.0-3.0-0.40","+","null","","","","","",""
"","1418","html-keyboard-response","97","291856","0.0-3.0-1.40","dipata","n","null","noncog","pseudo","N","exp","null"
"","null","html-keyboard-response","98","292358","0.0-3.0-0.41","+","null","","","","","",""
"","2618","html-keyboard-response","99","294976","0.0-3.0-1.41","adoçar","s","v","noncog","word","S","exp","6"
"","null","html-keyboard-response","100","295478","0.0-3.0-0.42","+","null","","","","","",""
"","1962","html-keyboard-response","101","297440","0.0-3.0-1.42","gertas","n","null","noncog","pseudo","N","exp","null"
"","null","html-keyboard-response","102","297942","0.0-3.0-0.43","+","null","","","","","",""
"","1386","html-keyboard-response","103","299328","0.0-3.0-1.43","taberia","n","null","noncog","pseudo","N","exp","null"
"","null","html-keyboard-response","104","299830","0.0-3.0-0.44","+","null","","","","","",""
"","4874","html-keyboard-response","105","304705","0.0-3.0-1.44","gilha","n","null","noncog","pseudo","N","exp","null"
"","null","html-keyboard-response","106","305206","0.0-3.0-0.45","+","null","","","","","",""
"","4314","html-keyboard-response","107","309520","0.0-3.0-1.45","matinal","s","a","cog","word","S","exp","7"
"","null","html-keyboard-response","108","310021","0.0-3.0-0.46","+","null","","","","","",""
"","4251","html-keyboard-response","109","314272","0.0-3.0-1.46","gruja","n","null","noncog","pseudo","N","exp","null"
"","null","html-keyboard-response","110","314773","0.0-3.0-0.47","+","null","","","","","",""
"","2299","html-keyboard-response","111","317072","0.0-3.0-1.47","rovaz","n","null","noncog","pseudo","N","exp","null"
"","null","html-keyboard-response","112","317574","0.0-3.0-0.48","+","null","","","","","",""
"","2842","html-keyboard-response","113","320416","0.0-3.0-1.48","mabras","n","null","noncog","pseudo","N","exp","null"
"","null","html-keyboard-response","114","320918","0.0-3.0-0.49","+","null","","","","","",""
"","4842","html-keyboard-response","115","325760","0.0-3.0-1.49","tatear","s","v","cog","word","S","exp","6"
"","null","html-keyboard-response","116","326262","0.0-3.0-0.50","+","null","","","","","",""
"","1274","html-keyboard-response","117","327536","0.0-3.0-1.50","morija","n","null","noncog","pseudo","N","exp","null"
"","null","html-keyboard-response","118","328037","0.0-3.0-0.51","+","null","","","","","",""
"","1451","html-keyboard-response","119","329488","0.0-3.0-1.51","podilo","n","null","noncog","pseudo","N","exp","null"
"","null","html-keyboard-response","120","329989","0.0-3.0-0.52","+","null","","","","","",""
"","10731","html-keyboard-response","121","340720","0.0-3.0-1.52","montanha","s","n","cog","word","S","exp","8"
"","null","html-keyboard-response","122","341221","0.0-3.0-0.53","+","null","","","","","",""
"","3386","html-keyboard-response","123","344607","0.0-3.0-1.53","atapdar","n","null","noncog","pseudo","N","exp","null"
"","null","html-keyboard-response","124","345109","0.0-3.0-0.54","+","null","","","","","",""
"","3130","html-keyboard-response","125","348239","0.0-3.0-1.54","liberal","s","a","cog","word","S","exp","7"
"","null","html-keyboard-response","126","348741","0.0-3.0-0.55","+","null","","","","","",""
"","1994","html-keyboard-response","127","350736","0.0-3.0-1.55","afual","n","null","noncog","pseudo","N","exp","null"
"","null","html-keyboard-response","128","351237","0.0-3.0-0.56","+","null","","","","","",""
"","1594","html-keyboard-response","129","352831","0.0-3.0-1.56","tímido","s","a","cog","word","S","exp","6"
"","null","html-keyboard-response","130","353332","0.0-3.0-0.57","+","null","","","","","",""
"","2955","html-keyboard-response","131","356287","0.0-3.0-1.57","abieso","n","null","noncog","pseudo","N","exp","null"
"","null","html-keyboard-response","132","356788","0.0-3.0-0.58","+","null","","","","","",""
"","1611","html-keyboard-response","133","358399","0.0-3.0-1.58","gordo","n","a","noncog","word","S","exp","5"
"","null","html-keyboard-response","134","358900","0.0-3.0-0.59","+","null","","","","","",""
"","2331","html-keyboard-response","135","361231","0.0-3.0-1.59","encelhor","s","null","noncog","pseudo","N","exp","null"
"","null","html-keyboard-response","136","361742","0.0-3.0-0.60","+","null","","","","","",""
"","2705","html-keyboard-response","137","364447","0.0-3.0-1.60","deselegante","s","a","noncog","word","S","exp","11"
"","null","html-keyboard-response","138","364948","0.0-3.0-0.61","+","null","","","","","",""
"","1659","html-keyboard-response","139","366607","0.0-3.0-1.61","cápsula","s","n","noncog","word","S","exp","7"
"","null","html-keyboard-response","140","367109","0.0-3.0-0.62","+","null","","","","","",""
"","1690","html-keyboard-response","141","368799","0.0-3.0-1.62","aivões","s","null","noncog","pseudo","N","exp","null"
"","null","html-keyboard-response","142","369300","0.0-3.0-0.63","+","null","","","","","",""
"","1786","html-keyboard-response","143","371087","0.0-3.0-1.63","agravar","s","v","cog","word","S","exp","7"
"","null","html-keyboard-response","144","371589","0.0-3.0-0.64","+","null","","","","","",""
"","1290","html-keyboard-response","145","372879","0.0-3.0-1.64","nevela","n","null","noncog","pseudo","N","exp","null"
"","null","html-keyboard-response","146","373381","0.0-3.0-0.65","+","null","","","","","",""
"","1930","html-keyboard-response","147","375311","0.0-3.0-1.65","distraído","s","a","cog","word","S","exp","9"
"","null","html-keyboard-response","148","375812","0.0-3.0-0.66","+","null","","","","","",""
"","4523","html-keyboard-response","149","380335","0.0-3.0-1.66","risbos","n","null","noncog","pseudo","N","exp","null"
"","null","html-keyboard-response","150","380837","0.0-3.0-0.67","+","null","","","","","",""
"","2298","html-keyboard-response","151","383135","0.0-3.0-1.67","grótis","s","null","noncog","pseudo","N","exp","null"
"","null","html-keyboard-response","152","383637","0.0-3.0-0.68","+","null","","","","","",""
"","2538","html-keyboard-response","153","386175","0.0-3.0-1.68","pimada","s","null","noncog","pseudo","N","exp","null"
"","null","html-keyboard-response","154","386676","0.0-3.0-0.69","+","null","","","","","",""
"","2955","html-keyboard-response","155","389631","0.0-3.0-1.69","pedaço","s","n","noncog","word","S","exp","6"
"","null","html-keyboard-response","156","390133","0.0-3.0-0.70","+","null","","","","","",""
"","1082","html-keyboard-response","157","391215","0.0-3.0-1.70","carro","s","n","noncog","word","S","exp","5"
"","null","html-keyboard-response","158","391716","0.0-3.0-0.71","+","null","","","","","",""
"","1691","html-keyboard-response","159","393407","0.0-3.0-1.71","atitro","n","null","noncog","pseudo","N","exp","null"
"","null","html-keyboard-response","160","393908","0.0-3.0-0.72","+","null","","","","","",""
"","3227","html-keyboard-response","161","397135","0.0-3.0-1.72","casuas","s","null","noncog","pseudo","N","exp","null"
"","null","html-keyboard-response","162","397637","0.0-3.0-0.73","+","null","","","","","",""
"","826","html-keyboard-response","163","398463","0.0-3.0-1.73","mal","s","a","cog","word","S","exp","3"
"","null","html-keyboard-response","164","398965","0.0-3.0-0.74","+","null","","","","","",""
"","2251","html-keyboard-response","165","401215","0.0-3.0-1.74","nivelado","s","a","cog","word","S","exp","8"
"","null","html-keyboard-response","166","401716","0.0-3.0-0.75","+","null","","","","","",""
"","1387","html-keyboard-response","167","403103","0.0-3.0-1.75","farcas","s","null","noncog","pseudo","N","exp","null"
"","null","html-keyboard-response","168","403616","0.0-3.0-0.76","+","null","","","","","",""
"","2766","html-keyboard-response","169","406383","0.0-3.0-1.76","pneucania","n","null","noncog","pseudo","N","exp","null"
"","null","html-keyboard-response","170","406884","0.0-3.0-0.77","+","null","","","","","",""
"","4763","html-keyboard-response","171","411647","0.0-3.0-1.77","sanque","n","null","noncog","pseudo","N","exp","null"
"","null","html-keyboard-response","172","412149","0.0-3.0-0.78","+","null","","","","","",""
"","5162","html-keyboard-response","173","417311","0.0-3.0-1.78","rédesa","n","null","noncog","pseudo","N","exp","null"
"","null","html-keyboard-response","174","417812","0.0-3.0-0.79","+","null","","","","","",""
"","7051","html-keyboard-response","175","424863","0.0-3.0-1.79","garastia","n","null","noncog","pseudo","N","exp","null"
"","null","html-keyboard-response","176","425365","0.0-3.0-0.80","+","null","","","","","",""
"","2778","html-keyboard-response","177","428143","0.0-3.0-1.80","prever","n","v","cog","word","S","exp","6"
"","null","html-keyboard-response","178","428645","0.0-3.0-0.81","+","null","","","","","",""
"","2586","html-keyboard-response","179","431231","0.0-3.0-1.81","cristal","s","n","cog","word","S","exp","7"
"","null","html-keyboard-response","180","431733","0.0-3.0-0.82","+","null","","","","","",""
"","890","html-keyboard-response","181","432623","0.0-3.0-1.82","sábio","s","n","noncog","word","S","exp","5"
"","null","html-keyboard-response","182","433124","0.0-3.0-0.83","+","null","","","","","",""
"","8282","html-keyboard-response","183","441407","0.0-3.0-1.83","irratinte","n","null","noncog","pseudo","N","exp","null"
"","null","html-keyboard-response","184","441908","0.0-3.0-0.84","+","null","","","","","",""
"","3467","html-keyboard-response","185","445375","0.0-3.0-1.84","usfiga","n","null","noncog","pseudo","N","exp","null"
"","null","html-keyboard-response","186","445877","0.0-3.0-0.85","+","null","","","","","",""
"","2250","html-keyboard-response","187","448127","0.0-3.0-1.85","fratos","s","null","noncog","pseudo","N","exp","null"
"","null","html-keyboard-response","188","448629","0.0-3.0-0.86","+","null","","","","","",""
"","826","html-keyboard-response","189","449455","0.0-3.0-1.86","dia","s","n","noncog","word","S","exp","3"
"","null","html-keyboard-response","190","449959","0.0-3.0-0.87","+","null","","","","","",""
"","2984","html-keyboard-response","191","452943","0.0-3.0-1.87","areia","n","n","noncog","word","S","exp","5"
"","null","html-keyboard-response","192","453445","0.0-3.0-0.88","+","null","","","","","",""
"","4218","html-keyboard-response","193","457663","0.0-3.0-1.88","trair","s","v","cog","word","S","exp","5"
"","null","html-keyboard-response","194","458165","0.0-3.0-0.89","+","null","","","","","",""
"","3578","html-keyboard-response","195","461743","0.0-3.0-1.89","manais","n","null","noncog","pseudo","N","exp","null"
"","null","html-keyboard-response","196","462244","0.0-3.0-0.90","+","null","","","","","",""
"","4186","html-keyboard-response","197","466431","0.0-3.0-1.90","refletir","n","v","cog","word","S","exp","8"
"","null","html-keyboard-response","198","466931","0.0-3.0-0.91","+","null","","","","","",""
"","3163","html-keyboard-response","199","470095","0.0-3.0-1.91","ilhure","n","null","noncog","pseudo","N","exp","null"
"","null","html-keyboard-response","200","470596","0.0-3.0-0.92","+","null","","","","","",""
"","2122","html-keyboard-response","201","472718","0.0-3.0-1.92","instruído","s","a","noncog","word","S","exp","9"
"","null","html-keyboard-response","202","473220","0.0-3.0-0.93","+","null","","","","","",""
"","986","html-keyboard-response","203","474206","0.0-3.0-1.93","fino","n","a","cog","word","S","exp","4"
"","null","html-keyboard-response","204","474707","0.0-3.0-0.94","+","null","","","","","",""
"","3899","html-keyboard-response","205","478607","0.0-3.0-1.94","ensuas","n","null","noncog","pseudo","N","exp","null"
"","null","html-keyboard-response","206","479108","0.0-3.0-0.95","+","null","","","","","",""
"","1466","html-keyboard-response","207","480575","0.0-3.0-1.95","perdão","s","n","noncog","word","S","exp","6"
"","null","html-keyboard-response","208","481075","0.0-3.0-0.96","+","null","","","","","",""
"","2123","html-keyboard-response","209","483199","0.0-3.0-1.96","lapestra","n","null","noncog","pseudo","N","exp","null"
"","null","html-keyboard-response","210","483699","0.0-3.0-0.97","+","null","","","","","",""
"","1434","html-keyboard-response","211","485134","0.0-3.0-1.97","fofo","n","a","noncog","word","S","exp","4"
"","null","html-keyboard-response","212","485636","0.0-3.0-0.98","+","null","","","","","",""
"","1866","html-keyboard-response","213","487502","0.0-3.0-1.98","revista","s","n","cog","word","S","exp","7"
"","null","html-keyboard-response","214","488004","0.0-3.0-0.99","+","null","","","","","",""
"","1642","html-keyboard-response","215","489647","0.0-3.0-1.99","civil","s","a","cog","word","S","exp","5"
"","null","html-keyboard-response","216","490149","0.0-3.0-0.100","+","null","","","","","",""
"","4377","html-keyboard-response","217","494526","0.0-3.0-1.100","raspar","n","v","noncog","word","S","exp","6"
"","null","html-keyboard-response","218","495028","0.0-3.0-0.101","+","null","","","","","",""
"","2746","html-keyboard-response","219","497774","0.0-3.0-1.101","hedoru","n","null","noncog","pseudo","N","exp","null"
"","null","html-keyboard-response","220","498276","0.0-3.0-0.102","+","null","","","","","",""
"","2378","html-keyboard-response","221","500655","0.0-3.0-1.102","telafonir","n","null","noncog","pseudo","N","exp","null"
"","null","html-keyboard-response","222","501156","0.0-3.0-0.103","+","null","","","","","",""
"","1690","html-keyboard-response","223","502846","0.0-3.0-1.103","tio","s","n","noncog","word","S","exp","3"
"","null","html-keyboard-response","224","503347","0.0-3.0-0.104","+","null","","","","","",""
"","5547","html-keyboard-response","225","508894","0.0-3.0-1.104","multiplicar","s","v","cog","word","S","exp","11"
"","null","html-keyboard-response","226","509395","0.0-3.0-0.105","+","null","","","","","",""
"","955","html-keyboard-response","227","510350","0.0-3.0-1.105","carregar","s","v","noncog","word","S","exp","8"
"","null","html-keyboard-response","228","510858","0.0-3.0-0.106","+","null","","","","","",""
"","1044","html-keyboard-response","229","511902","0.0-3.0-1.106","trabalhar","s","v","noncog","word","S","exp","9"
"","null","html-keyboard-response","230","512404","0.0-3.0-0.107","+","null","","","","","",""
"","2410","html-keyboard-response","231","514814","0.0-3.0-1.107","lagras","s","null","noncog","pseudo","N","exp","null"
"","null","html-keyboard-response","232","515316","0.0-3.0-0.108","+","null","","","","","",""
"","3450","html-keyboard-response","233","518766","0.0-3.0-1.108","nervoso","n","a","noncog","word","S","exp","7"
"","null","html-keyboard-response","234","519268","0.0-3.0-0.109","+","null","","","","","",""
"","1018","html-keyboard-response","235","520286","0.0-3.0-1.109","morar","s","v","noncog","word","S","exp","5"
"","null","html-keyboard-response","236","520787","0.0-3.0-0.110","+","null","","","","","",""
"","1627","html-keyboard-response","237","522414","0.0-3.0-1.110","grátis","s","a","cog","word","S","exp","6"
"","null","html-keyboard-response","238","522915","0.0-3.0-0.111","+","null","","","","","",""
"","890","html-keyboard-response","239","523806","0.0-3.0-1.111","ótimo","s","a","noncog","word","S","exp","5"
"","null","html-keyboard-response","240","524308","0.0-3.0-0.112","+","null","","","","","",""
"","1354","html-keyboard-response","241","525662","0.0-3.0-1.112","alpica","s","null","noncog","pseudo","N","exp","null"
"","null","html-keyboard-response","242","526164","0.0-3.0-0.113","+","null","","","","","",""
"","1290","html-keyboard-response","243","527454","0.0-3.0-1.113","ênclio","s","null","noncog","pseudo","N","exp","null"
"","null","html-keyboard-response","244","527955","0.0-3.0-0.114","+","null","","","","","",""
"","1658","html-keyboard-response","245","529614","0.0-3.0-1.114","filosofia","n","n","cog","word","S","exp","9"
"","null","html-keyboard-response","246","530115","0.0-3.0-0.115","+","null","","","","","",""
"","3579","html-keyboard-response","247","533694","0.0-3.0-1.115","espionar","s","v","cog","word","S","exp","8"
"","null","html-keyboard-response","248","534195","0.0-3.0-0.116","+","null","","","","","",""
"","5162","html-keyboard-response","249","539358","0.0-3.0-1.116","berquesa","n","null","noncog","pseudo","N","exp","null"
"","null","html-keyboard-response","250","539861","0.0-3.0-0.117","+","null","","","","","",""
"","1433","html-keyboard-response","251","541294","0.0-3.0-1.117","cerca","s","n","noncog","word","S","exp","5"
"","null","html-keyboard-response","252","541796","0.0-3.0-0.118","+","null","","","","","",""
"","2010","html-keyboard-response","253","543806","0.0-3.0-1.118","cravo","s","n","noncog","word","S","exp","5"
"","null","html-keyboard-response","254","544307","0.0-3.0-0.119","+","null","","","","","",""
"","2779","html-keyboard-response","255","547086","0.0-3.0-1.119","protas","n","null","noncog","pseudo","N","exp","null"
"","null","html-keyboard-response","256","547587","0.0-3.0-0.120","+","null","","","","","",""
"","3291","html-keyboard-response","257","550878","0.0-3.0-1.120","trenos","s","null","noncog","pseudo","N","exp","null"
"","null","html-keyboard-response","258","551379","0.0-3.0-0.121","+","null","","","","","",""
"","1002","html-keyboard-response","259","552382","0.0-3.0-1.121","agressivo","s","a","cog","word","S","exp","9"
"","null","html-keyboard-response","260","552885","0.0-3.0-0.122","+","null","","","","","",""
"","2761","html-keyboard-response","261","555646","0.0-3.0-1.122","planalto","s","n","cog","word","S","exp","8"
"","null","html-keyboard-response","262","556153","0.0-3.0-0.123","+","null","","","","","",""
"","1877","html-keyboard-response","263","558030","0.0-3.0-1.123","convidado","s","n","noncog","word","S","exp","9"
"","null","html-keyboard-response","264","558531","0.0-3.0-0.124","+","null","","","","","",""
"","1723","html-keyboard-response","265","560254","0.0-3.0-1.124","oricia","n","null","noncog","pseudo","N","exp","null"
"","null","html-keyboard-response","266","560759","0.0-3.0-0.125","+","null","","","","","",""
"","3703","html-keyboard-response","267","564462","0.0-3.0-1.125","drama","s","n","cog","word","S","exp","5"
"","null","html-keyboard-response","268","564963","0.0-3.0-0.126","+","null","","","","","",""
"","2171","html-keyboard-response","269","567134","0.0-3.0-1.126","traduzir","s","v","cog","word","S","exp","8"
"","null","html-keyboard-response","270","567636","0.0-3.0-0.127","+","null","","","","","",""
"","1546","html-keyboard-response","271","569182","0.0-3.0-1.127","tela","s","n","noncog","word","S","exp","4"
"","null","html-keyboard-response","272","569684","0.0-3.0-0.128","+","null","","","","","",""
"","5594","html-keyboard-response","273","575278","0.0-3.0-1.128","suipestar","s","null","noncog","pseudo","N","exp","null"
"","null","html-keyboard-response","274","575781","0.0-3.0-0.129","+","null","","","","","",""
"","4168","html-keyboard-response","275","579950","0.0-3.0-1.129","nacional","s","a","cog","word","S","exp","8"
"","null","html-keyboard-response","276","580452","0.0-3.0-0.130","+","null","","","","","",""
"","6794","html-keyboard-response","277","587246","0.0-3.0-1.130","francês","n","a","cog","word","S","exp","7"
"","null","html-keyboard-response","278","587747","0.0-3.0-0.131","+","null","","","","","",""
"","1098","html-keyboard-response","279","588846","0.0-3.0-1.131","azul","s","n","noncog","word","S","exp","4"
"","null","html-keyboard-response","280","589347","0.0-3.0-0.132","+","null","","","","","",""
"","2187","html-keyboard-response","281","591534","0.0-3.0-1.132","terdia","s","null","noncog","pseudo","N","exp","null"
"","null","html-keyboard-response","282","592035","0.0-3.0-0.133","+","null","","","","","",""
"","1930","html-keyboard-response","283","593966","0.0-3.0-1.133","pangos","s","null","noncog","pseudo","N","exp","null"
"","null","html-keyboard-response","284","594468","0.0-3.0-0.134","+","null","","","","","",""
"","2682","html-keyboard-response","285","597150","0.0-3.0-1.134","uchães","s","null","noncog","pseudo","N","exp","null"
"","null","html-keyboard-response","286","597650","0.0-3.0-0.135","+","null","","","","","",""
"","1243","html-keyboard-response","287","598894","0.0-3.0-1.135","nome","s","n","cog","word","S","exp","4"
"","null","html-keyboard-response","288","599395","0.0-3.0-0.136","+","null","","","","","",""
"","3466","html-keyboard-response","289","602862","0.0-3.0-1.136","parceter","n","null","noncog","pseudo","N","exp","null"
"","null","html-keyboard-response","290","603363","0.0-3.0-0.137","+","null","","","","","",""
"","3610","html-keyboard-response","291","606973","0.0-3.0-1.137","dobradiça","s","n","noncog","word","S","exp","9"
"","null","html-keyboard-response","292","607474","0.0-3.0-0.138","+","null","","","","","",""
"","1595","html-keyboard-response","293","609070","0.0-3.0-1.138","brincar","s","v","noncog","word","S","exp","7"
"","null","html-keyboard-response","294","609575","0.0-3.0-0.139","+","null","","","","","",""
"","2038","html-keyboard-response","295","611614","0.0-3.0-1.139","boreta","s","null","noncog","pseudo","N","exp","null"
"","null","html-keyboard-response","296","612115","0.0-3.0-0.140","+","null","","","","","",""
"","1530","html-keyboard-response","297","613646","0.0-3.0-1.140","uçar","s","null","noncog","pseudo","N","exp","null"
"","null","html-keyboard-response","298","614146","0.0-3.0-0.141","+","null","","","","","",""
"","1195","html-keyboard-response","299","615342","0.0-3.0-1.141","memória","s","n","cog","word","S","exp","7"
"","null","html-keyboard-response","300","615843","0.0-3.0-0.142","+","null","","","","","",""
"","1851","html-keyboard-response","301","617694","0.0-3.0-1.142","açúcar","s","n","noncog","word","S","exp","6"
"","null","html-keyboard-response","302","618195","0.0-3.0-0.143","+","null","","","","","",""
"","1482","html-keyboard-response","303","619678","0.0-3.0-1.143","crutas","s","null","noncog","pseudo","N","exp","null"
"","null","html-keyboard-response","304","620179","0.0-3.0-0.144","+","null","","","","","",""
"","4282","html-keyboard-response","305","624462","0.0-3.0-1.144","franda","n","null","noncog","pseudo","N","exp","null"
"","null","html-keyboard-response","306","624963","0.0-3.0-0.145","+","null","","","","","",""
"","1977","html-keyboard-response","307","626941","0.0-3.0-1.145","tronca","n","null","noncog","pseudo","N","exp","null"
"","null","html-keyboard-response","308","627442","0.0-3.0-0.146","+","null","","","","","",""
"","2715","html-keyboard-response","309","630158","0.0-3.0-1.146","delomir","n","null","noncog","pseudo","N","exp","null"
"","null","html-keyboard-response","310","630659","0.0-3.0-0.147","+","null","","","","","",""
"","7754","html-keyboard-response","311","638414","0.0-3.0-1.147","costra","n","null","noncog","pseudo","N","exp","null"
"","null","html-keyboard-response","312","638928","0.0-3.0-0.148","+","null","","","","","",""
"","829","html-keyboard-response","313","639758","0.0-3.0-1.148","país","s","n","noncog","word","S","exp","4"
"","null","html-keyboard-response","314","640261","0.0-3.0-0.149","+","null","","","","","",""
"","1480","html-keyboard-response","315","641742","0.0-3.0-1.149","prantal","n","null","noncog","pseudo","N","exp","null"
"","null","html-keyboard-response","316","642243","0.0-3.0-0.150","+","null","","","","","",""
"","2842","html-keyboard-response","317","645086","0.0-3.0-1.150","cirado","s","null","noncog","pseudo","N","exp","null"
"","null","html-keyboard-response","318","645587","0.0-3.0-0.151","+","null","","","","","",""
"","2746","html-keyboard-response","319","648333","0.0-3.0-1.151","bandido","s","n","cog","word","S","exp","7"
"","null","html-keyboard-response","320","648834","0.0-3.0-0.152","+","null","","","","","",""
"","2411","html-keyboard-response","321","651245","0.0-3.0-1.152","extravagante","s","a","cog","word","S","exp","12"
"","null","html-keyboard-response","322","651746","0.0-3.0-0.153","+","null","","","","","",""
"","3195","html-keyboard-response","323","654941","0.0-3.0-1.153","cenada","s","null","noncog","pseudo","N","exp","null"
"","null","html-keyboard-response","324","655443","0.0-3.0-0.154","+","null","","","","","",""
"","1226","html-keyboard-response","325","656669","0.0-3.0-1.154","espinho","s","n","noncog","word","S","exp","7"
"","null","html-keyboard-response","326","657183","0.0-3.0-0.155","+","null","","","","","",""
"","1086","html-keyboard-response","327","658269","0.0-3.0-1.155","prenas","s","null","noncog","pseudo","N","exp","null"
"","null","html-keyboard-response","328","658771","0.0-3.0-0.156","+","null","","","","","",""
"","1546","html-keyboard-response","329","660317","0.0-3.0-1.156","oecano","s","null","noncog","pseudo","N","exp","null"
"","null","html-keyboard-response","330","660819","0.0-3.0-0.157","+","null","","","","","",""
"","7498","html-keyboard-response","331","668317","0.0-3.0-1.157","loaco","n","null","noncog","pseudo","N","exp","null"
"","null","html-keyboard-response","332","668819","0.0-3.0-0.158","+","null","","","","","",""
"","1065","html-keyboard-response","333","669885","0.0-3.0-1.158","especial","s","a","cog","word","S","exp","8"
"","null","html-keyboard-response","334","670385","0.0-3.0-0.159","+","null","","","","","",""
"","3260","html-keyboard-response","335","673645","0.0-3.0-1.159","euorpa","s","null","noncog","pseudo","N","exp","null"
"","null","html-keyboard-response","336","674147","0.0-3.0-0.160","+","null","","","","","",""
"","4106","html-keyboard-response","337","678253","0.0-3.0-1.160","ideisa","s","null","noncog","pseudo","N","exp","null"
"","null","html-keyboard-response","338","678755","0.0-3.0-0.161","+","null","","","","","",""
"","1258","html-keyboard-response","339","680013","0.0-3.0-1.161","selir","n","null","noncog","pseudo","N","exp","null"
"","null","html-keyboard-response","340","680514","0.0-3.0-0.162","+","null","","","","","",""
"","5451","html-keyboard-response","341","685965","0.0-3.0-1.162","comércio","s","n","noncog","word","S","exp","8"
"","null","html-keyboard-response","342","686471","0.0-3.0-0.163","+","null","","","","","",""
"","2293","html-keyboard-response","343","688765","0.0-3.0-1.163","promessa","s","n","noncog","word","S","exp","8"
"","null","html-keyboard-response","344","689267","0.0-3.0-0.164","+","null","","","","","",""
"","1690","html-keyboard-response","345","690957","0.0-3.0-1.164","delirar","n","v","noncog","word","S","exp","7"
"","null","html-keyboard-response","346","691459","0.0-3.0-0.165","+","null","","","","","",""
"","1577","html-keyboard-response","347","693037","0.0-3.0-1.165","mania","n","n","cog","word","S","exp","5"
"","null","html-keyboard-response","348","693539","0.0-3.0-0.166","+","null","","","","","",""
"","4138","html-keyboard-response","349","697677","0.0-3.0-1.166","vervas","n","null","noncog","pseudo","N","exp","null"
"","null","html-keyboard-response","350","698191","0.0-3.0-0.167","+","null","","","","","",""
"","2878","html-keyboard-response","351","701069","0.0-3.0-1.167","âgnulo","n","null","noncog","pseudo","N","exp","null"
"","null","html-keyboard-response","352","701570","0.0-3.0-0.168","+","null","","","","","",""
"","3019","html-keyboard-response","353","704589","0.0-3.0-1.168","enedro","n","null","noncog","pseudo","N","exp","null"
"","null","html-keyboard-response","354","705091","0.0-3.0-0.169","+","null","","","","","",""
"","2458","html-keyboard-response","355","707549","0.0-3.0-1.169","esperar","s","v","cog","word","S","exp","7"
"","null","html-keyboard-response","356","708051","0.0-3.0-0.170","+","null","","","","","",""
"","2138","html-keyboard-response","357","710189","0.0-3.0-1.170","pega-pega","s","n","noncog","word","S","exp","8"
"","null","html-keyboard-response","358","710690","0.0-3.0-0.171","+","null","","","","","",""
"","7386","html-keyboard-response","359","718077","0.0-3.0-1.171","aemaça","s","null","noncog","pseudo","N","exp","null"
"","null","html-keyboard-response","360","718579","0.0-3.0-0.172","+","null","","","","","",""
"","1993","html-keyboard-response","361","720573","0.0-3.0-1.172","espaço","s","n","cog","word","S","exp","6"
"","null","html-keyboard-response","362","721076","0.0-3.0-0.173","+","null","","","","","",""
"","3240","html-keyboard-response","363","724317","0.0-3.0-1.173","esfoce","s","null","noncog","pseudo","N","exp","null"
"","null","html-keyboard-response","364","724818","0.0-3.0-0.174","+","null","","","","","",""
"","5962","html-keyboard-response","365","730781","0.0-3.0-1.174","bracos","s","null","noncog","pseudo","N","exp","null"
"","null","html-keyboard-response","366","731282","0.0-3.0-0.175","+","null","","","","","",""
"","2698","html-keyboard-response","367","733981","0.0-3.0-1.175","temperar","s","v","noncog","word","S","exp","8"
"","null","html-keyboard-response","368","734483","0.0-3.0-0.176","+","null","","","","","",""
"","3801","html-keyboard-response","369","738285","0.0-3.0-1.176","cascata","s","n","noncog","word","S","exp","7"
"","null","html-keyboard-response","370","738786","0.0-3.0-0.177","+","null","","","","","",""
"","6234","html-keyboard-response","371","745021","0.0-3.0-1.177","sustentar","s","v","noncog","word","S","exp","9"
"","null","html-keyboard-response","372","745523","0.0-3.0-0.178","+","null","","","","","",""
"","2074","html-keyboard-response","373","747597","0.0-3.0-1.178","salpicado","s","a","noncog","word","S","exp","9"
"","null","html-keyboard-response","374","748103","0.0-3.0-0.179","+","null","","","","","",""
"","2725","html-keyboard-response","375","750829","0.0-3.0-1.179","dacada","s","null","noncog","pseudo","N","exp","null"
"","null","html-keyboard-response","376","751329","0.0-3.0-0.180","+","null","","","","","",""
"","1979","html-keyboard-response","377","753309","0.0-3.0-1.180","jastor","n","null","noncog","pseudo","N","exp","null"
"","null","html-keyboard-response","378","753811","0.0-3.0-0.181","+","null","","","","","",""
"","2394","html-keyboard-response","379","756205","0.0-3.0-1.181","enxarto","n","null","noncog","pseudo","N","exp","null"
"","null","html-keyboard-response","380","756706","0.0-3.0-0.182","+","null","","","","","",""
"","1354","html-keyboard-response","381","758061","0.0-3.0-1.182","burtos","n","null","noncog","pseudo","N","exp","null"
"","null","html-keyboard-response","382","758561","0.0-3.0-0.183","+","null","","","","","",""
"","3563","html-keyboard-response","383","762125","0.0-3.0-1.183","promeção","s","null","noncog","pseudo","N","exp","null"
"","null","html-keyboard-response","384","762625","0.0-3.0-0.184","+","null","","","","","",""
"","5387","html-keyboard-response","385","768013","0.0-3.0-1.184","incomodar","n","v","noncog","word","S","exp","9"
"","null","html-keyboard-response","386","768514","0.0-3.0-0.185","+","null","","","","","",""
"","3690","html-keyboard-response","387","772205","0.0-3.0-1.185","revear","n","null","noncog","pseudo","N","exp","null"
"","null","html-keyboard-response","388","772707","0.0-3.0-0.186","+","null","","","","","",""
"","1930","html-keyboard-response","389","774637","0.0-3.0-1.186","telefone","s","n","cog","word","S","exp","8"
"","null","html-keyboard-response","390","775138","0.0-3.0-0.187","+","null","","","","","",""
"","2762","html-keyboard-response","391","777901","0.0-3.0-1.187","candifência","s","null","noncog","pseudo","N","exp","null"
"","null","html-keyboard-response","392","778403","0.0-3.0-0.188","+","null","","","","","",""
"","3082","html-keyboard-response","393","781485","0.0-3.0-1.188","crolatário","s","null","noncog","pseudo","N","exp","null"
"","null","html-keyboard-response","394","781987","0.0-3.0-0.189","+","null","","","","","",""
"","1514","html-keyboard-response","395","783501","0.0-3.0-1.189","afonher","n","null","noncog","pseudo","N","exp","null"
"","null","html-keyboard-response","396","784001","0.0-3.0-0.190","+","null","","","","","",""
"","4331","html-keyboard-response","397","788333","0.0-3.0-1.190","detative","n","null","noncog","pseudo","N","exp","null"
"","null","html-keyboard-response","398","788835","0.0-3.0-0.191","+","null","","","","","",""
"","1386","html-keyboard-response","399","790221","0.0-3.0-1.191","aletiê","n","null","noncog","pseudo","N","exp","null"
"","null","html-keyboard-response","400","790722","0.0-3.0-0.192","+","null","","","","","",""
"","922","html-keyboard-response","401","791645","0.0-3.0-1.192","beima","n","null","noncog","pseudo","N","exp","null"
"","null","html-keyboard-response","402","792146","0.0-3.0-0.193","+","null","","","","","",""
"","4650","html-keyboard-response","403","796797","0.0-3.0-1.193","cinema","s","n","cog","word","S","exp","6"
"","null","html-keyboard-response","404","797312","0.0-3.0-0.194","+","null","","","","","",""
"","3596","html-keyboard-response","405","800909","0.0-3.0-1.194","anjo","n","n","cog","word","S","exp","4"
"","null","html-keyboard-response","406","801410","0.0-3.0-0.195","+","null","","","","","",""
"","1290","html-keyboard-response","407","802700","0.0-3.0-1.195","viver","n","v","cog","word","S","exp","5"
"","null","html-keyboard-response","408","803216","0.0-3.0-0.196","+","null","","","","","",""
"","1884","html-keyboard-response","409","805101","0.0-3.0-1.196","hébies","n","null","noncog","pseudo","N","exp","null"
"","null","html-keyboard-response","410","805602","0.0-3.0-0.197","+","null","","","","","",""
"","4618","html-keyboard-response","411","810221","0.0-3.0-1.197","arranjar","n","v","cog","word","S","exp","8"
"","null","html-keyboard-response","412","810722","0.0-3.0-0.198","+","null","","","","","",""
"","4699","html-keyboard-response","413","815421","0.0-3.0-1.198","lagoa","s","n","cog","word","S","exp","5"
"","null","html-keyboard-response","414","815922","0.0-3.0-0.199","+","null","","","","","",""
"","4075","html-keyboard-response","415","819997","0.0-3.0-1.199","pantufa","n","n","cog","word","S","exp","7"
"","null","html-keyboard-response","416","820499","0.0-3.0-0.200","+","null","","","","","",""
"","2682","html-keyboard-response","417","823181","0.0-3.0-1.200","fasdas","n","null","noncog","pseudo","N","exp","null"
"","null","html-keyboard-response","418","823682","0.0-3.0-0.201","+","null","","","","","",""
"","3210","html-keyboard-response","419","826893","0.0-3.0-1.201","usnado","n","null","noncog","pseudo","N","exp","null"
"","null","html-keyboard-response","420","827394","0.0-3.0-0.202","+","null","","","","","",""
"","1883","html-keyboard-response","421","829277","0.0-3.0-1.202","destino","s","n","cog","word","S","exp","7"
"","null","html-keyboard-response","422","829780","0.0-3.0-0.203","+","null","","","","","",""
"","6377","html-keyboard-response","423","836156","0.0-3.0-1.203","filme","s","n","cog","word","S","exp","5"
"","null","html-keyboard-response","424","836657","0.0-3.0-0.204","+","null","","","","","",""
"","954","html-keyboard-response","425","837612","0.0-3.0-1.204","glória","s","n","cog","word","S","exp","6"
"","null","html-keyboard-response","426","838114","0.0-3.0-0.205","+","null","","","","","",""
"","1146","html-keyboard-response","427","839260","0.0-3.0-1.205","chato","s","n","noncog","word","S","exp","5"
"","null","html-keyboard-response","428","839762","0.0-3.0-0.206","+","null","","","","","",""
"","4762","html-keyboard-response","429","844524","0.0-3.0-1.206","senareta","n","null","noncog","pseudo","N","exp","null"
"","null","html-keyboard-response","430","845026","0.0-3.0-0.207","+","null","","","","","",""
"","2106","html-keyboard-response","431","847132","0.0-3.0-1.207","independente","s","a","noncog","word","S","exp","12"
"","null","html-keyboard-response","432","847633","0.0-3.0-0.208","+","null","","","","","",""
"","1499","html-keyboard-response","433","849132","0.0-3.0-1.208","faínas","n","null","noncog","pseudo","N","exp","null"
"","null","html-keyboard-response","434","849633","0.0-3.0-0.209","+","null","","","","","",""
"","4826","html-keyboard-response","435","854460","0.0-3.0-1.209","perbas","n","null","noncog","pseudo","N","exp","null"
"","null","html-keyboard-response","436","854962","0.0-3.0-0.210","+","null","","","","","",""
"","2954","html-keyboard-response","437","857916","0.0-3.0-1.210","pitada","n","n","noncog","word","S","exp","6"
"","null","html-keyboard-response","438","858423","0.0-3.0-0.211","+","null","","","","","",""
"","1172","html-keyboard-response","439","859596","0.0-3.0-1.211","tinta","s","n","cog","word","S","exp","5"
"","null","html-keyboard-response","440","860097","0.0-3.0-0.212","+","null","","","","","",""
"","3211","html-keyboard-response","441","863308","0.0-3.0-1.212","frotes","n","null","noncog","pseudo","N","exp","null"
"","null","html-keyboard-response","442","863810","0.0-3.0-0.213","+","null","","","","","",""
"","5882","html-keyboard-response","443","869692","0.0-3.0-1.213","ejerro","n","null","noncog","pseudo","N","exp","null"
"","null","html-keyboard-response","444","870193","0.0-3.0-0.214","+","null","","","","","",""
"","3371","html-keyboard-response","445","873564","0.0-3.0-1.214","liso","n","n","noncog","word","S","exp","4"
"","null","html-keyboard-response","446","874065","0.0-3.0-0.215","+","null","","","","","",""
"","2731","html-keyboard-response","447","876796","0.0-3.0-1.215","esprotiar","s","null","noncog","pseudo","N","exp","null"
"","null","html-keyboard-response","448","877296","0.0-3.0-0.216","+","null","","","","","",""
"","2378","html-keyboard-response","449","879676","0.0-3.0-1.216","pritas","n","null","noncog","pseudo","N","exp","null"
"","null","html-keyboard-response","450","880178","0.0-3.0-0.217","+","null","","","","","",""
"","1866","html-keyboard-response","451","882044","0.0-3.0-1.217","disbrituir","n","null","noncog","pseudo","N","exp","null"
"","null","html-keyboard-response","452","882545","0.0-3.0-0.218","+","null","","","","","",""
"","4106","html-keyboard-response","453","886652","0.0-3.0-1.218","vitrive","n","null","noncog","pseudo","N","exp","null"
"","null","html-keyboard-response","454","887154","0.0-3.0-0.219","+","null","","","","","",""
"","1930","html-keyboard-response","455","889084","0.0-3.0-1.219","animado","s","a","noncog","word","S","exp","7"
"","null","html-keyboard-response","456","889585","0.0-3.0-0.220","+","null","","","","","",""
"","1914","html-keyboard-response","457","891500","0.0-3.0-1.220","plinta","n","null","noncog","pseudo","N","exp","null"
"","null","html-keyboard-response","458","892001","0.0-3.0-0.221","+","null","","","","","",""
"","2442","html-keyboard-response","459","894444","0.0-3.0-1.221","melão","s","n","cog","word","S","exp","5"
"","null","html-keyboard-response","460","894946","0.0-3.0-0.222","+","null","","","","","",""
"","2202","html-keyboard-response","461","897147","0.0-3.0-1.222","dilheira","s","null","noncog","pseudo","N","exp","null"
"","null","html-keyboard-response","462","897649","0.0-3.0-0.223","+","null","","","","","",""
"","4026","html-keyboard-response","463","901675","0.0-3.0-1.223","lorfaz","n","null","noncog","pseudo","N","exp","null"
"","null","html-keyboard-response","464","902176","0.0-3.0-0.224","+","null","","","","","",""
"","2043","html-keyboard-response","465","904219","0.0-3.0-1.224","bambu","s","n","cog","word","S","exp","5"
"","null","html-keyboard-response","466","904720","0.0-3.0-0.225","+","null","","","","","",""
"","1339","html-keyboard-response","467","906059","0.0-3.0-1.225","jantar","s","v","noncog","word","S","exp","6"
"","null","html-keyboard-response","468","906563","0.0-3.0-0.226","+","null","","","","","",""
"","3064","html-keyboard-response","469","909627","0.0-3.0-1.226","socorro","s","n","noncog","word","S","exp","7"
"","null","html-keyboard-response","470","910128","0.0-3.0-0.227","+","null","","","","","",""
"","3147","html-keyboard-response","471","913275","0.0-3.0-1.227","livro","s","n","cog","word","S","exp","5"
"","null","html-keyboard-response","472","913789","0.0-3.0-0.228","+","null","","","","","",""
"","2718","html-keyboard-response","473","916507","0.0-3.0-1.228","fusbão","s","null","noncog","pseudo","N","exp","null"
"","null","html-keyboard-response","474","917008","0.0-3.0-0.229","+","null","","","","","",""
"","2827","html-keyboard-response","475","919835","0.0-3.0-1.229","sintonizar","s","v","noncog","word","S","exp","10"
"","null","html-keyboard-response","476","920337","0.0-3.0-0.230","+","null","","","","","",""
"","3082","html-keyboard-response","477","923419","0.0-3.0-1.230","carona","n","n","noncog","word","S","exp","6"
"","null","html-keyboard-response","478","923921","0.0-3.0-0.231","+","null","","","","","",""
"","3657","html-keyboard-response","479","927579","0.0-3.0-1.231","apontar","n","v","noncog","word","S","exp","7"
"","null","html-keyboard-response","480","928080","0.0-3.0-0.232","+","null","","","","","",""
"","3419","html-keyboard-response","481","931499","0.0-3.0-1.232","bagunceira","s","a","noncog","word","S","exp","10"
"","null","html-keyboard-response","482","932001","0.0-3.0-0.233","+","null","","","","","",""
"","4570","html-keyboard-response","483","936571","0.0-3.0-1.233","escumo","n","null","noncog","pseudo","N","exp","null"
"","null","html-keyboard-response","484","937072","0.0-3.0-0.234","+","null","","","","","",""
"","2571","html-keyboard-response","485","939644","0.0-3.0-1.234","dencosto","s","null","noncog","pseudo","N","exp","null"
"","null","html-keyboard-response","486","940145","0.0-3.0-0.235","+","null","","","","","",""
"","2858","html-keyboard-response","487","943003","0.0-3.0-1.235","tênis","n","n","cog","word","S","exp","5"
"","null","html-keyboard-response","488","943504","0.0-3.0-0.236","+","null","","","","","",""
"","1115","html-keyboard-response","489","944619","0.0-3.0-1.236","oper","n","null","noncog","pseudo","N","exp","null"
"","null","html-keyboard-response","490","945121","0.0-3.0-0.237","+","null","","","","","",""
"","7098","html-keyboard-response","491","952219","0.0-3.0-1.237","bancada","n","n","noncog","word","S","exp","7"
"","null","html-keyboard-response","492","952721","0.0-3.0-0.238","+","null","","","","","",""
"","3194","html-keyboard-response","493","955915","0.0-3.0-1.238","alfabeto","s","n","cog","word","S","exp","8"
"","null","html-keyboard-response","494","956420","0.0-3.0-0.239","+","null","","","","","",""
"","6567","html-keyboard-response","495","962987","0.0-3.0-1.239","ofreta","n","null","noncog","pseudo","N","exp","null"
