"view_history","rt","trial_type","trial_index","time_elapsed","internal_node_id","stimulus","response","trial_part","trial","word","question","answer","accuracy"
"[{""page_index"":0,""viewing_time"":1403},{""page_index"":1,""viewing_time"":3687}]","5090","instructions","0","5091","0.0-0.0","","","","","","","",""
"","null","html-keyboard-response","1","6213","0.0-1.0-0.0-0.0","<span style= ""font-size:30px; font-family: monospace"">+</span>","null","fixation","","","","",""
"","4451","html-keyboard-response","2","10923","0.0-1.0-1.0","<span style=""font-size:30px; font-family: monospace"">O</span>"," ","","prac-sent","O","","",""
"","3828","html-keyboard-response","3","15020","0.0-1.0-1.1","<span style=""font-size:30px; font-family: monospace"">dia</span>"," ","","prac-sent","dia","","",""
"","7401","html-keyboard-response","4","22683","0.0-1.0-1.2","<span style=""font-size:30px; font-family: monospace"">estará</span>"," ","","prac-sent","estará","","",""
"","6003","html-keyboard-response","5","28956","0.0-1.0-1.3","<span style=""font-size:30px; font-family: monospace"">cheio</span>"," ","","prac-sent","cheio","","",""
"","2997","html-keyboard-response","6","32220","0.0-1.0-1.4","<span style=""font-size:30px; font-family: monospace"">de</span>"," ","","prac-sent","de","","",""
"","2549","html-keyboard-response","7","35020","0.0-1.0-1.5","<span style=""font-size:30px; font-family: monospace"">nuvens</span>"," ","","prac-sent","nuvens","","",""
"","1781","html-keyboard-response","8","37052","0.0-1.0-1.6","<span style=""font-size:30px; font-family: monospace"">hoje.</span>"," ","","prac-sent","hoje.","","",""
"","null","html-keyboard-response","9","38304","0.0-1.0-0.7-0.7","<span style= ""font-size:30px; font-family: monospace"">+</span>","null","fixation","","","","",""
"","0","html-keyboard-response","10","38556","0.0-1.0-1.7","<span style=""font-size:30px; font-family: monospace"">A</span>"," ","","prac-sent","A","","",""
"","2789","html-keyboard-response","11","41595","0.0-1.0-1.8","<span style=""font-size:30px; font-family: monospace"">caneca</span>"," ","","prac-sent","caneca","","",""
"","2853","html-keyboard-response","12","44700","0.0-1.0-1.9","<span style=""font-size:30px; font-family: monospace"">colorida</span>"," ","","prac-sent","colorida","","",""
"","3797","html-keyboard-response","13","48748","0.0-1.0-1.10","<span style=""font-size:30px; font-family: monospace"">caiu</span>"," ","","prac-sent","caiu","","",""
"","2453","html-keyboard-response","14","51452","0.0-1.0-1.11","<span style=""font-size:30px; font-family: monospace"">da</span>"," ","","prac-sent","da","","",""
"","7013","html-keyboard-response","15","58716","0.0-1.0-1.12","<span style=""font-size:30px; font-family: monospace"">mesa</span>"," ","","prac-sent","mesa","","",""
"","13093","html-keyboard-response","16","72060","0.0-1.0-1.13","<span style=""font-size:30px; font-family: monospace"">de</span>"," ","","prac-sent","de","","",""
"","3221","html-keyboard-response","17","75532","0.0-1.0-1.14","<span style=""font-size:30px; font-family: monospace"">jantar.</span>"," ","","prac-comp","jantar.","","",""
"","17108","html-keyboard-response","18","92892","0.0-1.0-2.14-0.14","<span style=""font-size:30px; font-family: monospace"">A caneca permaneceu na mesa?</span>","s","","prac-comp","","A caneca permaneceu na mesa?","não","false"
"[{""page_index"":0,""viewing_time"":10276}]","10276","instructions","19","103668","0.0-2.0","","","","","","","",""
"","null","html-keyboard-response","20","104770","0.0-3.0-0.0-0.0","<span style= ""font-size:30px; font-family: monospace"">+</span>","null","fixation","","","","",""
"","1839","html-keyboard-response","21","106860","0.0-3.0-1.0","<span style=""font-size:30px; font-family: monospace"">A</span>"," ","","exp-sent","A","","",""
"","1957","html-keyboard-response","22","109067","0.0-3.0-1.1","<span style=""font-size:30px; font-family: monospace"">senhora</span>"," ","","exp-sent","senhora","","",""
"","2469","html-keyboard-response","23","111787","0.0-3.0-1.2","<span style=""font-size:30px; font-family: monospace"">cumprimentou</span>"," ","","exp-sent","cumprimentou","","",""
"","996","html-keyboard-response","24","113035","0.0-3.0-1.3","<span style=""font-size:30px; font-family: monospace"">o</span>"," ","","exp-sent","o","","",""
"","2725","html-keyboard-response","25","116011","0.0-3.0-1.4","<span style=""font-size:30px; font-family: monospace"">operador</span>"," ","","exp-sent","operador","","",""
"","996","html-keyboard-response","26","117259","0.0-3.0-1.5","<span style=""font-size:30px; font-family: monospace"">de</span>"," ","","exp-sent","de","","",""
"","1620","html-keyboard-response","27","119131","0.0-3.0-1.6","<span style=""font-size:30px; font-family: monospace"">caixa.</span>"," ","","exp-sent","caixa.","","",""
"","null","html-keyboard-response","28","120389","0.0-3.0-0.7-0.7","<span style= ""font-size:30px; font-family: monospace"">+</span>","null","fixation","","","","",""
"","699","html-keyboard-response","29","121339","0.0-3.0-1.7","<span style=""font-size:30px; font-family: monospace"">A</span>"," ","","exp-sent","A","","",""
"","965","html-keyboard-response","30","122555","0.0-3.0-1.8","<span style=""font-size:30px; font-family: monospace"">gente</span>"," ","","exp-sent","gente","","",""
"","1077","html-keyboard-response","31","123883","0.0-3.0-1.9","<span style=""font-size:30px; font-family: monospace"">viu</span>"," ","","exp-sent","viu","","",""
"","789","html-keyboard-response","32","124923","0.0-3.0-1.10","<span style=""font-size:30px; font-family: monospace"">o</span>"," ","","exp-sent","o","","",""
"","4597","html-keyboard-response","33","129771","0.0-3.0-1.11","<span style=""font-size:30px; font-family: monospace"">eclipse</span>"," ","","exp-sent","eclipse","","",""
"","2357","html-keyboard-response","34","132379","0.0-3.0-1.12","<span style=""font-size:30px; font-family: monospace"">lunar</span>"," ","","exp-sent","lunar","","",""
"","1752","html-keyboard-response","35","134395","0.0-3.0-1.13","<span style=""font-size:30px; font-family: monospace"">durante</span>"," ","","exp-sent","durante","","",""
"","1285","html-keyboard-response","36","135931","0.0-3.0-1.14","<span style=""font-size:30px; font-family: monospace"">o</span>"," ","","exp-sent","o","","",""
"","1589","html-keyboard-response","37","137770","0.0-3.0-1.15","<span style=""font-size:30px; font-family: monospace"">dia.</span>"," ","","exp-sent","dia.","","",""
"","null","html-keyboard-response","38","139022","0.0-3.0-0.16-0.16","<span style= ""font-size:30px; font-family: monospace"">+</span>","null","fixation","","","","",""
"","802","html-keyboard-response","39","140075","0.0-3.0-1.16","<span style=""font-size:30px; font-family: monospace"">A</span>"," ","","exp-sent","A","","",""
"","4373","html-keyboard-response","40","144699","0.0-3.0-1.17","<span style=""font-size:30px; font-family: monospace"">mordida</span>"," ","","exp-sent","mordida","","",""
"","4997","html-keyboard-response","41","149947","0.0-3.0-1.18","<span style=""font-size:30px; font-family: monospace"">do</span>"," ","","exp-sent","do","","",""
"","4645","html-keyboard-response","42","154843","0.0-3.0-1.19","<span style=""font-size:30px; font-family: monospace"">cachorro</span>"," ","","exp-sent","cachorro","","",""
"","2021","html-keyboard-response","43","157115","0.0-3.0-1.20","<span style=""font-size:30px; font-family: monospace"">voraz</span>"," ","","exp-sent","voraz","","",""
"","6981","html-keyboard-response","44","164347","0.0-3.0-1.21","<span style=""font-size:30px; font-family: monospace"">causou</span>"," ","","exp-sent","causou","","",""
"","1413","html-keyboard-response","45","166011","0.0-3.0-1.22","<span style=""font-size:30px; font-family: monospace"">uma</span>"," ","","exp-sent","uma","","",""
"","5925","html-keyboard-response","46","172186","0.0-3.0-1.23","<span style=""font-size:30px; font-family: monospace"">cicatriz.</span>"," ","","exp-sent","cicatriz.","","",""
"","null","html-keyboard-response","47","173438","0.0-3.0-0.24-0.24","<span style= ""font-size:30px; font-family: monospace"">+</span>","null","fixation","","","","",""
"","1857","html-keyboard-response","48","175547","0.0-3.0-1.24","<span style=""font-size:30px; font-family: monospace"">Elas</span>"," ","","exp-sent","Elas","","",""
"","1205","html-keyboard-response","49","177003","0.0-3.0-1.25","<span style=""font-size:30px; font-family: monospace"">não</span>"," ","","exp-sent","não","","",""
"","2484","html-keyboard-response","50","179739","0.0-3.0-1.26","<span style=""font-size:30px; font-family: monospace"">viram</span>"," ","","exp-sent","viram","","",""
"","5924","html-keyboard-response","51","185914","0.0-3.0-1.27","<span style=""font-size:30px; font-family: monospace"">nenhuma</span>"," ","","exp-sent","nenhuma","","",""
"","2549","html-keyboard-response","52","188714","0.0-3.0-1.28","<span style=""font-size:30px; font-family: monospace"">diferença</span>"," ","","exp-sent","diferença","","",""
"","3061","html-keyboard-response","53","192026","0.0-3.0-1.29","<span style=""font-size:30px; font-family: monospace"">entre</span>"," ","","exp-sent","entre","","",""
"","1924","html-keyboard-response","54","194202","0.0-3.0-1.30","<span style=""font-size:30px; font-family: monospace"">os</span>"," ","","exp-sent","os","","",""
"","2661","html-keyboard-response","55","197115","0.0-3.0-1.31","<span style=""font-size:30px; font-family: monospace"">textos.</span>"," ","","exp-sent","textos.","","",""
"","null","html-keyboard-response","56","198366","0.0-3.0-0.32-0.32","<span style= ""font-size:30px; font-family: monospace"">+</span>","null","fixation","","","","",""
"","1617","html-keyboard-response","57","200234","0.0-3.0-1.32","<span style=""font-size:30px; font-family: monospace"">Amanhã</span>"," ","","exp-sent","Amanhã","","",""
"","1013","html-keyboard-response","58","201499","0.0-3.0-1.33","<span style=""font-size:30px; font-family: monospace"">vai</span>"," ","","exp-sent","vai","","",""
"","1717","html-keyboard-response","59","203466","0.0-3.0-1.34","<span style=""font-size:30px; font-family: monospace"">ter</span>"," ","","exp-sent","ter","","",""
"","789","html-keyboard-response","60","204506","0.0-3.0-1.35","<span style=""font-size:30px; font-family: monospace"">um</span>"," ","","exp-sent","um","","",""
"","1956","html-keyboard-response","61","206714","0.0-3.0-1.36","<span style=""font-size:30px; font-family: monospace"">bazar</span>"," ","","exp-sent","bazar","","",""
"","1109","html-keyboard-response","62","208074","0.0-3.0-1.37","<span style=""font-size:30px; font-family: monospace"">no</span>"," ","","exp-sent","no","","",""
"","1442","html-keyboard-response","63","209771","0.0-3.0-1.38","<span style=""font-size:30px; font-family: monospace"">bairro.</span>"," ","","comp","bairro.","","",""
"","18789","html-keyboard-response","64","228811","0.0-3.0-2.38-0.38","<span style=""font-size:30px; font-family: monospace"">Amanhã vai acontecer um bazar no bairro?</span>","s","","comp","","Amanhã vai acontecer um bazar no bairro?","sim","false"
"","null","html-keyboard-response","65","230312","0.0-3.0-0.39-0.39","<span style= ""font-size:30px; font-family: monospace"">+</span>","null","fixation","","","","",""
"","3212","html-keyboard-response","66","233787","0.0-3.0-1.39","<span style=""font-size:30px; font-family: monospace"">Minha</span>"," ","","exp-sent","Minha","","",""
"","2021","html-keyboard-response","67","236059","0.0-3.0-1.40","<span style=""font-size:30px; font-family: monospace"">prima</span>"," ","","exp-sent","prima","","",""
"","1445","html-keyboard-response","68","237755","0.0-3.0-1.41","<span style=""font-size:30px; font-family: monospace"">trocou</span>"," ","","exp-sent","trocou","","",""
"","8373","html-keyboard-response","69","246379","0.0-3.0-1.42","<span style=""font-size:30px; font-family: monospace"">a</span>"," ","","exp-sent","a","","",""
"","2462","html-keyboard-response","70","249098","0.0-3.0-1.43","<span style=""font-size:30px; font-family: monospace"">tela</span>"," ","","exp-sent","tela","","",""
"","1061","html-keyboard-response","71","250411","0.0-3.0-1.44","<span style=""font-size:30px; font-family: monospace"">do</span>"," ","","exp-sent","do","","",""
"","6692","html-keyboard-response","72","257354","0.0-3.0-1.45","<span style=""font-size:30px; font-family: monospace"">celular</span>"," ","","exp-sent","celular","","",""
"","1205","html-keyboard-response","73","258810","0.0-3.0-1.46","<span style=""font-size:30px; font-family: monospace"">duas</span>"," ","","exp-sent","duas","","",""
"","1845","html-keyboard-response","74","260906","0.0-3.0-1.47","<span style=""font-size:30px; font-family: monospace"">vezes.</span>"," ","","exp-sent","vezes.","","",""
"","null","html-keyboard-response","75","262158","0.0-3.0-0.48-0.48","<span style= ""font-size:30px; font-family: monospace"">+</span>","null","fixation","","","","",""
"","1025","html-keyboard-response","76","263435","0.0-3.0-1.48","<span style=""font-size:30px; font-family: monospace"">Agora</span>"," ","","exp-sent","Agora","","",""
"","933","html-keyboard-response","77","264619","0.0-3.0-1.49","<span style=""font-size:30px; font-family: monospace"">a</span>"," ","","exp-sent","a","","",""
"","1093","html-keyboard-response","78","265963","0.0-3.0-1.50","<span style=""font-size:30px; font-family: monospace"">minha</span>"," ","","exp-sent","minha","","",""
"","2517","html-keyboard-response","79","268731","0.0-3.0-1.51","<span style=""font-size:30px; font-family: monospace"">única</span>"," ","","exp-sent","única","","",""
"","6533","html-keyboard-response","80","275515","0.0-3.0-1.52","<span style=""font-size:30px; font-family: monospace"">preocupação</span>"," ","","exp-sent","preocupação","","",""
"","852","html-keyboard-response","81","276619","0.0-3.0-1.53","<span style=""font-size:30px; font-family: monospace"">é</span>"," ","","exp-sent","é","","",""
"","1013","html-keyboard-response","82","277883","0.0-3.0-1.54","<span style=""font-size:30px; font-family: monospace"">um</span>"," ","","exp-sent","um","","",""
"","2309","html-keyboard-response","83","280443","0.0-3.0-1.55","<span style=""font-size:30px; font-family: monospace"">descanso</span>"," ","","exp-sent","descanso","","",""
"","2309","html-keyboard-response","84","283003","0.0-3.0-1.56","<span style=""font-size:30px; font-family: monospace"">tranquilo.</span>"," ","","exp-sent","tranquilo.","","",""
"","null","html-keyboard-response","85","284255","0.0-3.0-0.57-0.57","<span style= ""font-size:30px; font-family: monospace"">+</span>","null","fixation","","","","",""
"","1185","html-keyboard-response","86","285691","0.0-3.0-1.57","<span style=""font-size:30px; font-family: monospace"">A</span>"," ","","exp-sent","A","","",""
"","1092","html-keyboard-response","87","287034","0.0-3.0-1.58","<span style=""font-size:30px; font-family: monospace"">criança</span>"," ","","exp-sent","criança","","",""
"","1158","html-keyboard-response","88","288443","0.0-3.0-1.59","<span style=""font-size:30px; font-family: monospace"">ganhou</span>"," ","","exp-sent","ganhou","","",""
"","740","html-keyboard-response","89","289434","0.0-3.0-1.60","<span style=""font-size:30px; font-family: monospace"">um</span>"," ","","exp-sent","um","","",""
"","1493","html-keyboard-response","90","291179","0.0-3.0-1.61","<span style=""font-size:30px; font-family: monospace"">presente</span>"," ","","exp-sent","presente","","",""
"","3301","html-keyboard-response","91","294730","0.0-3.0-1.62","<span style=""font-size:30px; font-family: monospace"">maravilhoso.</span>"," ","","exp-sent","maravilhoso.","","",""
"","null","html-keyboard-response","92","295982","0.0-3.0-0.63-0.63","<span style= ""font-size:30px; font-family: monospace"">+</span>","null","fixation","","","","",""
"","453","html-keyboard-response","93","296698","0.0-3.0-1.63","<span style=""font-size:30px; font-family: monospace"">Os</span>"," ","","exp-sent","Os","","",""
"","1509","html-keyboard-response","94","298458","0.0-3.0-1.64","<span style=""font-size:30px; font-family: monospace"">bichos</span>"," ","","exp-sent","bichos","","",""
"","1253","html-keyboard-response","95","299962","0.0-3.0-1.65","<span style=""font-size:30px; font-family: monospace"">têm</span>"," ","","exp-sent","têm","","",""
"","1252","html-keyboard-response","96","301466","0.0-3.0-1.66","<span style=""font-size:30px; font-family: monospace"">um</span>"," ","","exp-sent","um","","",""
"","5845","html-keyboard-response","97","307562","0.0-3.0-1.67","<span style=""font-size:30px; font-family: monospace"">instinto</span>"," ","","exp-sent","instinto","","",""
"","804","html-keyboard-response","98","308618","0.0-3.0-1.68","<span style=""font-size:30px; font-family: monospace"">de</span>"," ","","exp-sent","de","","",""
"","5973","html-keyboard-response","99","314842","0.0-3.0-1.69","<span style=""font-size:30px; font-family: monospace"">sobrevivência</span>"," ","","exp-sent","sobrevivência","","",""
"","2101","html-keyboard-response","100","317194","0.0-3.0-1.70","<span style=""font-size:30px; font-family: monospace"">forte.</span>"," ","","exp-sent","forte.","","",""
"","null","html-keyboard-response","101","318447","0.0-3.0-0.71-0.71","<span style= ""font-size:30px; font-family: monospace"">+</span>","null","fixation","","","","",""
"","1521","html-keyboard-response","102","320218","0.0-3.0-1.71","<span style=""font-size:30px; font-family: monospace"">Aquele</span>"," ","","exp-sent","Aquele","","",""
"","1637","html-keyboard-response","103","322106","0.0-3.0-1.72","<span style=""font-size:30px; font-family: monospace"">menino</span>"," ","","exp-sent","menino","","",""
"","1509","html-keyboard-response","104","323866","0.0-3.0-1.73","<span style=""font-size:30px; font-family: monospace"">alto</span>"," ","","exp-sent","alto","","",""
"","1061","html-keyboard-response","105","325178","0.0-3.0-1.74","<span style=""font-size:30px; font-family: monospace"">é</span>"," ","","exp-sent","é","","",""
"","5029","html-keyboard-response","106","330458","0.0-3.0-1.75","<span style=""font-size:30px; font-family: monospace"">exibido</span>"," ","","exp-sent","exibido","","",""
"","2325","html-keyboard-response","107","333034","0.0-3.0-1.76","<span style=""font-size:30px; font-family: monospace"">e</span>"," ","","exp-sent","e","","",""
"","2582","html-keyboard-response","108","335866","0.0-3.0-1.77","<span style=""font-size:30px; font-family: monospace"">sovina.</span>"," ","","comp","sovina.","","",""
"","17669","html-keyboard-response","109","353786","0.0-3.0-2.77-0.77","<span style=""font-size:30px; font-family: monospace"">Aquele menino é humilde?</span>","s","","comp","","Aquele menino é humilde?","não","false"
"","null","html-keyboard-response","110","355288","0.0-3.0-0.78-0.78","<span style= ""font-size:30px; font-family: monospace"">+</span>","null","fixation","","","","",""
"","199","html-keyboard-response","111","355738","0.0-3.0-1.78","<span style=""font-size:30px; font-family: monospace"">O</span>"," ","","exp-sent","O","","",""
"","2325","html-keyboard-response","112","358314","0.0-3.0-1.79","<span style=""font-size:30px; font-family: monospace"">texto</span>"," ","","exp-sent","texto","","",""
"","3237","html-keyboard-response","113","361802","0.0-3.0-1.80","<span style=""font-size:30px; font-family: monospace"">trazia</span>"," ","","exp-sent","trazia","","",""
"","1349","html-keyboard-response","114","363402","0.0-3.0-1.81","<span style=""font-size:30px; font-family: monospace"">um</span>"," ","","exp-sent","um","","",""
"","4933","html-keyboard-response","115","368586","0.0-3.0-1.82","<span style=""font-size:30px; font-family: monospace"">argumento</span>"," ","","exp-sent","argumento","","",""
"","2068","html-keyboard-response","116","370906","0.0-3.0-1.83","<span style=""font-size:30px; font-family: monospace"">central</span>"," ","","exp-sent","central","","",""
"","1749","html-keyboard-response","117","372906","0.0-3.0-1.84","<span style=""font-size:30px; font-family: monospace"">para</span>"," ","","exp-sent","para","","",""
"","1061","html-keyboard-response","118","374218","0.0-3.0-1.85","<span style=""font-size:30px; font-family: monospace"">a</span>"," ","","exp-sent","a","","",""
"","3013","html-keyboard-response","119","377482","0.0-3.0-1.86","<span style=""font-size:30px; font-family: monospace"">conversa.</span>"," ","","exp-sent","conversa.","","",""
"","null","html-keyboard-response","120","378735","0.0-3.0-0.87-0.87","<span style= ""font-size:30px; font-family: monospace"">+</span>","null","fixation","","","","",""
"","4033","html-keyboard-response","121","383018","0.0-3.0-1.87","<span style=""font-size:30px; font-family: monospace"">Ontem</span>"," ","","exp-sent","Ontem","","",""
"","1220","html-keyboard-response","122","384490","0.0-3.0-1.88","<span style=""font-size:30px; font-family: monospace"">a</span>"," ","","exp-sent","a","","",""
"","6708","html-keyboard-response","123","391450","0.0-3.0-1.89","<span style=""font-size:30px; font-family: monospace"">temperatura</span>"," ","","exp-sent","temperatura","","",""
"","1253","html-keyboard-response","124","392954","0.0-3.0-1.90","<span style=""font-size:30px; font-family: monospace"">estava</span>"," ","","exp-sent","estava","","",""
"","853","html-keyboard-response","125","394058","0.0-3.0-1.91","<span style=""font-size:30px; font-family: monospace"">amena</span>"," ","","exp-sent","amena","","",""
"","3685","html-keyboard-response","126","397994","0.0-3.0-1.92","<span style=""font-size:30px; font-family: monospace"">durante</span>"," ","","exp-sent","durante","","",""
"","1109","html-keyboard-response","127","399354","0.0-3.0-1.93","<span style=""font-size:30px; font-family: monospace"">o</span>"," ","","exp-sent","o","","",""
"","933","html-keyboard-response","128","400538","0.0-3.0-1.94","<span style=""font-size:30px; font-family: monospace"">dia.</span>"," ","","exp-sent","dia.","","",""
"","null","html-keyboard-response","129","401790","0.0-3.0-0.95-0.95","<span style= ""font-size:30px; font-family: monospace"">+</span>","null","fixation","","","","",""
"","2432","html-keyboard-response","130","404474","0.0-3.0-1.95","<span style=""font-size:30px; font-family: monospace"">Havia</span>"," ","","exp-sent","Havia","","",""
"","10629","html-keyboard-response","131","415353","0.0-3.0-1.96","<span style=""font-size:30px; font-family: monospace"">um</span>"," ","","exp-sent","um","","",""
"","6453","html-keyboard-response","132","422057","0.0-3.0-1.97","<span style=""font-size:30px; font-family: monospace"">machucado</span>"," ","","exp-sent","machucado","","",""
"","4789","html-keyboard-response","133","427097","0.0-3.0-1.98","<span style=""font-size:30px; font-family: monospace"">no</span>"," ","","exp-sent","no","","",""
"","1006","html-keyboard-response","134","428361","0.0-3.0-1.99","<span style=""font-size:30px; font-family: monospace"">dedo</span>"," ","","exp-sent","dedo","","",""
"","805","html-keyboard-response","135","429417","0.0-3.0-1.100","<span style=""font-size:30px; font-family: monospace"">da</span>"," ","","exp-sent","da","","",""
"","2149","html-keyboard-response","136","431817","0.0-3.0-1.101","<span style=""font-size:30px; font-family: monospace"">criança.</span>"," ","","exp-sent","criança.","","",""
"","null","html-keyboard-response","137","433069","0.0-3.0-0.102-0.102","<span style= ""font-size:30px; font-family: monospace"">+</span>","null","fixation","","","","",""
"","801","html-keyboard-response","138","434121","0.0-3.0-1.102","<span style=""font-size:30px; font-family: monospace"">A</span>"," ","","exp-sent","A","","",""
"","5301","html-keyboard-response","139","439673","0.0-3.0-1.103","<span style=""font-size:30px; font-family: monospace"">borboleta</span>"," ","","exp-sent","borboleta","","",""
"","2549","html-keyboard-response","140","442473","0.0-3.0-1.104","<span style=""font-size:30px; font-family: monospace"">pousou</span>"," ","","exp-sent","pousou","","",""
"","3077","html-keyboard-response","141","445801","0.0-3.0-1.105","<span style=""font-size:30px; font-family: monospace"">no</span>"," ","","exp-sent","no","","",""
"","1509","html-keyboard-response","142","447561","0.0-3.0-1.106","<span style=""font-size:30px; font-family: monospace"">ombro</span>"," ","","exp-sent","ombro","","",""
"","1525","html-keyboard-response","143","449337","0.0-3.0-1.107","<span style=""font-size:30px; font-family: monospace"">daquela</span>"," ","","exp-sent","daquela","","",""
"","5573","html-keyboard-response","144","455161","0.0-3.0-1.108","<span style=""font-size:30px; font-family: monospace"">moça.</span>"," ","","exp-sent","moça.","","",""
"","null","html-keyboard-response","145","456413","0.0-3.0-0.109-0.109","<span style= ""font-size:30px; font-family: monospace"">+</span>","null","fixation","","","","",""
"","1712","html-keyboard-response","146","458377","0.0-3.0-1.109","<span style=""font-size:30px; font-family: monospace"">Eu</span>"," ","","exp-sent","Eu","","",""
"","1749","html-keyboard-response","147","460377","0.0-3.0-1.110","<span style=""font-size:30px; font-family: monospace"">quero</span>"," ","","exp-sent","quero","","",""
"","1109","html-keyboard-response","148","461737","0.0-3.0-1.111","<span style=""font-size:30px; font-family: monospace"">um</span>"," ","","exp-sent","um","","",""
"","2292","html-keyboard-response","149","464281","0.0-3.0-1.112","<span style=""font-size:30px; font-family: monospace"">namorado</span>"," ","","exp-sent","namorado","","",""
"","2756","html-keyboard-response","150","467289","0.0-3.0-1.113","<span style=""font-size:30px; font-family: monospace"">honesto</span>"," ","","exp-sent","honesto","","",""
"","1157","html-keyboard-response","151","468697","0.0-3.0-1.114","<span style=""font-size:30px; font-family: monospace"">e</span>"," ","","exp-sent","e","","",""
"","4037","html-keyboard-response","152","472985","0.0-3.0-1.115","<span style=""font-size:30px; font-family: monospace"">compreensivo.</span>"," ","","comp","compreensivo.","","",""
"","4821","html-keyboard-response","153","478057","0.0-3.0-2.115-0.115","<span style=""font-size:30px; font-family: monospace"">Eu quero um namorado honesto?</span>","s","","comp","","Eu quero um namorado honesto?","sim","false"
"","null","html-keyboard-response","154","479559","0.0-3.0-0.116-0.116","<span style= ""font-size:30px; font-family: monospace"">+</span>","null","fixation","","","","",""
"","3480","html-keyboard-response","155","483289","0.0-3.0-1.116","<span style=""font-size:30px; font-family: monospace"">Ursos</span>"," ","","exp-sent","Ursos","","",""
"","1492","html-keyboard-response","156","485033","0.0-3.0-1.117","<span style=""font-size:30px; font-family: monospace"">têm</span>"," ","","exp-sent","têm","","",""
"","1125","html-keyboard-response","157","486409","0.0-3.0-1.118","<span style=""font-size:30px; font-family: monospace"">uma</span>"," ","","exp-sent","uma","","",""
"","1317","html-keyboard-response","158","487977","0.0-3.0-1.119","<span style=""font-size:30px; font-family: monospace"">patada</span>"," ","","exp-sent","patada","","",""
"","1445","html-keyboard-response","159","489673","0.0-3.0-1.120","<span style=""font-size:30px; font-family: monospace"">brutal</span>"," ","","exp-sent","brutal","","",""
"","884","html-keyboard-response","160","490809","0.0-3.0-1.121","<span style=""font-size:30px; font-family: monospace"">e</span>"," ","","exp-sent","e","","",""
"","3110","html-keyboard-response","161","494169","0.0-3.0-1.122","<span style=""font-size:30px; font-family: monospace"">poderosa.</span>"," ","","exp-sent","poderosa.","","",""
"","null","html-keyboard-response","162","495434","0.0-3.0-0.123-0.123","<span style= ""font-size:30px; font-family: monospace"">+</span>","null","fixation","","","","",""
"","564","html-keyboard-response","163","496249","0.0-3.0-1.123","<span style=""font-size:30px; font-family: monospace"">Eu</span>"," ","","exp-sent","Eu","","",""
"","869","html-keyboard-response","164","497369","0.0-3.0-1.124","<span style=""font-size:30px; font-family: monospace"">fiz</span>"," ","","exp-sent","fiz","","",""
"","1877","html-keyboard-response","165","499497","0.0-3.0-1.125","<span style=""font-size:30px; font-family: monospace"">aulas</span>"," ","","exp-sent","aulas","","",""
"","1253","html-keyboard-response","166","501001","0.0-3.0-1.126","<span style=""font-size:30px; font-family: monospace"">de</span>"," ","","exp-sent","de","","",""
"","1685","html-keyboard-response","167","502937","0.0-3.0-1.127","<span style=""font-size:30px; font-family: monospace"">espanhol</span>"," ","","exp-sent","espanhol","","",""
"","1093","html-keyboard-response","168","504281","0.0-3.0-1.128","<span style=""font-size:30px; font-family: monospace"">nesta</span>"," ","","exp-sent","nesta","","",""
"","1093","html-keyboard-response","169","505625","0.0-3.0-1.129","<span style=""font-size:30px; font-family: monospace"">cidade.</span>"," ","","exp-sent","cidade.","","",""
"","null","html-keyboard-response","170","506878","0.0-3.0-0.130-0.130","<span style= ""font-size:30px; font-family: monospace"">+</span>","null","fixation","","","","",""
"","7185","html-keyboard-response","171","514313","0.0-3.0-1.130","<span style=""font-size:30px; font-family: monospace"">Ele</span>"," ","","exp-sent","Ele","","",""
"","1470","html-keyboard-response","172","516041","0.0-3.0-1.131","<span style=""font-size:30px; font-family: monospace"">comprou</span>"," ","","exp-sent","comprou","","",""
"","1028","html-keyboard-response","173","517321","0.0-3.0-1.132","<span style=""font-size:30px; font-family: monospace"">mais</span>"," ","","exp-sent","mais","","",""
"","1093","html-keyboard-response","174","518665","0.0-3.0-1.133","<span style=""font-size:30px; font-family: monospace"">uma</span>"," ","","exp-sent","uma","","",""
"","2981","html-keyboard-response","175","521897","0.0-3.0-1.134","<span style=""font-size:30px; font-family: monospace"">esponja</span>"," ","","exp-sent","esponja","","",""
"","933","html-keyboard-response","176","523081","0.0-3.0-1.135","<span style=""font-size:30px; font-family: monospace"">para</span>"," ","","exp-sent","para","","",""
"","788","html-keyboard-response","177","524121","0.0-3.0-1.136","<span style=""font-size:30px; font-family: monospace"">a</span>"," ","","exp-sent","a","","",""
"","2277","html-keyboard-response","178","526649","0.0-3.0-1.137","<span style=""font-size:30px; font-family: monospace"">cozinha.</span>"," ","","exp-sent","cozinha.","","",""
"","null","html-keyboard-response","179","527906","0.0-3.0-0.138-0.138","<span style= ""font-size:30px; font-family: monospace"">+</span>","null","fixation","","","","",""
"","1180","html-keyboard-response","180","529337","0.0-3.0-1.138","<span style=""font-size:30px; font-family: monospace"">Ele</span>"," ","","exp-sent","Ele","","",""
"","1957","html-keyboard-response","181","531545","0.0-3.0-1.139","<span style=""font-size:30px; font-family: monospace"">teve</span>"," ","","exp-sent","teve","","",""
"","1333","html-keyboard-response","182","533129","0.0-3.0-1.140","<span style=""font-size:30px; font-family: monospace"">um</span>"," ","","exp-sent","um","","",""
"","1766","html-keyboard-response","183","535145","0.0-3.0-1.141","<span style=""font-size:30px; font-family: monospace"">sono</span>"," ","","exp-sent","sono","","",""
"","2277","html-keyboard-response","184","537673","0.0-3.0-1.142","<span style=""font-size:30px; font-family: monospace"">bizarro</span>"," ","","exp-sent","bizarro","","",""
"","1269","html-keyboard-response","185","539192","0.0-3.0-1.143","<span style=""font-size:30px; font-family: monospace"">sem</span>"," ","","exp-sent","sem","","",""
"","1158","html-keyboard-response","186","540600","0.0-3.0-1.144","<span style=""font-size:30px; font-family: monospace"">nenhum</span>"," ","","exp-sent","nenhum","","",""
"","1429","html-keyboard-response","187","542280","0.0-3.0-1.145","<span style=""font-size:30px; font-family: monospace"">motivo.</span>"," ","","exp-sent","motivo.","","",""
"","null","html-keyboard-response","188","543533","0.0-3.0-0.146-0.146","<span style= ""font-size:30px; font-family: monospace"">+</span>","null","fixation","","","","",""
"","1105","html-keyboard-response","189","544888","0.0-3.0-1.146","<span style=""font-size:30px; font-family: monospace"">A</span>"," ","","exp-sent","A","","",""
"","1397","html-keyboard-response","190","546536","0.0-3.0-1.147","<span style=""font-size:30px; font-family: monospace"">moça</span>"," ","","exp-sent","moça","","",""
"","932","html-keyboard-response","191","547720","0.0-3.0-1.148","<span style=""font-size:30px; font-family: monospace"">comprou</span>"," ","","exp-sent","comprou","","",""
"","804","html-keyboard-response","192","548776","0.0-3.0-1.149","<span style=""font-size:30px; font-family: monospace"">um</span>"," ","","exp-sent","um","","",""
"","7637","html-keyboard-response","193","556664","0.0-3.0-1.150","<span style=""font-size:30px; font-family: monospace"">diamante</span>"," ","","exp-sent","diamante","","",""
"","1188","html-keyboard-response","194","558104","0.0-3.0-1.151","<span style=""font-size:30px; font-family: monospace"">para</span>"," ","","exp-sent","para","","",""
"","885","html-keyboard-response","195","559240","0.0-3.0-1.152","<span style=""font-size:30px; font-family: monospace"">sua</span>"," ","","exp-sent","sua","","",""
"","853","html-keyboard-response","196","560344","0.0-3.0-1.153","<span style=""font-size:30px; font-family: monospace"">prima.</span>"," ","","comp","prima.","","",""
"","18853","html-keyboard-response","197","579448","0.0-3.0-2.153-0.153","<span style=""font-size:30px; font-family: monospace"">A moça comprou um diamante?</span>","s","","comp","","A moça comprou um diamante?","sim","false"
"","null","html-keyboard-response","198","580960","0.0-3.0-0.154-0.154","<span style= ""font-size:30px; font-family: monospace"">+</span>","null","fixation","","","","",""
"","877","html-keyboard-response","199","582088","0.0-3.0-1.154","<span style=""font-size:30px; font-family: monospace"">O</span>"," ","","exp-sent","O","","",""
"","1333","html-keyboard-response","200","583672","0.0-3.0-1.155","<span style=""font-size:30px; font-family: monospace"">travesseiro</span>"," ","","exp-sent","travesseiro","","",""
"","1077","html-keyboard-response","201","585000","0.0-3.0-1.156","<span style=""font-size:30px; font-family: monospace"">era</span>"," ","","exp-sent","era","","",""
"","982","html-keyboard-response","202","586232","0.0-3.0-1.157","<span style=""font-size:30px; font-family: monospace"">muito</span>"," ","","exp-sent","muito","","",""
"","2532","html-keyboard-response","203","589016","0.0-3.0-1.158","<span style=""font-size:30px; font-family: monospace"">macio</span>"," ","","exp-sent","macio","","",""
"","822","html-keyboard-response","204","590088","0.0-3.0-1.159","<span style=""font-size:30px; font-family: monospace"">e</span>"," ","","exp-sent","e","","",""
"","4020","html-keyboard-response","205","594360","0.0-3.0-1.160","<span style=""font-size:30px; font-family: monospace"">confortável.</span>"," ","","exp-sent","confortável.","","",""
"","null","html-keyboard-response","206","595612","0.0-3.0-0.161-0.161","<span style= ""font-size:30px; font-family: monospace"">+</span>","null","fixation","","","","",""
"","1457","html-keyboard-response","207","597320","0.0-3.0-1.161","<span style=""font-size:30px; font-family: monospace"">Hoje</span>"," ","","exp-sent","Hoje","","",""
"","837","html-keyboard-response","208","598408","0.0-3.0-1.162","<span style=""font-size:30px; font-family: monospace"">a</span>"," ","","exp-sent","a","","",""
"","1332","html-keyboard-response","209","599992","0.0-3.0-1.163","<span style=""font-size:30px; font-family: monospace"">atendente</span>"," ","","exp-sent","atendente","","",""
"","1413","html-keyboard-response","210","601656","0.0-3.0-1.164","<span style=""font-size:30px; font-family: monospace"">estava</span>"," ","","exp-sent","estava","","",""
"","1640","html-keyboard-response","211","603560","0.0-3.0-1.165","<span style=""font-size:30px; font-family: monospace"">furiosa</span>"," ","","exp-sent","furiosa","","",""
"","1013","html-keyboard-response","212","604824","0.0-3.0-1.166","<span style=""font-size:30px; font-family: monospace"">com</span>"," ","","exp-sent","com","","",""
"","916","html-keyboard-response","213","605992","0.0-3.0-1.167","<span style=""font-size:30px; font-family: monospace"">o</span>"," ","","exp-sent","o","","",""
"","1893","html-keyboard-response","214","608136","0.0-3.0-1.168","<span style=""font-size:30px; font-family: monospace"">cliente.</span>"," ","","exp-sent","cliente.","","",""
"","null","html-keyboard-response","215","609388","0.0-3.0-0.169-0.169","<span style= ""font-size:30px; font-family: monospace"">+</span>","null","fixation","","","","",""
"","481","html-keyboard-response","216","610120","0.0-3.0-1.169","<span style=""font-size:30px; font-family: monospace"">O</span>"," ","","exp-sent","O","","",""
"","1350","html-keyboard-response","217","611720","0.0-3.0-1.170","<span style=""font-size:30px; font-family: monospace"">vizinho</span>"," ","","exp-sent","vizinho","","",""
"","899","html-keyboard-response","218","612872","0.0-3.0-1.171","<span style=""font-size:30px; font-family: monospace"">é</span>"," ","","exp-sent","é","","",""
"","837","html-keyboard-response","219","613960","0.0-3.0-1.172","<span style=""font-size:30px; font-family: monospace"">um</span>"," ","","exp-sent","um","","",""
"","4597","html-keyboard-response","220","618808","0.0-3.0-1.173","<span style=""font-size:30px; font-family: monospace"">arquiteto</span>"," ","","exp-sent","arquiteto","","",""
"","1060","html-keyboard-response","221","620120","0.0-3.0-1.174","<span style=""font-size:30px; font-family: monospace"">muito</span>"," ","","exp-sent","muito","","",""
"","2197","html-keyboard-response","222","622568","0.0-3.0-1.175","<span style=""font-size:30px; font-family: monospace"">excêntrico.</span>"," ","","exp-sent","excêntrico.","","",""
"","null","html-keyboard-response","223","623820","0.0-3.0-0.176-0.176","<span style= ""font-size:30px; font-family: monospace"">+</span>","null","fixation","","","","",""
"","577","html-keyboard-response","224","624648","0.0-3.0-1.176","<span style=""font-size:30px; font-family: monospace"">A</span>"," ","","exp-sent","A","","",""
"","740","html-keyboard-response","225","625640","0.0-3.0-1.177","<span style=""font-size:30px; font-family: monospace"">nossa</span>"," ","","exp-sent","nossa","","",""
"","853","html-keyboard-response","226","626744","0.0-3.0-1.178","<span style=""font-size:30px; font-family: monospace"">colega</span>"," ","","exp-sent","colega","","",""
"","917","html-keyboard-response","227","627912","0.0-3.0-1.179","<span style=""font-size:30px; font-family: monospace"">foi</span>"," ","","exp-sent","foi","","",""
"","1285","html-keyboard-response","228","629448","0.0-3.0-1.180","<span style=""font-size:30px; font-family: monospace"">má</span>"," ","","exp-sent","má","","",""
"","1365","html-keyboard-response","229","631064","0.0-3.0-1.181","<span style=""font-size:30px; font-family: monospace"">com</span>"," ","","exp-sent","com","","",""
"","869","html-keyboard-response","230","632184","0.0-3.0-1.182","<span style=""font-size:30px; font-family: monospace"">as</span>"," ","","exp-sent","as","","",""
"","1269","html-keyboard-response","231","633704","0.0-3.0-1.183","<span style=""font-size:30px; font-family: monospace"">crianças.</span>"," ","","exp-sent","crianças.","","",""
"","null","html-keyboard-response","232","634956","0.0-3.0-0.184-0.184","<span style= ""font-size:30px; font-family: monospace"">+</span>","null","fixation","","","","",""
"","672","html-keyboard-response","233","635880","0.0-3.0-1.184","<span style=""font-size:30px; font-family: monospace"">Virtudes</span>"," ","","exp-sent","Virtudes","","",""
"","805","html-keyboard-response","234","636936","0.0-3.0-1.185","<span style=""font-size:30px; font-family: monospace"">não</span>"," ","","exp-sent","não","","",""
"","868","html-keyboard-response","235","638056","0.0-3.0-1.186","<span style=""font-size:30px; font-family: monospace"">são</span>"," ","","exp-sent","são","","",""
"","3893","html-keyboard-response","236","642200","0.0-3.0-1.187","<span style=""font-size:30px; font-family: monospace"">preguiça,</span>"," ","","exp-sent","preguiça,","","",""
"","1139","html-keyboard-response","237","643592","0.0-3.0-1.188","<span style=""font-size:30px; font-family: monospace"">gula</span>"," ","","exp-sent","gula","","",""
"","12485","html-keyboard-response","238","656328","0.0-3.0-1.189","<span style=""font-size:30px; font-family: monospace"">nem</span>"," ","","exp-sent","nem","","",""
"","6021","html-keyboard-response","239","662600","0.0-3.0-1.190","<span style=""font-size:30px; font-family: monospace"">ganância.</span>"," ","","comp","ganância.","","",""
"","15509","html-keyboard-response","240","678360","0.0-3.0-2.190-0.190","<span style=""font-size:30px; font-family: monospace"">Preguiça é uma virtude?</span>","n","","comp","","Preguiça é uma virtude?","não","false"
"","null","html-keyboard-response","241","679863","0.0-3.0-0.191-0.191","<span style= ""font-size:30px; font-family: monospace"">+</span>","null","fixation","","","","",""
"","390","html-keyboard-response","242","680504","0.0-3.0-1.191","<span style=""font-size:30px; font-family: monospace"">Barulho</span>"," ","","exp-sent","Barulho","","",""
"","2741","html-keyboard-response","243","683496","0.0-3.0-1.192","<span style=""font-size:30px; font-family: monospace"">de</span>"," ","","exp-sent","de","","",""
"","2084","html-keyboard-response","244","685832","0.0-3.0-1.193","<span style=""font-size:30px; font-family: monospace"">carros</span>"," ","","exp-sent","carros","","",""
"","3557","html-keyboard-response","245","689640","0.0-3.0-1.194","<span style=""font-size:30px; font-family: monospace"">é</span>"," ","","exp-sent","é","","",""
"","6820","html-keyboard-response","246","696712","0.0-3.0-1.195","<span style=""font-size:30px; font-family: monospace"">irritante</span>"," ","","exp-sent","irritante","","",""
"","821","html-keyboard-response","247","697784","0.0-3.0-1.196","<span style=""font-size:30px; font-family: monospace"">para</span>"," ","","exp-sent","para","","",""
"","773","html-keyboard-response","248","698808","0.0-3.0-1.197","<span style=""font-size:30px; font-family: monospace"">a</span>"," ","","exp-sent","a","","",""
"","837","html-keyboard-response","249","699896","0.0-3.0-1.198","<span style=""font-size:30px; font-family: monospace"">moça.</span>"," ","","exp-sent","moça.","","",""
"","null","html-keyboard-response","250","701148","0.0-3.0-0.199-0.199","<span style= ""font-size:30px; font-family: monospace"">+</span>","null","fixation","","","","",""
"","1249","html-keyboard-response","251","702648","0.0-3.0-1.199","<span style=""font-size:30px; font-family: monospace"">A</span>"," ","","exp-sent","A","","",""
"","757","html-keyboard-response","252","703656","0.0-3.0-1.200","<span style=""font-size:30px; font-family: monospace"">loja</span>"," ","","exp-sent","loja","","",""
"","949","html-keyboard-response","253","704856","0.0-3.0-1.201","<span style=""font-size:30px; font-family: monospace"">também</span>"," ","","exp-sent","também","","",""
"","1221","html-keyboard-response","254","706328","0.0-3.0-1.202","<span style=""font-size:30px; font-family: monospace"">vende</span>"," ","","exp-sent","vende","","",""
"","965","html-keyboard-response","255","707544","0.0-3.0-1.203","<span style=""font-size:30px; font-family: monospace"">taça</span>"," ","","exp-sent","taça","","",""
"","917","html-keyboard-response","256","708712","0.0-3.0-1.204","<span style=""font-size:30px; font-family: monospace"">de</span>"," ","","exp-sent","de","","",""
"","1493","html-keyboard-response","257","710456","0.0-3.0-1.205","<span style=""font-size:30px; font-family: monospace"">vinho</span>"," ","","exp-sent","vinho","","",""
"","756","html-keyboard-response","258","711463","0.0-3.0-1.206","<span style=""font-size:30px; font-family: monospace"">e</span>"," ","","exp-sent","e","","",""
"","3717","html-keyboard-response","259","715432","0.0-3.0-1.207","<span style=""font-size:30px; font-family: monospace"">espumante.</span>"," ","","exp-sent","espumante.","","",""
"","null","html-keyboard-response","260","716683","0.0-3.0-0.208-0.208","<span style= ""font-size:30px; font-family: monospace"">+</span>","null","fixation","","","","",""
"","449","html-keyboard-response","261","717384","0.0-3.0-1.208","<span style=""font-size:30px; font-family: monospace"">A</span>"," ","","exp-sent","A","","",""
"","2085","html-keyboard-response","262","719720","0.0-3.0-1.209","<span style=""font-size:30px; font-family: monospace"">bruxa</span>"," ","","exp-sent","bruxa","","",""
"","1188","html-keyboard-response","263","721160","0.0-3.0-1.210","<span style=""font-size:30px; font-family: monospace"">tinha</span>"," ","","exp-sent","tinha","","",""
"","693","html-keyboard-response","264","722103","0.0-3.0-1.211","<span style=""font-size:30px; font-family: monospace"">uma</span>"," ","","exp-sent","uma","","",""
"","3605","html-keyboard-response","265","725959","0.0-3.0-1.212","<span style=""font-size:30px; font-family: monospace"">vassoura</span>"," ","","exp-sent","vassoura","","",""
"","789","html-keyboard-response","266","726999","0.0-3.0-1.213","<span style=""font-size:30px; font-family: monospace"">e</span>"," ","","exp-sent","e","","",""
"","757","html-keyboard-response","267","728007","0.0-3.0-1.214","<span style=""font-size:30px; font-family: monospace"">um</span>"," ","","exp-sent","um","","",""
"","1125","html-keyboard-response","268","729383","0.0-3.0-1.215","<span style=""font-size:30px; font-family: monospace"">gato.</span>"," ","","exp-sent","gato.","","",""
"","null","html-keyboard-response","269","730635","0.0-3.0-0.216-0.216","<span style= ""font-size:30px; font-family: monospace"">+</span>","null","fixation","","","","",""
"","416","html-keyboard-response","270","731302","0.0-3.0-1.216","<span style=""font-size:30px; font-family: monospace"">Eu</span>"," ","","exp-sent","Eu","","",""
"","853","html-keyboard-response","271","732407","0.0-3.0-1.217","<span style=""font-size:30px; font-family: monospace"">me</span>"," ","","exp-sent","me","","",""
"","1909","html-keyboard-response","272","734567","0.0-3.0-1.218","<span style=""font-size:30px; font-family: monospace"">divirto</span>"," ","","exp-sent","divirto","","",""
"","789","html-keyboard-response","273","735607","0.0-3.0-1.219","<span style=""font-size:30px; font-family: monospace"">em</span>"," ","","exp-sent","em","","",""
"","1589","html-keyboard-response","274","737447","0.0-3.0-1.220","<span style=""font-size:30px; font-family: monospace"">festas</span>"," ","","exp-sent","festas","","",""
"","981","html-keyboard-response","275","738679","0.0-3.0-1.221","<span style=""font-size:30px; font-family: monospace"">de</span>"," ","","exp-sent","de","","",""
"","1429","html-keyboard-response","276","740359","0.0-3.0-1.222","<span style=""font-size:30px; font-family: monospace"">criança.</span>"," ","","exp-sent","criança.","","",""
"","null","html-keyboard-response","277","741611","0.0-3.0-0.223-0.223","<span style= ""font-size:30px; font-family: monospace"">+</span>","null","fixation","","","","",""
"","432","html-keyboard-response","278","742294","0.0-3.0-1.223","<span style=""font-size:30px; font-family: monospace"">A</span>"," ","","exp-sent","A","","",""
"","917","html-keyboard-response","279","743463","0.0-3.0-1.224","<span style=""font-size:30px; font-family: monospace"">janela</span>"," ","","exp-sent","janela","","",""
"","565","html-keyboard-response","280","744279","0.0-3.0-1.225","<span style=""font-size:30px; font-family: monospace"">alta</span>"," ","","exp-sent","alta","","",""
"","613","html-keyboard-response","281","745143","0.0-3.0-1.226","<span style=""font-size:30px; font-family: monospace"">estava</span>"," ","","exp-sent","estava","","",""
"","1269","html-keyboard-response","282","746663","0.0-3.0-1.227","<span style=""font-size:30px; font-family: monospace"">quebrada</span>"," ","","exp-sent","quebrada","","",""
"","549","html-keyboard-response","283","747463","0.0-3.0-1.228","<span style=""font-size:30px; font-family: monospace"">desde</span>"," ","","exp-sent","desde","","",""
"","853","html-keyboard-response","284","748567","0.0-3.0-1.229","<span style=""font-size:30px; font-family: monospace"">ontem.</span>"," ","","comp","ontem.","","",""
"","19285","html-keyboard-response","285","768103","0.0-3.0-2.229-0.229","<span style=""font-size:30px; font-family: monospace"">A janela alta estava quebrada?</span>","n","","comp","","A janela alta estava quebrada?","sim","false"
"","null","html-keyboard-response","286","769604","0.0-3.0-0.230-0.230","<span style= ""font-size:30px; font-family: monospace"">+</span>","null","fixation","","","","",""
"","6039","html-keyboard-response","287","775895","0.0-3.0-1.230","<span style=""font-size:30px; font-family: monospace"">Ele</span>"," ","","exp-sent","Ele","","",""
"","1413","html-keyboard-response","288","777559","0.0-3.0-1.231","<span style=""font-size:30px; font-family: monospace"">é</span>"," ","","exp-sent","é","","",""
"","2533","html-keyboard-response","289","780343","0.0-3.0-1.232","<span style=""font-size:30px; font-family: monospace"">um</span>"," ","","exp-sent","um","","",""
"","1406","html-keyboard-response","290","782007","0.0-3.0-1.233","<span style=""font-size:30px; font-family: monospace"">pai</span>"," ","","exp-sent","pai","","",""
"","8517","html-keyboard-response","291","790775","0.0-3.0-1.234","<span style=""font-size:30px; font-family: monospace"">ausente</span>"," ","","exp-sent","ausente","","",""
"","1824","html-keyboard-response","292","792855","0.0-3.0-1.235","<span style=""font-size:30px; font-family: monospace"">e</span>"," ","","exp-sent","e","","",""
"","1188","html-keyboard-response","293","794295","0.0-3.0-1.236","<span style=""font-size:30px; font-family: monospace"">muito</span>"," ","","exp-sent","muito","","",""
"","3941","html-keyboard-response","294","798487","0.0-3.0-1.237","<span style=""font-size:30px; font-family: monospace"">fofoqueiro.</span>"," ","","exp-sent","fofoqueiro.","","",""
"","null","html-keyboard-response","295","799739","0.0-3.0-0.238-0.238","<span style= ""font-size:30px; font-family: monospace"">+</span>","null","fixation","","","","",""
"","596","html-keyboard-response","296","800599","0.0-3.0-1.238","<span style=""font-size:30px; font-family: monospace"">O</span>"," ","","exp-sent","O","","",""
"","1573","html-keyboard-response","297","802423","0.0-3.0-1.239","<span style=""font-size:30px; font-family: monospace"">filho</span>"," ","","exp-sent","filho","","",""
"","917","html-keyboard-response","298","803591","0.0-3.0-1.240","<span style=""font-size:30px; font-family: monospace"">lavou</span>"," ","","exp-sent","lavou","","",""
"","676","html-keyboard-response","299","804519","0.0-3.0-1.241","<span style=""font-size:30px; font-family: monospace"">a</span>"," ","","exp-sent","a","","",""
"","837","html-keyboard-response","300","805607","0.0-3.0-1.242","<span style=""font-size:30px; font-family: monospace"">roupa</span>"," ","","exp-sent","roupa","","",""
"","916","html-keyboard-response","301","806775","0.0-3.0-1.243","<span style=""font-size:30px; font-family: monospace"">sem</span>"," ","","exp-sent","sem","","",""
"","3044","html-keyboard-response","302","810071","0.0-3.0-1.244","<span style=""font-size:30px; font-family: monospace"">nenhuma</span>"," ","","exp-sent","nenhuma","","",""
"","1205","html-keyboard-response","303","811527","0.0-3.0-1.245","<span style=""font-size:30px; font-family: monospace"">ajuda.</span>"," ","","exp-sent","ajuda.","","",""
"","null","html-keyboard-response","304","812779","0.0-3.0-0.246-0.246","<span style= ""font-size:30px; font-family: monospace"">+</span>","null","fixation","","","","",""
"","825","html-keyboard-response","305","813863","0.0-3.0-1.246","<span style=""font-size:30px; font-family: monospace"">O</span>"," ","","exp-sent","O","","",""
"","2613","html-keyboard-response","306","816727","0.0-3.0-1.247","<span style=""font-size:30px; font-family: monospace"">menino</span>"," ","","exp-sent","menino","","",""
"","3445","html-keyboard-response","307","820423","0.0-3.0-1.248","<span style=""font-size:30px; font-family: monospace"">quebrou</span>"," ","","exp-sent","quebrou","","",""
"","1204","html-keyboard-response","308","821879","0.0-3.0-1.249","<span style=""font-size:30px; font-family: monospace"">a</span>"," ","","exp-sent","a","","",""
"","2069","html-keyboard-response","309","824199","0.0-3.0-1.250","<span style=""font-size:30px; font-family: monospace"">perna</span>"," ","","exp-sent","perna","","",""
"","1061","html-keyboard-response","310","825511","0.0-3.0-1.251","<span style=""font-size:30px; font-family: monospace"">nos</span>"," ","","exp-sent","nos","","",""
"","3285","html-keyboard-response","311","829047","0.0-3.0-1.252","<span style=""font-size:30px; font-family: monospace"">esportes.</span>"," ","","exp-sent","esportes.","","",""
"","null","html-keyboard-response","312","830300","0.0-3.0-0.253-0.253","<span style= ""font-size:30px; font-family: monospace"">+</span>","null","fixation","","","","",""
"","783","html-keyboard-response","313","831335","0.0-3.0-1.253","<span style=""font-size:30px; font-family: monospace"">Ela</span>"," ","","exp-sent","Ela","","",""
"","1237","html-keyboard-response","314","832823","0.0-3.0-1.254","<span style=""font-size:30px; font-family: monospace"">brincou</span>"," ","","exp-sent","brincou","","",""
"","837","html-keyboard-response","315","833911","0.0-3.0-1.255","<span style=""font-size:30px; font-family: monospace"">com</span>"," ","","exp-sent","com","","",""
"","1060","html-keyboard-response","316","835223","0.0-3.0-1.256","<span style=""font-size:30px; font-family: monospace"">uma</span>"," ","","exp-sent","uma","","",""
"","1012","html-keyboard-response","317","836487","0.0-3.0-1.257","<span style=""font-size:30px; font-family: monospace"">menina</span>"," ","","exp-sent","menina","","",""
"","709","html-keyboard-response","318","837447","0.0-3.0-1.258","<span style=""font-size:30px; font-family: monospace"">da</span>"," ","","exp-sent","da","","",""
"","1077","html-keyboard-response","319","838775","0.0-3.0-1.259","<span style=""font-size:30px; font-family: monospace"">turma.</span>"," ","","exp-sent","turma.","","",""
"","null","html-keyboard-response","320","840028","0.0-3.0-0.260-0.260","<span style= ""font-size:30px; font-family: monospace"">+</span>","null","fixation","","","","",""
"","464","html-keyboard-response","321","840743","0.0-3.0-1.260","<span style=""font-size:30px; font-family: monospace"">Ele</span>"," ","","exp-sent","Ele","","",""
"","725","html-keyboard-response","322","841719","0.0-3.0-1.261","<span style=""font-size:30px; font-family: monospace"">esteve</span>"," ","","exp-sent","esteve","","",""
"","757","html-keyboard-response","323","842727","0.0-3.0-1.262","<span style=""font-size:30px; font-family: monospace"">no</span>"," ","","exp-sent","no","","",""
"","1045","html-keyboard-response","324","844023","0.0-3.0-1.263","<span style=""font-size:30px; font-family: monospace"">escritório</span>"," ","","exp-sent","escritório","","",""
"","661","html-keyboard-response","325","844935","0.0-3.0-1.264","<span style=""font-size:30px; font-family: monospace"">o</span>"," ","","exp-sent","o","","",""
"","789","html-keyboard-response","326","845975","0.0-3.0-1.265","<span style=""font-size:30px; font-family: monospace"">dia</span>"," ","","exp-sent","dia","","",""
"","805","html-keyboard-response","327","847031","0.0-3.0-1.266","<span style=""font-size:30px; font-family: monospace"">inteiro.</span>"," ","","comp","inteiro.","","",""
"","9236","html-keyboard-response","328","856519","0.0-3.0-2.266-0.266","<span style=""font-size:30px; font-family: monospace"">Ele esteve no parque o dia inteiro?</span>","n","","comp","","Ele esteve no parque o dia inteiro?","não","false"
"","null","html-keyboard-response","329","858021","0.0-3.0-0.267-0.267","<span style= ""font-size:30px; font-family: monospace"">+</span>","null","fixation","","","","",""
"","1142","html-keyboard-response","330","859414","0.0-3.0-1.267","<span style=""font-size:30px; font-family: monospace"">Preciso</span>"," ","","exp-sent","Preciso","","",""
"","901","html-keyboard-response","331","860566","0.0-3.0-1.268","<span style=""font-size:30px; font-family: monospace"">de</span>"," ","","exp-sent","de","","",""
"","661","html-keyboard-response","332","861478","0.0-3.0-1.269","<span style=""font-size:30px; font-family: monospace"">um</span>"," ","","exp-sent","um","","",""
"","3956","html-keyboard-response","333","865686","0.0-3.0-1.270","<span style=""font-size:30px; font-family: monospace"">relatório</span>"," ","","exp-sent","relatório","","",""
"","2390","html-keyboard-response","334","868326","0.0-3.0-1.271","<span style=""font-size:30px; font-family: monospace"">oficial</span>"," ","","exp-sent","oficial","","",""
"","805","html-keyboard-response","335","869382","0.0-3.0-1.272","<span style=""font-size:30px; font-family: monospace"">para</span>"," ","","exp-sent","para","","",""
"","1173","html-keyboard-response","336","870806","0.0-3.0-1.273","<span style=""font-size:30px; font-family: monospace"">amanhã.</span>"," ","","exp-sent","amanhã.","","",""
"","null","html-keyboard-response","337","872069","0.0-3.0-0.274-0.274","<span style= ""font-size:30px; font-family: monospace"">+</span>","null","fixation","","","","",""
"","439","html-keyboard-response","338","872758","0.0-3.0-1.274","<span style=""font-size:30px; font-family: monospace"">Ele</span>"," ","","exp-sent","Ele","","",""
"","916","html-keyboard-response","339","873926","0.0-3.0-1.275","<span style=""font-size:30px; font-family: monospace"">viu</span>"," ","","exp-sent","viu","","",""
"","1045","html-keyboard-response","340","875222","0.0-3.0-1.276","<span style=""font-size:30px; font-family: monospace"">um</span>"," ","","exp-sent","um","","",""
"","1557","html-keyboard-response","341","877030","0.0-3.0-1.277","<span style=""font-size:30px; font-family: monospace"">inseto</span>"," ","","exp-sent","inseto","","",""
"","1221","html-keyboard-response","342","878502","0.0-3.0-1.278","<span style=""font-size:30px; font-family: monospace"">marrom</span>"," ","","exp-sent","marrom","","",""
"","789","html-keyboard-response","343","879542","0.0-3.0-1.279","<span style=""font-size:30px; font-family: monospace"">na</span>"," ","","exp-sent","na","","",""
"","1252","html-keyboard-response","344","881046","0.0-3.0-1.280","<span style=""font-size:30px; font-family: monospace"">parede.</span>"," ","","exp-sent","parede.","","",""
"","null","html-keyboard-response","345","882298","0.0-3.0-0.281-0.281","<span style= ""font-size:30px; font-family: monospace"">+</span>","null","fixation","","","","",""
"","370","html-keyboard-response","346","882918","0.0-3.0-1.281","<span style=""font-size:30px; font-family: monospace"">O</span>"," ","","exp-sent","O","","",""
"","500","html-keyboard-response","347","883670","0.0-3.0-1.282","<span style=""font-size:30px; font-family: monospace"">avô</span>"," ","","exp-sent","avô","","",""
"","453","html-keyboard-response","348","884374","0.0-3.0-1.283","<span style=""font-size:30px; font-family: monospace"">fez</span>"," ","","exp-sent","fez","","",""
"","453","html-keyboard-response","349","885078","0.0-3.0-1.284","<span style=""font-size:30px; font-family: monospace"">uma</span>"," ","","exp-sent","uma","","",""
"","549","html-keyboard-response","350","885878","0.0-3.0-1.285","<span style=""font-size:30px; font-family: monospace"">lista</span>"," ","","exp-sent","lista","","",""
"","708","html-keyboard-response","351","886838","0.0-3.0-1.286","<span style=""font-size:30px; font-family: monospace"">de</span>"," ","","exp-sent","de","","",""
"","581","html-keyboard-response","352","887670","0.0-3.0-1.287","<span style=""font-size:30px; font-family: monospace"">compras</span>"," ","","exp-sent","compras","","",""
"","660","html-keyboard-response","353","888582","0.0-3.0-1.288","<span style=""font-size:30px; font-family: monospace"">do</span>"," ","","exp-sent","do","","",""
"","821","html-keyboard-response","354","889654","0.0-3.0-1.289","<span style=""font-size:30px; font-family: monospace"">mercado.</span>"," ","","exp-sent","mercado.","","",""
"","null","html-keyboard-response","355","890907","0.0-3.0-0.290-0.290","<span style= ""font-size:30px; font-family: monospace"">+</span>","null","fixation","","","","",""
"","448","html-keyboard-response","356","891606","0.0-3.0-1.290","<span style=""font-size:30px; font-family: monospace"">As</span>"," ","","exp-sent","As","","",""
"","1269","html-keyboard-response","357","893126","0.0-3.0-1.291","<span style=""font-size:30px; font-family: monospace"">pessoas</span>"," ","","exp-sent","pessoas","","",""
"","901","html-keyboard-response","358","894278","0.0-3.0-1.292","<span style=""font-size:30px; font-family: monospace"">não</span>"," ","","exp-sent","não","","",""
"","1124","html-keyboard-response","359","895654","0.0-3.0-1.293","<span style=""font-size:30px; font-family: monospace"">enviam</span>"," ","","exp-sent","enviam","","",""
"","1317","html-keyboard-response","360","897222","0.0-3.0-1.294","<span style=""font-size:30px; font-family: monospace"">telegrama</span>"," ","","exp-sent","telegrama","","",""
"","805","html-keyboard-response","361","898278","0.0-3.0-1.295","<span style=""font-size:30px; font-family: monospace"">nos</span>"," ","","exp-sent","nos","","",""
"","901","html-keyboard-response","362","899430","0.0-3.0-1.296","<span style=""font-size:30px; font-family: monospace"">dias</span>"," ","","exp-sent","dias","","",""
"","916","html-keyboard-response","363","900598","0.0-3.0-1.297","<span style=""font-size:30px; font-family: monospace"">de</span>"," ","","exp-sent","de","","",""
"","917","html-keyboard-response","364","901766","0.0-3.0-1.298","<span style=""font-size:30px; font-family: monospace"">hoje.</span>"," ","","exp-sent","hoje.","","",""
"","null","html-keyboard-response","365","903018","0.0-3.0-0.299-0.299","<span style= ""font-size:30px; font-family: monospace"">+</span>","null","fixation","","","","",""
"","353","html-keyboard-response","366","903622","0.0-3.0-1.299","<span style=""font-size:30px; font-family: monospace"">Ele</span>"," ","","exp-sent","Ele","","",""
"","837","html-keyboard-response","367","904710","0.0-3.0-1.300","<span style=""font-size:30px; font-family: monospace"">não</span>"," ","","exp-sent","não","","",""
"","773","html-keyboard-response","368","905734","0.0-3.0-1.301","<span style=""font-size:30px; font-family: monospace"">gosta</span>"," ","","exp-sent","gosta","","",""
"","645","html-keyboard-response","369","906630","0.0-3.0-1.302","<span style=""font-size:30px; font-family: monospace"">de</span>"," ","","exp-sent","de","","",""
"","708","html-keyboard-response","370","907590","0.0-3.0-1.303","<span style=""font-size:30px; font-family: monospace"">tomate</span>"," ","","exp-sent","tomate","","",""
"","997","html-keyboard-response","371","908838","0.0-3.0-1.304","<span style=""font-size:30px; font-family: monospace"">misturado</span>"," ","","exp-sent","misturado","","",""
"","1109","html-keyboard-response","372","910198","0.0-3.0-1.305","<span style=""font-size:30px; font-family: monospace"">na</span>"," ","","exp-sent","na","","",""
"","757","html-keyboard-response","373","911206","0.0-3.0-1.306","<span style=""font-size:30px; font-family: monospace"">comida.</span>"," ","","comp","comida.","","",""
"","3876","html-keyboard-response","374","915334","0.0-3.0-2.306-0.306","<span style=""font-size:30px; font-family: monospace"">Ele gosta de tomate na comida?</span>","s","","comp","","Ele gosta de tomate na comida?","não","false"
"","null","html-keyboard-response","375","916836","0.0-3.0-0.307-0.307","<span style= ""font-size:30px; font-family: monospace"">+</span>","null","fixation","","","","",""
"","857","html-keyboard-response","376","917943","0.0-3.0-1.307","<span style=""font-size:30px; font-family: monospace"">No</span>"," ","","exp-sent","No","","",""
"","1028","html-keyboard-response","377","919222","0.0-3.0-1.308","<span style=""font-size:30px; font-family: monospace"">passado</span>"," ","","exp-sent","passado","","",""
"","1189","html-keyboard-response","378","920662","0.0-3.0-1.309","<span style=""font-size:30px; font-family: monospace"">houve</span>"," ","","exp-sent","houve","","",""
"","836","html-keyboard-response","379","921750","0.0-3.0-1.310","<span style=""font-size:30px; font-family: monospace"">uma</span>"," ","","exp-sent","uma","","",""
"","2437","html-keyboard-response","380","924438","0.0-3.0-1.311","<span style=""font-size:30px; font-family: monospace"">rebelião</span>"," ","","exp-sent","rebelião","","",""
"","1364","html-keyboard-response","381","926054","0.0-3.0-1.312","<span style=""font-size:30px; font-family: monospace"">nesta</span>"," ","","exp-sent","nesta","","",""
"","1461","html-keyboard-response","382","927766","0.0-3.0-1.313","<span style=""font-size:30px; font-family: monospace"">cidade.</span>"," ","","exp-sent","cidade.","","",""
"","null","html-keyboard-response","383","929019","0.0-3.0-0.314-0.314","<span style= ""font-size:30px; font-family: monospace"">+</span>","null","fixation","","","","",""
"","438","html-keyboard-response","384","929718","0.0-3.0-1.314","<span style=""font-size:30px; font-family: monospace"">Ele</span>"," ","","exp-sent","Ele","","",""
"","1045","html-keyboard-response","385","931014","0.0-3.0-1.315","<span style=""font-size:30px; font-family: monospace"">fundou</span>"," ","","exp-sent","fundou","","",""
"","693","html-keyboard-response","386","931957","0.0-3.0-1.316","<span style=""font-size:30px; font-family: monospace"">uma</span>"," ","","exp-sent","uma","","",""
"","678","html-keyboard-response","387","932886","0.0-3.0-1.317","<span style=""font-size:30px; font-family: monospace"">empresa</span>"," ","","exp-sent","empresa","","",""
"","821","html-keyboard-response","388","933958","0.0-3.0-1.318","<span style=""font-size:30px; font-family: monospace"">privada</span>"," ","","exp-sent","privada","","",""
"","565","html-keyboard-response","389","934774","0.0-3.0-1.319","<span style=""font-size:30px; font-family: monospace"">sem</span>"," ","","exp-sent","sem","","",""
"","613","html-keyboard-response","390","935638","0.0-3.0-1.320","<span style=""font-size:30px; font-family: monospace"">ajuda.</span>"," ","","exp-sent","ajuda.","","",""
"","null","html-keyboard-response","391","936891","0.0-3.0-0.321-0.321","<span style= ""font-size:30px; font-family: monospace"">+</span>","null","fixation","","","","",""
"","352","html-keyboard-response","392","937494","0.0-3.0-1.321","<span style=""font-size:30px; font-family: monospace"">As</span>"," ","","exp-sent","As","","",""
"","825","html-keyboard-response","393","938582","0.0-3.0-1.322","<span style=""font-size:30px; font-family: monospace"">meninas</span>"," ","","exp-sent","meninas","","",""
"","1284","html-keyboard-response","394","940118","0.0-3.0-1.323","<span style=""font-size:30px; font-family: monospace"">encontraram</span>"," ","","exp-sent","encontraram","","",""
"","773","html-keyboard-response","395","941142","0.0-3.0-1.324","<span style=""font-size:30px; font-family: monospace"">um</span>"," ","","exp-sent","um","","",""
"","853","html-keyboard-response","396","942246","0.0-3.0-1.325","<span style=""font-size:30px; font-family: monospace"">rato</span>"," ","","exp-sent","rato","","",""
"","901","html-keyboard-response","397","943398","0.0-3.0-1.326","<span style=""font-size:30px; font-family: monospace"">dentro</span>"," ","","exp-sent","dentro","","",""
"","725","html-keyboard-response","398","944374","0.0-3.0-1.327","<span style=""font-size:30px; font-family: monospace"">de</span>"," ","","exp-sent","de","","",""
"","709","html-keyboard-response","399","945334","0.0-3.0-1.328","<span style=""font-size:30px; font-family: monospace"">casa.</span>"," ","","exp-sent","casa.","","",""
"","null","html-keyboard-response","400","946586","0.0-3.0-0.329-0.329","<span style= ""font-size:30px; font-family: monospace"">+</span>","null","fixation","","","","",""
"","353","html-keyboard-response","401","947190","0.0-3.0-1.329","<span style=""font-size:30px; font-family: monospace"">O</span>"," ","","exp-sent","O","","",""
"","454","html-keyboard-response","402","947894","0.0-3.0-1.330","<span style=""font-size:30px; font-family: monospace"">texto</span>"," ","","exp-sent","texto","","",""
"","597","html-keyboard-response","403","948742","0.0-3.0-1.331","<span style=""font-size:30px; font-family: monospace"">tinha</span>"," ","","exp-sent","tinha","","",""
"","485","html-keyboard-response","404","949478","0.0-3.0-1.332","<span style=""font-size:30px; font-family: monospace"">ideias</span>"," ","","exp-sent","ideias","","",""
"","485","html-keyboard-response","405","950214","0.0-3.0-1.333","<span style=""font-size:30px; font-family: monospace"">vagas</span>"," ","","exp-sent","vagas","","",""
"","564","html-keyboard-response","406","951030","0.0-3.0-1.334","<span style=""font-size:30px; font-family: monospace"">e</span>"," ","","exp-sent","e","","",""
"","629","html-keyboard-response","407","951910","0.0-3.0-1.335","<span style=""font-size:30px; font-family: monospace"">confusas.</span>"," ","","exp-sent","confusas.","","",""
"","null","html-keyboard-response","408","953163","0.0-3.0-0.336-0.336","<span style= ""font-size:30px; font-family: monospace"">+</span>","null","fixation","","","","",""
"","368","html-keyboard-response","409","953782","0.0-3.0-1.336","<span style=""font-size:30px; font-family: monospace"">As</span>"," ","","exp-sent","As","","",""
"","1061","html-keyboard-response","410","955094","0.0-3.0-1.337","<span style=""font-size:30px; font-family: monospace"">crianças</span>"," ","","exp-sent","crianças","","",""
"","757","html-keyboard-response","411","956102","0.0-3.0-1.338","<span style=""font-size:30px; font-family: monospace"">viram</span>"," ","","exp-sent","viram","","",""
"","741","html-keyboard-response","412","957094","0.0-3.0-1.339","<span style=""font-size:30px; font-family: monospace"">a</span>"," ","","exp-sent","a","","",""
"","3252","html-keyboard-response","413","960598","0.0-3.0-1.340","<span style=""font-size:30px; font-family: monospace"">acrobata</span>"," ","","exp-sent","acrobata","","",""
"","2869","html-keyboard-response","414","963718","0.0-3.0-1.341","<span style=""font-size:30px; font-family: monospace"">talentosa</span>"," ","","exp-sent","talentosa","","",""
"","532","html-keyboard-response","415","964502","0.0-3.0-1.342","<span style=""font-size:30px; font-family: monospace"">no</span>"," ","","exp-sent","no","","",""
"","917","html-keyboard-response","416","965670","0.0-3.0-1.343","<span style=""font-size:30px; font-family: monospace"">circo.</span>"," ","","comp","circo.","","",""
"","6405","html-keyboard-response","417","972326","0.0-3.0-2.343-0.343","<span style=""font-size:30px; font-family: monospace"">As crianças viram o palhaço no circo?</span>","n","","comp","","As crianças viram o palhaço no circo?","não","false"
"","null","html-keyboard-response","418","973828","0.0-3.0-0.344-0.344","<span style= ""font-size:30px; font-family: monospace"">+</span>","null","fixation","","","","",""
"","295","html-keyboard-response","419","974374","0.0-3.0-1.344","<span style=""font-size:30px; font-family: monospace"">Eu</span>"," ","","exp-sent","Eu","","",""
"","885","html-keyboard-response","420","975510","0.0-3.0-1.345","<span style=""font-size:30px; font-family: monospace"">gosto</span>"," ","","exp-sent","gosto","","",""
"","725","html-keyboard-response","421","976486","0.0-3.0-1.346","<span style=""font-size:30px; font-family: monospace"">de</span>"," ","","exp-sent","de","","",""
"","1077","html-keyboard-response","422","977813","0.0-3.0-1.347","<span style=""font-size:30px; font-family: monospace"">molho</span>"," ","","exp-sent","molho","","",""
"","1925","html-keyboard-response","423","979989","0.0-3.0-1.348","<span style=""font-size:30px; font-family: monospace"">picante</span>"," ","","exp-sent","picante","","",""
"","980","html-keyboard-response","424","981221","0.0-3.0-1.349","<span style=""font-size:30px; font-family: monospace"">nas</span>"," ","","exp-sent","nas","","",""
"","1605","html-keyboard-response","425","983077","0.0-3.0-1.350","<span style=""font-size:30px; font-family: monospace"">batatas.</span>"," ","","exp-sent","batatas.","","",""
"","null","html-keyboard-response","426","984328","0.0-3.0-0.351-0.351","<span style= ""font-size:30px; font-family: monospace"">+</span>","null","fixation","","","","",""
"","338","html-keyboard-response","427","984917","0.0-3.0-1.351","<span style=""font-size:30px; font-family: monospace"">As</span>"," ","","exp-sent","As","","",""
"","1730","html-keyboard-response","428","986901","0.0-3.0-1.352","<span style=""font-size:30px; font-family: monospace"">pessoas</span>"," ","","exp-sent","pessoas","","",""
"","867","html-keyboard-response","429","988021","0.0-3.0-1.353","<span style=""font-size:30px; font-family: monospace"">têm</span>"," ","","exp-sent","têm","","",""
"","933","html-keyboard-response","430","989205","0.0-3.0-1.354","<span style=""font-size:30px; font-family: monospace"">sua</span>"," ","","exp-sent","sua","","",""
"","2389","html-keyboard-response","431","991845","0.0-3.0-1.355","<span style=""font-size:30px; font-family: monospace"">liberdade</span>"," ","","exp-sent","liberdade","","",""
"","788","html-keyboard-response","432","992885","0.0-3.0-1.356","<span style=""font-size:30px; font-family: monospace"">até</span>"," ","","exp-sent","até","","",""
"","1333","html-keyboard-response","433","994469","0.0-3.0-1.357","<span style=""font-size:30px; font-family: monospace"">certo</span>"," ","","exp-sent","certo","","",""
"","1092","html-keyboard-response","434","995813","0.0-3.0-1.358","<span style=""font-size:30px; font-family: monospace"">ponto.</span>"," ","","exp-sent","ponto.","","",""
"","null","html-keyboard-response","435","997065","0.0-3.0-0.359-0.359","<span style= ""font-size:30px; font-family: monospace"">+</span>","null","fixation","","","","",""
"","385","html-keyboard-response","436","997701","0.0-3.0-1.359","<span style=""font-size:30px; font-family: monospace"">A</span>"," ","","exp-sent","A","","",""
"","564","html-keyboard-response","437","998516","0.0-3.0-1.360","<span style=""font-size:30px; font-family: monospace"">empresa</span>"," ","","exp-sent","empresa","","",""
"","1030","html-keyboard-response","438","999797","0.0-3.0-1.361","<span style=""font-size:30px; font-family: monospace"">enviou</span>"," ","","exp-sent","enviou","","",""
"","581","html-keyboard-response","439","1000629","0.0-3.0-1.362","<span style=""font-size:30px; font-family: monospace"">o</span>"," ","","exp-sent","o","","",""
"","915","html-keyboard-response","440","1001797","0.0-3.0-1.363","<span style=""font-size:30px; font-family: monospace"">aviso</span>"," ","","exp-sent","aviso","","",""
"","406","html-keyboard-response","441","1002469","0.0-3.0-1.364","<span style=""font-size:30px; font-family: monospace"">hoje</span>"," ","","exp-sent","hoje","","",""
"","692","html-keyboard-response","442","1003413","0.0-3.0-1.365","<span style=""font-size:30px; font-family: monospace"">de</span>"," ","","exp-sent","de","","",""
"","885","html-keyboard-response","443","1004549","0.0-3.0-1.366","<span style=""font-size:30px; font-family: monospace"">tarde.</span>"," ","","exp-sent","tarde.","","",""
"","null","html-keyboard-response","444","1005802","0.0-3.0-0.367-0.367","<span style= ""font-size:30px; font-family: monospace"">+</span>","null","fixation","","","","",""
"","369","html-keyboard-response","445","1006421","0.0-3.0-1.367","<span style=""font-size:30px; font-family: monospace"">A</span>"," ","","exp-sent","A","","",""
"","885","html-keyboard-response","446","1007557","0.0-3.0-1.368","<span style=""font-size:30px; font-family: monospace"">loja</span>"," ","","exp-sent","loja","","",""
"","644","html-keyboard-response","447","1008453","0.0-3.0-1.369","<span style=""font-size:30px; font-family: monospace"">vende</span>"," ","","exp-sent","vende","","",""
"","1061","html-keyboard-response","448","1009765","0.0-3.0-1.370","<span style=""font-size:30px; font-family: monospace"">tanto</span>"," ","","exp-sent","tanto","","",""
"","2085","html-keyboard-response","449","1012101","0.0-3.0-1.371","<span style=""font-size:30px; font-family: monospace"">frituras</span>"," ","","exp-sent","frituras","","",""
"","1734","html-keyboard-response","450","1014085","0.0-3.0-1.372","<span style=""font-size:30px; font-family: monospace"">quanto</span>"," ","","exp-sent","quanto","","",""
"","1189","html-keyboard-response","451","1015525","0.0-3.0-1.373","<span style=""font-size:30px; font-family: monospace"">comidas</span>"," ","","exp-sent","comidas","","",""
"","1509","html-keyboard-response","452","1017285","0.0-3.0-1.374","<span style=""font-size:30px; font-family: monospace"">leves.</span>"," ","","exp-sent","leves.","","",""
"","null","html-keyboard-response","453","1018536","0.0-3.0-0.375-0.375","<span style= ""font-size:30px; font-family: monospace"">+</span>","null","fixation","","","","",""
"","370","html-keyboard-response","454","1019157","0.0-3.0-1.375","<span style=""font-size:30px; font-family: monospace"">As</span>"," ","","exp-sent","As","","",""
"","2549","html-keyboard-response","455","1021957","0.0-3.0-1.376","<span style=""font-size:30px; font-family: monospace"">cadeiras</span>"," ","","exp-sent","cadeiras","","",""
"","1669","html-keyboard-response","456","1023877","0.0-3.0-1.377","<span style=""font-size:30px; font-family: monospace"">azuis</span>"," ","","exp-sent","azuis","","",""
"","709","html-keyboard-response","457","1024837","0.0-3.0-1.378","<span style=""font-size:30px; font-family: monospace"">da</span>"," ","","exp-sent","da","","",""
"","821","html-keyboard-response","458","1025909","0.0-3.0-1.379","<span style=""font-size:30px; font-family: monospace"">sala</span>"," ","","exp-sent","sala","","",""
"","996","html-keyboard-response","459","1027157","0.0-3.0-1.380","<span style=""font-size:30px; font-family: monospace"">eram</span>"," ","","exp-sent","eram","","",""
"","821","html-keyboard-response","460","1028229","0.0-3.0-1.381","<span style=""font-size:30px; font-family: monospace"">da</span>"," ","","exp-sent","da","","",""
"","852","html-keyboard-response","461","1029333","0.0-3.0-1.382","<span style=""font-size:30px; font-family: monospace"">minha</span>"," ","","exp-sent","minha","","",""
"","933","html-keyboard-response","462","1030517","0.0-3.0-1.383","<span style=""font-size:30px; font-family: monospace"">vó.</span>"," ","","comp","vó.","","",""
"","11685","html-keyboard-response","463","1042453","0.0-3.0-2.383-0.383","<span style=""font-size:30px; font-family: monospace"">As cadeiras eram da avó?</span>","s","","comp","","As cadeiras eram da avó?","sim","false"
"","null","html-keyboard-response","464","1043954","0.0-3.0-0.384-0.384","<span style= ""font-size:30px; font-family: monospace"">+</span>","null","fixation","","","","",""
"","600","html-keyboard-response","465","1044805","0.0-3.0-1.384","<span style=""font-size:30px; font-family: monospace"">O</span>"," ","","exp-sent","O","","",""
"","453","html-keyboard-response","466","1045509","0.0-3.0-1.385","<span style=""font-size:30px; font-family: monospace"">moço</span>"," ","","exp-sent","moço","","",""
"","1765","html-keyboard-response","467","1047525","0.0-3.0-1.386","<span style=""font-size:30px; font-family: monospace"">usou</span>"," ","","exp-sent","usou","","",""
"","2373","html-keyboard-response","468","1050148","0.0-3.0-1.387","<span style=""font-size:30px; font-family: monospace"">várias</span>"," ","","exp-sent","várias","","",""
"","1334","html-keyboard-response","469","1051733","0.0-3.0-1.388","<span style=""font-size:30px; font-family: monospace"">velas</span>"," ","","exp-sent","velas","","",""
"","614","html-keyboard-response","470","1052597","0.0-3.0-1.389","<span style=""font-size:30px; font-family: monospace"">no</span>"," ","","exp-sent","no","","",""
"","1893","html-keyboard-response","471","1054740","0.0-3.0-1.390","<span style=""font-size:30px; font-family: monospace"">enfeite</span>"," ","","exp-sent","enfeite","","",""
"","853","html-keyboard-response","472","1055845","0.0-3.0-1.391","<span style=""font-size:30px; font-family: monospace"">de</span>"," ","","exp-sent","de","","",""
"","948","html-keyboard-response","473","1057044","0.0-3.0-1.392","<span style=""font-size:30px; font-family: monospace"">mesa.</span>"," ","","exp-sent","mesa.","","",""
"","null","html-keyboard-response","474","1058296","0.0-3.0-0.393-0.393","<span style= ""font-size:30px; font-family: monospace"">+</span>","null","fixation","","","","",""
"","1393","html-keyboard-response","475","1059940","0.0-3.0-1.393","<span style=""font-size:30px; font-family: monospace"">Gostamos</span>"," ","","exp-sent","Gostamos","","",""
"","709","html-keyboard-response","476","1060900","0.0-3.0-1.394","<span style=""font-size:30px; font-family: monospace"">de</span>"," ","","exp-sent","de","","",""
"","821","html-keyboard-response","477","1061972","0.0-3.0-1.395","<span style=""font-size:30px; font-family: monospace"">suco</span>"," ","","exp-sent","suco","","",""
"","757","html-keyboard-response","478","1062980","0.0-3.0-1.396","<span style=""font-size:30px; font-family: monospace"">em</span>"," ","","exp-sent","em","","",""
"","1364","html-keyboard-response","479","1064596","0.0-3.0-1.397","<span style=""font-size:30px; font-family: monospace"">garrafa</span>"," ","","exp-sent","garrafa","","",""
"","821","html-keyboard-response","480","1065668","0.0-3.0-1.398","<span style=""font-size:30px; font-family: monospace"">de</span>"," ","","exp-sent","de","","",""
"","1427","html-keyboard-response","481","1067348","0.0-3.0-1.399","<span style=""font-size:30px; font-family: monospace"">tamanho</span>"," ","","exp-sent","tamanho","","",""
"","1558","html-keyboard-response","482","1069156","0.0-3.0-1.400","<span style=""font-size:30px; font-family: monospace"">pequeno.</span>"," ","","exp-sent","pequeno.","","",""
"","null","html-keyboard-response","483","1070408","0.0-3.0-0.401-0.401","<span style= ""font-size:30px; font-family: monospace"">+</span>","null","fixation","","","","",""
"","390","html-keyboard-response","484","1071060","0.0-3.0-1.401","<span style=""font-size:30px; font-family: monospace"">Sua</span>"," ","","exp-sent","Sua","","",""
"","1029","html-keyboard-response","485","1072340","0.0-3.0-1.402","<span style=""font-size:30px; font-family: monospace"">filha</span>"," ","","exp-sent","filha","","",""
"","709","html-keyboard-response","486","1073301","0.0-3.0-1.403","<span style=""font-size:30px; font-family: monospace"">é</span>"," ","","exp-sent","é","","",""
"","677","html-keyboard-response","487","1074229","0.0-3.0-1.404","<span style=""font-size:30px; font-family: monospace"">muito</span>"," ","","exp-sent","muito","","",""
"","645","html-keyboard-response","488","1075124","0.0-3.0-1.405","<span style=""font-size:30px; font-family: monospace"">capaz</span>"," ","","exp-sent","capaz","","",""
"","566","html-keyboard-response","489","1075956","0.0-3.0-1.406","<span style=""font-size:30px; font-family: monospace"">e</span>"," ","","exp-sent","e","","",""
"","1268","html-keyboard-response","490","1077476","0.0-3.0-1.407","<span style=""font-size:30px; font-family: monospace"">esforçada.</span>"," ","","exp-sent","esforçada.","","",""
"","null","html-keyboard-response","491","1078730","0.0-3.0-0.408-0.408","<span style= ""font-size:30px; font-family: monospace"">+</span>","null","fixation","","","","",""
"","352","html-keyboard-response","492","1079332","0.0-3.0-1.408","<span style=""font-size:30px; font-family: monospace"">A</span>"," ","","exp-sent","A","","",""
"","901","html-keyboard-response","493","1080484","0.0-3.0-1.409","<span style=""font-size:30px; font-family: monospace"">batida</span>"," ","","exp-sent","batida","","",""
"","837","html-keyboard-response","494","1081572","0.0-3.0-1.410","<span style=""font-size:30px; font-family: monospace"">causou</span>"," ","","exp-sent","causou","","",""
"","533","html-keyboard-response","495","1082356","0.0-3.0-1.411","<span style=""font-size:30px; font-family: monospace"">muita</span>"," ","","exp-sent","muita","","",""
"","1221","html-keyboard-response","496","1083829","0.0-3.0-1.412","<span style=""font-size:30px; font-family: monospace"">confusão</span>"," ","","exp-sent","confusão","","",""
"","533","html-keyboard-response","497","1084612","0.0-3.0-1.413","<span style=""font-size:30px; font-family: monospace"">na</span>"," ","","exp-sent","na","","",""
"","1541","html-keyboard-response","498","1086404","0.0-3.0-1.414","<span style=""font-size:30px; font-family: monospace"">estrada.</span>"," ","","exp-sent","estrada.","","",""
"","null","html-keyboard-response","499","1087657","0.0-3.0-0.415-0.415","<span style= ""font-size:30px; font-family: monospace"">+</span>","null","fixation","","","","",""
"","384","html-keyboard-response","500","1088292","0.0-3.0-1.415","<span style=""font-size:30px; font-family: monospace"">Eu</span>"," ","","exp-sent","Eu","","",""
"","1637","html-keyboard-response","501","1090180","0.0-3.0-1.416","<span style=""font-size:30px; font-family: monospace"">cozinhei</span>"," ","","exp-sent","cozinhei","","",""
"","805","html-keyboard-response","502","1091236","0.0-3.0-1.417","<span style=""font-size:30px; font-family: monospace"">um</span>"," ","","exp-sent","um","","",""
"","1077","html-keyboard-response","503","1092564","0.0-3.0-1.418","<span style=""font-size:30px; font-family: monospace"">almoço</span>"," ","","exp-sent","almoço","","",""
"","1749","html-keyboard-response","504","1094564","0.0-3.0-1.419","<span style=""font-size:30px; font-family: monospace"">nutritivo</span>"," ","","exp-sent","nutritivo","","",""
"","981","html-keyboard-response","505","1095796","0.0-3.0-1.420","<span style=""font-size:30px; font-family: monospace"">para</span>"," ","","exp-sent","para","","",""
"","757","html-keyboard-response","506","1096804","0.0-3.0-1.421","<span style=""font-size:30px; font-family: monospace"">hoje.</span>"," ","","comp","hoje.","","",""
"","28725","html-keyboard-response","507","1125781","0.0-3.0-2.421-0.421","<span style=""font-size:30px; font-family: monospace"">O almoço era nutritivo?</span>","s","","comp","","O almoço era nutritivo?","sim","false"
"","null","html-keyboard-response","508","1127282","0.0-3.0-0.422-0.422","<span style= ""font-size:30px; font-family: monospace"">+</span>","null","fixation","","","","",""
"","536","html-keyboard-response","509","1128069","0.0-3.0-1.422","<span style=""font-size:30px; font-family: monospace"">A</span>"," ","","exp-sent","A","","",""
"","564","html-keyboard-response","510","1128884","0.0-3.0-1.423","<span style=""font-size:30px; font-family: monospace"">força</span>"," ","","exp-sent","força","","",""
"","564","html-keyboard-response","511","1129700","0.0-3.0-1.424","<span style=""font-size:30px; font-family: monospace"">d'água</span>"," ","","exp-sent","d'água","","",""
"","468","html-keyboard-response","512","1130420","0.0-3.0-1.425","<span style=""font-size:30px; font-family: monospace"">estava</span>"," ","","exp-sent","estava","","",""
"","533","html-keyboard-response","513","1131205","0.0-3.0-1.426","<span style=""font-size:30px; font-family: monospace"">normal</span>"," ","","exp-sent","normal","","",""
"","1301","html-keyboard-response","514","1132757","0.0-3.0-1.427","<span style=""font-size:30px; font-family: monospace"">naquele</span>"," ","","exp-sent","naquele","","",""
"","660","html-keyboard-response","515","1133668","0.0-3.0-1.428","<span style=""font-size:30px; font-family: monospace"">dia.</span>"," ","","exp-sent","dia.","","",""
"","null","html-keyboard-response","516","1134920","0.0-3.0-0.429-0.429","<span style= ""font-size:30px; font-family: monospace"">+</span>","null","fixation","","","","",""
"","337","html-keyboard-response","517","1135509","0.0-3.0-1.429","<span style=""font-size:30px; font-family: monospace"">A</span>"," ","","exp-sent","A","","",""
"","516","html-keyboard-response","518","1136277","0.0-3.0-1.430","<span style=""font-size:30px; font-family: monospace"">médica</span>"," ","","exp-sent","médica","","",""
"","5925","html-keyboard-response","519","1142453","0.0-3.0-1.431","<span style=""font-size:30px; font-family: monospace"">ofereceu</span>"," ","","exp-sent","ofereceu","","",""
"","837","html-keyboard-response","520","1143540","0.0-3.0-1.432","<span style=""font-size:30px; font-family: monospace"">a</span>"," ","","exp-sent","a","","",""
"","821","html-keyboard-response","521","1144612","0.0-3.0-1.433","<span style=""font-size:30px; font-family: monospace"">pomada</span>"," ","","exp-sent","pomada","","",""
"","1188","html-keyboard-response","522","1146052","0.0-3.0-1.434","<span style=""font-size:30px; font-family: monospace"">para</span>"," ","","exp-sent","para","","",""
"","661","html-keyboard-response","523","1146965","0.0-3.0-1.435","<span style=""font-size:30px; font-family: monospace"">o</span>"," ","","exp-sent","o","","",""
"","1268","html-keyboard-response","524","1148484","0.0-3.0-1.436","<span style=""font-size:30px; font-family: monospace"">avô.</span>"," ","","exp-sent","avô.","","",""
"","null","html-keyboard-response","525","1149737","0.0-3.0-0.437-0.437","<span style= ""font-size:30px; font-family: monospace"">+</span>","null","fixation","","","","",""
"","689","html-keyboard-response","526","1150677","0.0-3.0-1.437","<span style=""font-size:30px; font-family: monospace"">Ele</span>"," ","","exp-sent","Ele","","",""
"","2117","html-keyboard-response","527","1153045","0.0-3.0-1.438","<span style=""font-size:30px; font-family: monospace"">conversou</span>"," ","","exp-sent","conversou","","",""
"","756","html-keyboard-response","528","1154052","0.0-3.0-1.439","<span style=""font-size:30px; font-family: monospace"">com</span>"," ","","exp-sent","com","","",""
"","661","html-keyboard-response","529","1154964","0.0-3.0-1.440","<span style=""font-size:30px; font-family: monospace"">o</span>"," ","","exp-sent","o","","",""
"","1893","html-keyboard-response","530","1157109","0.0-3.0-1.441","<span style=""font-size:30px; font-family: monospace"">patrão</span>"," ","","exp-sent","patrão","","",""
"","1301","html-keyboard-response","531","1158661","0.0-3.0-1.442","<span style=""font-size:30px; font-family: monospace"">durante</span>"," ","","exp-sent","durante","","",""
"","709","html-keyboard-response","532","1159620","0.0-3.0-1.443","<span style=""font-size:30px; font-family: monospace"">a</span>"," ","","exp-sent","a","","",""
"","1173","html-keyboard-response","533","1161044","0.0-3.0-1.444","<span style=""font-size:30px; font-family: monospace"">tarde.</span>"," ","","exp-sent","tarde.","","",""
"","null","html-keyboard-response","534","1162296","0.0-3.0-0.445-0.445","<span style= ""font-size:30px; font-family: monospace"">+</span>","null","fixation","","","","",""
"","353","html-keyboard-response","535","1162900","0.0-3.0-1.445","<span style=""font-size:30px; font-family: monospace"">Algumas</span>"," ","","exp-sent","Algumas","","",""
"","1909","html-keyboard-response","536","1165060","0.0-3.0-1.446","<span style=""font-size:30px; font-family: monospace"">pessoas</span>"," ","","exp-sent","pessoas","","",""
"","1173","html-keyboard-response","537","1166484","0.0-3.0-1.447","<span style=""font-size:30px; font-family: monospace"">acreditam</span>"," ","","exp-sent","acreditam","","",""
"","645","html-keyboard-response","538","1167380","0.0-3.0-1.448","<span style=""font-size:30px; font-family: monospace"">em</span>"," ","","exp-sent","em","","",""
"","1429","html-keyboard-response","539","1169060","0.0-3.0-1.449","<span style=""font-size:30px; font-family: monospace"">espíritos</span>"," ","","exp-sent","espíritos","","",""
"","533","html-keyboard-response","540","1169844","0.0-3.0-1.450","<span style=""font-size:30px; font-family: monospace"">e</span>"," ","","exp-sent","e","","",""
"","677","html-keyboard-response","541","1170772","0.0-3.0-1.451","<span style=""font-size:30px; font-family: monospace"">em</span>"," ","","exp-sent","em","","",""
"","677","html-keyboard-response","542","1171700","0.0-3.0-1.452","<span style=""font-size:30px; font-family: monospace"">outras</span>"," ","","exp-sent","outras","","",""
"","630","html-keyboard-response","543","1172580","0.0-3.0-1.453","<span style=""font-size:30px; font-family: monospace"">vidas.</span>"," ","","exp-sent","vidas.","","",""
"","null","html-keyboard-response","544","1173832","0.0-3.0-0.454-0.454","<span style= ""font-size:30px; font-family: monospace"">+</span>","null","fixation","","","","",""
"","337","html-keyboard-response","545","1174420","0.0-3.0-1.454","<span style=""font-size:30px; font-family: monospace"">Ela</span>"," ","","exp-sent","Ela","","",""
"","789","html-keyboard-response","546","1175460","0.0-3.0-1.455","<span style=""font-size:30px; font-family: monospace"">gosta</span>"," ","","exp-sent","gosta","","",""
"","437","html-keyboard-response","547","1176149","0.0-3.0-1.456","<span style=""font-size:30px; font-family: monospace"">de</span>"," ","","exp-sent","de","","",""
"","1364","html-keyboard-response","548","1177765","0.0-3.0-1.457","<span style=""font-size:30px; font-family: monospace"">estudar</span>"," ","","exp-sent","estudar","","",""
"","1717","html-keyboard-response","549","1179732","0.0-3.0-1.458","<span style=""font-size:30px; font-family: monospace"">matemática</span>"," ","","exp-sent","matemática","","",""
"","2533","html-keyboard-response","550","1182516","0.0-3.0-1.459","<span style=""font-size:30px; font-family: monospace"">com</span>"," ","","exp-sent","com","","",""
"","981","html-keyboard-response","551","1183748","0.0-3.0-1.460","<span style=""font-size:30px; font-family: monospace"">colegas.</span>"," ","","comp","colegas.","","",""
"","4069","html-keyboard-response","552","1188067","0.0-3.0-2.460-0.460","<span style=""font-size:30px; font-family: monospace"">Ela gosta de estudar física?</span>","n","","comp","","Ela gosta de estudar física?","não","false"
"","null","html-keyboard-response","553","1189571","0.0-3.0-0.461-0.461","<span style= ""font-size:30px; font-family: monospace"">+</span>","null","fixation","","","","",""
"","373","html-keyboard-response","554","1190195","0.0-3.0-1.461","<span style=""font-size:30px; font-family: monospace"">Este</span>"," ","","exp-sent","Este","","",""
"","836","html-keyboard-response","555","1191283","0.0-3.0-1.462","<span style=""font-size:30px; font-family: monospace"">conto</span>"," ","","exp-sent","conto","","",""
"","714","html-keyboard-response","556","1192259","0.0-3.0-1.463","<span style=""font-size:30px; font-family: monospace"">tem</span>"," ","","exp-sent","tem","","",""
"","677","html-keyboard-response","557","1193187","0.0-3.0-1.464","<span style=""font-size:30px; font-family: monospace"">um</span>"," ","","exp-sent","um","","",""
"","884","html-keyboard-response","558","1194323","0.0-3.0-1.465","<span style=""font-size:30px; font-family: monospace"">final</span>"," ","","exp-sent","final","","",""
"","1381","html-keyboard-response","559","1195955","0.0-3.0-1.466","<span style=""font-size:30px; font-family: monospace"">perfeito.</span>"," ","","exp-sent","perfeito.","","",""
"","null","html-keyboard-response","560","1197208","0.0-3.0-0.467-0.467","<span style= ""font-size:30px; font-family: monospace"">+</span>","null","fixation","","","","",""
"","303","html-keyboard-response","561","1197763","0.0-3.0-1.467","<span style=""font-size:30px; font-family: monospace"">Ele</span>"," ","","exp-sent","Ele","","",""
"","1061","html-keyboard-response","562","1199075","0.0-3.0-1.468","<span style=""font-size:30px; font-family: monospace"">precisa</span>"," ","","exp-sent","precisa","","",""
"","804","html-keyboard-response","563","1200131","0.0-3.0-1.469","<span style=""font-size:30px; font-family: monospace"">de</span>"," ","","exp-sent","de","","",""
"","676","html-keyboard-response","564","1201059","0.0-3.0-1.470","<span style=""font-size:30px; font-family: monospace"">um</span>"," ","","exp-sent","um","","",""
"","1797","html-keyboard-response","565","1203107","0.0-3.0-1.471","<span style=""font-size:30px; font-family: monospace"">protetor</span>"," ","","exp-sent","protetor","","",""
"","997","html-keyboard-response","566","1204355","0.0-3.0-1.472","<span style=""font-size:30px; font-family: monospace"">de</span>"," ","","exp-sent","de","","",""
"","1141","html-keyboard-response","567","1205747","0.0-3.0-1.473","<span style=""font-size:30px; font-family: monospace"">ouvido.</span>"," ","","exp-sent","ouvido.","","",""
"","null","html-keyboard-response","568","1207002","0.0-3.0-0.474-0.474","<span style= ""font-size:30px; font-family: monospace"">+</span>","null","fixation","","","","",""
"","398","html-keyboard-response","569","1207651","0.0-3.0-1.474","<span style=""font-size:30px; font-family: monospace"">Os</span>"," ","","exp-sent","Os","","",""
"","1397","html-keyboard-response","570","1209299","0.0-3.0-1.475","<span style=""font-size:30px; font-family: monospace"">hábitos</span>"," ","","exp-sent","hábitos","","",""
"","485","html-keyboard-response","571","1210035","0.0-3.0-1.476","<span style=""font-size:30px; font-family: monospace"">de</span>"," ","","exp-sent","de","","",""
"","1653","html-keyboard-response","572","1211939","0.0-3.0-1.477","<span style=""font-size:30px; font-family: monospace"">lugares</span>"," ","","exp-sent","lugares","","",""
"","1285","html-keyboard-response","573","1213475","0.0-3.0-1.478","<span style=""font-size:30px; font-family: monospace"">diferentes</span>"," ","","exp-sent","diferentes","","",""
"","821","html-keyboard-response","574","1214547","0.0-3.0-1.479","<span style=""font-size:30px; font-family: monospace"">são</span>"," ","","exp-sent","são","","",""
"","756","html-keyboard-response","575","1215555","0.0-3.0-1.480","<span style=""font-size:30px; font-family: monospace"">muito</span>"," ","","exp-sent","muito","","",""
"","965","html-keyboard-response","576","1216771","0.0-3.0-1.481","<span style=""font-size:30px; font-family: monospace"">lindos.</span>"," ","","exp-sent","lindos.","","",""
"","null","html-keyboard-response","577","1218024","0.0-3.0-0.482-0.482","<span style= ""font-size:30px; font-family: monospace"">+</span>","null","fixation","","","","",""
"","192","html-keyboard-response","578","1218467","0.0-3.0-1.482","<span style=""font-size:30px; font-family: monospace"">O</span>"," ","","exp-sent","O","","",""
"","1605","html-keyboard-response","579","1220323","0.0-3.0-1.483","<span style=""font-size:30px; font-family: monospace"">médico</span>"," ","","exp-sent","médico","","",""
"","3381","html-keyboard-response","580","1223955","0.0-3.0-1.484","<span style=""font-size:30px; font-family: monospace"">corrigiu</span>"," ","","exp-sent","corrigiu","","",""
"","613","html-keyboard-response","581","1224819","0.0-3.0-1.485","<span style=""font-size:30px; font-family: monospace"">a</span>"," ","","exp-sent","a","","",""
"","1333","html-keyboard-response","582","1226403","0.0-3.0-1.486","<span style=""font-size:30px; font-family: monospace"">postura</span>"," ","","exp-sent","postura","","",""
