[
	{
		"view_history": [
			{
				"page_index": 0,
				"viewing_time": 43410
			}
		],
		"rt": 43410,
		"trial_type": "instructions",
		"trial_index": 0,
		"time_elapsed": 43412,
		"internal_node_id": "0.0-0.0"
	},
	{
		"rt": null,
		"stimulus": "+",
		"response": null,
		"trial_type": "html-keyboard-response",
		"trial_index": 1,
		"time_elapsed": 44015,
		"internal_node_id": "0.0-1.0-0.0"
	},
	{
		"rt": 628,
		"stimulus": "calmaria",
		"response": "s",
		"class": "null",
		"status": "noncog",
		"answer": "word",
		"correct": "S",
		"trial": "prac",
		"letters": "null",
		"trial_type": "html-keyboard-response",
		"trial_index": 2,
		"time_elapsed": 44644,
		"internal_node_id": "0.0-1.0-1.0"
	},
	{
		"rt": null,
		"stimulus": "+",
		"response": null,
		"trial_type": "html-keyboard-response",
		"trial_index": 3,
		"time_elapsed": 45146,
		"internal_node_id": "0.0-1.0-0.1"
	},
	{
		"rt": 729,
		"stimulus": "oliva",
		"response": "s",
		"class": "null",
		"status": "cog",
		"answer": "word",
		"correct": "S",
		"trial": "prac",
		"letters": "null",
		"trial_type": "html-keyboard-response",
		"trial_index": 4,
		"time_elapsed": 45875,
		"internal_node_id": "0.0-1.0-1.1"
	},
	{
		"rt": null,
		"stimulus": "+",
		"response": null,
		"trial_type": "html-keyboard-response",
		"trial_index": 5,
		"time_elapsed": 46377,
		"internal_node_id": "0.0-1.0-0.2"
	},
	{
		"rt": 506,
		"stimulus": "daja",
		"response": "s",
		"class": "null",
		"status": "noncog",
		"answer": "pseudo",
		"correct": "N",
		"trial": "prac",
		"letters": "null",
		"trial_type": "html-keyboard-response",
		"trial_index": 6,
		"time_elapsed": 46884,
		"internal_node_id": "0.0-1.0-1.2"
	},
	{
		"rt": null,
		"stimulus": "+",
		"response": null,
		"trial_type": "html-keyboard-response",
		"trial_index": 7,
		"time_elapsed": 47385,
		"internal_node_id": "0.0-1.0-0.3"
	},
	{
		"rt": 554,
		"stimulus": "crante",
		"response": "s",
		"class": "null",
		"status": "noncog",
		"answer": "pseudo",
		"correct": "N",
		"trial": "prac",
		"letters": "null",
		"trial_type": "html-keyboard-response",
		"trial_index": 8,
		"time_elapsed": 47939,
		"internal_node_id": "0.0-1.0-1.3"
	},
	{
		"rt": null,
		"stimulus": "+",
		"response": null,
		"trial_type": "html-keyboard-response",
		"trial_index": 9,
		"time_elapsed": 48440,
		"internal_node_id": "0.0-1.0-0.4"
	},
	{
		"rt": 794,
		"stimulus": "plibar",
		"response": "s",
		"class": "null",
		"status": "noncog",
		"answer": "pseudo",
		"correct": "N",
		"trial": "prac",
		"letters": "null",
		"trial_type": "html-keyboard-response",
		"trial_index": 10,
		"time_elapsed": 49235,
		"internal_node_id": "0.0-1.0-1.4"
	},
	{
		"rt": null,
		"stimulus": "+",
		"response": null,
		"trial_type": "html-keyboard-response",
		"trial_index": 11,
		"time_elapsed": 49737,
		"internal_node_id": "0.0-1.0-0.5"
	},
	{
		"rt": 858,
		"stimulus": "chassi",
		"response": "s",
		"class": "null",
		"status": "cog",
		"answer": "word",
		"correct": "S",
		"trial": "prac",
		"letters": "null",
		"trial_type": "html-keyboard-response",
		"trial_index": 12,
		"time_elapsed": 50595,
		"internal_node_id": "0.0-1.0-1.5"
	},
	{
		"rt": null,
		"stimulus": "+",
		"response": null,
		"trial_type": "html-keyboard-response",
		"trial_index": 13,
		"time_elapsed": 51097,
		"internal_node_id": "0.0-1.0-0.6"
	},
	{
		"rt": 554,
		"stimulus": "órgão",
		"response": "s",
		"class": "null",
		"status": "noncog",
		"answer": "word",
		"correct": "S",
		"trial": "prac",
		"letters": "null",
		"trial_type": "html-keyboard-response",
		"trial_index": 14,
		"time_elapsed": 51651,
		"internal_node_id": "0.0-1.0-1.6"
	},
	{
		"view_history": [
			{
				"page_index": 0,
				"viewing_time": 30608
			}
		],
		"rt": 30608,
		"trial_type": "instructions",
		"trial_index": 15,
		"time_elapsed": 82260,
		"internal_node_id": "0.0-2.0"
	},
	{
		"rt": null,
		"stimulus": "+",
		"response": null,
		"trial_type": "html-keyboard-response",
		"trial_index": 16,
		"time_elapsed": 82861,
		"internal_node_id": "0.0-3.0-0.0"
	},
	{
		"rt": 293,
		"stimulus": "terdia",
		"response": "s",
		"class": "null",
		"status": "noncog",
		"answer": "pseudo",
		"correct": "N",
		"trial": "exp",
		"letters": "null",
		"trial_type": "html-keyboard-response",
		"trial_index": 17,
		"time_elapsed": 83155,
		"internal_node_id": "0.0-3.0-1.0"
	},
	{
		"rt": null,
		"stimulus": "+",
		"response": null,
		"trial_type": "html-keyboard-response",
		"trial_index": 18,
		"time_elapsed": 83656,
		"internal_node_id": "0.0-3.0-0.1"
	},
	{
		"rt": 363,
		"stimulus": "promeção",
		"response": "s",
		"class": "null",
		"status": "noncog",
		"answer": "pseudo",
		"correct": "N",
		"trial": "exp",
		"letters": "null",
		"trial_type": "html-keyboard-response",
		"trial_index": 19,
		"time_elapsed": 84020,
		"internal_node_id": "0.0-3.0-1.1"
	},
	{
		"rt": null,
		"stimulus": "+",
		"response": null,
		"trial_type": "html-keyboard-response",
		"trial_index": 20,
		"time_elapsed": 84521,
		"internal_node_id": "0.0-3.0-0.2"
	},
	{
		"rt": 314,
		"stimulus": "boreta",
		"response": "s",
		"class": "null",
		"status": "noncog",
		"answer": "pseudo",
		"correct": "N",
		"trial": "exp",
		"letters": "null",
		"trial_type": "html-keyboard-response",
		"trial_index": 21,
		"time_elapsed": 84836,
		"internal_node_id": "0.0-3.0-1.2"
	},
	{
		"rt": null,
		"stimulus": "+",
		"response": null,
		"trial_type": "html-keyboard-response",
		"trial_index": 22,
		"time_elapsed": 85337,
		"internal_node_id": "0.0-3.0-0.3"
	},
	{
		"rt": 298,
		"stimulus": "ótimo",
		"response": "s",
		"class": "a",
		"status": "noncog",
		"answer": "word",
		"correct": "S",
		"trial": "exp",
		"letters": "5",
		"trial_type": "html-keyboard-response",
		"trial_index": 23,
		"time_elapsed": 85635,
		"internal_node_id": "0.0-3.0-1.3"
	},
	{
		"rt": null,
		"stimulus": "+",
		"response": null,
		"trial_type": "html-keyboard-response",
		"trial_index": 24,
		"time_elapsed": 86136,
		"internal_node_id": "0.0-3.0-0.4"
	},
	{
		"rt": 331,
		"stimulus": "ofreta",
		"response": "s",
		"class": "null",
		"status": "noncog",
		"answer": "pseudo",
		"correct": "N",
		"trial": "exp",
		"letters": "null",
		"trial_type": "html-keyboard-response",
		"trial_index": 25,
		"time_elapsed": 86467,
		"internal_node_id": "0.0-3.0-1.4"
	},
	{
		"rt": null,
		"stimulus": "+",
		"response": null,
		"trial_type": "html-keyboard-response",
		"trial_index": 26,
		"time_elapsed": 86969,
		"internal_node_id": "0.0-3.0-0.5"
	},
	{
		"rt": 330,
		"stimulus": "pneucania",
		"response": "s",
		"class": "null",
		"status": "noncog",
		"answer": "pseudo",
		"correct": "N",
		"trial": "exp",
		"letters": "null",
		"trial_type": "html-keyboard-response",
		"trial_index": 27,
		"time_elapsed": 87299,
		"internal_node_id": "0.0-3.0-1.5"
	},
	{
		"rt": null,
		"stimulus": "+",
		"response": null,
		"trial_type": "html-keyboard-response",
		"trial_index": 28,
		"time_elapsed": 87801,
		"internal_node_id": "0.0-3.0-0.6"
	},
	{
		"rt": 330,
		"stimulus": "incomodar",
		"response": "s",
		"class": "v",
		"status": "noncog",
		"answer": "word",
		"correct": "S",
		"trial": "exp",
		"letters": "9",
		"trial_type": "html-keyboard-response",
		"trial_index": 29,
		"time_elapsed": 88131,
		"internal_node_id": "0.0-3.0-1.6"
	},
	{
		"rt": null,
		"stimulus": "+",
		"response": null,
		"trial_type": "html-keyboard-response",
		"trial_index": 30,
		"time_elapsed": 88632,
		"internal_node_id": "0.0-3.0-0.7"
	},
	{
		"rt": 331,
		"stimulus": "instruído",
		"response": "s",
		"class": "a",
		"status": "noncog",
		"answer": "word",
		"correct": "S",
		"trial": "exp",
		"letters": "9",
		"trial_type": "html-keyboard-response",
		"trial_index": 31,
		"time_elapsed": 88963,
		"internal_node_id": "0.0-3.0-1.7"
	},
	{
		"rt": null,
		"stimulus": "+",
		"response": null,
		"trial_type": "html-keyboard-response",
		"trial_index": 32,
		"time_elapsed": 89465,
		"internal_node_id": "0.0-3.0-0.8"
	},
	{
		"rt": 362,
		"stimulus": "âgnulo",
		"response": "s",
		"class": "null",
		"status": "noncog",
		"answer": "pseudo",
		"correct": "N",
		"trial": "exp",
		"letters": "null",
		"trial_type": "html-keyboard-response",
		"trial_index": 33,
		"time_elapsed": 89827,
		"internal_node_id": "0.0-3.0-1.8"
	},
	{
		"rt": null,
		"stimulus": "+",
		"response": null,
		"trial_type": "html-keyboard-response",
		"trial_index": 34,
		"time_elapsed": 90329,
		"internal_node_id": "0.0-3.0-0.9"
	},
	{
		"rt": 314,
		"stimulus": "espinho",
		"response": "s",
		"class": "n",
		"status": "noncog",
		"answer": "word",
		"correct": "S",
		"trial": "exp",
		"letters": "7",
		"trial_type": "html-keyboard-response",
		"trial_index": 35,
		"time_elapsed": 90644,
		"internal_node_id": "0.0-3.0-1.9"
	},
	{
		"rt": null,
		"stimulus": "+",
		"response": null,
		"trial_type": "html-keyboard-response",
		"trial_index": 36,
		"time_elapsed": 91144,
		"internal_node_id": "0.0-3.0-0.10"
	},
	{
		"rt": 315,
		"stimulus": "tímido",
		"response": "s",
		"class": "a",
		"status": "cog",
		"answer": "word",
		"correct": "S",
		"trial": "exp",
		"letters": "6",
		"trial_type": "html-keyboard-response",
		"trial_index": 37,
		"time_elapsed": 91460,
		"internal_node_id": "0.0-3.0-1.10"
	},
	{
		"rt": null,
		"stimulus": "+",
		"response": null,
		"trial_type": "html-keyboard-response",
		"trial_index": 38,
		"time_elapsed": 91961,
		"internal_node_id": "0.0-3.0-0.11"
	},
	{
		"rt": 330,
		"stimulus": "agressivo",
		"response": "s",
		"class": "a",
		"status": "cog",
		"answer": "word",
		"correct": "S",
		"trial": "exp",
		"letters": "9",
		"trial_type": "html-keyboard-response",
		"trial_index": 39,
		"time_elapsed": 92292,
		"internal_node_id": "0.0-3.0-1.11"
	},
	{
		"rt": null,
		"stimulus": "+",
		"response": null,
		"trial_type": "html-keyboard-response",
		"trial_index": 40,
		"time_elapsed": 92793,
		"internal_node_id": "0.0-3.0-0.12"
	},
	{
		"rt": 346,
		"stimulus": "manais",
		"response": "s",
		"class": "null",
		"status": "noncog",
		"answer": "pseudo",
		"correct": "N",
		"trial": "exp",
		"letters": "null",
		"trial_type": "html-keyboard-response",
		"trial_index": 41,
		"time_elapsed": 93139,
		"internal_node_id": "0.0-3.0-1.12"
	},
	{
		"rt": null,
		"stimulus": "+",
		"response": null,
		"trial_type": "html-keyboard-response",
		"trial_index": 42,
		"time_elapsed": 93641,
		"internal_node_id": "0.0-3.0-0.13"
	},
	{
		"rt": 314,
		"stimulus": "mal",
		"response": "s",
		"class": "a",
		"status": "cog",
		"answer": "word",
		"correct": "S",
		"trial": "exp",
		"letters": "3",
		"trial_type": "html-keyboard-response",
		"trial_index": 43,
		"time_elapsed": 93955,
		"internal_node_id": "0.0-3.0-1.13"
	},
	{
		"rt": null,
		"stimulus": "+",
		"response": null,
		"trial_type": "html-keyboard-response",
		"trial_index": 44,
		"time_elapsed": 94456,
		"internal_node_id": "0.0-3.0-0.14"
	},
	{
		"rt": 331,
		"stimulus": "glória",
		"response": "s",
		"class": "n",
		"status": "cog",
		"answer": "word",
		"correct": "S",
		"trial": "exp",
		"letters": "6",
		"trial_type": "html-keyboard-response",
		"trial_index": 45,
		"time_elapsed": 94788,
		"internal_node_id": "0.0-3.0-1.14"
	},
	{
		"rt": null,
		"stimulus": "+",
		"response": null,
		"trial_type": "html-keyboard-response",
		"trial_index": 46,
		"time_elapsed": 95289,
		"internal_node_id": "0.0-3.0-0.15"
	},
	{
		"rt": 362,
		"stimulus": "civil",
		"response": "s",
		"class": "a",
		"status": "cog",
		"answer": "word",
		"correct": "S",
		"trial": "exp",
		"letters": "5",
		"trial_type": "html-keyboard-response",
		"trial_index": 47,
		"time_elapsed": 95651,
		"internal_node_id": "0.0-3.0-1.15"
	},
	{
		"rt": null,
		"stimulus": "+",
		"response": null,
		"trial_type": "html-keyboard-response",
		"trial_index": 48,
		"time_elapsed": 96153,
		"internal_node_id": "0.0-3.0-0.16"
	},
	{
		"rt": 377,
		"stimulus": "nome",
		"response": "s",
		"class": "n",
		"status": "cog",
		"answer": "word",
		"correct": "S",
		"trial": "exp",
		"letters": "4",
		"trial_type": "html-keyboard-response",
		"trial_index": 49,
		"time_elapsed": 96531,
		"internal_node_id": "0.0-3.0-1.16"
	},
	{
		"rt": null,
		"stimulus": "+",
		"response": null,
		"trial_type": "html-keyboard-response",
		"trial_index": 50,
		"time_elapsed": 97032,
		"internal_node_id": "0.0-3.0-0.17"
	},
	{
		"rt": 267,
		"stimulus": "carro",
		"response": "s",
		"class": "n",
		"status": "noncog",
		"answer": "word",
		"correct": "S",
		"trial": "exp",
		"letters": "5",
		"trial_type": "html-keyboard-response",
		"trial_index": 51,
		"time_elapsed": 97300,
		"internal_node_id": "0.0-3.0-1.17"
	},
	{
		"rt": null,
		"stimulus": "+",
		"response": null,
		"trial_type": "html-keyboard-response",
		"trial_index": 52,
		"time_elapsed": 97800,
		"internal_node_id": "0.0-3.0-0.18"
	},
	{
		"rt": 331,
		"stimulus": "distraído",
		"response": "s",
		"class": "a",
		"status": "cog",
		"answer": "word",
		"correct": "S",
		"trial": "exp",
		"letters": "9",
		"trial_type": "html-keyboard-response",
		"trial_index": 53,
		"time_elapsed": 98131,
		"internal_node_id": "0.0-3.0-1.18"
	},
	{
		"rt": null,
		"stimulus": "+",
		"response": null,
		"trial_type": "html-keyboard-response",
		"trial_index": 54,
		"time_elapsed": 98633,
		"internal_node_id": "0.0-3.0-0.19"
	},
	{
		"rt": 379,
		"stimulus": "fusbão",
		"response": "s",
		"class": "null",
		"status": "noncog",
		"answer": "pseudo",
		"correct": "N",
		"trial": "exp",
		"letters": "null",
		"trial_type": "html-keyboard-response",
		"trial_index": 55,
		"time_elapsed": 99012,
		"internal_node_id": "0.0-3.0-1.19"
	},
	{
		"rt": null,
		"stimulus": "+",
		"response": null,
		"trial_type": "html-keyboard-response",
		"trial_index": 56,
		"time_elapsed": 99513,
		"internal_node_id": "0.0-3.0-0.20"
	},
	{
		"rt": 282,
		"stimulus": "lagoa",
		"response": "s",
		"class": "n",
		"status": "cog",
		"answer": "word",
		"correct": "S",
		"trial": "exp",
		"letters": "5",
		"trial_type": "html-keyboard-response",
		"trial_index": 57,
		"time_elapsed": 99795,
		"internal_node_id": "0.0-3.0-1.20"
	},
	{
		"rt": null,
		"stimulus": "+",
		"response": null,
		"trial_type": "html-keyboard-response",
		"trial_index": 58,
		"time_elapsed": 100297,
		"internal_node_id": "0.0-3.0-0.21"
	},
	{
		"rt": 314,
		"stimulus": "aparme",
		"response": "s",
		"class": "null",
		"status": "noncog",
		"answer": "pseudo",
		"correct": "N",
		"trial": "exp",
		"letters": "null",
		"trial_type": "html-keyboard-response",
		"trial_index": 59,
		"time_elapsed": 100612,
		"internal_node_id": "0.0-3.0-1.21"
	},
	{
		"rt": null,
		"stimulus": "+",
		"response": null,
		"trial_type": "html-keyboard-response",
		"trial_index": 60,
		"time_elapsed": 101124,
		"internal_node_id": "0.0-3.0-0.22"
	},
	{
		"rt": 255,
		"stimulus": "perdão",
		"response": "s",
		"class": "n",
		"status": "noncog",
		"answer": "word",
		"correct": "S",
		"trial": "exp",
		"letters": "6",
		"trial_type": "html-keyboard-response",
		"trial_index": 61,
		"time_elapsed": 101379,
		"internal_node_id": "0.0-3.0-1.22"
	},
	{
		"rt": null,
		"stimulus": "+",
		"response": null,
		"trial_type": "html-keyboard-response",
		"trial_index": 62,
		"time_elapsed": 101880,
		"internal_node_id": "0.0-3.0-0.23"
	},
	{
		"rt": 203,
		"stimulus": "euorpa",
		"response": "s",
		"class": "null",
		"status": "noncog",
		"answer": "pseudo",
		"correct": "N",
		"trial": "exp",
		"letters": "null",
		"trial_type": "html-keyboard-response",
		"trial_index": 63,
		"time_elapsed": 102083,
		"internal_node_id": "0.0-3.0-1.23"
	},
	{
		"rt": null,
		"stimulus": "+",
		"response": null,
		"trial_type": "html-keyboard-response",
		"trial_index": 64,
		"time_elapsed": 102584,
		"internal_node_id": "0.0-3.0-0.24"
	},
	{
		"rt": 219,
		"stimulus": "hedoru",
		"response": "s",
		"class": "null",
		"status": "noncog",
		"answer": "pseudo",
		"correct": "N",
		"trial": "exp",
		"letters": "null",
		"trial_type": "html-keyboard-response",
		"trial_index": 65,
		"time_elapsed": 102804,
		"internal_node_id": "0.0-3.0-1.24"
	},
	{
		"rt": null,
		"stimulus": "+",
		"response": null,
		"trial_type": "html-keyboard-response",
		"trial_index": 66,
		"time_elapsed": 103305,
		"internal_node_id": "0.0-3.0-0.25"
	},
	{
		"rt": 249,
		"stimulus": "destino",
		"response": "s",
		"class": "n",
		"status": "cog",
		"answer": "word",
		"correct": "S",
		"trial": "exp",
		"letters": "7",
		"trial_type": "html-keyboard-response",
		"trial_index": 67,
		"time_elapsed": 103555,
		"internal_node_id": "0.0-3.0-1.25"
	},
	{
		"rt": null,
		"stimulus": "+",
		"response": null,
		"trial_type": "html-keyboard-response",
		"trial_index": 68,
		"time_elapsed": 104056,
		"internal_node_id": "0.0-3.0-0.26"
	},
	{
		"rt": 299,
		"stimulus": "candifência",
		"response": "s",
		"class": "null",
		"status": "noncog",
		"answer": "pseudo",
		"correct": "N",
		"trial": "exp",
		"letters": "null",
		"trial_type": "html-keyboard-response",
		"trial_index": 69,
		"time_elapsed": 104355,
		"internal_node_id": "0.0-3.0-1.26"
	},
	{
		"rt": null,
		"stimulus": "+",
		"response": null,
		"trial_type": "html-keyboard-response",
		"trial_index": 70,
		"time_elapsed": 104856,
		"internal_node_id": "0.0-3.0-0.27"
	},
	{
		"rt": 251,
		"stimulus": "aitrou",
		"response": "s",
		"class": "null",
		"status": "noncog",
		"answer": "pseudo",
		"correct": "N",
		"trial": "exp",
		"letters": "null",
		"trial_type": "html-keyboard-response",
		"trial_index": 71,
		"time_elapsed": 105107,
		"internal_node_id": "0.0-3.0-1.27"
	},
	{
		"rt": null,
		"stimulus": "+",
		"response": null,
		"trial_type": "html-keyboard-response",
		"trial_index": 72,
		"time_elapsed": 105608,
		"internal_node_id": "0.0-3.0-0.28"
	},
	{
		"rt": 298,
		"stimulus": "salpicado",
		"response": "s",
		"class": "a",
		"status": "noncog",
		"answer": "word",
		"correct": "S",
		"trial": "exp",
		"letters": "9",
		"trial_type": "html-keyboard-response",
		"trial_index": 73,
		"time_elapsed": 105907,
		"internal_node_id": "0.0-3.0-1.28"
	},
	{
		"rt": null,
		"stimulus": "+",
		"response": null,
		"trial_type": "html-keyboard-response",
		"trial_index": 74,
		"time_elapsed": 106408,
		"internal_node_id": "0.0-3.0-0.29"
	},
	{
		"rt": 299,
		"stimulus": "sintonizar",
		"response": "s",
		"class": "v",
		"status": "noncog",
		"answer": "word",
		"correct": "S",
		"trial": "exp",
		"letters": "10",
		"trial_type": "html-keyboard-response",
		"trial_index": 75,
		"time_elapsed": 106708,
		"internal_node_id": "0.0-3.0-1.29"
	},
	{
		"rt": null,
		"stimulus": "+",
		"response": null,
		"trial_type": "html-keyboard-response",
		"trial_index": 76,
		"time_elapsed": 107209,
		"internal_node_id": "0.0-3.0-0.30"
	},
	{
		"rt": 297,
		"stimulus": "afual",
		"response": "s",
		"class": "null",
		"status": "noncog",
		"answer": "pseudo",
		"correct": "N",
		"trial": "exp",
		"letters": "null",
		"trial_type": "html-keyboard-response",
		"trial_index": 77,
		"time_elapsed": 107507,
		"internal_node_id": "0.0-3.0-1.30"
	},
	{
		"rt": null,
		"stimulus": "+",
		"response": null,
		"trial_type": "html-keyboard-response",
		"trial_index": 78,
		"time_elapsed": 108008,
		"internal_node_id": "0.0-3.0-0.31"
	},
	{
		"rt": 315,
		"stimulus": "alfabeto",
		"response": "s",
		"class": "n",
		"status": "cog",
		"answer": "word",
		"correct": "S",
		"trial": "exp",
		"letters": "8",
		"trial_type": "html-keyboard-response",
		"trial_index": 79,
		"time_elapsed": 108323,
		"internal_node_id": "0.0-3.0-1.31"
	},
	{
		"rt": null,
		"stimulus": "+",
		"response": null,
		"trial_type": "html-keyboard-response",
		"trial_index": 80,
		"time_elapsed": 108824,
		"internal_node_id": "0.0-3.0-0.32"
	},
	{
		"rt": 299,
		"stimulus": "convidado",
		"response": "s",
		"class": "n",
		"status": "noncog",
		"answer": "word",
		"correct": "S",
		"trial": "exp",
		"letters": "9",
		"trial_type": "html-keyboard-response",
		"trial_index": 81,
		"time_elapsed": 109123,
		"internal_node_id": "0.0-3.0-1.32"
	},
	{
		"rt": null,
		"stimulus": "+",
		"response": null,
		"trial_type": "html-keyboard-response",
		"trial_index": 82,
		"time_elapsed": 109625,
		"internal_node_id": "0.0-3.0-0.33"
	},
	{
		"rt": 298,
		"stimulus": "sustentar",
		"response": "s",
		"class": "v",
		"status": "noncog",
		"answer": "word",
		"correct": "S",
		"trial": "exp",
		"letters": "9",
		"trial_type": "html-keyboard-response",
		"trial_index": 83,
		"time_elapsed": 109923,
		"internal_node_id": "0.0-3.0-1.33"
	},
	{
		"rt": null,
		"stimulus": "+",
		"response": null,
		"trial_type": "html-keyboard-response",
		"trial_index": 84,
		"time_elapsed": 110424,
		"internal_node_id": "0.0-3.0-0.34"
	},
	{
		"rt": 235,
		"stimulus": "franda",
		"response": "s",
		"class": "null",
		"status": "noncog",
		"answer": "pseudo",
		"correct": "N",
		"trial": "exp",
		"letters": "null",
		"trial_type": "html-keyboard-response",
		"trial_index": 85,
		"time_elapsed": 110660,
		"internal_node_id": "0.0-3.0-1.34"
	},
	{
		"rt": null,
		"stimulus": "+",
		"response": null,
		"trial_type": "html-keyboard-response",
		"trial_index": 86,
		"time_elapsed": 111161,
		"internal_node_id": "0.0-3.0-0.35"
	},
	{
		"rt": 330,
		"stimulus": "hébies",
		"response": "s",
		"class": "null",
		"status": "noncog",
		"answer": "pseudo",
		"correct": "N",
		"trial": "exp",
		"letters": "null",
		"trial_type": "html-keyboard-response",
		"trial_index": 87,
		"time_elapsed": 111491,
		"internal_node_id": "0.0-3.0-1.35"
	},
	{
		"rt": null,
		"stimulus": "+",
		"response": null,
		"trial_type": "html-keyboard-response",
		"trial_index": 88,
		"time_elapsed": 111993,
		"internal_node_id": "0.0-3.0-0.36"
	},
	{
		"rt": 298,
		"stimulus": "lapestra",
		"response": "s",
		"class": "null",
		"status": "noncog",
		"answer": "pseudo",
		"correct": "N",
		"trial": "exp",
		"letters": "null",
		"trial_type": "html-keyboard-response",
		"trial_index": 89,
		"time_elapsed": 112291,
		"internal_node_id": "0.0-3.0-1.36"
	},
	{
		"rt": null,
		"stimulus": "+",
		"response": null,
		"trial_type": "html-keyboard-response",
		"trial_index": 90,
		"time_elapsed": 112793,
		"internal_node_id": "0.0-3.0-0.37"
	},
	{
		"rt": 315,
		"stimulus": "bagunceira",
		"response": "s",
		"class": "a",
		"status": "noncog",
		"answer": "word",
		"correct": "S",
		"trial": "exp",
		"letters": "10",
		"trial_type": "html-keyboard-response",
		"trial_index": 91,
		"time_elapsed": 113108,
		"internal_node_id": "0.0-3.0-1.37"
	},
	{
		"rt": null,
		"stimulus": "+",
		"response": null,
		"trial_type": "html-keyboard-response",
		"trial_index": 92,
		"time_elapsed": 113609,
		"internal_node_id": "0.0-3.0-0.38"
	},
	{
		"rt": 282,
		"stimulus": "uçar",
		"response": "s",
		"class": "null",
		"status": "noncog",
		"answer": "pseudo",
		"correct": "N",
		"trial": "exp",
		"letters": "null",
		"trial_type": "html-keyboard-response",
		"trial_index": 93,
		"time_elapsed": 113891,
		"internal_node_id": "0.0-3.0-1.38"
	},
	{
		"rt": null,
		"stimulus": "+",
		"response": null,
		"trial_type": "html-keyboard-response",
		"trial_index": 94,
		"time_elapsed": 114392,
		"internal_node_id": "0.0-3.0-0.39"
	},
	{
		"rt": 219,
		"stimulus": "trenos",
		"response": "s",
		"class": "null",
		"status": "noncog",
		"answer": "pseudo",
		"correct": "N",
		"trial": "exp",
		"letters": "null",
		"trial_type": "html-keyboard-response",
		"trial_index": 95,
		"time_elapsed": 114611,
		"internal_node_id": "0.0-3.0-1.39"
	},
	{
		"rt": null,
		"stimulus": "+",
		"response": null,
		"trial_type": "html-keyboard-response",
		"trial_index": 96,
		"time_elapsed": 115113,
		"internal_node_id": "0.0-3.0-0.40"
	},
	{
		"rt": 266,
		"stimulus": "enedro",
		"response": "s",
		"class": "null",
		"status": "noncog",
		"answer": "pseudo",
		"correct": "N",
		"trial": "exp",
		"letters": "null",
		"trial_type": "html-keyboard-response",
		"trial_index": 97,
		"time_elapsed": 115379,
		"internal_node_id": "0.0-3.0-1.40"
	},
	{
		"rt": null,
		"stimulus": "+",
		"response": null,
		"trial_type": "html-keyboard-response",
		"trial_index": 98,
		"time_elapsed": 115880,
		"internal_node_id": "0.0-3.0-0.41"
	},
	{
		"rt": 171,
		"stimulus": "apontar",
		"response": "s",
		"class": "v",
		"status": "noncog",
		"answer": "word",
		"correct": "S",
		"trial": "exp",
		"letters": "7",
		"trial_type": "html-keyboard-response",
		"trial_index": 99,
		"time_elapsed": 116051,
		"internal_node_id": "0.0-3.0-1.41"
	},
	{
		"rt": null,
		"stimulus": "+",
		"response": null,
		"trial_type": "html-keyboard-response",
		"trial_index": 100,
		"time_elapsed": 116552,
		"internal_node_id": "0.0-3.0-0.42"
	},
	{
		"rt": 251,
		"stimulus": "crutas",
		"response": "s",
		"class": "null",
		"status": "noncog",
		"answer": "pseudo",
		"correct": "N",
		"trial": "exp",
		"letters": "null",
		"trial_type": "html-keyboard-response",
		"trial_index": 101,
		"time_elapsed": 116803,
		"internal_node_id": "0.0-3.0-1.42"
	},
	{
		"rt": null,
		"stimulus": "+",
		"response": null,
		"trial_type": "html-keyboard-response",
		"trial_index": 102,
		"time_elapsed": 117305,
		"internal_node_id": "0.0-3.0-0.43"
	},
	{
		"rt": 202,
		"stimulus": "grátis",
		"response": "s",
		"class": "a",
		"status": "cog",
		"answer": "word",
		"correct": "S",
		"trial": "exp",
		"letters": "6",
		"trial_type": "html-keyboard-response",
		"trial_index": 103,
		"time_elapsed": 117507,
		"internal_node_id": "0.0-3.0-1.43"
	},
	{
		"rt": null,
		"stimulus": "+",
		"response": null,
		"trial_type": "html-keyboard-response",
		"trial_index": 104,
		"time_elapsed": 118009,
		"internal_node_id": "0.0-3.0-0.44"
	},
	{
		"rt": 122,
		"stimulus": "promessa",
		"response": "s",
		"class": "n",
		"status": "noncog",
		"answer": "word",
		"correct": "S",
		"trial": "exp",
		"letters": "8",
		"trial_type": "html-keyboard-response",
		"trial_index": 105,
		"time_elapsed": 118131,
		"internal_node_id": "0.0-3.0-1.44"
	},
	{
		"rt": null,
		"stimulus": "+",
		"response": null,
		"trial_type": "html-keyboard-response",
		"trial_index": 106,
		"time_elapsed": 118632,
		"internal_node_id": "0.0-3.0-0.45"
	},
	{
		"rt": 235,
		"stimulus": "pega-pega",
		"response": "s",
		"class": "n",
		"status": "noncog",
		"answer": "word",
		"correct": "S",
		"trial": "exp",
		"letters": "8",
		"trial_type": "html-keyboard-response",
		"trial_index": 107,
		"time_elapsed": 118867,
		"internal_node_id": "0.0-3.0-1.45"
	},
	{
		"rt": null,
		"stimulus": "+",
		"response": null,
		"trial_type": "html-keyboard-response",
		"trial_index": 108,
		"time_elapsed": 119369,
		"internal_node_id": "0.0-3.0-0.46"
	},
	{
		"rt": 138,
		"stimulus": "arranjar",
		"response": "s",
		"class": "v",
		"status": "cog",
		"answer": "word",
		"correct": "S",
		"trial": "exp",
		"letters": "8",
		"trial_type": "html-keyboard-response",
		"trial_index": 109,
		"time_elapsed": 119507,
		"internal_node_id": "0.0-3.0-1.46"
	},
	{
		"rt": null,
		"stimulus": "+",
		"response": null,
		"trial_type": "html-keyboard-response",
		"trial_index": 110,
		"time_elapsed": 120008,
		"internal_node_id": "0.0-3.0-0.47"
	},
	{
		"rt": 299,
		"stimulus": "cerca",
		"response": "s",
		"class": "n",
		"status": "noncog",
		"answer": "word",
		"correct": "S",
		"trial": "exp",
		"letters": "5",
		"trial_type": "html-keyboard-response",
		"trial_index": 111,
		"time_elapsed": 120307,
		"internal_node_id": "0.0-3.0-1.47"
	},
	{
		"rt": null,
		"stimulus": "+",
		"response": null,
		"trial_type": "html-keyboard-response",
		"trial_index": 112,
		"time_elapsed": 120809,
		"internal_node_id": "0.0-3.0-0.48"
	},
	{
		"rt": 202,
		"stimulus": "traduzir",
		"response": "s",
		"class": "v",
		"status": "cog",
		"answer": "word",
		"correct": "S",
		"trial": "exp",
		"letters": "8",
		"trial_type": "html-keyboard-response",
		"trial_index": 113,
		"time_elapsed": 121011,
		"internal_node_id": "0.0-3.0-1.48"
	},
	{
		"rt": null,
		"stimulus": "+",
		"response": null,
		"trial_type": "html-keyboard-response",
		"trial_index": 114,
		"time_elapsed": 121513,
		"internal_node_id": "0.0-3.0-0.49"
	},
	{
		"rt": 218,
		"stimulus": "rédesa",
		"response": "s",
		"class": "null",
		"status": "noncog",
		"answer": "pseudo",
		"correct": "N",
		"trial": "exp",
		"letters": "null",
		"trial_type": "html-keyboard-response",
		"trial_index": 115,
		"time_elapsed": 121731,
		"internal_node_id": "0.0-3.0-1.49"
	},
	{
		"rt": null,
		"stimulus": "+",
		"response": null,
		"trial_type": "html-keyboard-response",
		"trial_index": 116,
		"time_elapsed": 122233,
		"internal_node_id": "0.0-3.0-0.50"
	},
	{
		"rt": 266,
		"stimulus": "mania",
		"response": "s",
		"class": "n",
		"status": "cog",
		"answer": "word",
		"correct": "S",
		"trial": "exp",
		"letters": "5",
		"trial_type": "html-keyboard-response",
		"trial_index": 117,
		"time_elapsed": 122499,
		"internal_node_id": "0.0-3.0-1.50"
	},
	{
		"rt": null,
		"stimulus": "+",
		"response": null,
		"trial_type": "html-keyboard-response",
		"trial_index": 118,
		"time_elapsed": 123002,
		"internal_node_id": "0.0-3.0-0.51"
	},
	{
		"rt": 169,
		"stimulus": "melão",
		"response": "s",
		"class": "n",
		"status": "cog",
		"answer": "word",
		"correct": "S",
		"trial": "exp",
		"letters": "5",
		"trial_type": "html-keyboard-response",
		"trial_index": 119,
		"time_elapsed": 123172,
		"internal_node_id": "0.0-3.0-1.51"
	},
	{
		"rt": null,
		"stimulus": "+",
		"response": null,
		"trial_type": "html-keyboard-response",
		"trial_index": 120,
		"time_elapsed": 123673,
		"internal_node_id": "0.0-3.0-0.52"
	},
	{
		"rt": 170,
		"stimulus": "francês",
		"response": "s",
		"class": "a",
		"status": "cog",
		"answer": "word",
		"correct": "S",
		"trial": "exp",
		"letters": "7",
		"trial_type": "html-keyboard-response",
		"trial_index": 121,
		"time_elapsed": 123843,
		"internal_node_id": "0.0-3.0-1.52"
	},
	{
		"rt": null,
		"stimulus": "+",
		"response": null,
		"trial_type": "html-keyboard-response",
		"trial_index": 122,
		"time_elapsed": 124345,
		"internal_node_id": "0.0-3.0-0.53"
	},
	{
		"rt": 218,
		"stimulus": "macras",
		"response": "s",
		"class": "null",
		"status": "noncog",
		"answer": "pseudo",
		"correct": "N",
		"trial": "exp",
		"letters": "null",
		"trial_type": "html-keyboard-response",
		"trial_index": 123,
		"time_elapsed": 124563,
		"internal_node_id": "0.0-3.0-1.53"
	},
	{
		"rt": null,
		"stimulus": "+",
		"response": null,
		"trial_type": "html-keyboard-response",
		"trial_index": 124,
		"time_elapsed": 125064,
		"internal_node_id": "0.0-3.0-0.54"
	},
	{
		"rt": 203,
		"stimulus": "papai",
		"response": "s",
		"class": "n",
		"status": "cog",
		"answer": "word",
		"correct": "S",
		"trial": "exp",
		"letters": "5",
		"trial_type": "html-keyboard-response",
		"trial_index": 125,
		"time_elapsed": 125267,
		"internal_node_id": "0.0-3.0-1.54"
	},
	{
		"rt": null,
		"stimulus": "+",
		"response": null,
		"trial_type": "html-keyboard-response",
		"trial_index": 126,
		"time_elapsed": 125768,
		"internal_node_id": "0.0-3.0-0.55"
	},
	{
		"rt": 219,
		"stimulus": "dilheira",
		"response": "s",
		"class": "null",
		"status": "noncog",
		"answer": "pseudo",
		"correct": "N",
		"trial": "exp",
		"letters": "null",
		"trial_type": "html-keyboard-response",
		"trial_index": 127,
		"time_elapsed": 125988,
		"internal_node_id": "0.0-3.0-1.55"
	},
	{
		"rt": null,
		"stimulus": "+",
		"response": null,
		"trial_type": "html-keyboard-response",
		"trial_index": 128,
		"time_elapsed": 126498,
		"internal_node_id": "0.0-3.0-0.56"
	},
	{
		"rt": 97,
		"stimulus": "fino",
		"response": "s",
		"class": "a",
		"status": "cog",
		"answer": "word",
		"correct": "S",
		"trial": "exp",
		"letters": "4",
		"trial_type": "html-keyboard-response",
		"trial_index": 129,
		"time_elapsed": 126595,
		"internal_node_id": "0.0-3.0-1.56"
	},
	{
		"rt": null,
		"stimulus": "+",
		"response": null,
		"trial_type": "html-keyboard-response",
		"trial_index": 130,
		"time_elapsed": 127096,
		"internal_node_id": "0.0-3.0-0.57"
	},
	{
		"rt": 170,
		"stimulus": "plinta",
		"response": "s",
		"class": "null",
		"status": "noncog",
		"answer": "pseudo",
		"correct": "N",
		"trial": "exp",
		"letters": "null",
		"trial_type": "html-keyboard-response",
		"trial_index": 131,
		"time_elapsed": 127267,
		"internal_node_id": "0.0-3.0-1.57"
	},
	{
		"rt": null,
		"stimulus": "+",
		"response": null,
		"trial_type": "html-keyboard-response",
		"trial_index": 132,
		"time_elapsed": 127768,
		"internal_node_id": "0.0-3.0-0.58"
	},
	{
		"rt": 171,
		"stimulus": "bachir",
		"response": "s",
		"class": "null",
		"status": "noncog",
		"answer": "pseudo",
		"correct": "N",
		"trial": "exp",
		"letters": "null",
		"trial_type": "html-keyboard-response",
		"trial_index": 133,
		"time_elapsed": 127939,
		"internal_node_id": "0.0-3.0-1.58"
	},
	{
		"rt": null,
		"stimulus": "+",
		"response": null,
		"trial_type": "html-keyboard-response",
		"trial_index": 134,
		"time_elapsed": 128441,
		"internal_node_id": "0.0-3.0-0.59"
	},
	{
		"rt": 234,
		"stimulus": "loaco",
		"response": "s",
		"class": "null",
		"status": "noncog",
		"answer": "pseudo",
		"correct": "N",
		"trial": "exp",
		"letters": "null",
		"trial_type": "html-keyboard-response",
		"trial_index": 135,
		"time_elapsed": 128676,
		"internal_node_id": "0.0-3.0-1.59"
	},
	{
		"rt": null,
		"stimulus": "+",
		"response": null,
		"trial_type": "html-keyboard-response",
		"trial_index": 136,
		"time_elapsed": 129177,
		"internal_node_id": "0.0-3.0-0.60"
	},
	{
		"rt": 234,
		"stimulus": "encelhor",
		"response": "s",
		"class": "null",
		"status": "noncog",
		"answer": "pseudo",
		"correct": "N",
		"trial": "exp",
		"letters": "null",
		"trial_type": "html-keyboard-response",
		"trial_index": 137,
		"time_elapsed": 129411,
		"internal_node_id": "0.0-3.0-1.60"
	},
	{
		"rt": null,
		"stimulus": "+",
		"response": null,
		"trial_type": "html-keyboard-response",
		"trial_index": 138,
		"time_elapsed": 129913,
		"internal_node_id": "0.0-3.0-0.61"
	},
	{
		"rt": 170,
		"stimulus": "especial",
		"response": "s",
		"class": "a",
		"status": "cog",
		"answer": "word",
		"correct": "S",
		"trial": "exp",
		"letters": "8",
		"trial_type": "html-keyboard-response",
		"trial_index": 139,
		"time_elapsed": 130083,
		"internal_node_id": "0.0-3.0-1.61"
	},
	{
		"rt": null,
		"stimulus": "+",
		"response": null,
		"trial_type": "html-keyboard-response",
		"trial_index": 140,
		"time_elapsed": 130584,
		"internal_node_id": "0.0-3.0-0.62"
	},
	{
		"rt": 219,
		"stimulus": "drama",
		"response": "s",
		"class": "n",
		"status": "cog",
		"answer": "word",
		"correct": "S",
		"trial": "exp",
		"letters": "5",
		"trial_type": "html-keyboard-response",
		"trial_index": 141,
		"time_elapsed": 130804,
		"internal_node_id": "0.0-3.0-1.62"
	},
	{
		"rt": null,
		"stimulus": "+",
		"response": null,
		"trial_type": "html-keyboard-response",
		"trial_index": 142,
		"time_elapsed": 131305,
		"internal_node_id": "0.0-3.0-0.63"
	},
	{
		"rt": 154,
		"stimulus": "anjo",
		"response": "s",
		"class": "n",
		"status": "cog",
		"answer": "word",
		"correct": "S",
		"trial": "exp",
		"letters": "4",
		"trial_type": "html-keyboard-response",
		"trial_index": 143,
		"time_elapsed": 131459,
		"internal_node_id": "0.0-3.0-1.63"
	},
	{
		"rt": null,
		"stimulus": "+",
		"response": null,
		"trial_type": "html-keyboard-response",
		"trial_index": 144,
		"time_elapsed": 131960,
		"internal_node_id": "0.0-3.0-0.64"
	},
	{
		"rt": 155,
		"stimulus": "motre",
		"response": "s",
		"class": "null",
		"status": "noncog",
		"answer": "pseudo",
		"correct": "N",
		"trial": "exp",
		"letters": "null",
		"trial_type": "html-keyboard-response",
		"trial_index": 145,
		"time_elapsed": 132115,
		"internal_node_id": "0.0-3.0-1.64"
	},
	{
		"rt": null,
		"stimulus": "+",
		"response": null,
		"trial_type": "html-keyboard-response",
		"trial_index": 146,
		"time_elapsed": 132617,
		"internal_node_id": "0.0-3.0-0.65"
	},
	{
		"rt": 202,
		"stimulus": "esfoce",
		"response": "s",
		"class": "null",
		"status": "noncog",
		"answer": "pseudo",
		"correct": "N",
		"trial": "exp",
		"letters": "null",
		"trial_type": "html-keyboard-response",
		"trial_index": 147,
		"time_elapsed": 132819,
		"internal_node_id": "0.0-3.0-1.65"
	},
	{
		"rt": null,
		"stimulus": "+",
		"response": null,
		"trial_type": "html-keyboard-response",
		"trial_index": 148,
		"time_elapsed": 133320,
		"internal_node_id": "0.0-3.0-0.66"
	},
	{
		"rt": 155,
		"stimulus": "usnado",
		"response": "s",
		"class": "null",
		"status": "noncog",
		"answer": "pseudo",
		"correct": "N",
		"trial": "exp",
		"letters": "null",
		"trial_type": "html-keyboard-response",
		"trial_index": 149,
		"time_elapsed": 133476,
		"internal_node_id": "0.0-3.0-1.66"
	},
	{
		"rt": null,
		"stimulus": "+",
		"response": null,
		"trial_type": "html-keyboard-response",
		"trial_index": 150,
		"time_elapsed": 133977,
		"internal_node_id": "0.0-3.0-0.67"
	},
	{
		"rt": 154,
		"stimulus": "sanque",
		"response": "s",
		"class": "null",
		"status": "noncog",
		"answer": "pseudo",
		"correct": "N",
		"trial": "exp",
		"letters": "null",
		"trial_type": "html-keyboard-response",
		"trial_index": 151,
		"time_elapsed": 134131,
		"internal_node_id": "0.0-3.0-1.67"
	},
	{
		"rt": null,
		"stimulus": "+",
		"response": null,
		"trial_type": "html-keyboard-response",
		"trial_index": 152,
		"time_elapsed": 134633,
		"internal_node_id": "0.0-3.0-0.68"
	},
	{
		"rt": 138,
		"stimulus": "grótis",
		"response": "s",
		"class": "null",
		"status": "noncog",
		"answer": "pseudo",
		"correct": "N",
		"trial": "exp",
		"letters": "null",
		"trial_type": "html-keyboard-response",
		"trial_index": 153,
		"time_elapsed": 134771,
		"internal_node_id": "0.0-3.0-1.68"
	},
	{
		"rt": null,
		"stimulus": "+",
		"response": null,
		"trial_type": "html-keyboard-response",
		"trial_index": 154,
		"time_elapsed": 135273,
		"internal_node_id": "0.0-3.0-0.69"
	},
	{
		"rt": 186,
		"stimulus": "pantufa",
		"response": "s",
		"class": "n",
		"status": "cog",
		"answer": "word",
		"correct": "S",
		"trial": "exp",
		"letters": "7",
		"trial_type": "html-keyboard-response",
		"trial_index": 155,
		"time_elapsed": 135459,
		"internal_node_id": "0.0-3.0-1.69"
	},
	{
		"rt": null,
		"stimulus": "+",
		"response": null,
		"trial_type": "html-keyboard-response",
		"trial_index": 156,
		"time_elapsed": 135960,
		"internal_node_id": "0.0-3.0-0.70"
	},
	{
		"rt": 203,
		"stimulus": "aivões",
		"response": "s",
		"class": "null",
		"status": "noncog",
		"answer": "pseudo",
		"correct": "N",
		"trial": "exp",
		"letters": "null",
		"trial_type": "html-keyboard-response",
		"trial_index": 157,
		"time_elapsed": 136163,
		"internal_node_id": "0.0-3.0-1.70"
	},
	{
		"rt": null,
		"stimulus": "+",
		"response": null,
		"trial_type": "html-keyboard-response",
		"trial_index": 158,
		"time_elapsed": 136666,
		"internal_node_id": "0.0-3.0-0.71"
	},
	{
		"rt": 137,
		"stimulus": "cirado",
		"response": "s",
		"class": "null",
		"status": "noncog",
		"answer": "pseudo",
		"correct": "N",
		"trial": "exp",
		"letters": "null",
		"trial_type": "html-keyboard-response",
		"trial_index": 159,
		"time_elapsed": 136803,
		"internal_node_id": "0.0-3.0-1.71"
	},
	{
		"rt": null,
		"stimulus": "+",
		"response": null,
		"trial_type": "html-keyboard-response",
		"trial_index": 160,
		"time_elapsed": 137318,
		"internal_node_id": "0.0-3.0-0.72"
	},
	{
		"rt": 141,
		"stimulus": "verdade",
		"response": "s",
		"class": "n",
		"status": "cog",
		"answer": "word",
		"correct": "S",
		"trial": "exp",
		"letters": "7",
		"trial_type": "html-keyboard-response",
		"trial_index": 161,
		"time_elapsed": 137459,
		"internal_node_id": "0.0-3.0-1.72"
	},
	{
		"rt": null,
		"stimulus": "+",
		"response": null,
		"trial_type": "html-keyboard-response",
		"trial_index": 162,
		"time_elapsed": 137961,
		"internal_node_id": "0.0-3.0-0.73"
	},
	{
		"rt": 107,
		"stimulus": "gruja",
		"response": "s",
		"class": "null",
		"status": "noncog",
		"answer": "pseudo",
		"correct": "N",
		"trial": "exp",
		"letters": "null",
		"trial_type": "html-keyboard-response",
		"trial_index": 163,
		"time_elapsed": 138068,
		"internal_node_id": "0.0-3.0-1.73"
	},
	{
		"rt": null,
		"stimulus": "+",
		"response": null,
		"trial_type": "html-keyboard-response",
		"trial_index": 164,
		"time_elapsed": 138569,
		"internal_node_id": "0.0-3.0-0.74"
	},
	{
		"rt": 154,
		"stimulus": "reduzir",
		"response": "s",
		"class": "v",
		"status": "cog",
		"answer": "word",
		"correct": "S",
		"trial": "exp",
		"letters": "7",
		"trial_type": "html-keyboard-response",
		"trial_index": 165,
		"time_elapsed": 138723,
		"internal_node_id": "0.0-3.0-1.74"
	},
	{
		"rt": null,
		"stimulus": "+",
		"response": null,
		"trial_type": "html-keyboard-response",
		"trial_index": 166,
		"time_elapsed": 139224,
		"internal_node_id": "0.0-3.0-0.75"
	},
	{
		"rt": 107,
		"stimulus": "grave",
		"response": "s",
		"class": "a",
		"status": "cog",
		"answer": "word",
		"correct": "S",
		"trial": "exp",
		"letters": "5",
		"trial_type": "html-keyboard-response",
		"trial_index": 167,
		"time_elapsed": 139331,
		"internal_node_id": "0.0-3.0-1.75"
	},
	{
		"rt": null,
		"stimulus": "+",
		"response": null,
		"trial_type": "html-keyboard-response",
		"trial_index": 168,
		"time_elapsed": 139833,
		"internal_node_id": "0.0-3.0-0.76"
	},
	{
		"rt": 74,
		"stimulus": "fofo",
		"response": "s",
		"class": "a",
		"status": "noncog",
		"answer": "word",
		"correct": "S",
		"trial": "exp",
		"letters": "4",
		"trial_type": "html-keyboard-response",
		"trial_index": 169,
		"time_elapsed": 139907,
		"internal_node_id": "0.0-3.0-1.76"
	},
	{
		"rt": null,
		"stimulus": "+",
		"response": null,
		"trial_type": "html-keyboard-response",
		"trial_index": 170,
		"time_elapsed": 140408,
		"internal_node_id": "0.0-3.0-0.77"
	},
	{
		"rt": 59,
		"stimulus": "suipestar",
		"response": "s",
		"class": "null",
		"status": "noncog",
		"answer": "pseudo",
		"correct": "N",
		"trial": "exp",
		"letters": "null",
		"trial_type": "html-keyboard-response",
		"trial_index": 171,
		"time_elapsed": 140468,
		"internal_node_id": "0.0-3.0-1.77"
	},
	{
		"rt": null,
		"stimulus": "+",
		"response": null,
		"trial_type": "html-keyboard-response",
		"trial_index": 172,
		"time_elapsed": 140968,
		"internal_node_id": "0.0-3.0-0.78"
	},
	{
		"rt": 59,
		"stimulus": "costra",
		"response": "s",
		"class": "null",
		"status": "noncog",
		"answer": "pseudo",
		"correct": "N",
		"trial": "exp",
		"letters": "null",
		"trial_type": "html-keyboard-response",
		"trial_index": 173,
		"time_elapsed": 141028,
		"internal_node_id": "0.0-3.0-1.78"
	},
	{
		"rt": null,
		"stimulus": "+",
		"response": null,
		"trial_type": "html-keyboard-response",
		"trial_index": 174,
		"time_elapsed": 141529,
		"internal_node_id": "0.0-3.0-0.79"
	},
	{
		"rt": 506,
		"stimulus": "bibarconato",
		"response": "s",
		"class": "null",
		"status": "noncog",
		"answer": "pseudo",
		"correct": "N",
		"trial": "exp",
		"letters": "null",
		"trial_type": "html-keyboard-response",
		"trial_index": 175,
		"time_elapsed": 142035,
		"internal_node_id": "0.0-3.0-1.79"
	},
	{
		"rt": null,
		"stimulus": "+",
		"response": null,
		"trial_type": "html-keyboard-response",
		"trial_index": 176,
		"time_elapsed": 142537,
		"internal_node_id": "0.0-3.0-0.80"
	},
	{
		"rt": 58,
		"stimulus": "pangos",
		"response": "s",
		"class": "null",
		"status": "noncog",
		"answer": "pseudo",
		"correct": "N",
		"trial": "exp",
		"letters": "null",
		"trial_type": "html-keyboard-response",
		"trial_index": 177,
		"time_elapsed": 142595,
		"internal_node_id": "0.0-3.0-1.80"
	},
	{
		"rt": null,
		"stimulus": "+",
		"response": null,
		"trial_type": "html-keyboard-response",
		"trial_index": 178,
		"time_elapsed": 143097,
		"internal_node_id": "0.0-3.0-0.81"
	},
	{
		"rt": 42,
		"stimulus": "motros",
		"response": "s",
		"class": "null",
		"status": "noncog",
		"answer": "pseudo",
		"correct": "N",
		"trial": "exp",
		"letters": "null",
		"trial_type": "html-keyboard-response",
		"trial_index": 179,
		"time_elapsed": 143139,
		"internal_node_id": "0.0-3.0-1.81"
	},
	{
		"rt": null,
		"stimulus": "+",
		"response": null,
		"trial_type": "html-keyboard-response",
		"trial_index": 180,
		"time_elapsed": 143640,
		"internal_node_id": "0.0-3.0-0.82"
	},
	{
		"rt": 43,
		"stimulus": "azul",
		"response": "s",
		"class": "n",
		"status": "noncog",
		"answer": "word",
		"correct": "S",
		"trial": "exp",
		"letters": "4",
		"trial_type": "html-keyboard-response",
		"trial_index": 181,
		"time_elapsed": 143683,
		"internal_node_id": "0.0-3.0-1.82"
	},
	{
		"rt": null,
		"stimulus": "+",
		"response": null,
		"trial_type": "html-keyboard-response",
		"trial_index": 182,
		"time_elapsed": 144184,
		"internal_node_id": "0.0-3.0-0.83"
	},
	{
		"rt": 75,
		"stimulus": "telefone",
		"response": "s",
		"class": "n",
		"status": "cog",
		"answer": "word",
		"correct": "S",
		"trial": "exp",
		"letters": "8",
		"trial_type": "html-keyboard-response",
		"trial_index": 183,
		"time_elapsed": 144260,
		"internal_node_id": "0.0-3.0-1.83"
	},
	{
		"rt": null,
		"stimulus": "+",
		"response": null,
		"trial_type": "html-keyboard-response",
		"trial_index": 184,
		"time_elapsed": 144761,
		"internal_node_id": "0.0-3.0-0.84"
	},
	{
		"rt": 42,
		"stimulus": "tronca",
		"response": "s",
		"class": "null",
		"status": "noncog",
		"answer": "pseudo",
		"correct": "N",
		"trial": "exp",
		"letters": "null",
		"trial_type": "html-keyboard-response",
		"trial_index": 185,
		"time_elapsed": 144803,
		"internal_node_id": "0.0-3.0-1.84"
	},
	{
		"rt": null,
		"stimulus": "+",
		"response": null,
		"trial_type": "html-keyboard-response",
		"trial_index": 186,
		"time_elapsed": 145310,
		"internal_node_id": "0.0-3.0-0.85"
	},
	{
		"rt": 37,
		"stimulus": "morija",
		"response": "s",
		"class": "null",
		"status": "noncog",
		"answer": "pseudo",
		"correct": "N",
		"trial": "exp",
		"letters": "null",
		"trial_type": "html-keyboard-response",
		"trial_index": 187,
		"time_elapsed": 145348,
		"internal_node_id": "0.0-3.0-1.85"
	},
	{
		"rt": null,
		"stimulus": "+",
		"response": null,
		"trial_type": "html-keyboard-response",
		"trial_index": 188,
		"time_elapsed": 145849,
		"internal_node_id": "0.0-3.0-0.86"
	},
	{
		"rt": 90,
		"stimulus": "casuas",
		"response": "s",
		"class": "null",
		"status": "noncog",
		"answer": "pseudo",
		"correct": "N",
		"trial": "exp",
		"letters": "null",
		"trial_type": "html-keyboard-response",
		"trial_index": 189,
		"time_elapsed": 145939,
		"internal_node_id": "0.0-3.0-1.86"
	},
	{
		"rt": null,
		"stimulus": "+",
		"response": null,
		"trial_type": "html-keyboard-response",
		"trial_index": 190,
		"time_elapsed": 146451,
		"internal_node_id": "0.0-3.0-0.87"
	},
	{
		"rt": 64,
		"stimulus": "telafonir",
		"response": "s",
		"class": "null",
		"status": "noncog",
		"answer": "pseudo",
		"correct": "N",
		"trial": "exp",
		"letters": "null",
		"trial_type": "html-keyboard-response",
		"trial_index": 191,
		"time_elapsed": 146515,
		"internal_node_id": "0.0-3.0-1.87"
	},
	{
		"rt": null,
		"stimulus": "+",
		"response": null,
		"trial_type": "html-keyboard-response",
		"trial_index": 192,
		"time_elapsed": 147017,
		"internal_node_id": "0.0-3.0-0.88"
	},
	{
		"rt": 586,
		"stimulus": "burtos",
		"response": "s",
		"class": "null",
		"status": "noncog",
		"answer": "pseudo",
		"correct": "N",
		"trial": "exp",
		"letters": "null",
		"trial_type": "html-keyboard-response",
		"trial_index": 193,
		"time_elapsed": 147604,
		"internal_node_id": "0.0-3.0-1.88"
	},
	{
		"rt": null,
		"stimulus": "+",
		"response": null,
		"trial_type": "html-keyboard-response",
		"trial_index": 194,
		"time_elapsed": 148104,
		"internal_node_id": "0.0-3.0-0.89"
	},
	{
		"rt": 155,
		"stimulus": "jantar",
		"response": "s",
		"class": "v",
		"status": "noncog",
		"answer": "word",
		"correct": "S",
		"trial": "exp",
		"letters": "6",
		"trial_type": "html-keyboard-response",
		"trial_index": 195,
		"time_elapsed": 148260,
		"internal_node_id": "0.0-3.0-1.89"
	},
	{
		"rt": null,
		"stimulus": "+",
		"response": null,
		"trial_type": "html-keyboard-response",
		"trial_index": 196,
		"time_elapsed": 148761,
		"internal_node_id": "0.0-3.0-0.90"
	},
	{
		"rt": 234,
		"stimulus": "viver",
		"response": "s",
		"class": "v",
		"status": "cog",
		"answer": "word",
		"correct": "S",
		"trial": "exp",
		"letters": "5",
		"trial_type": "html-keyboard-response",
		"trial_index": 197,
		"time_elapsed": 148996,
		"internal_node_id": "0.0-3.0-1.90"
	},
	{
		"rt": null,
		"stimulus": "+",
		"response": null,
		"trial_type": "html-keyboard-response",
		"trial_index": 198,
		"time_elapsed": 149497,
		"internal_node_id": "0.0-3.0-0.91"
	},
	{
		"rt": 122,
		"stimulus": "hipócrita",
		"response": "s",
		"class": "a",
		"status": "noncog",
		"answer": "word",
		"correct": "S",
		"trial": "exp",
		"letters": "9",
		"trial_type": "html-keyboard-response",
		"trial_index": 199,
		"time_elapsed": 149620,
		"internal_node_id": "0.0-3.0-1.91"
	},
	{
		"rt": null,
		"stimulus": "+",
		"response": null,
		"trial_type": "html-keyboard-response",
		"trial_index": 200,
		"time_elapsed": 150121,
		"internal_node_id": "0.0-3.0-0.92"
	},
	{
		"rt": 170,
		"stimulus": "prenas",
		"response": "s",
		"class": "null",
		"status": "noncog",
		"answer": "pseudo",
		"correct": "N",
		"trial": "exp",
		"letters": "null",
		"trial_type": "html-keyboard-response",
		"trial_index": 201,
		"time_elapsed": 150292,
		"internal_node_id": "0.0-3.0-1.92"
	},
	{
		"rt": null,
		"stimulus": "+",
		"response": null,
		"trial_type": "html-keyboard-response",
		"trial_index": 202,
		"time_elapsed": 150793,
		"internal_node_id": "0.0-3.0-0.93"
	},
	{
		"rt": 90,
		"stimulus": "adoçar",
		"response": "s",
		"class": "v",
		"status": "noncog",
		"answer": "word",
		"correct": "S",
		"trial": "exp",
		"letters": "6",
		"trial_type": "html-keyboard-response",
		"trial_index": 203,
		"time_elapsed": 150884,
		"internal_node_id": "0.0-3.0-1.93"
	},
	{
		"rt": null,
		"stimulus": "+",
		"response": null,
		"trial_type": "html-keyboard-response",
		"trial_index": 204,
		"time_elapsed": 151385,
		"internal_node_id": "0.0-3.0-0.94"
	},
	{
		"rt": 105,
		"stimulus": "detative",
		"response": "s",
		"class": "null",
		"status": "noncog",
		"answer": "pseudo",
		"correct": "N",
		"trial": "exp",
		"letters": "null",
		"trial_type": "html-keyboard-response",
		"trial_index": 205,
		"time_elapsed": 151491,
		"internal_node_id": "0.0-3.0-1.94"
	},
	{
		"rt": null,
		"stimulus": "+",
		"response": null,
		"trial_type": "html-keyboard-response",
		"trial_index": 206,
		"time_elapsed": 151992,
		"internal_node_id": "0.0-3.0-0.95"
	},
	{
		"rt": 107,
		"stimulus": "aemaça",
		"response": "s",
		"class": "null",
		"status": "noncog",
		"answer": "pseudo",
		"correct": "N",
		"trial": "exp",
		"letters": "null",
		"trial_type": "html-keyboard-response",
		"trial_index": 207,
		"time_elapsed": 152100,
		"internal_node_id": "0.0-3.0-1.95"
	},
	{
		"rt": null,
		"stimulus": "+",
		"response": null,
		"trial_type": "html-keyboard-response",
		"trial_index": 208,
		"time_elapsed": 152601,
		"internal_node_id": "0.0-3.0-0.96"
	},
	{
		"rt": 42,
		"stimulus": "farcas",
		"response": "s",
		"class": "null",
		"status": "noncog",
		"answer": "pseudo",
		"correct": "N",
		"trial": "exp",
		"letters": "null",
		"trial_type": "html-keyboard-response",
		"trial_index": 209,
		"time_elapsed": 152643,
		"internal_node_id": "0.0-3.0-1.96"
	},
	{
		"rt": null,
		"stimulus": "+",
		"response": null,
		"trial_type": "html-keyboard-response",
		"trial_index": 210,
		"time_elapsed": 153144,
		"internal_node_id": "0.0-3.0-0.97"
	},
	{
		"rt": 123,
		"stimulus": "deselegante",
		"response": "s",
		"class": "a",
		"status": "noncog",
		"answer": "word",
		"correct": "S",
		"trial": "exp",
		"letters": "11",
		"trial_type": "html-keyboard-response",
		"trial_index": 211,
		"time_elapsed": 153268,
		"internal_node_id": "0.0-3.0-1.97"
	},
	{
		"rt": null,
		"stimulus": "+",
		"response": null,
		"trial_type": "html-keyboard-response",
		"trial_index": 212,
		"time_elapsed": 153769,
		"internal_node_id": "0.0-3.0-0.98"
	},
	{
		"rt": 90,
		"stimulus": "fasdas",
		"response": "s",
		"class": "null",
		"status": "noncog",
		"answer": "pseudo",
		"correct": "N",
		"trial": "exp",
		"letters": "null",
		"trial_type": "html-keyboard-response",
		"trial_index": 213,
		"time_elapsed": 153860,
		"internal_node_id": "0.0-3.0-1.98"
	},
	{
		"rt": null,
		"stimulus": "+",
		"response": null,
		"trial_type": "html-keyboard-response",
		"trial_index": 214,
		"time_elapsed": 154361,
		"internal_node_id": "0.0-3.0-0.99"
	},
	{
		"rt": 58,
		"stimulus": "avenas",
		"response": "s",
		"class": "null",
		"status": "noncog",
		"answer": "pseudo",
		"correct": "N",
		"trial": "exp",
		"letters": "null",
		"trial_type": "html-keyboard-response",
		"trial_index": 215,
		"time_elapsed": 154419,
		"internal_node_id": "0.0-3.0-1.99"
	},
	{
		"rt": null,
		"stimulus": "+",
		"response": null,
		"trial_type": "html-keyboard-response",
		"trial_index": 216,
		"time_elapsed": 154921,
		"internal_node_id": "0.0-3.0-0.100"
	},
	{
		"rt": 58,
		"stimulus": "delomir",
		"response": "s",
		"class": "null",
		"status": "noncog",
		"answer": "pseudo",
		"correct": "N",
		"trial": "exp",
		"letters": "null",
		"trial_type": "html-keyboard-response",
		"trial_index": 217,
		"time_elapsed": 154979,
		"internal_node_id": "0.0-3.0-1.100"
	},
	{
		"rt": null,
		"stimulus": "+",
		"response": null,
		"trial_type": "html-keyboard-response",
		"trial_index": 218,
		"time_elapsed": 155480,
		"internal_node_id": "0.0-3.0-0.101"
	},
	{
		"rt": 27,
		"stimulus": "trabalhar",
		"response": "s",
		"class": "v",
		"status": "noncog",
		"answer": "word",
		"correct": "S",
		"trial": "exp",
		"letters": "9",
		"trial_type": "html-keyboard-response",
		"trial_index": 219,
		"time_elapsed": 155507,
		"internal_node_id": "0.0-3.0-1.101"
	},
	{
		"rt": null,
		"stimulus": "+",
		"response": null,
		"trial_type": "html-keyboard-response",
		"trial_index": 220,
		"time_elapsed": 156009,
		"internal_node_id": "0.0-3.0-0.102"
	},
	{
		"rt": 58,
		"stimulus": "quenzina",
		"response": "s",
		"class": "null",
		"status": "noncog",
		"answer": "pseudo",
		"correct": "N",
		"trial": "exp",
		"letters": "null",
		"trial_type": "html-keyboard-response",
		"trial_index": 221,
		"time_elapsed": 156068,
		"internal_node_id": "0.0-3.0-1.102"
	},
	{
		"rt": null,
		"stimulus": "+",
		"response": null,
		"trial_type": "html-keyboard-response",
		"trial_index": 222,
		"time_elapsed": 156569,
		"internal_node_id": "0.0-3.0-0.103"
	},
	{
		"rt": 330,
		"stimulus": "areia",
		"response": "s",
		"class": "n",
		"status": "noncog",
		"answer": "word",
		"correct": "S",
		"trial": "exp",
		"letters": "5",
		"trial_type": "html-keyboard-response",
		"trial_index": 223,
		"time_elapsed": 156900,
		"internal_node_id": "0.0-3.0-1.103"
	},
	{
		"rt": null,
		"stimulus": "+",
		"response": null,
		"trial_type": "html-keyboard-response",
		"trial_index": 224,
		"time_elapsed": 157410,
		"internal_node_id": "0.0-3.0-0.104"
	},
	{
		"rt": 337,
		"stimulus": "dencosto",
		"response": "s",
		"class": "null",
		"status": "noncog",
		"answer": "pseudo",
		"correct": "N",
		"trial": "exp",
		"letters": "null",
		"trial_type": "html-keyboard-response",
		"trial_index": 225,
		"time_elapsed": 157748,
		"internal_node_id": "0.0-3.0-1.104"
	},
	{
		"rt": null,
		"stimulus": "+",
		"response": null,
		"trial_type": "html-keyboard-response",
		"trial_index": 226,
		"time_elapsed": 158249,
		"internal_node_id": "0.0-3.0-0.105"
	},
	{
		"rt": 283,
		"stimulus": "delirar",
		"response": "s",
		"class": "v",
		"status": "noncog",
		"answer": "word",
		"correct": "S",
		"trial": "exp",
		"letters": "7",
		"trial_type": "html-keyboard-response",
		"trial_index": 227,
		"time_elapsed": 158532,
		"internal_node_id": "0.0-3.0-1.105"
	},
	{
		"rt": null,
		"stimulus": "+",
		"response": null,
		"trial_type": "html-keyboard-response",
		"trial_index": 228,
		"time_elapsed": 159042,
		"internal_node_id": "0.0-3.0-0.106"
	},
	{
		"rt": 258,
		"stimulus": "árovre",
		"response": "s",
		"class": "null",
		"status": "noncog",
		"answer": "pseudo",
		"correct": "N",
		"trial": "exp",
		"letters": "null",
		"trial_type": "html-keyboard-response",
		"trial_index": 229,
		"time_elapsed": 159300,
		"internal_node_id": "0.0-3.0-1.106"
	},
	{
		"rt": null,
		"stimulus": "+",
		"response": null,
		"trial_type": "html-keyboard-response",
		"trial_index": 230,
		"time_elapsed": 159800,
		"internal_node_id": "0.0-3.0-0.107"
	},
	{
		"rt": 234,
		"stimulus": "resmungar",
		"response": "s",
		"class": "v",
		"status": "noncog",
		"answer": "word",
		"correct": "S",
		"trial": "exp",
		"letters": "9",
		"trial_type": "html-keyboard-response",
		"trial_index": 231,
		"time_elapsed": 160036,
		"internal_node_id": "0.0-3.0-1.107"
	},
	{
		"rt": null,
		"stimulus": "+",
		"response": null,
		"trial_type": "html-keyboard-response",
		"trial_index": 232,
		"time_elapsed": 160536,
		"internal_node_id": "0.0-3.0-0.108"
	},
	{
		"rt": 203,
		"stimulus": "livro",
		"response": "s",
		"class": "n",
		"status": "cog",
		"answer": "word",
		"correct": "S",
		"trial": "exp",
		"letters": "5",
		"trial_type": "html-keyboard-response",
		"trial_index": 233,
		"time_elapsed": 160739,
		"internal_node_id": "0.0-3.0-1.108"
	},
	{
		"rt": null,
		"stimulus": "+",
		"response": null,
		"trial_type": "html-keyboard-response",
		"trial_index": 234,
		"time_elapsed": 161248,
		"internal_node_id": "0.0-3.0-0.109"
	},
	{
		"rt": 275,
		"stimulus": "extravagante",
		"response": "s",
		"class": "a",
		"status": "cog",
		"answer": "word",
		"correct": "S",
		"trial": "exp",
		"letters": "12",
		"trial_type": "html-keyboard-response",
		"trial_index": 235,
		"time_elapsed": 161523,
		"internal_node_id": "0.0-3.0-1.109"
	},
	{
		"rt": null,
		"stimulus": "+",
		"response": null,
		"trial_type": "html-keyboard-response",
		"trial_index": 236,
		"time_elapsed": 162024,
		"internal_node_id": "0.0-3.0-0.110"
	},
	{
		"rt": 315,
		"stimulus": "senareta",
		"response": "s",
		"class": "null",
		"status": "noncog",
		"answer": "pseudo",
		"correct": "N",
		"trial": "exp",
		"letters": "null",
		"trial_type": "html-keyboard-response",
		"trial_index": 237,
		"time_elapsed": 162339,
		"internal_node_id": "0.0-3.0-1.110"
	},
	{
		"rt": null,
		"stimulus": "+",
		"response": null,
		"trial_type": "html-keyboard-response",
		"trial_index": 238,
		"time_elapsed": 162840,
		"internal_node_id": "0.0-3.0-0.111"
	},
	{
		"rt": 331,
		"stimulus": "frotes",
		"response": "s",
		"class": "null",
		"status": "noncog",
		"answer": "pseudo",
		"correct": "N",
		"trial": "exp",
		"letters": "null",
		"trial_type": "html-keyboard-response",
		"trial_index": 239,
		"time_elapsed": 163171,
		"internal_node_id": "0.0-3.0-1.111"
	},
	{
		"rt": null,
		"stimulus": "+",
		"response": null,
		"trial_type": "html-keyboard-response",
		"trial_index": 240,
		"time_elapsed": 163673,
		"internal_node_id": "0.0-3.0-0.112"
	},
	{
		"rt": 363,
		"stimulus": "berquesa",
		"response": "s",
		"class": "null",
		"status": "noncog",
		"answer": "pseudo",
		"correct": "N",
		"trial": "exp",
		"letters": "null",
		"trial_type": "html-keyboard-response",
		"trial_index": 241,
		"time_elapsed": 164036,
		"internal_node_id": "0.0-3.0-1.112"
	},
	{
		"rt": null,
		"stimulus": "+",
		"response": null,
		"trial_type": "html-keyboard-response",
		"trial_index": 242,
		"time_elapsed": 164536,
		"internal_node_id": "0.0-3.0-0.113"
	},
	{
		"rt": 395,
		"stimulus": "cinema",
		"response": "s",
		"class": "n",
		"status": "cog",
		"answer": "word",
		"correct": "S",
		"trial": "exp",
		"letters": "6",
		"trial_type": "html-keyboard-response",
		"trial_index": 243,
		"time_elapsed": 164931,
		"internal_node_id": "0.0-3.0-1.113"
	},
	{
		"rt": null,
		"stimulus": "+",
		"response": null,
		"trial_type": "html-keyboard-response",
		"trial_index": 244,
		"time_elapsed": 165433,
		"internal_node_id": "0.0-3.0-0.114"
	},
	{
		"rt": 362,
		"stimulus": "prever",
		"response": "s",
		"class": "v",
		"status": "cog",
		"answer": "word",
		"correct": "S",
		"trial": "exp",
		"letters": "6",
		"trial_type": "html-keyboard-response",
		"trial_index": 245,
		"time_elapsed": 165796,
		"internal_node_id": "0.0-3.0-1.114"
	},
	{
		"rt": null,
		"stimulus": "+",
		"response": null,
		"trial_type": "html-keyboard-response",
		"trial_index": 246,
		"time_elapsed": 166296,
		"internal_node_id": "0.0-3.0-0.115"
	},
	{
		"rt": 379,
		"stimulus": "socorro",
		"response": "s",
		"class": "n",
		"status": "noncog",
		"answer": "word",
		"correct": "S",
		"trial": "exp",
		"letters": "7",
		"trial_type": "html-keyboard-response",
		"trial_index": 247,
		"time_elapsed": 166676,
		"internal_node_id": "0.0-3.0-1.115"
	},
	{
		"rt": null,
		"stimulus": "+",
		"response": null,
		"trial_type": "html-keyboard-response",
		"trial_index": 248,
		"time_elapsed": 167176,
		"internal_node_id": "0.0-3.0-0.116"
	},
	{
		"rt": 363,
		"stimulus": "ilhure",
		"response": "s",
		"class": "null",
		"status": "noncog",
		"answer": "pseudo",
		"correct": "N",
		"trial": "exp",
		"letters": "null",
		"trial_type": "html-keyboard-response",
		"trial_index": 249,
		"time_elapsed": 167539,
		"internal_node_id": "0.0-3.0-1.116"
	},
	{
		"rt": null,
		"stimulus": "+",
		"response": null,
		"trial_type": "html-keyboard-response",
		"trial_index": 250,
		"time_elapsed": 168040,
		"internal_node_id": "0.0-3.0-0.117"
	},
	{
		"rt": 395,
		"stimulus": "nacional",
		"response": "s",
		"class": "a",
		"status": "cog",
		"answer": "word",
		"correct": "S",
		"trial": "exp",
		"letters": "8",
		"trial_type": "html-keyboard-response",
		"trial_index": 251,
		"time_elapsed": 168436,
		"internal_node_id": "0.0-3.0-1.117"
	},
	{
		"rt": null,
		"stimulus": "+",
		"response": null,
		"trial_type": "html-keyboard-response",
		"trial_index": 252,
		"time_elapsed": 168937,
		"internal_node_id": "0.0-3.0-0.118"
	},
	{
		"rt": 394,
		"stimulus": "cristal",
		"response": "s",
		"class": "n",
		"status": "cog",
		"answer": "word",
		"correct": "S",
		"trial": "exp",
		"letters": "7",
		"trial_type": "html-keyboard-response",
		"trial_index": 253,
		"time_elapsed": 169332,
		"internal_node_id": "0.0-3.0-1.118"
	},
	{
		"rt": null,
		"stimulus": "+",
		"response": null,
		"trial_type": "html-keyboard-response",
		"trial_index": 254,
		"time_elapsed": 169833,
		"internal_node_id": "0.0-3.0-0.119"
	},
	{
		"rt": 346,
		"stimulus": "espaço",
		"response": "s",
		"class": "n",
		"status": "cog",
		"answer": "word",
		"correct": "S",
		"trial": "exp",
		"letters": "6",
		"trial_type": "html-keyboard-response",
		"trial_index": 255,
		"time_elapsed": 170179,
		"internal_node_id": "0.0-3.0-1.119"
	},
	{
		"rt": null,
		"stimulus": "+",
		"response": null,
		"trial_type": "html-keyboard-response",
		"trial_index": 256,
		"time_elapsed": 170680,
		"internal_node_id": "0.0-3.0-0.120"
	},
	{
		"rt": 347,
		"stimulus": "imitar",
		"response": "s",
		"class": "v",
		"status": "cog",
		"answer": "word",
		"correct": "S",
		"trial": "exp",
		"letters": "6",
		"trial_type": "html-keyboard-response",
		"trial_index": 257,
		"time_elapsed": 171027,
		"internal_node_id": "0.0-3.0-1.120"
	},
	{
		"rt": null,
		"stimulus": "+",
		"response": null,
		"trial_type": "html-keyboard-response",
		"trial_index": 258,
		"time_elapsed": 171529,
		"internal_node_id": "0.0-3.0-0.121"
	},
	{
		"rt": 394,
		"stimulus": "atapdar",
		"response": "s",
		"class": "null",
		"status": "noncog",
		"answer": "pseudo",
		"correct": "N",
		"trial": "exp",
		"letters": "null",
		"trial_type": "html-keyboard-response",
		"trial_index": 259,
		"time_elapsed": 171923,
		"internal_node_id": "0.0-3.0-1.121"
	},
	{
		"rt": null,
		"stimulus": "+",
		"response": null,
		"trial_type": "html-keyboard-response",
		"trial_index": 260,
		"time_elapsed": 172426,
		"internal_node_id": "0.0-3.0-0.122"
	},
	{
		"rt": 393,
		"stimulus": "tela",
		"response": "s",
		"class": "n",
		"status": "noncog",
		"answer": "word",
		"correct": "S",
		"trial": "exp",
		"letters": "4",
		"trial_type": "html-keyboard-response",
		"trial_index": 261,
		"time_elapsed": 172820,
		"internal_node_id": "0.0-3.0-1.122"
	},
	{
		"rt": null,
		"stimulus": "+",
		"response": null,
		"trial_type": "html-keyboard-response",
		"trial_index": 262,
		"time_elapsed": 173329,
		"internal_node_id": "0.0-3.0-0.123"
	},
	{
		"rt": 338,
		"stimulus": "dia",
		"response": "s",
		"class": "n",
		"status": "noncog",
		"answer": "word",
		"correct": "S",
		"trial": "exp",
		"letters": "3",
		"trial_type": "html-keyboard-response",
		"trial_index": 263,
		"time_elapsed": 173668,
		"internal_node_id": "0.0-3.0-1.123"
	},
	{
		"rt": null,
		"stimulus": "+",
		"response": null,
		"trial_type": "html-keyboard-response",
		"trial_index": 264,
		"time_elapsed": 174169,
		"internal_node_id": "0.0-3.0-0.124"
	},
	{
		"rt": 410,
		"stimulus": "cápsula",
		"response": "s",
		"class": "n",
		"status": "noncog",
		"answer": "word",
		"correct": "S",
		"trial": "exp",
		"letters": "7",
		"trial_type": "html-keyboard-response",
		"trial_index": 265,
		"time_elapsed": 174580,
		"internal_node_id": "0.0-3.0-1.124"
	},
	{
		"rt": null,
		"stimulus": "+",
		"response": null,
		"trial_type": "html-keyboard-response",
		"trial_index": 266,
		"time_elapsed": 175080,
		"internal_node_id": "0.0-3.0-0.125"
	},
	{
		"rt": 330,
		"stimulus": "beima",
		"response": "s",
		"class": "null",
		"status": "noncog",
		"answer": "pseudo",
		"correct": "N",
		"trial": "exp",
		"letters": "null",
		"trial_type": "html-keyboard-response",
		"trial_index": 267,
		"time_elapsed": 175411,
		"internal_node_id": "0.0-3.0-1.125"
	},
	{
		"rt": null,
		"stimulus": "+",
		"response": null,
		"trial_type": "html-keyboard-response",
		"trial_index": 268,
		"time_elapsed": 175912,
		"internal_node_id": "0.0-3.0-0.126"
	},
	{
		"rt": 443,
		"stimulus": "perbas",
		"response": "s",
		"class": "null",
		"status": "noncog",
		"answer": "pseudo",
		"correct": "N",
		"trial": "exp",
		"letters": "null",
		"trial_type": "html-keyboard-response",
		"trial_index": 269,
		"time_elapsed": 176355,
		"internal_node_id": "0.0-3.0-1.126"
	},
	{
		"rt": null,
		"stimulus": "+",
		"response": null,
		"trial_type": "html-keyboard-response",
		"trial_index": 270,
		"time_elapsed": 176856,
		"internal_node_id": "0.0-3.0-0.127"
	},
	{
		"rt": 363,
		"stimulus": "tartos",
		"response": "s",
		"class": "null",
		"status": "noncog",
		"answer": "pseudo",
		"correct": "N",
		"trial": "exp",
		"letters": "null",
		"trial_type": "html-keyboard-response",
		"trial_index": 271,
		"time_elapsed": 177219,
		"internal_node_id": "0.0-3.0-1.127"
	},
	{
		"rt": null,
		"stimulus": "+",
		"response": null,
		"trial_type": "html-keyboard-response",
		"trial_index": 272,
		"time_elapsed": 177720,
		"internal_node_id": "0.0-3.0-0.128"
	},
	{
		"rt": 426,
		"stimulus": "carona",
		"response": "s",
		"class": "n",
		"status": "noncog",
		"answer": "word",
		"correct": "S",
		"trial": "exp",
		"letters": "6",
		"trial_type": "html-keyboard-response",
		"trial_index": 273,
		"time_elapsed": 178147,
		"internal_node_id": "0.0-3.0-1.128"
	},
	{
		"rt": null,
		"stimulus": "+",
		"response": null,
		"trial_type": "html-keyboard-response",
		"trial_index": 274,
		"time_elapsed": 178650,
		"internal_node_id": "0.0-3.0-0.129"
	},
	{
		"rt": 409,
		"stimulus": "cravo",
		"response": "s",
		"class": "n",
		"status": "noncog",
		"answer": "word",
		"correct": "S",
		"trial": "exp",
		"letters": "5",
		"trial_type": "html-keyboard-response",
		"trial_index": 275,
		"time_elapsed": 179059,
		"internal_node_id": "0.0-3.0-1.129"
	},
	{
		"rt": null,
		"stimulus": "+",
		"response": null,
		"trial_type": "html-keyboard-response",
		"trial_index": 276,
		"time_elapsed": 179561,
		"internal_node_id": "0.0-3.0-0.130"
	},
	{
		"rt": 330,
		"stimulus": "protas",
		"response": "s",
		"class": "null",
		"status": "noncog",
		"answer": "pseudo",
		"correct": "N",
		"trial": "exp",
		"letters": "null",
		"trial_type": "html-keyboard-response",
		"trial_index": 277,
		"time_elapsed": 179891,
		"internal_node_id": "0.0-3.0-1.130"
	},
	{
		"rt": null,
		"stimulus": "+",
		"response": null,
		"trial_type": "html-keyboard-response",
		"trial_index": 278,
		"time_elapsed": 180393,
		"internal_node_id": "0.0-3.0-0.131"
	},
	{
		"rt": 410,
		"stimulus": "carregar",
		"response": "s",
		"class": "v",
		"status": "noncog",
		"answer": "word",
		"correct": "S",
		"trial": "exp",
		"letters": "8",
		"trial_type": "html-keyboard-response",
		"trial_index": 279,
		"time_elapsed": 180803,
		"internal_node_id": "0.0-3.0-1.131"
	},
	{
		"rt": null,
		"stimulus": "+",
		"response": null,
		"trial_type": "html-keyboard-response",
		"trial_index": 280,
		"time_elapsed": 181305,
		"internal_node_id": "0.0-3.0-0.132"
	},
	{
		"rt": 312,
		"stimulus": "gertas",
		"response": "s",
		"class": "null",
		"status": "noncog",
		"answer": "pseudo",
		"correct": "N",
		"trial": "exp",
		"letters": "null",
		"trial_type": "html-keyboard-response",
		"trial_index": 281,
		"time_elapsed": 181651,
		"internal_node_id": "0.0-3.0-1.132"
	},
	{
		"rt": null,
		"stimulus": "+",
		"response": null,
		"trial_type": "html-keyboard-response",
		"trial_index": 282,
		"time_elapsed": 182153,
		"internal_node_id": "0.0-3.0-0.133"
	},
	{
		"rt": 410,
		"stimulus": "crolatário",
		"response": "s",
		"class": "null",
		"status": "noncog",
		"answer": "pseudo",
		"correct": "N",
		"trial": "exp",
		"letters": "null",
		"trial_type": "html-keyboard-response",
		"trial_index": 283,
		"time_elapsed": 182563,
		"internal_node_id": "0.0-3.0-1.133"
	},
	{
		"rt": null,
		"stimulus": "+",
		"response": null,
		"trial_type": "html-keyboard-response",
		"trial_index": 284,
		"time_elapsed": 183064,
		"internal_node_id": "0.0-3.0-0.134"
	},
	{
		"rt": 442,
		"stimulus": "dipata",
		"response": "s",
		"class": "null",
		"status": "noncog",
		"answer": "pseudo",
		"correct": "N",
		"trial": "exp",
		"letters": "null",
		"trial_type": "html-keyboard-response",
		"trial_index": 285,
		"time_elapsed": 183507,
		"internal_node_id": "0.0-3.0-1.134"
	},
	{
		"rt": null,
		"stimulus": "+",
		"response": null,
		"trial_type": "html-keyboard-response",
		"trial_index": 286,
		"time_elapsed": 184008,
		"internal_node_id": "0.0-3.0-0.135"
	},
	{
		"rt": 363,
		"stimulus": "pritas",
		"response": "s",
		"class": "null",
		"status": "noncog",
		"answer": "pseudo",
		"correct": "N",
		"trial": "exp",
		"letters": "null",
		"trial_type": "html-keyboard-response",
		"trial_index": 287,
		"time_elapsed": 184371,
		"internal_node_id": "0.0-3.0-1.135"
	},
	{
		"rt": null,
		"stimulus": "+",
		"response": null,
		"trial_type": "html-keyboard-response",
		"trial_index": 288,
		"time_elapsed": 184873,
		"internal_node_id": "0.0-3.0-0.136"
	},
	{
		"rt": 378,
		"stimulus": "aperor",
		"response": "s",
		"class": "null",
		"status": "noncog",
		"answer": "pseudo",
		"correct": "N",
		"trial": "exp",
		"letters": "null",
		"trial_type": "html-keyboard-response",
		"trial_index": 289,
		"time_elapsed": 185251,
		"internal_node_id": "0.0-3.0-1.136"
	},
	{
		"rt": null,
		"stimulus": "+",
		"response": null,
		"trial_type": "html-keyboard-response",
		"trial_index": 290,
		"time_elapsed": 185753,
		"internal_node_id": "0.0-3.0-0.137"
	},
	{
		"rt": 362,
		"stimulus": "fogão",
		"response": "s",
		"class": "n",
		"status": "noncog",
		"answer": "word",
		"correct": "S",
		"trial": "exp",
		"letters": "5",
		"trial_type": "html-keyboard-response",
		"trial_index": 291,
		"time_elapsed": 186115,
		"internal_node_id": "0.0-3.0-1.137"
	},
	{
		"rt": null,
		"stimulus": "+",
		"response": null,
		"trial_type": "html-keyboard-response",
		"trial_index": 292,
		"time_elapsed": 186616,
		"internal_node_id": "0.0-3.0-0.138"
	},
	{
		"rt": 426,
		"stimulus": "pitada",
		"response": "s",
		"class": "n",
		"status": "noncog",
		"answer": "word",
		"correct": "S",
		"trial": "exp",
		"letters": "6",
		"trial_type": "html-keyboard-response",
		"trial_index": 293,
		"time_elapsed": 187043,
		"internal_node_id": "0.0-3.0-1.138"
	},
	{
		"rt": null,
		"stimulus": "+",
		"response": null,
		"trial_type": "html-keyboard-response",
		"trial_index": 294,
		"time_elapsed": 187544,
		"internal_node_id": "0.0-3.0-0.139"
	},
	{
		"rt": 298,
		"stimulus": "planalto",
		"response": "s",
		"class": "n",
		"status": "cog",
		"answer": "word",
		"correct": "S",
		"trial": "exp",
		"letters": "8",
		"trial_type": "html-keyboard-response",
		"trial_index": 295,
		"time_elapsed": 187843,
		"internal_node_id": "0.0-3.0-1.139"
	},
	{
		"rt": null,
		"stimulus": "+",
		"response": null,
		"trial_type": "html-keyboard-response",
		"trial_index": 296,
		"time_elapsed": 188344,
		"internal_node_id": "0.0-3.0-0.140"
	},
	{
		"rt": 363,
		"stimulus": "esperar",
		"response": "s",
		"class": "v",
		"status": "cog",
		"answer": "word",
		"correct": "S",
		"trial": "exp",
		"letters": "7",
		"trial_type": "html-keyboard-response",
		"trial_index": 297,
		"time_elapsed": 188707,
		"internal_node_id": "0.0-3.0-1.140"
	},
	{
		"rt": null,
		"stimulus": "+",
		"response": null,
		"trial_type": "html-keyboard-response",
		"trial_index": 298,
		"time_elapsed": 189209,
		"internal_node_id": "0.0-3.0-0.141"
	},
	{
		"rt": 378,
		"stimulus": "ejerro",
		"response": "s",
		"class": "null",
		"status": "noncog",
		"answer": "pseudo",
		"correct": "N",
		"trial": "exp",
		"letters": "null",
		"trial_type": "html-keyboard-response",
		"trial_index": 299,
		"time_elapsed": 189588,
		"internal_node_id": "0.0-3.0-1.141"
	},
	{
		"rt": null,
		"stimulus": "+",
		"response": null,
		"trial_type": "html-keyboard-response",
		"trial_index": 300,
		"time_elapsed": 190089,
		"internal_node_id": "0.0-3.0-0.142"
	},
	{
		"rt": 378,
		"stimulus": "propaganda",
		"response": "s",
		"class": "n",
		"status": "cog",
		"answer": "word",
		"correct": "S",
		"trial": "exp",
		"letters": "10",
		"trial_type": "html-keyboard-response",
		"trial_index": 301,
		"time_elapsed": 190467,
		"internal_node_id": "0.0-3.0-1.142"
	},
	{
		"rt": null,
		"stimulus": "+",
		"response": null,
		"trial_type": "html-keyboard-response",
		"trial_index": 302,
		"time_elapsed": 190969,
		"internal_node_id": "0.0-3.0-0.143"
	},
	{
		"rt": 346,
		"stimulus": "pedaço",
		"response": "s",
		"class": "n",
		"status": "noncog",
		"answer": "word",
		"correct": "S",
		"trial": "exp",
		"letters": "6",
		"trial_type": "html-keyboard-response",
		"trial_index": 303,
		"time_elapsed": 191315,
		"internal_node_id": "0.0-3.0-1.143"
	},
	{
		"rt": null,
		"stimulus": "+",
		"response": null,
		"trial_type": "html-keyboard-response",
		"trial_index": 304,
		"time_elapsed": 191816,
		"internal_node_id": "0.0-3.0-0.144"
	},
	{
		"rt": 299,
		"stimulus": "comércio",
		"response": "s",
		"class": "n",
		"status": "noncog",
		"answer": "word",
		"correct": "S",
		"trial": "exp",
		"letters": "8",
		"trial_type": "html-keyboard-response",
		"trial_index": 305,
		"time_elapsed": 192115,
		"internal_node_id": "0.0-3.0-1.144"
	},
	{
		"rt": null,
		"stimulus": "+",
		"response": null,
		"trial_type": "html-keyboard-response",
		"trial_index": 306,
		"time_elapsed": 192616,
		"internal_node_id": "0.0-3.0-0.145"
	},
	{
		"rt": 298,
		"stimulus": "medalha",
		"response": "s",
		"class": "n",
		"status": "cog",
		"answer": "word",
		"correct": "S",
		"trial": "exp",
		"letters": "7",
		"trial_type": "html-keyboard-response",
		"trial_index": 307,
		"time_elapsed": 192915,
		"internal_node_id": "0.0-3.0-1.145"
	},
	{
		"rt": null,
		"stimulus": "+",
		"response": null,
		"trial_type": "html-keyboard-response",
		"trial_index": 308,
		"time_elapsed": 193416,
		"internal_node_id": "0.0-3.0-0.146"
	},
	{
		"rt": 378,
		"stimulus": "podilo",
		"response": "s",
		"class": "null",
		"status": "noncog",
		"answer": "pseudo",
		"correct": "N",
		"trial": "exp",
		"letters": "null",
		"trial_type": "html-keyboard-response",
		"trial_index": 309,
		"time_elapsed": 193795,
		"internal_node_id": "0.0-3.0-1.146"
	},
	{
		"rt": null,
		"stimulus": "+",
		"response": null,
		"trial_type": "html-keyboard-response",
		"trial_index": 310,
		"time_elapsed": 194296,
		"internal_node_id": "0.0-3.0-0.147"
	},
	{
		"rt": 346,
		"stimulus": "faínas",
		"response": "s",
		"class": "null",
		"status": "noncog",
		"answer": "pseudo",
		"correct": "N",
		"trial": "exp",
		"letters": "null",
		"trial_type": "html-keyboard-response",
		"trial_index": 311,
		"time_elapsed": 194643,
		"internal_node_id": "0.0-3.0-1.147"
	},
	{
		"rt": null,
		"stimulus": "+",
		"response": null,
		"trial_type": "html-keyboard-response",
		"trial_index": 312,
		"time_elapsed": 195144,
		"internal_node_id": "0.0-3.0-0.148"
	},
	{
		"rt": 347,
		"stimulus": "refletir",
		"response": "s",
		"class": "v",
		"status": "cog",
		"answer": "word",
		"correct": "S",
		"trial": "exp",
		"letters": "8",
		"trial_type": "html-keyboard-response",
		"trial_index": 313,
		"time_elapsed": 195492,
		"internal_node_id": "0.0-3.0-1.148"
	},
	{
		"rt": null,
		"stimulus": "+",
		"response": null,
		"trial_type": "html-keyboard-response",
		"trial_index": 314,
		"time_elapsed": 195993,
		"internal_node_id": "0.0-3.0-0.149"
	},
	{
		"rt": 346,
		"stimulus": "trair",
		"response": "s",
		"class": "v",
		"status": "cog",
		"answer": "word",
		"correct": "S",
		"trial": "exp",
		"letters": "5",
		"trial_type": "html-keyboard-response",
		"trial_index": 315,
		"time_elapsed": 196339,
		"internal_node_id": "0.0-3.0-1.149"
	},
	{
		"rt": null,
		"stimulus": "+",
		"response": null,
		"trial_type": "html-keyboard-response",
		"trial_index": 316,
		"time_elapsed": 196841,
		"internal_node_id": "0.0-3.0-0.150"
	},
	{
		"rt": 330,
		"stimulus": "bancada",
		"response": "s",
		"class": "n",
		"status": "noncog",
		"answer": "word",
		"correct": "S",
		"trial": "exp",
		"letters": "7",
		"trial_type": "html-keyboard-response",
		"trial_index": 317,
		"time_elapsed": 197171,
		"internal_node_id": "0.0-3.0-1.150"
	},
	{
		"rt": null,
		"stimulus": "+",
		"response": null,
		"trial_type": "html-keyboard-response",
		"trial_index": 318,
		"time_elapsed": 197673,
		"internal_node_id": "0.0-3.0-0.151"
	},
	{
		"rt": 394,
		"stimulus": "garastia",
		"response": "s",
		"class": "null",
		"status": "noncog",
		"answer": "pseudo",
		"correct": "N",
		"trial": "exp",
		"letters": "null",
		"trial_type": "html-keyboard-response",
		"trial_index": 319,
		"time_elapsed": 198067,
		"internal_node_id": "0.0-3.0-1.151"
	},
	{
		"rt": null,
		"stimulus": "+",
		"response": null,
		"trial_type": "html-keyboard-response",
		"trial_index": 320,
		"time_elapsed": 198568,
		"internal_node_id": "0.0-3.0-0.152"
	},
	{
		"rt": 442,
		"stimulus": "revear",
		"response": "s",
		"class": "null",
		"status": "noncog",
		"answer": "pseudo",
		"correct": "N",
		"trial": "exp",
		"letters": "null",
		"trial_type": "html-keyboard-response",
		"trial_index": 321,
		"time_elapsed": 199011,
		"internal_node_id": "0.0-3.0-1.152"
	},
	{
		"rt": null,
		"stimulus": "+",
		"response": null,
		"trial_type": "html-keyboard-response",
		"trial_index": 322,
		"time_elapsed": 199512,
		"internal_node_id": "0.0-3.0-0.153"
	},
	{
		"rt": 331,
		"stimulus": "orupas",
		"response": "s",
		"class": "null",
		"status": "noncog",
		"answer": "pseudo",
		"correct": "N",
		"trial": "exp",
		"letters": "null",
		"trial_type": "html-keyboard-response",
		"trial_index": 323,
		"time_elapsed": 199843,
		"internal_node_id": "0.0-3.0-1.153"
	},
	{
		"rt": null,
		"stimulus": "+",
		"response": null,
		"trial_type": "html-keyboard-response",
		"trial_index": 324,
		"time_elapsed": 200344,
		"internal_node_id": "0.0-3.0-0.154"
	},
	{
		"rt": 347,
		"stimulus": "atrasar",
		"response": "s",
		"class": "v",
		"status": "noncog",
		"answer": "word",
		"correct": "S",
		"trial": "exp",
		"letters": "7",
		"trial_type": "html-keyboard-response",
		"trial_index": 325,
		"time_elapsed": 200691,
		"internal_node_id": "0.0-3.0-1.154"
	},
	{
		"rt": null,
		"stimulus": "+",
		"response": null,
		"trial_type": "html-keyboard-response",
		"trial_index": 326,
		"time_elapsed": 201192,
		"internal_node_id": "0.0-3.0-0.155"
	},
	{
		"rt": 410,
		"stimulus": "abieso",
		"response": "s",
		"class": "null",
		"status": "noncog",
		"answer": "pseudo",
		"correct": "N",
		"trial": "exp",
		"letters": "null",
		"trial_type": "html-keyboard-response",
		"trial_index": 327,
		"time_elapsed": 201603,
		"internal_node_id": "0.0-3.0-1.155"
	},
	{
		"rt": null,
		"stimulus": "+",
		"response": null,
		"trial_type": "html-keyboard-response",
		"trial_index": 328,
		"time_elapsed": 202105,
		"internal_node_id": "0.0-3.0-0.156"
	},
	{
		"rt": 378,
		"stimulus": "prantal",
		"response": "s",
		"class": "null",
		"status": "noncog",
		"answer": "pseudo",
		"correct": "N",
		"trial": "exp",
		"letters": "null",
		"trial_type": "html-keyboard-response",
		"trial_index": 329,
		"time_elapsed": 202483,
		"internal_node_id": "0.0-3.0-1.156"
	},
	{
		"rt": null,
		"stimulus": "+",
		"response": null,
		"trial_type": "html-keyboard-response",
		"trial_index": 330,
		"time_elapsed": 202984,
		"internal_node_id": "0.0-3.0-0.157"
	},
	{
		"rt": 331,
		"stimulus": "memória",
		"response": "s",
		"class": "n",
		"status": "cog",
		"answer": "word",
		"correct": "S",
		"trial": "exp",
		"letters": "7",
		"trial_type": "html-keyboard-response",
		"trial_index": 331,
		"time_elapsed": 203315,
		"internal_node_id": "0.0-3.0-1.157"
	},
	{
		"rt": null,
		"stimulus": "+",
		"response": null,
		"trial_type": "html-keyboard-response",
		"trial_index": 332,
		"time_elapsed": 203816,
		"internal_node_id": "0.0-3.0-0.158"
	},
	{
		"rt": 394,
		"stimulus": "braras",
		"response": "s",
		"class": "null",
		"status": "noncog",
		"answer": "pseudo",
		"correct": "N",
		"trial": "exp",
		"letters": "null",
		"trial_type": "html-keyboard-response",
		"trial_index": 333,
		"time_elapsed": 204211,
		"internal_node_id": "0.0-3.0-1.158"
	},
	{
		"rt": null,
		"stimulus": "+",
		"response": null,
		"trial_type": "html-keyboard-response",
		"trial_index": 334,
		"time_elapsed": 204719,
		"internal_node_id": "0.0-3.0-0.159"
	},
	{
		"rt": 372,
		"stimulus": "mabras",
		"response": "s",
		"class": "null",
		"status": "noncog",
		"answer": "pseudo",
		"correct": "N",
		"trial": "exp",
		"letters": "null",
		"trial_type": "html-keyboard-response",
		"trial_index": 335,
		"time_elapsed": 205091,
		"internal_node_id": "0.0-3.0-1.159"
	},
	{
		"rt": null,
		"stimulus": "+",
		"response": null,
		"trial_type": "html-keyboard-response",
		"trial_index": 336,
		"time_elapsed": 205593,
		"internal_node_id": "0.0-3.0-0.160"
	},
	{
		"rt": 362,
		"stimulus": "nevela",
		"response": "s",
		"class": "null",
		"status": "noncog",
		"answer": "pseudo",
		"correct": "N",
		"trial": "exp",
		"letters": "null",
		"trial_type": "html-keyboard-response",
		"trial_index": 337,
		"time_elapsed": 205955,
		"internal_node_id": "0.0-3.0-1.160"
	},
	{
		"rt": null,
		"stimulus": "+",
		"response": null,
		"trial_type": "html-keyboard-response",
		"trial_index": 338,
		"time_elapsed": 206457,
		"internal_node_id": "0.0-3.0-0.161"
	},
	{
		"rt": 378,
		"stimulus": "gordo",
		"response": "s",
		"class": "a",
		"status": "noncog",
		"answer": "word",
		"correct": "S",
		"trial": "exp",
		"letters": "5",
		"trial_type": "html-keyboard-response",
		"trial_index": 339,
		"time_elapsed": 206835,
		"internal_node_id": "0.0-3.0-1.161"
	},
	{
		"rt": null,
		"stimulus": "+",
		"response": null,
		"trial_type": "html-keyboard-response",
		"trial_index": 340,
		"time_elapsed": 207336,
		"internal_node_id": "0.0-3.0-0.162"
	},
	{
		"rt": 426,
		"stimulus": "raspar",
		"response": "s",
		"class": "v",
		"status": "noncog",
		"answer": "word",
		"correct": "S",
		"trial": "exp",
		"letters": "6",
		"trial_type": "html-keyboard-response",
		"trial_index": 341,
		"time_elapsed": 207763,
		"internal_node_id": "0.0-3.0-1.162"
	},
	{
		"rt": null,
		"stimulus": "+",
		"response": null,
		"trial_type": "html-keyboard-response",
		"trial_index": 342,
		"time_elapsed": 208264,
		"internal_node_id": "0.0-3.0-0.163"
	},
	{
		"rt": 395,
		"stimulus": "usfiga",
		"response": "s",
		"class": "null",
		"status": "noncog",
		"answer": "pseudo",
		"correct": "N",
		"trial": "exp",
		"letters": "null",
		"trial_type": "html-keyboard-response",
		"trial_index": 343,
		"time_elapsed": 208659,
		"internal_node_id": "0.0-3.0-1.163"
	},
	{
		"rt": null,
		"stimulus": "+",
		"response": null,
		"trial_type": "html-keyboard-response",
		"trial_index": 344,
		"time_elapsed": 209170,
		"internal_node_id": "0.0-3.0-0.164"
	},
	{
		"rt": 384,
		"stimulus": "verde",
		"response": "s",
		"class": "a",
		"status": "noncog",
		"answer": "word",
		"correct": "S",
		"trial": "exp",
		"letters": "5",
		"trial_type": "html-keyboard-response",
		"trial_index": 345,
		"time_elapsed": 209555,
		"internal_node_id": "0.0-3.0-1.164"
	},
	{
		"rt": null,
		"stimulus": "+",
		"response": null,
		"trial_type": "html-keyboard-response",
		"trial_index": 346,
		"time_elapsed": 210056,
		"internal_node_id": "0.0-3.0-0.165"
	},
	{
		"rt": 395,
		"stimulus": "independente",
		"response": "s",
		"class": "a",
		"status": "noncog",
		"answer": "word",
		"correct": "S",
		"trial": "exp",
		"letters": "12",
		"trial_type": "html-keyboard-response",
		"trial_index": 347,
		"time_elapsed": 210451,
		"internal_node_id": "0.0-3.0-1.165"
	},
	{
		"rt": null,
		"stimulus": "+",
		"response": null,
		"trial_type": "html-keyboard-response",
		"trial_index": 348,
		"time_elapsed": 210954,
		"internal_node_id": "0.0-3.0-0.166"
	},
	{
		"rt": 394,
		"stimulus": "risbos",
		"response": "s",
		"class": "null",
		"status": "noncog",
		"answer": "pseudo",
		"correct": "N",
		"trial": "exp",
		"letters": "null",
		"trial_type": "html-keyboard-response",
		"trial_index": 349,
		"time_elapsed": 211348,
		"internal_node_id": "0.0-3.0-1.166"
	},
	{
		"rt": null,
		"stimulus": "+",
		"response": null,
		"trial_type": "html-keyboard-response",
		"trial_index": 350,
		"time_elapsed": 211849,
		"internal_node_id": "0.0-3.0-0.167"
	},
	{
		"rt": 346,
		"stimulus": "nivelado",
		"response": "s",
		"class": "a",
		"status": "cog",
		"answer": "word",
		"correct": "S",
		"trial": "exp",
		"letters": "8",
		"trial_type": "html-keyboard-response",
		"trial_index": 351,
		"time_elapsed": 212195,
		"internal_node_id": "0.0-3.0-1.167"
	},
	{
		"rt": null,
		"stimulus": "+",
		"response": null,
		"trial_type": "html-keyboard-response",
		"trial_index": 352,
		"time_elapsed": 212696,
		"internal_node_id": "0.0-3.0-0.168"
	},
	{
		"rt": 459,
		"stimulus": "fratos",
		"response": "s",
		"class": "null",
		"status": "noncog",
		"answer": "pseudo",
		"correct": "N",
		"trial": "exp",
		"letters": "null",
		"trial_type": "html-keyboard-response",
		"trial_index": 353,
		"time_elapsed": 213155,
		"internal_node_id": "0.0-3.0-1.168"
	},
	{
		"rt": null,
		"stimulus": "+",
		"response": null,
		"trial_type": "html-keyboard-response",
		"trial_index": 354,
		"time_elapsed": 213656,
		"internal_node_id": "0.0-3.0-0.169"
	},
	{
		"rt": 475,
		"stimulus": "afonher",
		"response": "s",
		"class": "null",
		"status": "noncog",
		"answer": "pseudo",
		"correct": "N",
		"trial": "exp",
		"letters": "null",
		"trial_type": "html-keyboard-response",
		"trial_index": 355,
		"time_elapsed": 214131,
		"internal_node_id": "0.0-3.0-1.169"
	},
	{
		"rt": null,
		"stimulus": "+",
		"response": null,
		"trial_type": "html-keyboard-response",
		"trial_index": 356,
		"time_elapsed": 214632,
		"internal_node_id": "0.0-3.0-0.170"
	},
	{
		"rt": 426,
		"stimulus": "barco",
		"response": "s",
		"class": "n",
		"status": "cog",
		"answer": "word",
		"correct": "S",
		"trial": "exp",
		"letters": "5",
		"trial_type": "html-keyboard-response",
		"trial_index": 357,
		"time_elapsed": 215059,
		"internal_node_id": "0.0-3.0-1.170"
	},
	{
		"rt": null,
		"stimulus": "+",
		"response": null,
		"trial_type": "html-keyboard-response",
		"trial_index": 358,
		"time_elapsed": 215561,
		"internal_node_id": "0.0-3.0-0.171"
	},
	{
		"rt": 394,
		"stimulus": "lorfaz",
		"response": "s",
		"class": "null",
		"status": "noncog",
		"answer": "pseudo",
		"correct": "N",
		"trial": "exp",
		"letters": "null",
		"trial_type": "html-keyboard-response",
		"trial_index": 359,
		"time_elapsed": 215955,
		"internal_node_id": "0.0-3.0-1.171"
	},
	{
		"rt": null,
		"stimulus": "+",
		"response": null,
		"trial_type": "html-keyboard-response",
		"trial_index": 360,
		"time_elapsed": 216456,
		"internal_node_id": "0.0-3.0-0.172"
	},
	{
		"rt": 411,
		"stimulus": "liberal",
		"response": "s",
		"class": "a",
		"status": "cog",
		"answer": "word",
		"correct": "S",
		"trial": "exp",
		"letters": "7",
		"trial_type": "html-keyboard-response",
		"trial_index": 361,
		"time_elapsed": 216868,
		"internal_node_id": "0.0-3.0-1.172"
	},
	{
		"rt": null,
		"stimulus": "+",
		"response": null,
		"trial_type": "html-keyboard-response",
		"trial_index": 362,
		"time_elapsed": 217377,
		"internal_node_id": "0.0-3.0-0.173"
	},
	{
		"rt": 385,
		"stimulus": "animado",
		"response": "s",
		"class": "a",
		"status": "noncog",
		"answer": "word",
		"correct": "S",
		"trial": "exp",
		"letters": "7",
		"trial_type": "html-keyboard-response",
		"trial_index": 363,
		"time_elapsed": 217763,
		"internal_node_id": "0.0-3.0-1.173"
	},
	{
		"rt": null,
		"stimulus": "+",
		"response": null,
		"trial_type": "html-keyboard-response",
		"trial_index": 364,
		"time_elapsed": 218264,
		"internal_node_id": "0.0-3.0-0.174"
	},
	{
		"rt": 475,
		"stimulus": "verceja",
		"response": "s",
		"class": "null",
		"status": "noncog",
		"answer": "pseudo",
		"correct": "N",
		"trial": "exp",
		"letters": "null",
		"trial_type": "html-keyboard-response",
		"trial_index": 365,
		"time_elapsed": 218739,
		"internal_node_id": "0.0-3.0-1.174"
	},
	{
		"rt": null,
		"stimulus": "+",
		"response": null,
		"trial_type": "html-keyboard-response",
		"trial_index": 366,
		"time_elapsed": 219240,
		"internal_node_id": "0.0-3.0-0.175"
	},
	{
		"rt": 411,
		"stimulus": "parceter",
		"response": "s",
		"class": "null",
		"status": "noncog",
		"answer": "pseudo",
		"correct": "N",
		"trial": "exp",
		"letters": "null",
		"trial_type": "html-keyboard-response",
		"trial_index": 367,
		"time_elapsed": 219651,
		"internal_node_id": "0.0-3.0-1.175"
	},
	{
		"rt": null,
		"stimulus": "+",
		"response": null,
		"trial_type": "html-keyboard-response",
		"trial_index": 368,
		"time_elapsed": 220152,
		"internal_node_id": "0.0-3.0-0.176"
	},
	{
		"rt": 314,
		"stimulus": "liso",
		"response": "s",
		"class": "n",
		"status": "noncog",
		"answer": "word",
		"correct": "S",
		"trial": "exp",
		"letters": "4",
		"trial_type": "html-keyboard-response",
		"trial_index": 369,
		"time_elapsed": 220467,
		"internal_node_id": "0.0-3.0-1.176"
	},
	{
		"rt": null,
		"stimulus": "+",
		"response": null,
		"trial_type": "html-keyboard-response",
		"trial_index": 370,
		"time_elapsed": 220968,
		"internal_node_id": "0.0-3.0-0.177"
	},
	{
		"rt": 267,
		"stimulus": "país",
		"response": "s",
		"class": "n",
		"status": "noncog",
		"answer": "word",
		"correct": "S",
		"trial": "exp",
		"letters": "4",
		"trial_type": "html-keyboard-response",
		"trial_index": 371,
		"time_elapsed": 221235,
		"internal_node_id": "0.0-3.0-1.177"
	},
	{
		"rt": null,
		"stimulus": "+",
		"response": null,
		"trial_type": "html-keyboard-response",
		"trial_index": 372,
		"time_elapsed": 221736,
		"internal_node_id": "0.0-3.0-0.178"
	},
	{
		"rt": 299,
		"stimulus": "espionar",
		"response": "s",
		"class": "v",
		"status": "cog",
		"answer": "word",
		"correct": "S",
		"trial": "exp",
		"letters": "8",
		"trial_type": "html-keyboard-response",
		"trial_index": 373,
		"time_elapsed": 222035,
		"internal_node_id": "0.0-3.0-1.178"
	},
	{
		"rt": null,
		"stimulus": "+",
		"response": null,
		"trial_type": "html-keyboard-response",
		"trial_index": 374,
		"time_elapsed": 222537,
		"internal_node_id": "0.0-3.0-0.179"
	},
	{
		"rt": 330,
		"stimulus": "chorão",
		"response": "s",
		"class": "a",
		"status": "noncog",
		"answer": "word",
		"correct": "S",
		"trial": "exp",
		"letters": "6",
		"trial_type": "html-keyboard-response",
		"trial_index": 375,
		"time_elapsed": 222867,
		"internal_node_id": "0.0-3.0-1.179"
	},
	{
		"rt": null,
		"stimulus": "+",
		"response": null,
		"trial_type": "html-keyboard-response",
		"trial_index": 376,
		"time_elapsed": 223369,
		"internal_node_id": "0.0-3.0-0.180"
	},
	{
		"rt": 314,
		"stimulus": "sábio",
		"response": "s",
		"class": "n",
		"status": "noncog",
		"answer": "word",
		"correct": "S",
		"trial": "exp",
		"letters": "5",
		"trial_type": "html-keyboard-response",
		"trial_index": 377,
		"time_elapsed": 223683,
		"internal_node_id": "0.0-3.0-1.180"
	},
	{
		"rt": null,
		"stimulus": "+",
		"response": null,
		"trial_type": "html-keyboard-response",
		"trial_index": 378,
		"time_elapsed": 224184,
		"internal_node_id": "0.0-3.0-0.181"
	},
	{
		"rt": 331,
		"stimulus": "ênclio",
		"response": "s",
		"class": "null",
		"status": "noncog",
		"answer": "pseudo",
		"correct": "N",
		"trial": "exp",
		"letters": "null",
		"trial_type": "html-keyboard-response",
		"trial_index": 379,
		"time_elapsed": 224515,
		"internal_node_id": "0.0-3.0-1.181"
	},
	{
		"rt": null,
		"stimulus": "+",
		"response": null,
		"trial_type": "html-keyboard-response",
		"trial_index": 380,
		"time_elapsed": 225016,
		"internal_node_id": "0.0-3.0-0.182"
	},
	{
		"rt": 363,
		"stimulus": "açúcar",
		"response": "s",
		"class": "n",
		"status": "noncog",
		"answer": "word",
		"correct": "S",
		"trial": "exp",
		"letters": "6",
		"trial_type": "html-keyboard-response",
		"trial_index": 381,
		"time_elapsed": 225379,
		"internal_node_id": "0.0-3.0-1.182"
	},
	{
		"rt": null,
		"stimulus": "+",
		"response": null,
		"trial_type": "html-keyboard-response",
		"trial_index": 382,
		"time_elapsed": 225881,
		"internal_node_id": "0.0-3.0-0.183"
	},
	{
		"rt": 426,
		"stimulus": "gilha",
		"response": "s",
		"class": "null",
		"status": "noncog",
		"answer": "pseudo",
		"correct": "N",
		"trial": "exp",
		"letters": "null",
		"trial_type": "html-keyboard-response",
		"trial_index": 383,
		"time_elapsed": 226307,
		"internal_node_id": "0.0-3.0-1.183"
	},
	{
		"rt": null,
		"stimulus": "+",
		"response": null,
		"trial_type": "html-keyboard-response",
		"trial_index": 384,
		"time_elapsed": 226809,
		"internal_node_id": "0.0-3.0-0.184"
	},
	{
		"rt": 394,
		"stimulus": "irratinte",
		"response": "s",
		"class": "null",
		"status": "noncog",
		"answer": "pseudo",
		"correct": "N",
		"trial": "exp",
		"letters": "null",
		"trial_type": "html-keyboard-response",
		"trial_index": 385,
		"time_elapsed": 227204,
		"internal_node_id": "0.0-3.0-1.184"
	},
	{
		"rt": null,
		"stimulus": "+",
		"response": null,
		"trial_type": "html-keyboard-response",
		"trial_index": 386,
		"time_elapsed": 227704,
		"internal_node_id": "0.0-3.0-0.185"
	},
	{
		"rt": 394,
		"stimulus": "aletiê",
		"response": "s",
		"class": "null",
		"status": "noncog",
		"answer": "pseudo",
		"correct": "N",
		"trial": "exp",
		"letters": "null",
		"trial_type": "html-keyboard-response",
		"trial_index": 387,
		"time_elapsed": 228099,
		"internal_node_id": "0.0-3.0-1.185"
	},
	{
		"rt": null,
		"stimulus": "+",
		"response": null,
		"trial_type": "html-keyboard-response",
		"trial_index": 388,
		"time_elapsed": 228600,
		"internal_node_id": "0.0-3.0-0.186"
	},
	{
		"rt": 379,
		"stimulus": "ideisa",
		"response": "s",
		"class": "null",
		"status": "noncog",
		"answer": "pseudo",
		"correct": "N",
		"trial": "exp",
		"letters": "null",
		"trial_type": "html-keyboard-response",
		"trial_index": 389,
		"time_elapsed": 228979,
		"internal_node_id": "0.0-3.0-1.186"
	},
	{
		"rt": null,
		"stimulus": "+",
		"response": null,
		"trial_type": "html-keyboard-response",
		"trial_index": 390,
		"time_elapsed": 229481,
		"internal_node_id": "0.0-3.0-0.187"
	},
	{
		"rt": 378,
		"stimulus": "oricia",
		"response": "s",
		"class": "null",
		"status": "noncog",
		"answer": "pseudo",
		"correct": "N",
		"trial": "exp",
		"letters": "null",
		"trial_type": "html-keyboard-response",
		"trial_index": 391,
		"time_elapsed": 229859,
		"internal_node_id": "0.0-3.0-1.187"
	},
	{
		"rt": null,
		"stimulus": "+",
		"response": null,
		"trial_type": "html-keyboard-response",
		"trial_index": 392,
		"time_elapsed": 230360,
		"internal_node_id": "0.0-3.0-0.188"
	},
	{
		"rt": 379,
		"stimulus": "filme",
		"response": "s",
		"class": "n",
		"status": "cog",
		"answer": "word",
		"correct": "S",
		"trial": "exp",
		"letters": "5",
		"trial_type": "html-keyboard-response",
		"trial_index": 393,
		"time_elapsed": 230739,
		"internal_node_id": "0.0-3.0-1.188"
	},
	{
		"rt": null,
		"stimulus": "+",
		"response": null,
		"trial_type": "html-keyboard-response",
		"trial_index": 394,
		"time_elapsed": 231240,
		"internal_node_id": "0.0-3.0-0.189"
	},
	{
		"rt": 395,
		"stimulus": "bandido",
		"response": "s",
		"class": "n",
		"status": "cog",
		"answer": "word",
		"correct": "S",
		"trial": "exp",
		"letters": "7",
		"trial_type": "html-keyboard-response",
		"trial_index": 395,
		"time_elapsed": 231635,
		"internal_node_id": "0.0-3.0-1.189"
	},
	{
		"rt": null,
		"stimulus": "+",
		"response": null,
		"trial_type": "html-keyboard-response",
		"trial_index": 396,
		"time_elapsed": 232136,
		"internal_node_id": "0.0-3.0-0.190"
	},
	{
		"rt": 459,
		"stimulus": "chato",
		"response": "s",
		"class": "n",
		"status": "noncog",
		"answer": "word",
		"correct": "S",
		"trial": "exp",
		"letters": "5",
		"trial_type": "html-keyboard-response",
		"trial_index": 397,
		"time_elapsed": 232595,
		"internal_node_id": "0.0-3.0-1.190"
	},
	{
		"rt": null,
		"stimulus": "+",
		"response": null,
		"trial_type": "html-keyboard-response",
		"trial_index": 398,
		"time_elapsed": 233096,
		"internal_node_id": "0.0-3.0-0.191"
	},
	{
		"rt": 379,
		"stimulus": "alpica",
		"response": "s",
		"class": "null",
		"status": "noncog",
		"answer": "pseudo",
		"correct": "N",
		"trial": "exp",
		"letters": "null",
		"trial_type": "html-keyboard-response",
		"trial_index": 399,
		"time_elapsed": 233475,
		"internal_node_id": "0.0-3.0-1.191"
	},
	{
		"rt": null,
		"stimulus": "+",
		"response": null,
		"trial_type": "html-keyboard-response",
		"trial_index": 400,
		"time_elapsed": 233976,
		"internal_node_id": "0.0-3.0-0.192"
	},
	{
		"rt": 459,
		"stimulus": "enxarto",
		"response": "s",
		"class": "null",
		"status": "noncog",
		"answer": "pseudo",
		"correct": "N",
		"trial": "exp",
		"letters": "null",
		"trial_type": "html-keyboard-response",
		"trial_index": 401,
		"time_elapsed": 234435,
		"internal_node_id": "0.0-3.0-1.192"
	},
	{
		"rt": null,
		"stimulus": "+",
		"response": null,
		"trial_type": "html-keyboard-response",
		"trial_index": 402,
		"time_elapsed": 234936,
		"internal_node_id": "0.0-3.0-0.193"
	},
	{
		"rt": 443,
		"stimulus": "temperar",
		"response": "s",
		"class": "v",
		"status": "noncog",
		"answer": "word",
		"correct": "S",
		"trial": "exp",
		"letters": "8",
		"trial_type": "html-keyboard-response",
		"trial_index": 403,
		"time_elapsed": 235380,
		"internal_node_id": "0.0-3.0-1.193"
	},
	{
		"rt": null,
		"stimulus": "+",
		"response": null,
		"trial_type": "html-keyboard-response",
		"trial_index": 404,
		"time_elapsed": 235882,
		"internal_node_id": "0.0-3.0-0.194"
	},
	{
		"rt": 409,
		"stimulus": "disbrituir",
		"response": "s",
		"class": "null",
		"status": "noncog",
		"answer": "pseudo",
		"correct": "N",
		"trial": "exp",
		"letters": "null",
		"trial_type": "html-keyboard-response",
		"trial_index": 405,
		"time_elapsed": 236291,
		"internal_node_id": "0.0-3.0-1.194"
	},
	{
		"rt": null,
