"view_history","rt","trial_type","trial_index","time_elapsed","internal_node_id","stimulus","response","trial_part","trial","word","question","answer","accuracy"
"[{""page_index"":0,""viewing_time"":46208},{""page_index"":1,""viewing_time"":7152}]","53360","instructions","0","53363","0.0-0.0","","","","","","","",""
"","null","html-keyboard-response","1","54466","0.0-1.0-0.0-0.0","<span style= ""font-size:30px; font-family: monospace"">+</span>","null","fixation","","","","",""
"","5613","html-keyboard-response","2","60330","0.0-1.0-1.0","<span style=""font-size:30px; font-family: monospace"">O</span>"," ","","prac-sent","O","","",""
"","2756","html-keyboard-response","3","63337","0.0-1.0-1.1","<span style=""font-size:30px; font-family: monospace"">dia</span>"," ","","prac-sent","dia","","",""
"","2517","html-keyboard-response","4","66106","0.0-1.0-1.2","<span style=""font-size:30px; font-family: monospace"">estará</span>"," ","","prac-sent","estará","","",""
"","2565","html-keyboard-response","5","68921","0.0-1.0-1.3","<span style=""font-size:30px; font-family: monospace"">cheio</span>"," ","","prac-sent","cheio","","",""
"","1829","html-keyboard-response","6","71002","0.0-1.0-1.4","<span style=""font-size:30px; font-family: monospace"">de</span>"," ","","prac-sent","de","","",""
"","1892","html-keyboard-response","7","73145","0.0-1.0-1.5","<span style=""font-size:30px; font-family: monospace"">nuvens</span>"," ","","prac-sent","nuvens","","",""
"","1509","html-keyboard-response","8","74906","0.0-1.0-1.6","<span style=""font-size:30px; font-family: monospace"">hoje.</span>"," ","","prac-sent","hoje.","","",""
"","null","html-keyboard-response","9","76158","0.0-1.0-0.7-0.7","<span style= ""font-size:30px; font-family: monospace"">+</span>","null","fixation","","","","",""
"","624","html-keyboard-response","10","77034","0.0-1.0-1.7","<span style=""font-size:30px; font-family: monospace"">A</span>"," ","","prac-sent","A","","",""
"","1317","html-keyboard-response","11","78601","0.0-1.0-1.8","<span style=""font-size:30px; font-family: monospace"">caneca</span>"," ","","prac-sent","caneca","","",""
"","1509","html-keyboard-response","12","80361","0.0-1.0-1.9","<span style=""font-size:30px; font-family: monospace"">colorida</span>"," ","","prac-sent","colorida","","",""
"","1509","html-keyboard-response","13","82122","0.0-1.0-1.10","<span style=""font-size:30px; font-family: monospace"">caiu</span>"," ","","prac-sent","caiu","","",""
"","1716","html-keyboard-response","14","84089","0.0-1.0-1.11","<span style=""font-size:30px; font-family: monospace"">da</span>"," ","","prac-sent","da","","",""
"","1685","html-keyboard-response","15","86025","0.0-1.0-1.12","<span style=""font-size:30px; font-family: monospace"">mesa</span>"," ","","prac-sent","mesa","","",""
"","1397","html-keyboard-response","16","87673","0.0-1.0-1.13","<span style=""font-size:30px; font-family: monospace"">de</span>"," ","","prac-sent","de","","",""
"","1525","html-keyboard-response","17","89450","0.0-1.0-1.14","<span style=""font-size:30px; font-family: monospace"">jantar.</span>"," ","","prac-comp","jantar.","","",""
"","7348","html-keyboard-response","18","97049","0.0-1.0-2.14-0.14","<span style=""font-size:30px; font-family: monospace"">A caneca permaneceu na mesa?</span>","s","","prac-comp","","A caneca permaneceu na mesa?","não","false"
"[{""page_index"":0,""viewing_time"":21163}]","21163","instructions","19","118714","0.0-2.0","","","","","","","",""
"","null","html-keyboard-response","20","119816","0.0-3.0-0.0-0.0","<span style= ""font-size:30px; font-family: monospace"">+</span>","null","fixation","","","","",""
"","1702","html-keyboard-response","21","121769","0.0-3.0-1.0","<span style=""font-size:30px; font-family: monospace"">A</span>"," ","","exp-sent","A","","",""
"","1221","html-keyboard-response","22","123241","0.0-3.0-1.1","<span style=""font-size:30px; font-family: monospace"">motorista</span>"," ","","exp-sent","motorista","","",""
"","997","html-keyboard-response","23","124490","0.0-3.0-1.2","<span style=""font-size:30px; font-family: monospace"">fez</span>"," ","","exp-sent","fez","","",""
"","836","html-keyboard-response","24","125577","0.0-3.0-1.3","<span style=""font-size:30px; font-family: monospace"">o</span>"," ","","exp-sent","o","","",""
"","932","html-keyboard-response","25","126761","0.0-3.0-1.4","<span style=""font-size:30px; font-family: monospace"">retorno</span>"," ","","exp-sent","retorno","","",""
"","949","html-keyboard-response","26","127961","0.0-3.0-1.5","<span style=""font-size:30px; font-family: monospace"">com</span>"," ","","exp-sent","com","","",""
"","853","html-keyboard-response","27","129066","0.0-3.0-1.6","<span style=""font-size:30px; font-family: monospace"">cuidado.</span>"," ","","exp-sent","cuidado.","","",""
"","null","html-keyboard-response","28","130318","0.0-3.0-0.7-0.7","<span style= ""font-size:30px; font-family: monospace"">+</span>","null","fixation","","","","",""
"","752","html-keyboard-response","29","131321","0.0-3.0-1.7","<span style=""font-size:30px; font-family: monospace"">Contos</span>"," ","","exp-sent","Contos","","",""
"","1045","html-keyboard-response","30","132617","0.0-3.0-1.8","<span style=""font-size:30px; font-family: monospace"">de</span>"," ","","exp-sent","de","","",""
"","949","html-keyboard-response","31","133817","0.0-3.0-1.9","<span style=""font-size:30px; font-family: monospace"">ação</span>"," ","","exp-sent","ação","","",""
"","917","html-keyboard-response","32","134985","0.0-3.0-1.10","<span style=""font-size:30px; font-family: monospace"">têm</span>"," ","","exp-sent","têm","","",""
"","900","html-keyboard-response","33","136137","0.0-3.0-1.11","<span style=""font-size:30px; font-family: monospace"">chantagem</span>"," ","","exp-sent","chantagem","","",""
"","902","html-keyboard-response","34","137290","0.0-3.0-1.12","<span style=""font-size:30px; font-family: monospace"">e</span>"," ","","exp-sent","e","","",""
"","932","html-keyboard-response","35","138473","0.0-3.0-1.13","<span style=""font-size:30px; font-family: monospace"">muita</span>"," ","","exp-sent","muita","","",""
"","821","html-keyboard-response","36","139545","0.0-3.0-1.14","<span style=""font-size:30px; font-family: monospace"">luta.</span>"," ","","exp-sent","luta.","","",""
"","null","html-keyboard-response","37","140798","0.0-3.0-0.15-0.15","<span style= ""font-size:30px; font-family: monospace"">+</span>","null","fixation","","","","",""
"","769","html-keyboard-response","38","141817","0.0-3.0-1.15","<span style=""font-size:30px; font-family: monospace"">A</span>"," ","","exp-sent","A","","",""
"","901","html-keyboard-response","39","142969","0.0-3.0-1.16","<span style=""font-size:30px; font-family: monospace"">bisavó</span>"," ","","exp-sent","bisavó","","",""
"","821","html-keyboard-response","40","144041","0.0-3.0-1.17","<span style=""font-size:30px; font-family: monospace"">recebeu</span>"," ","","exp-sent","recebeu","","",""
"","853","html-keyboard-response","41","145145","0.0-3.0-1.18","<span style=""font-size:30px; font-family: monospace"">um</span>"," ","","exp-sent","um","","",""
"","869","html-keyboard-response","42","146265","0.0-3.0-1.19","<span style=""font-size:30px; font-family: monospace"">benefício</span>"," ","","exp-sent","benefício","","",""
"","900","html-keyboard-response","43","147417","0.0-3.0-1.20","<span style=""font-size:30px; font-family: monospace"">temporário</span>"," ","","exp-sent","temporário","","",""
"","901","html-keyboard-response","44","148569","0.0-3.0-1.21","<span style=""font-size:30px; font-family: monospace"">do</span>"," ","","exp-sent","do","","",""
"","901","html-keyboard-response","45","149722","0.0-3.0-1.22","<span style=""font-size:30px; font-family: monospace"">governo.</span>"," ","","exp-sent","governo.","","",""
"","null","html-keyboard-response","46","150973","0.0-3.0-0.23-0.23","<span style= ""font-size:30px; font-family: monospace"">+</span>","null","fixation","","","","",""
"","913","html-keyboard-response","47","152137","0.0-3.0-1.23","<span style=""font-size:30px; font-family: monospace"">As</span>"," ","","exp-sent","As","","",""
"","933","html-keyboard-response","48","153321","0.0-3.0-1.24","<span style=""font-size:30px; font-family: monospace"">crianças</span>"," ","","exp-sent","crianças","","",""
"","981","html-keyboard-response","49","154553","0.0-3.0-1.25","<span style=""font-size:30px; font-family: monospace"">brincaram</span>"," ","","exp-sent","brincaram","","",""
"","885","html-keyboard-response","50","155690","0.0-3.0-1.26","<span style=""font-size:30px; font-family: monospace"">no</span>"," ","","exp-sent","no","","",""
"","981","html-keyboard-response","51","156921","0.0-3.0-1.27","<span style=""font-size:30px; font-family: monospace"">balanço</span>"," ","","exp-sent","balanço","","",""
"","965","html-keyboard-response","52","158137","0.0-3.0-1.28","<span style=""font-size:30px; font-family: monospace"">a</span>"," ","","exp-sent","a","","",""
"","852","html-keyboard-response","53","159241","0.0-3.0-1.29","<span style=""font-size:30px; font-family: monospace"">tarde</span>"," ","","exp-sent","tarde","","",""
"","885","html-keyboard-response","54","160377","0.0-3.0-1.30","<span style=""font-size:30px; font-family: monospace"">toda.</span>"," ","","exp-sent","toda.","","",""
"","null","html-keyboard-response","55","161630","0.0-3.0-0.31-0.31","<span style= ""font-size:30px; font-family: monospace"">+</span>","null","fixation","","","","",""
"","769","html-keyboard-response","56","162649","0.0-3.0-1.31","<span style=""font-size:30px; font-family: monospace"">Ela</span>"," ","","exp-sent","Ela","","",""
"","917","html-keyboard-response","57","163817","0.0-3.0-1.32","<span style=""font-size:30px; font-family: monospace"">gosta</span>"," ","","exp-sent","gosta","","",""
"","933","html-keyboard-response","58","165001","0.0-3.0-1.33","<span style=""font-size:30px; font-family: monospace"">de</span>"," ","","exp-sent","de","","",""
"","885","html-keyboard-response","59","166137","0.0-3.0-1.34","<span style=""font-size:30px; font-family: monospace"">comida</span>"," ","","exp-sent","comida","","",""
"","901","html-keyboard-response","60","167290","0.0-3.0-1.35","<span style=""font-size:30px; font-family: monospace"">natural</span>"," ","","exp-sent","natural","","",""
"","901","html-keyboard-response","61","168441","0.0-3.0-1.36","<span style=""font-size:30px; font-family: monospace"">no</span>"," ","","exp-sent","no","","",""
"","949","html-keyboard-response","62","169641","0.0-3.0-1.37","<span style=""font-size:30px; font-family: monospace"">almoço.</span>"," ","","comp","almoço.","","",""
"","3333","html-keyboard-response","63","173226","0.0-3.0-2.37-0.37","<span style=""font-size:30px; font-family: monospace"">Ela gosta de comida natural no almoço?</span>","s","","comp","","Ela gosta de comida natural no almoço?","sim","false"
"","null","html-keyboard-response","64","174735","0.0-3.0-0.38-0.38","<span style= ""font-size:30px; font-family: monospace"">+</span>","null","fixation","","","","",""
"","1247","html-keyboard-response","65","176233","0.0-3.0-1.38","<span style=""font-size:30px; font-family: monospace"">Ursos</span>"," ","","exp-sent","Ursos","","",""
"","853","html-keyboard-response","66","177337","0.0-3.0-1.39","<span style=""font-size:30px; font-family: monospace"">têm</span>"," ","","exp-sent","têm","","",""
"","964","html-keyboard-response","67","178553","0.0-3.0-1.40","<span style=""font-size:30px; font-family: monospace"">uma</span>"," ","","exp-sent","uma","","",""
"","965","html-keyboard-response","68","179769","0.0-3.0-1.41","<span style=""font-size:30px; font-family: monospace"">patada</span>"," ","","exp-sent","patada","","",""
"","949","html-keyboard-response","69","180969","0.0-3.0-1.42","<span style=""font-size:30px; font-family: monospace"">brutal</span>"," ","","exp-sent","brutal","","",""
"","917","html-keyboard-response","70","182137","0.0-3.0-1.43","<span style=""font-size:30px; font-family: monospace"">e</span>"," ","","exp-sent","e","","",""
"","948","html-keyboard-response","71","183337","0.0-3.0-1.44","<span style=""font-size:30px; font-family: monospace"">poderosa.</span>"," ","","exp-sent","poderosa.","","",""
"","null","html-keyboard-response","72","184589","0.0-3.0-0.45-0.45","<span style= ""font-size:30px; font-family: monospace"">+</span>","null","fixation","","","","",""
"","993","html-keyboard-response","73","185833","0.0-3.0-1.45","<span style=""font-size:30px; font-family: monospace"">Eu</span>"," ","","exp-sent","Eu","","",""
"","997","html-keyboard-response","74","187081","0.0-3.0-1.46","<span style=""font-size:30px; font-family: monospace"">fiz</span>"," ","","exp-sent","fiz","","",""
"","949","html-keyboard-response","75","188281","0.0-3.0-1.47","<span style=""font-size:30px; font-family: monospace"">aulas</span>"," ","","exp-sent","aulas","","",""
"","981","html-keyboard-response","76","189513","0.0-3.0-1.48","<span style=""font-size:30px; font-family: monospace"">de</span>"," ","","exp-sent","de","","",""
"","1077","html-keyboard-response","77","190841","0.0-3.0-1.49","<span style=""font-size:30px; font-family: monospace"">espanhol</span>"," ","","exp-sent","espanhol","","",""
"","997","html-keyboard-response","78","192089","0.0-3.0-1.50","<span style=""font-size:30px; font-family: monospace"">nesta</span>"," ","","exp-sent","nesta","","",""
"","948","html-keyboard-response","79","193289","0.0-3.0-1.51","<span style=""font-size:30px; font-family: monospace"">cidade.</span>"," ","","exp-sent","cidade.","","",""
"","null","html-keyboard-response","80","194541","0.0-3.0-0.52-0.52","<span style= ""font-size:30px; font-family: monospace"">+</span>","null","fixation","","","","",""
"","1009","html-keyboard-response","81","195801","0.0-3.0-1.52","<span style=""font-size:30px; font-family: monospace"">Ele</span>"," ","","exp-sent","Ele","","",""
"","868","html-keyboard-response","82","196921","0.0-3.0-1.53","<span style=""font-size:30px; font-family: monospace"">comprou</span>"," ","","exp-sent","comprou","","",""
"","869","html-keyboard-response","83","198041","0.0-3.0-1.54","<span style=""font-size:30px; font-family: monospace"">mais</span>"," ","","exp-sent","mais","","",""
"","933","html-keyboard-response","84","199225","0.0-3.0-1.55","<span style=""font-size:30px; font-family: monospace"">uma</span>"," ","","exp-sent","uma","","",""
"","1109","html-keyboard-response","85","200585","0.0-3.0-1.56","<span style=""font-size:30px; font-family: monospace"">esponja</span>"," ","","exp-sent","esponja","","",""
"","870","html-keyboard-response","86","201706","0.0-3.0-1.57","<span style=""font-size:30px; font-family: monospace"">para</span>"," ","","exp-sent","para","","",""
"","885","html-keyboard-response","87","202841","0.0-3.0-1.58","<span style=""font-size:30px; font-family: monospace"">a</span>"," ","","exp-sent","a","","",""
"","869","html-keyboard-response","88","203961","0.0-3.0-1.59","<span style=""font-size:30px; font-family: monospace"">cozinha.</span>"," ","","exp-sent","cozinha.","","",""
"","null","html-keyboard-response","89","205225","0.0-3.0-0.60-0.60","<span style= ""font-size:30px; font-family: monospace"">+</span>","null","fixation","","","","",""
"","884","html-keyboard-response","90","206361","0.0-3.0-1.60","<span style=""font-size:30px; font-family: monospace"">Ele</span>"," ","","exp-sent","Ele","","",""
"","917","html-keyboard-response","91","207529","0.0-3.0-1.61","<span style=""font-size:30px; font-family: monospace"">teve</span>"," ","","exp-sent","teve","","",""
"","1030","html-keyboard-response","92","208809","0.0-3.0-1.62","<span style=""font-size:30px; font-family: monospace"">um</span>"," ","","exp-sent","um","","",""
"","964","html-keyboard-response","93","210025","0.0-3.0-1.63","<span style=""font-size:30px; font-family: monospace"">sono</span>"," ","","exp-sent","sono","","",""
"","933","html-keyboard-response","94","211209","0.0-3.0-1.64","<span style=""font-size:30px; font-family: monospace"">bizarro</span>"," ","","exp-sent","bizarro","","",""
"","949","html-keyboard-response","95","212409","0.0-3.0-1.65","<span style=""font-size:30px; font-family: monospace"">sem</span>"," ","","exp-sent","sem","","",""
"","956","html-keyboard-response","96","213625","0.0-3.0-1.66","<span style=""font-size:30px; font-family: monospace"">nenhum</span>"," ","","exp-sent","nenhum","","",""
"","933","html-keyboard-response","97","214809","0.0-3.0-1.67","<span style=""font-size:30px; font-family: monospace"">motivo.</span>"," ","","exp-sent","motivo.","","",""
"","null","html-keyboard-response","98","216061","0.0-3.0-0.68-0.68","<span style= ""font-size:30px; font-family: monospace"">+</span>","null","fixation","","","","",""
"","1025","html-keyboard-response","99","217337","0.0-3.0-1.68","<span style=""font-size:30px; font-family: monospace"">A</span>"," ","","exp-sent","A","","",""
"","1010","html-keyboard-response","100","218601","0.0-3.0-1.69","<span style=""font-size:30px; font-family: monospace"">moça</span>"," ","","exp-sent","moça","","",""
"","981","html-keyboard-response","101","219833","0.0-3.0-1.70","<span style=""font-size:30px; font-family: monospace"">comprou</span>"," ","","exp-sent","comprou","","",""
"","917","html-keyboard-response","102","221001","0.0-3.0-1.71","<span style=""font-size:30px; font-family: monospace"">um</span>"," ","","exp-sent","um","","",""
"","917","html-keyboard-response","103","222169","0.0-3.0-1.72","<span style=""font-size:30px; font-family: monospace"">diamante</span>"," ","","exp-sent","diamante","","",""
"","933","html-keyboard-response","104","223353","0.0-3.0-1.73","<span style=""font-size:30px; font-family: monospace"">para</span>"," ","","exp-sent","para","","",""
"","901","html-keyboard-response","105","224506","0.0-3.0-1.74","<span style=""font-size:30px; font-family: monospace"">sua</span>"," ","","exp-sent","sua","","",""
"","965","html-keyboard-response","106","225721","0.0-3.0-1.75","<span style=""font-size:30px; font-family: monospace"">prima.</span>"," ","","comp","prima.","","",""
"","2229","html-keyboard-response","107","228201","0.0-3.0-2.75-0.75","<span style=""font-size:30px; font-family: monospace"">A moça comprou um diamante?</span>","s","","comp","","A moça comprou um diamante?","sim","false"
"","null","html-keyboard-response","108","229712","0.0-3.0-0.76-0.76","<span style= ""font-size:30px; font-family: monospace"">+</span>","null","fixation","","","","",""
"","1534","html-keyboard-response","109","231497","0.0-3.0-1.76","<span style=""font-size:30px; font-family: monospace"">Barulho</span>"," ","","exp-sent","Barulho","","",""
"","757","html-keyboard-response","110","232505","0.0-3.0-1.77","<span style=""font-size:30px; font-family: monospace"">de</span>"," ","","exp-sent","de","","",""
"","1077","html-keyboard-response","111","233833","0.0-3.0-1.78","<span style=""font-size:30px; font-family: monospace"">carros</span>"," ","","exp-sent","carros","","",""
"","1172","html-keyboard-response","112","235257","0.0-3.0-1.79","<span style=""font-size:30px; font-family: monospace"">é</span>"," ","","exp-sent","é","","",""
"","837","html-keyboard-response","113","236345","0.0-3.0-1.80","<span style=""font-size:30px; font-family: monospace"">irritante</span>"," ","","exp-sent","irritante","","",""
"","757","html-keyboard-response","114","237353","0.0-3.0-1.81","<span style=""font-size:30px; font-family: monospace"">para</span>"," ","","exp-sent","para","","",""
"","612","html-keyboard-response","115","238217","0.0-3.0-1.82","<span style=""font-size:30px; font-family: monospace"">a</span>"," ","","exp-sent","a","","",""
"","677","html-keyboard-response","116","239145","0.0-3.0-1.83","<span style=""font-size:30px; font-family: monospace"">moça.</span>"," ","","exp-sent","moça.","","",""
"","null","html-keyboard-response","117","240398","0.0-3.0-0.84-0.84","<span style= ""font-size:30px; font-family: monospace"">+</span>","null","fixation","","","","",""
"","976","html-keyboard-response","118","241625","0.0-3.0-1.84","<span style=""font-size:30px; font-family: monospace"">A</span>"," ","","exp-sent","A","","",""
"","757","html-keyboard-response","119","242633","0.0-3.0-1.85","<span style=""font-size:30px; font-family: monospace"">loja</span>"," ","","exp-sent","loja","","",""
"","805","html-keyboard-response","120","243689","0.0-3.0-1.86","<span style=""font-size:30px; font-family: monospace"">também</span>"," ","","exp-sent","também","","",""
"","740","html-keyboard-response","121","244681","0.0-3.0-1.87","<span style=""font-size:30px; font-family: monospace"">vende</span>"," ","","exp-sent","vende","","",""
"","692","html-keyboard-response","122","245625","0.0-3.0-1.88","<span style=""font-size:30px; font-family: monospace"">taça</span>"," ","","exp-sent","taça","","",""
"","837","html-keyboard-response","123","246713","0.0-3.0-1.89","<span style=""font-size:30px; font-family: monospace"">de</span>"," ","","exp-sent","de","","",""
"","725","html-keyboard-response","124","247689","0.0-3.0-1.90","<span style=""font-size:30px; font-family: monospace"">vinho</span>"," ","","exp-sent","vinho","","",""
"","885","html-keyboard-response","125","248825","0.0-3.0-1.91","<span style=""font-size:30px; font-family: monospace"">e</span>"," ","","exp-sent","e","","",""
"","773","html-keyboard-response","126","249849","0.0-3.0-1.92","<span style=""font-size:30px; font-family: monospace"">espumante.</span>"," ","","exp-sent","espumante.","","",""
"","null","html-keyboard-response","127","251108","0.0-3.0-0.93-0.93","<span style= ""font-size:30px; font-family: monospace"">+</span>","null","fixation","","","","",""
"","603","html-keyboard-response","128","251961","0.0-3.0-1.93","<span style=""font-size:30px; font-family: monospace"">A</span>"," ","","exp-sent","A","","",""
"","709","html-keyboard-response","129","252921","0.0-3.0-1.94","<span style=""font-size:30px; font-family: monospace"">bruxa</span>"," ","","exp-sent","bruxa","","",""
"","613","html-keyboard-response","130","253785","0.0-3.0-1.95","<span style=""font-size:30px; font-family: monospace"">tinha</span>"," ","","exp-sent","tinha","","",""
"","645","html-keyboard-response","131","254681","0.0-3.0-1.96","<span style=""font-size:30px; font-family: monospace"">uma</span>"," ","","exp-sent","uma","","",""
"","805","html-keyboard-response","132","255737","0.0-3.0-1.97","<span style=""font-size:30px; font-family: monospace"">vassoura</span>"," ","","exp-sent","vassoura","","",""
"","757","html-keyboard-response","133","256745","0.0-3.0-1.98","<span style=""font-size:30px; font-family: monospace"">e</span>"," ","","exp-sent","e","","",""
"","693","html-keyboard-response","134","257689","0.0-3.0-1.99","<span style=""font-size:30px; font-family: monospace"">um</span>"," ","","exp-sent","um","","",""
"","661","html-keyboard-response","135","258601","0.0-3.0-1.100","<span style=""font-size:30px; font-family: monospace"">gato.</span>"," ","","exp-sent","gato.","","",""
"","null","html-keyboard-response","136","259853","0.0-3.0-0.101-0.101","<span style= ""font-size:30px; font-family: monospace"">+</span>","null","fixation","","","","",""
"","481","html-keyboard-response","137","260585","0.0-3.0-1.101","<span style=""font-size:30px; font-family: monospace"">Eu</span>"," ","","exp-sent","Eu","","",""
"","614","html-keyboard-response","138","261449","0.0-3.0-1.102","<span style=""font-size:30px; font-family: monospace"">me</span>"," ","","exp-sent","me","","",""
"","565","html-keyboard-response","139","262265","0.0-3.0-1.103","<span style=""font-size:30px; font-family: monospace"">divirto</span>"," ","","exp-sent","divirto","","",""
"","549","html-keyboard-response","140","263065","0.0-3.0-1.104","<span style=""font-size:30px; font-family: monospace"">em</span>"," ","","exp-sent","em","","",""
"","612","html-keyboard-response","141","263929","0.0-3.0-1.105","<span style=""font-size:30px; font-family: monospace"">festas</span>"," ","","exp-sent","festas","","",""
"","1029","html-keyboard-response","142","265209","0.0-3.0-1.106","<span style=""font-size:30px; font-family: monospace"">de</span>"," ","","exp-sent","de","","",""
"","581","html-keyboard-response","143","266041","0.0-3.0-1.107","<span style=""font-size:30px; font-family: monospace"">criança.</span>"," ","","exp-sent","criança.","","",""
"","null","html-keyboard-response","144","267293","0.0-3.0-0.108-0.108","<span style= ""font-size:30px; font-family: monospace"">+</span>","null","fixation","","","","",""
"","432","html-keyboard-response","145","267977","0.0-3.0-1.108","<span style=""font-size:30px; font-family: monospace"">A</span>"," ","","exp-sent","A","","",""
"","630","html-keyboard-response","146","268857","0.0-3.0-1.109","<span style=""font-size:30px; font-family: monospace"">janela</span>"," ","","exp-sent","janela","","",""
"","613","html-keyboard-response","147","269721","0.0-3.0-1.110","<span style=""font-size:30px; font-family: monospace"">alta</span>"," ","","exp-sent","alta","","",""
"","581","html-keyboard-response","148","270553","0.0-3.0-1.111","<span style=""font-size:30px; font-family: monospace"">estava</span>"," ","","exp-sent","estava","","",""
"","517","html-keyboard-response","149","271321","0.0-3.0-1.112","<span style=""font-size:30px; font-family: monospace"">quebrada</span>"," ","","exp-sent","quebrada","","",""
"","533","html-keyboard-response","150","272105","0.0-3.0-1.113","<span style=""font-size:30px; font-family: monospace"">desde</span>"," ","","exp-sent","desde","","",""
"","549","html-keyboard-response","151","272905","0.0-3.0-1.114","<span style=""font-size:30px; font-family: monospace"">ontem.</span>"," ","","comp","ontem.","","",""
"","1267","html-keyboard-response","152","274425","0.0-3.0-2.114-0.114","<span style=""font-size:30px; font-family: monospace"">A janela alta estava quebrada?</span>","s","","comp","","A janela alta estava quebrada?","sim","false"
"","null","html-keyboard-response","153","275927","0.0-3.0-0.115-0.115","<span style= ""font-size:30px; font-family: monospace"">+</span>","null","fixation","","","","",""
"","1142","html-keyboard-response","154","277321","0.0-3.0-1.115","<span style=""font-size:30px; font-family: monospace"">O</span>"," ","","exp-sent","O","","",""
"","789","html-keyboard-response","155","278361","0.0-3.0-1.116","<span style=""font-size:30px; font-family: monospace"">moço</span>"," ","","exp-sent","moço","","",""
"","678","html-keyboard-response","156","279290","0.0-3.0-1.117","<span style=""font-size:30px; font-family: monospace"">usou</span>"," ","","exp-sent","usou","","",""
"","612","html-keyboard-response","157","280153","0.0-3.0-1.118","<span style=""font-size:30px; font-family: monospace"">várias</span>"," ","","exp-sent","várias","","",""
"","661","html-keyboard-response","158","281065","0.0-3.0-1.119","<span style=""font-size:30px; font-family: monospace"">velas</span>"," ","","exp-sent","velas","","",""
"","581","html-keyboard-response","159","281897","0.0-3.0-1.120","<span style=""font-size:30px; font-family: monospace"">no</span>"," ","","exp-sent","no","","",""
"","693","html-keyboard-response","160","282841","0.0-3.0-1.121","<span style=""font-size:30px; font-family: monospace"">enfeite</span>"," ","","exp-sent","enfeite","","",""
"","1349","html-keyboard-response","161","284441","0.0-3.0-1.122","<span style=""font-size:30px; font-family: monospace"">de</span>"," ","","exp-sent","de","","",""
"","725","html-keyboard-response","162","285417","0.0-3.0-1.123","<span style=""font-size:30px; font-family: monospace"">mesa.</span>"," ","","exp-sent","mesa.","","",""
"","null","html-keyboard-response","163","286669","0.0-3.0-0.124-0.124","<span style= ""font-size:30px; font-family: monospace"">+</span>","null","fixation","","","","",""
"","401","html-keyboard-response","164","287321","0.0-3.0-1.124","<span style=""font-size:30px; font-family: monospace"">Gostamos</span>"," ","","exp-sent","Gostamos","","",""
"","549","html-keyboard-response","165","288121","0.0-3.0-1.125","<span style=""font-size:30px; font-family: monospace"">de</span>"," ","","exp-sent","de","","",""
"","725","html-keyboard-response","166","289097","0.0-3.0-1.126","<span style=""font-size:30px; font-family: monospace"">suco</span>"," ","","exp-sent","suco","","",""
"","628","html-keyboard-response","167","289977","0.0-3.0-1.127","<span style=""font-size:30px; font-family: monospace"">em</span>"," ","","exp-sent","em","","",""
"","661","html-keyboard-response","168","290890","0.0-3.0-1.128","<span style=""font-size:30px; font-family: monospace"">garrafa</span>"," ","","exp-sent","garrafa","","",""
"","692","html-keyboard-response","169","291833","0.0-3.0-1.129","<span style=""font-size:30px; font-family: monospace"">de</span>"," ","","exp-sent","de","","",""
"","661","html-keyboard-response","170","292745","0.0-3.0-1.130","<span style=""font-size:30px; font-family: monospace"">tamanho</span>"," ","","exp-sent","tamanho","","",""
"","533","html-keyboard-response","171","293529","0.0-3.0-1.131","<span style=""font-size:30px; font-family: monospace"">pequeno.</span>"," ","","exp-sent","pequeno.","","",""
"","null","html-keyboard-response","172","294781","0.0-3.0-0.132-0.132","<span style= ""font-size:30px; font-family: monospace"">+</span>","null","fixation","","","","",""
"","224","html-keyboard-response","173","295257","0.0-3.0-1.132","<span style=""font-size:30px; font-family: monospace"">Sua</span>"," ","","exp-sent","Sua","","",""
"","629","html-keyboard-response","174","296137","0.0-3.0-1.133","<span style=""font-size:30px; font-family: monospace"">filha</span>"," ","","exp-sent","filha","","",""
"","485","html-keyboard-response","175","296873","0.0-3.0-1.134","<span style=""font-size:30px; font-family: monospace"">é</span>"," ","","exp-sent","é","","",""
"","597","html-keyboard-response","176","297721","0.0-3.0-1.135","<span style=""font-size:30px; font-family: monospace"">muito</span>"," ","","exp-sent","muito","","",""
"","517","html-keyboard-response","177","298489","0.0-3.0-1.136","<span style=""font-size:30px; font-family: monospace"">capaz</span>"," ","","exp-sent","capaz","","",""
"","517","html-keyboard-response","178","299257","0.0-3.0-1.137","<span style=""font-size:30px; font-family: monospace"">e</span>"," ","","exp-sent","e","","",""
"","613","html-keyboard-response","179","300121","0.0-3.0-1.138","<span style=""font-size:30px; font-family: monospace"">esforçada.</span>"," ","","exp-sent","esforçada.","","",""
"","null","html-keyboard-response","180","301372","0.0-3.0-0.139-0.139","<span style= ""font-size:30px; font-family: monospace"">+</span>","null","fixation","","","","",""
"","290","html-keyboard-response","181","301913","0.0-3.0-1.139","<span style=""font-size:30px; font-family: monospace"">A</span>"," ","","exp-sent","A","","",""
"","517","html-keyboard-response","182","302681","0.0-3.0-1.140","<span style=""font-size:30px; font-family: monospace"">batida</span>"," ","","exp-sent","batida","","",""
"","502","html-keyboard-response","183","303433","0.0-3.0-1.141","<span style=""font-size:30px; font-family: monospace"">causou</span>"," ","","exp-sent","causou","","",""
"","485","html-keyboard-response","184","304169","0.0-3.0-1.142","<span style=""font-size:30px; font-family: monospace"">muita</span>"," ","","exp-sent","muita","","",""
"","453","html-keyboard-response","185","304873","0.0-3.0-1.143","<span style=""font-size:30px; font-family: monospace"">confusão</span>"," ","","exp-sent","confusão","","",""
"","532","html-keyboard-response","186","305657","0.0-3.0-1.144","<span style=""font-size:30px; font-family: monospace"">na</span>"," ","","exp-sent","na","","",""
"","533","html-keyboard-response","187","306441","0.0-3.0-1.145","<span style=""font-size:30px; font-family: monospace"">estrada.</span>"," ","","exp-sent","estrada.","","",""
"","null","html-keyboard-response","188","307694","0.0-3.0-0.146-0.146","<span style= ""font-size:30px; font-family: monospace"">+</span>","null","fixation","","","","",""
"","177","html-keyboard-response","189","308121","0.0-3.0-1.146","<span style=""font-size:30px; font-family: monospace"">Eu</span>"," ","","exp-sent","Eu","","",""
"","565","html-keyboard-response","190","308937","0.0-3.0-1.147","<span style=""font-size:30px; font-family: monospace"">cozinhei</span>"," ","","exp-sent","cozinhei","","",""
"","484","html-keyboard-response","191","309673","0.0-3.0-1.148","<span style=""font-size:30px; font-family: monospace"">um</span>"," ","","exp-sent","um","","",""
"","485","html-keyboard-response","192","310409","0.0-3.0-1.149","<span style=""font-size:30px; font-family: monospace"">almoço</span>"," ","","exp-sent","almoço","","",""
"","740","html-keyboard-response","193","311401","0.0-3.0-1.150","<span style=""font-size:30px; font-family: monospace"">nutritivo</span>"," ","","exp-sent","nutritivo","","",""
"","741","html-keyboard-response","194","312393","0.0-3.0-1.151","<span style=""font-size:30px; font-family: monospace"">para</span>"," ","","exp-sent","para","","",""
"","709","html-keyboard-response","195","313353","0.0-3.0-1.152","<span style=""font-size:30px; font-family: monospace"">hoje.</span>"," ","","comp","hoje.","","",""
"","996","html-keyboard-response","196","314601","0.0-3.0-2.152-0.152","<span style=""font-size:30px; font-family: monospace"">O almoço era nutritivo?</span>","s","","comp","","O almoço era nutritivo?","sim","false"
"","null","html-keyboard-response","197","316103","0.0-3.0-0.153-0.153","<span style= ""font-size:30px; font-family: monospace"">+</span>","null","fixation","","","","",""
"","871","html-keyboard-response","198","317225","0.0-3.0-1.153","<span style=""font-size:30px; font-family: monospace"">O</span>"," ","","exp-sent","O","","",""
"","709","html-keyboard-response","199","318185","0.0-3.0-1.154","<span style=""font-size:30px; font-family: monospace"">travesseiro</span>"," ","","exp-sent","travesseiro","","",""
"","661","html-keyboard-response","200","319097","0.0-3.0-1.155","<span style=""font-size:30px; font-family: monospace"">era</span>"," ","","exp-sent","era","","",""
"","708","html-keyboard-response","201","320057","0.0-3.0-1.156","<span style=""font-size:30px; font-family: monospace"">muito</span>"," ","","exp-sent","muito","","",""
"","2725","html-keyboard-response","202","323033","0.0-3.0-1.157","<span style=""font-size:30px; font-family: monospace"">macio</span>"," ","","exp-sent","macio","","",""
"","6485","html-keyboard-response","203","329769","0.0-3.0-1.158","<span style=""font-size:30px; font-family: monospace"">e</span>"," ","","exp-sent","e","","",""
"","1781","html-keyboard-response","204","331801","0.0-3.0-1.159","<span style=""font-size:30px; font-family: monospace"">confortável.</span>"," ","","exp-sent","confortável.","","",""
"","null","html-keyboard-response","205","333053","0.0-3.0-0.160-0.160","<span style= ""font-size:30px; font-family: monospace"">+</span>","null","fixation","","","","",""
"","993","html-keyboard-response","206","334297","0.0-3.0-1.160","<span style=""font-size:30px; font-family: monospace"">Hoje</span>"," ","","exp-sent","Hoje","","",""
"","869","html-keyboard-response","207","335417","0.0-3.0-1.161","<span style=""font-size:30px; font-family: monospace"">a</span>"," ","","exp-sent","a","","",""
"","1030","html-keyboard-response","208","336697","0.0-3.0-1.162","<span style=""font-size:30px; font-family: monospace"">atendente</span>"," ","","exp-sent","atendente","","",""
"","836","html-keyboard-response","209","337785","0.0-3.0-1.163","<span style=""font-size:30px; font-family: monospace"">estava</span>"," ","","exp-sent","estava","","",""
"","1028","html-keyboard-response","210","339065","0.0-3.0-1.164","<span style=""font-size:30px; font-family: monospace"">furiosa</span>"," ","","exp-sent","furiosa","","",""
"","725","html-keyboard-response","211","340041","0.0-3.0-1.165","<span style=""font-size:30px; font-family: monospace"">com</span>"," ","","exp-sent","com","","",""
"","885","html-keyboard-response","212","341177","0.0-3.0-1.166","<span style=""font-size:30px; font-family: monospace"">o</span>"," ","","exp-sent","o","","",""
"","948","html-keyboard-response","213","342377","0.0-3.0-1.167","<span style=""font-size:30px; font-family: monospace"">cliente.</span>"," ","","exp-sent","cliente.","","",""
"","null","html-keyboard-response","214","343637","0.0-3.0-0.168-0.168","<span style= ""font-size:30px; font-family: monospace"">+</span>","null","fixation","","","","",""
"","1305","html-keyboard-response","215","345193","0.0-3.0-1.168","<span style=""font-size:30px; font-family: monospace"">O</span>"," ","","exp-sent","O","","",""
"","805","html-keyboard-response","216","346249","0.0-3.0-1.169","<span style=""font-size:30px; font-family: monospace"">vizinho</span>"," ","","exp-sent","vizinho","","",""
"","997","html-keyboard-response","217","347497","0.0-3.0-1.170","<span style=""font-size:30px; font-family: monospace"">é</span>"," ","","exp-sent","é","","",""
"","1029","html-keyboard-response","218","348777","0.0-3.0-1.171","<span style=""font-size:30px; font-family: monospace"">um</span>"," ","","exp-sent","um","","",""
"","1072","html-keyboard-response","219","350105","0.0-3.0-1.172","<span style=""font-size:30px; font-family: monospace"">arquiteto</span>"," ","","exp-sent","arquiteto","","",""
"","853","html-keyboard-response","220","351209","0.0-3.0-1.173","<span style=""font-size:30px; font-family: monospace"">muito</span>"," ","","exp-sent","muito","","",""
"","933","html-keyboard-response","221","352393","0.0-3.0-1.174","<span style=""font-size:30px; font-family: monospace"">excêntrico.</span>"," ","","exp-sent","excêntrico.","","",""
"","null","html-keyboard-response","222","353652","0.0-3.0-0.175-0.175","<span style= ""font-size:30px; font-family: monospace"">+</span>","null","fixation","","","","",""
"","922","html-keyboard-response","223","354825","0.0-3.0-1.175","<span style=""font-size:30px; font-family: monospace"">A</span>"," ","","exp-sent","A","","",""
"","916","html-keyboard-response","224","355993","0.0-3.0-1.176","<span style=""font-size:30px; font-family: monospace"">nossa</span>"," ","","exp-sent","nossa","","",""
"","725","html-keyboard-response","225","356969","0.0-3.0-1.177","<span style=""font-size:30px; font-family: monospace"">colega</span>"," ","","exp-sent","colega","","",""
"","933","html-keyboard-response","226","358153","0.0-3.0-1.178","<span style=""font-size:30px; font-family: monospace"">foi</span>"," ","","exp-sent","foi","","",""
"","821","html-keyboard-response","227","359225","0.0-3.0-1.179","<span style=""font-size:30px; font-family: monospace"">má</span>"," ","","exp-sent","má","","",""
"","741","html-keyboard-response","228","360217","0.0-3.0-1.180","<span style=""font-size:30px; font-family: monospace"">com</span>"," ","","exp-sent","com","","",""
"","757","html-keyboard-response","229","361225","0.0-3.0-1.181","<span style=""font-size:30px; font-family: monospace"">as</span>"," ","","exp-sent","as","","",""
"","741","html-keyboard-response","230","362217","0.0-3.0-1.182","<span style=""font-size:30px; font-family: monospace"">crianças.</span>"," ","","exp-sent","crianças.","","",""
"","null","html-keyboard-response","231","363469","0.0-3.0-0.183-0.183","<span style= ""font-size:30px; font-family: monospace"">+</span>","null","fixation","","","","",""
"","513","html-keyboard-response","232","364233","0.0-3.0-1.183","<span style=""font-size:30px; font-family: monospace"">Virtudes</span>"," ","","exp-sent","Virtudes","","",""
"","629","html-keyboard-response","233","365113","0.0-3.0-1.184","<span style=""font-size:30px; font-family: monospace"">não</span>"," ","","exp-sent","não","","",""
"","549","html-keyboard-response","234","365913","0.0-3.0-1.185","<span style=""font-size:30px; font-family: monospace"">são</span>"," ","","exp-sent","são","","",""
"","1157","html-keyboard-response","235","367321","0.0-3.0-1.186","<span style=""font-size:30px; font-family: monospace"">preguiça,</span>"," ","","exp-sent","preguiça,","","",""
"","581","html-keyboard-response","236","368153","0.0-3.0-1.187","<span style=""font-size:30px; font-family: monospace"">gula</span>"," ","","exp-sent","gula","","",""
"","549","html-keyboard-response","237","368953","0.0-3.0-1.188","<span style=""font-size:30px; font-family: monospace"">nem</span>"," ","","exp-sent","nem","","",""
"","661","html-keyboard-response","238","369865","0.0-3.0-1.189","<span style=""font-size:30px; font-family: monospace"">ganância.</span>"," ","","comp","ganância.","","",""
"","740","html-keyboard-response","239","370857","0.0-3.0-2.189-0.189","<span style=""font-size:30px; font-family: monospace"">Preguiça é uma virtude?</span>","s","","comp","","Preguiça é uma virtude?","não","false"
"","null","html-keyboard-response","240","372359","0.0-3.0-0.190-0.190","<span style= ""font-size:30px; font-family: monospace"">+</span>","null","fixation","","","","",""
"","887","html-keyboard-response","241","373497","0.0-3.0-1.190","<span style=""font-size:30px; font-family: monospace"">As</span>"," ","","exp-sent","As","","",""
"","693","html-keyboard-response","242","374441","0.0-3.0-1.191","<span style=""font-size:30px; font-family: monospace"">crianças</span>"," ","","exp-sent","crianças","","",""
"","645","html-keyboard-response","243","375337","0.0-3.0-1.192","<span style=""font-size:30px; font-family: monospace"">viram</span>"," ","","exp-sent","viram","","",""
"","565","html-keyboard-response","244","376153","0.0-3.0-1.193","<span style=""font-size:30px; font-family: monospace"">um</span>"," ","","exp-sent","um","","",""
"","533","html-keyboard-response","245","376937","0.0-3.0-1.194","<span style=""font-size:30px; font-family: monospace"">vaga-lume</span>"," ","","exp-sent","vaga-lume","","",""
"","693","html-keyboard-response","246","377881","0.0-3.0-1.195","<span style=""font-size:30px; font-family: monospace"">nos</span>"," ","","exp-sent","nos","","",""
"","597","html-keyboard-response","247","378729","0.0-3.0-1.196","<span style=""font-size:30px; font-family: monospace"">arbustos.</span>"," ","","exp-sent","arbustos.","","",""
"","null","html-keyboard-response","248","379980","0.0-3.0-0.197-0.197","<span style= ""font-size:30px; font-family: monospace"">+</span>","null","fixation","","","","",""
"","114","html-keyboard-response","249","380345","0.0-3.0-1.197","<span style=""font-size:30px; font-family: monospace"">Ontem</span>"," ","","exp-sent","Ontem","","",""
"","581","html-keyboard-response","250","381177","0.0-3.0-1.198","<span style=""font-size:30px; font-family: monospace"">o</span>"," ","","exp-sent","o","","",""
"","549","html-keyboard-response","251","381977","0.0-3.0-1.199","<span style=""font-size:30px; font-family: monospace"">funcionário</span>"," ","","exp-sent","funcionário","","",""
"","533","html-keyboard-response","252","382761","0.0-3.0-1.200","<span style=""font-size:30px; font-family: monospace"">pediu</span>"," ","","exp-sent","pediu","","",""
"","501","html-keyboard-response","253","383513","0.0-3.0-1.201","<span style=""font-size:30px; font-family: monospace"">autorização</span>"," ","","exp-sent","autorização","","",""
"","501","html-keyboard-response","254","384265","0.0-3.0-1.202","<span style=""font-size:30px; font-family: monospace"">para</span>"," ","","exp-sent","para","","",""
"","501","html-keyboard-response","255","385017","0.0-3.0-1.203","<span style=""font-size:30px; font-family: monospace"">a</span>"," ","","exp-sent","a","","",""
"","501","html-keyboard-response","256","385769","0.0-3.0-1.204","<span style=""font-size:30px; font-family: monospace"">colega.</span>"," ","","exp-sent","colega.","","",""
"","null","html-keyboard-response","257","387021","0.0-3.0-0.205-0.205","<span style= ""font-size:30px; font-family: monospace"">+</span>","null","fixation","","","","",""
"","177","html-keyboard-response","258","387449","0.0-3.0-1.205","<span style=""font-size:30px; font-family: monospace"">Eu</span>"," ","","exp-sent","Eu","","",""
"","485","html-keyboard-response","259","388185","0.0-3.0-1.206","<span style=""font-size:30px; font-family: monospace"">sempre</span>"," ","","exp-sent","sempre","","",""
"","533","html-keyboard-response","260","388969","0.0-3.0-1.207","<span style=""font-size:30px; font-family: monospace"">fujo</span>"," ","","exp-sent","fujo","","",""
"","581","html-keyboard-response","261","389801","0.0-3.0-1.208","<span style=""font-size:30px; font-family: monospace"">de</span>"," ","","exp-sent","de","","",""
"","565","html-keyboard-response","262","390617","0.0-3.0-1.209","<span style=""font-size:30px; font-family: monospace"">conflito</span>"," ","","exp-sent","conflito","","",""
"","565","html-keyboard-response","263","391433","0.0-3.0-1.210","<span style=""font-size:30px; font-family: monospace"">com</span>"," ","","exp-sent","com","","",""
"","517","html-keyboard-response","264","392201","0.0-3.0-1.211","<span style=""font-size:30px; font-family: monospace"">as</span>"," ","","exp-sent","as","","",""
"","565","html-keyboard-response","265","393017","0.0-3.0-1.212","<span style=""font-size:30px; font-family: monospace"">pessoas.</span>"," ","","exp-sent","pessoas.","","",""
"","null","html-keyboard-response","266","394268","0.0-3.0-0.213-0.213","<span style= ""font-size:30px; font-family: monospace"">+</span>","null","fixation","","","","",""
"","66","html-keyboard-response","267","394585","0.0-3.0-1.213","<span style=""font-size:30px; font-family: monospace"">O</span>"," ","","exp-sent","O","","",""
"","533","html-keyboard-response","268","395369","0.0-3.0-1.214","<span style=""font-size:30px; font-family: monospace"">bolo</span>"," ","","exp-sent","bolo","","",""
"","549","html-keyboard-response","269","396169","0.0-3.0-1.215","<span style=""font-size:30px; font-family: monospace"">era</span>"," ","","exp-sent","era","","",""
"","517","html-keyboard-response","270","396937","0.0-3.0-1.216","<span style=""font-size:30px; font-family: monospace"">de</span>"," ","","exp-sent","de","","",""
"","581","html-keyboard-response","271","397769","0.0-3.0-1.217","<span style=""font-size:30px; font-family: monospace"">abacaxi</span>"," ","","exp-sent","abacaxi","","",""
"","533","html-keyboard-response","272","398553","0.0-3.0-1.218","<span style=""font-size:30px; font-family: monospace"">e</span>"," ","","exp-sent","e","","",""
"","485","html-keyboard-response","273","399289","0.0-3.0-1.219","<span style=""font-size:30px; font-family: monospace"">creme</span>"," ","","exp-sent","creme","","",""
"","516","html-keyboard-response","274","400057","0.0-3.0-1.220","<span style=""font-size:30px; font-family: monospace"">de</span>"," ","","exp-sent","de","","",""
"","501","html-keyboard-response","275","400809","0.0-3.0-1.221","<span style=""font-size:30px; font-family: monospace"">coco.</span>"," ","","exp-sent","coco.","","",""
"","null","html-keyboard-response","276","402061","0.0-3.0-0.222-0.222","<span style= ""font-size:30px; font-family: monospace"">+</span>","null","fixation","","","","",""
"","49","html-keyboard-response","277","402361","0.0-3.0-1.222","<span style=""font-size:30px; font-family: monospace"">As</span>"," ","","exp-sent","As","","",""
"","549","html-keyboard-response","278","403161","0.0-3.0-1.223","<span style=""font-size:30px; font-family: monospace"">crianças</span>"," ","","exp-sent","crianças","","",""
"","468","html-keyboard-response","279","403881","0.0-3.0-1.224","<span style=""font-size:30px; font-family: monospace"">brincaram</span>"," ","","exp-sent","brincaram","","",""
"","469","html-keyboard-response","280","404601","0.0-3.0-1.225","<span style=""font-size:30px; font-family: monospace"">com</span>"," ","","exp-sent","com","","",""
"","533","html-keyboard-response","281","405385","0.0-3.0-1.226","<span style=""font-size:30px; font-family: monospace"">bolhas</span>"," ","","exp-sent","bolhas","","",""
"","501","html-keyboard-response","282","406137","0.0-3.0-1.227","<span style=""font-size:30px; font-family: monospace"">no</span>"," ","","exp-sent","no","","",""
"","550","html-keyboard-response","283","406937","0.0-3.0-1.228","<span style=""font-size:30px; font-family: monospace"">banho.</span>"," ","","comp","banho.","","",""
"","757","html-keyboard-response","284","407945","0.0-3.0-2.228-0.228","<span style=""font-size:30px; font-family: monospace"">As crianças brincaram com bolhas?</span>","s","","comp","","As crianças brincaram com bolhas?","sim","false"
"","null","html-keyboard-response","285","409446","0.0-3.0-0.229-0.229","<span style= ""font-size:30px; font-family: monospace"">+</span>","null","fixation","","","","",""
"","392","html-keyboard-response","286","410089","0.0-3.0-1.229","<span style=""font-size:30px; font-family: monospace"">No</span>"," ","","exp-sent","No","","",""
"","484","html-keyboard-response","287","410825","0.0-3.0-1.230","<span style=""font-size:30px; font-family: monospace"">passado</span>"," ","","exp-sent","passado","","",""
"","453","html-keyboard-response","288","411529","0.0-3.0-1.231","<span style=""font-size:30px; font-family: monospace"">houve</span>"," ","","exp-sent","houve","","",""
"","484","html-keyboard-response","289","412265","0.0-3.0-1.232","<span style=""font-size:30px; font-family: monospace"">uma</span>"," ","","exp-sent","uma","","",""
"","517","html-keyboard-response","290","413033","0.0-3.0-1.233","<span style=""font-size:30px; font-family: monospace"">rebelião</span>"," ","","exp-sent","rebelião","","",""
"","597","html-keyboard-response","291","413881","0.0-3.0-1.234","<span style=""font-size:30px; font-family: monospace"">nesta</span>"," ","","exp-sent","nesta","","",""
"","501","html-keyboard-response","292","414633","0.0-3.0-1.235","<span style=""font-size:30px; font-family: monospace"">cidade.</span>"," ","","exp-sent","cidade.","","",""
"","null","html-keyboard-response","293","415885","0.0-3.0-0.236-0.236","<span style= ""font-size:30px; font-family: monospace"">+</span>","null","fixation","","","","",""
"","65","html-keyboard-response","294","416201","0.0-3.0-1.236","<span style=""font-size:30px; font-family: monospace"">Ele</span>"," ","","exp-sent","Ele","","",""
"","549","html-keyboard-response","295","417001","0.0-3.0-1.237","<span style=""font-size:30px; font-family: monospace"">fundou</span>"," ","","exp-sent","fundou","","",""
"","501","html-keyboard-response","296","417753","0.0-3.0-1.238","<span style=""font-size:30px; font-family: monospace"">uma</span>"," ","","exp-sent","uma","","",""
"","549","html-keyboard-response","297","418553","0.0-3.0-1.239","<span style=""font-size:30px; font-family: monospace"">empresa</span>"," ","","exp-sent","empresa","","",""
"","533","html-keyboard-response","298","419337","0.0-3.0-1.240","<span style=""font-size:30px; font-family: monospace"">privada</span>"," ","","exp-sent","privada","","",""
"","453","html-keyboard-response","299","420041","0.0-3.0-1.241","<span style=""font-size:30px; font-family: monospace"">sem</span>"," ","","exp-sent","sem","","",""
"","485","html-keyboard-response","300","420777","0.0-3.0-1.242","<span style=""font-size:30px; font-family: monospace"">ajuda.</span>"," ","","exp-sent","ajuda.","","",""
"","null","html-keyboard-response","301","422030","0.0-3.0-0.243-0.243","<span style= ""font-size:30px; font-family: monospace"">+</span>","null","fixation","","","","",""
"","705","html-keyboard-response","302","422985","0.0-3.0-1.243","<span style=""font-size:30px; font-family: monospace"">As</span>"," ","","exp-sent","As","","",""
"","437","html-keyboard-response","303","423673","0.0-3.0-1.244","<span style=""font-size:30px; font-family: monospace"">meninas</span>"," ","","exp-sent","meninas","","",""
"","469","html-keyboard-response","304","424393","0.0-3.0-1.245","<span style=""font-size:30px; font-family: monospace"">encontraram</span>"," ","","exp-sent","encontraram","","",""
"","469","html-keyboard-response","305","425113","0.0-3.0-1.246","<span style=""font-size:30px; font-family: monospace"">um</span>"," ","","exp-sent","um","","",""
"","453","html-keyboard-response","306","425817","0.0-3.0-1.247","<span style=""font-size:30px; font-family: monospace"">rato</span>"," ","","exp-sent","rato","","",""
"","357","html-keyboard-response","307","426425","0.0-3.0-1.248","<span style=""font-size:30px; font-family: monospace"">dentro</span>"," ","","exp-sent","dentro","","",""
"","405","html-keyboard-response","308","427081","0.0-3.0-1.249","<span style=""font-size:30px; font-family: monospace"">de</span>"," ","","exp-sent","de","","",""
"","693","html-keyboard-response","309","428025","0.0-3.0-1.250","<span style=""font-size:30px; font-family: monospace"">casa.</span>"," ","","exp-sent","casa.","","",""
"","null","html-keyboard-response","310","429277","0.0-3.0-0.251-0.251","<span style= ""font-size:30px; font-family: monospace"">+</span>","null","fixation","","","","",""
"","144","html-keyboard-response","311","429673","0.0-3.0-1.251","<span style=""font-size:30px; font-family: monospace"">O</span>"," ","","exp-sent","O","","",""
"","549","html-keyboard-response","312","430473","0.0-3.0-1.252","<span style=""font-size:30px; font-family: monospace"">texto</span>"," ","","exp-sent","texto","","",""
"","533","html-keyboard-response","313","431257","0.0-3.0-1.253","<span style=""font-size:30px; font-family: monospace"">tinha</span>"," ","","exp-sent","tinha","","",""
"","533","html-keyboard-response","314","432041","0.0-3.0-1.254","<span style=""font-size:30px; font-family: monospace"">ideias</span>"," ","","exp-sent","ideias","","",""
"","549","html-keyboard-response","315","432841","0.0-3.0-1.255","<span style=""font-size:30px; font-family: monospace"">vagas</span>"," ","","exp-sent","vagas","","",""
"","565","html-keyboard-response","316","433657","0.0-3.0-1.256","<span style=""font-size:30px; font-family: monospace"">e</span>"," ","","exp-sent","e","","",""
"","581","html-keyboard-response","317","434489","0.0-3.0-1.257","<span style=""font-size:30px; font-family: monospace"">confusas.</span>"," ","","exp-sent","confusas.","","",""
"","null","html-keyboard-response","318","435742","0.0-3.0-0.258-0.258","<span style= ""font-size:30px; font-family: monospace"">+</span>","null","fixation","","","","",""
"","112","html-keyboard-response","319","436105","0.0-3.0-1.258","<span style=""font-size:30px; font-family: monospace"">As</span>"," ","","exp-sent","As","","",""
"","677","html-keyboard-response","320","437033","0.0-3.0-1.259","<span style=""font-size:30px; font-family: monospace"">crianças</span>"," ","","exp-sent","crianças","","",""
"","646","html-keyboard-response","321","437929","0.0-3.0-1.260","<span style=""font-size:30px; font-family: monospace"">viram</span>"," ","","exp-sent","viram","","",""
"","533","html-keyboard-response","322","438713","0.0-3.0-1.261","<span style=""font-size:30px; font-family: monospace"">a</span>"," ","","exp-sent","a","","",""
"","533","html-keyboard-response","323","439497","0.0-3.0-1.262","<span style=""font-size:30px; font-family: monospace"">acrobata</span>"," ","","exp-sent","acrobata","","",""
"","661","html-keyboard-response","324","440409","0.0-3.0-1.263","<span style=""font-size:30px; font-family: monospace"">talentosa</span>"," ","","exp-sent","talentosa","","",""
"","596","html-keyboard-response","325","441257","0.0-3.0-1.264","<span style=""font-size:30px; font-family: monospace"">no</span>"," ","","exp-sent","no","","",""
"","581","html-keyboard-response","326","442089","0.0-3.0-1.265","<span style=""font-size:30px; font-family: monospace"">circo.</span>"," ","","comp","circo.","","",""
"","3269","html-keyboard-response","327","445609","0.0-3.0-2.265-0.265","<span style=""font-size:30px; font-family: monospace"">As crianças viram o palhaço no circo?</span>","s","","comp","","As crianças viram o palhaço no circo?","não","false"
"","null","html-keyboard-response","328","447111","0.0-3.0-0.266-0.266","<span style= ""font-size:30px; font-family: monospace"">+</span>","null","fixation","","","","",""
"","551","html-keyboard-response","329","447913","0.0-3.0-1.266","<span style=""font-size:30px; font-family: monospace"">Ganhamos</span>"," ","","exp-sent","Ganhamos","","",""
"","550","html-keyboard-response","330","448713","0.0-3.0-1.267","<span style=""font-size:30px; font-family: monospace"">passagem</span>"," ","","exp-sent","passagem","","",""
"","629","html-keyboard-response","331","449593","0.0-3.0-1.268","<span style=""font-size:30px; font-family: monospace"">para</span>"," ","","exp-sent","para","","",""
"","629","html-keyboard-response","332","450473","0.0-3.0-1.269","<span style=""font-size:30px; font-family: monospace"">uma</span>"," ","","exp-sent","uma","","",""
"","565","html-keyboard-response","333","451289","0.0-3.0-1.270","<span style=""font-size:30px; font-family: monospace"">viagem</span>"," ","","exp-sent","viagem","","",""
"","596","html-keyboard-response","334","452137","0.0-3.0-1.271","<span style=""font-size:30px; font-family: monospace"">de</span>"," ","","exp-sent","de","","",""
"","517","html-keyboard-response","335","452905","0.0-3.0-1.272","<span style=""font-size:30px; font-family: monospace"">férias.</span>"," ","","exp-sent","férias.","","",""
"","null","html-keyboard-response","336","454156","0.0-3.0-0.273-0.273","<span style= ""font-size:30px; font-family: monospace"">+</span>","null","fixation","","","","",""
"","49","html-keyboard-response","337","454457","0.0-3.0-1.273","<span style=""font-size:30px; font-family: monospace"">Caiu</span>"," ","","exp-sent","Caiu","","",""
"","612","html-keyboard-response","338","455321","0.0-3.0-1.274","<span style=""font-size:30px; font-family: monospace"">algo</span>"," ","","exp-sent","algo","","",""
"","565","html-keyboard-response","339","456137","0.0-3.0-1.275","<span style=""font-size:30px; font-family: monospace"">no</span>"," ","","exp-sent","no","","",""
"","677","html-keyboard-response","340","457065","0.0-3.0-1.276","<span style=""font-size:30px; font-family: monospace"">meu</span>"," ","","exp-sent","meu","","",""
"","581","html-keyboard-response","341","457897","0.0-3.0-1.277","<span style=""font-size:30px; font-family: monospace"">olho</span>"," ","","exp-sent","olho","","",""
"","565","html-keyboard-response","342","458713","0.0-3.0-1.278","<span style=""font-size:30px; font-family: monospace"">ontem</span>"," ","","exp-sent","ontem","","",""
"","486","html-keyboard-response","343","459449","0.0-3.0-1.279","<span style=""font-size:30px; font-family: monospace"">de</span>"," ","","exp-sent","de","","",""
"","549","html-keyboard-response","344","460249","0.0-3.0-1.280","<span style=""font-size:30px; font-family: monospace"">tarde.</span>"," ","","exp-sent","tarde.","","",""
"","null","html-keyboard-response","345","461501","0.0-3.0-0.281-0.281","<span style= ""font-size:30px; font-family: monospace"">+</span>","null","fixation","","","","",""
"","130","html-keyboard-response","346","461881","0.0-3.0-1.281","<span style=""font-size:30px; font-family: monospace"">Não</span>"," ","","exp-sent","Não","","",""
"","564","html-keyboard-response","347","462697","0.0-3.0-1.282","<span style=""font-size:30px; font-family: monospace"">havia</span>"," ","","exp-sent","havia","","",""
"","565","html-keyboard-response","348","463513","0.0-3.0-1.283","<span style=""font-size:30px; font-family: monospace"">mais</span>"," ","","exp-sent","mais","","",""
"","533","html-keyboard-response","349","464297","0.0-3.0-1.284","<span style=""font-size:30px; font-family: monospace"">nenhum</span>"," ","","exp-sent","nenhum","","",""
"","581","html-keyboard-response","350","465129","0.0-3.0-1.285","<span style=""font-size:30px; font-family: monospace"">ingresso</span>"," ","","exp-sent","ingresso","","",""
"","485","html-keyboard-response","351","465865","0.0-3.0-1.286","<span style=""font-size:30px; font-family: monospace"">para</span>"," ","","exp-sent","para","","",""
"","533","html-keyboard-response","352","466649","0.0-3.0-1.287","<span style=""font-size:30px; font-family: monospace"">o</span>"," ","","exp-sent","o","","",""
"","533","html-keyboard-response","353","467433","0.0-3.0-1.288","<span style=""font-size:30px; font-family: monospace"">evento.</span>"," ","","exp-sent","evento.","","",""
"","null","html-keyboard-response","354","468691","0.0-3.0-0.289-0.289","<span style= ""font-size:30px; font-family: monospace"">+</span>","null","fixation","","","","",""
"","75","html-keyboard-response","355","469017","0.0-3.0-1.289","<span style=""font-size:30px; font-family: monospace"">A</span>"," ","","exp-sent","A","","",""
"","534","html-keyboard-response","356","469801","0.0-3.0-1.290","<span style=""font-size:30px; font-family: monospace"">médica</span>"," ","","exp-sent","médica","","",""
"","501","html-keyboard-response","357","470553","0.0-3.0-1.291","<span style=""font-size:30px; font-family: monospace"">descobriu</span>"," ","","exp-sent","descobriu","","",""
"","533","html-keyboard-response","358","471337","0.0-3.0-1.292","<span style=""font-size:30px; font-family: monospace"">uma</span>"," ","","exp-sent","uma","","",""
"","469","html-keyboard-response","359","472057","0.0-3.0-1.293","<span style=""font-size:30px; font-family: monospace"">cura</span>"," ","","exp-sent","cura","","",""
"","485","html-keyboard-response","360","472793","0.0-3.0-1.294","<span style=""font-size:30px; font-family: monospace"">para</span>"," ","","exp-sent","para","","",""
"","485","html-keyboard-response","361","473529","0.0-3.0-1.295","<span style=""font-size:30px; font-family: monospace"">a</span>"," ","","exp-sent","a","","",""
"","437","html-keyboard-response","362","474217","0.0-3.0-1.296","<span style=""font-size:30px; font-family: monospace"">doença.</span>"," ","","exp-sent","doença.","","",""
"","null","html-keyboard-response","363","475469","0.0-3.0-0.297-0.297","<span style= ""font-size:30px; font-family: monospace"">+</span>","null","fixation","","","","",""
"","385","html-keyboard-response","364","476105","0.0-3.0-1.297","<span style=""font-size:30px; font-family: monospace"">O</span>"," ","","exp-sent","O","","",""
"","437","html-keyboard-response","365","476793","0.0-3.0-1.298","<span style=""font-size:30px; font-family: monospace"">menino</span>"," ","","exp-sent","menino","","",""
"","421","html-keyboard-response","366","477465","0.0-3.0-1.299","<span style=""font-size:30px; font-family: monospace"">riscou</span>"," ","","exp-sent","riscou","","",""
"","421","html-keyboard-response","367","478137","0.0-3.0-1.300","<span style=""font-size:30px; font-family: monospace"">o</span>"," ","","exp-sent","o","","",""
"","389","html-keyboard-response","368","478777","0.0-3.0-1.301","<span style=""font-size:30px; font-family: monospace"">caderno</span>"," ","","exp-sent","caderno","","",""
"","389","html-keyboard-response","369","479417","0.0-3.0-1.302","<span style=""font-size:30px; font-family: monospace"">com</span>"," ","","exp-sent","com","","",""
"","518","html-keyboard-response","370","480185","0.0-3.0-1.303","<span style=""font-size:30px; font-family: monospace"">a</span>"," ","","exp-sent","a","","",""
"","437","html-keyboard-response","371","480873","0.0-3.0-1.304","<span style=""font-size:30px; font-family: monospace"">caneta.</span>"," ","","comp","caneta.","","",""
"","645","html-keyboard-response","372","481769","0.0-3.0-2.304-0.304","<span style=""font-size:30px; font-family: monospace"">O menino riscou a parede com a caneta?</span>","s","","comp","","O menino riscou a parede com a caneta?","não","false"
"","null","html-keyboard-response","373","483270","0.0-3.0-0.305-0.305","<span style= ""font-size:30px; font-family: monospace"">+</span>","null","fixation","","","","",""
"","696","html-keyboard-response","374","484217","0.0-3.0-1.305","<span style=""font-size:30px; font-family: monospace"">A</span>"," ","","exp-sent","A","","",""
"","453","html-keyboard-response","375","484921","0.0-3.0-1.306","<span style=""font-size:30px; font-family: monospace"">força</span>"," ","","exp-sent","força","","",""
"","469","html-keyboard-response","376","485641","0.0-3.0-1.307","<span style=""font-size:30px; font-family: monospace"">d'água</span>"," ","","exp-sent","d'água","","",""
"","677","html-keyboard-response","377","486569","0.0-3.0-1.308","<span style=""font-size:30px; font-family: monospace"">estava</span>"," ","","exp-sent","estava","","",""
"","501","html-keyboard-response","378","487321","0.0-3.0-1.309","<span style=""font-size:30px; font-family: monospace"">normal</span>"," ","","exp-sent","normal","","",""
"","501","html-keyboard-response","379","488073","0.0-3.0-1.310","<span style=""font-size:30px; font-family: monospace"">naquele</span>"," ","","exp-sent","naquele","","",""
"","453","html-keyboard-response","380","488777","0.0-3.0-1.311","<span style=""font-size:30px; font-family: monospace"">dia.</span>"," ","","exp-sent","dia.","","",""
"","null","html-keyboard-response","381","490028","0.0-3.0-0.312-0.312","<span style= ""font-size:30px; font-family: monospace"">+</span>","null","fixation","","","","",""
"","209","html-keyboard-response","382","490489","0.0-3.0-1.312","<span style=""font-size:30px; font-family: monospace"">A</span>"," ","","exp-sent","A","","",""
"","693","html-keyboard-response","383","491433","0.0-3.0-1.313","<span style=""font-size:30px; font-family: monospace"">médica</span>"," ","","exp-sent","médica","","",""
"","709","html-keyboard-response","384","492393","0.0-3.0-1.314","<span style=""font-size:30px; font-family: monospace"">ofereceu</span>"," ","","exp-sent","ofereceu","","",""
"","805","html-keyboard-response","385","493449","0.0-3.0-1.315","<span style=""font-size:30px; font-family: monospace"">a</span>"," ","","exp-sent","a","","",""
"","613","html-keyboard-response","386","494313","0.0-3.0-1.316","<span style=""font-size:30px; font-family: monospace"">pomada</span>"," ","","exp-sent","pomada","","",""
"","645","html-keyboard-response","387","495209","0.0-3.0-1.317","<span style=""font-size:30px; font-family: monospace"">para</span>"," ","","exp-sent","para","","",""
"","549","html-keyboard-response","388","496009","0.0-3.0-1.318","<span style=""font-size:30px; font-family: monospace"">o</span>"," ","","exp-sent","o","","",""
"","581","html-keyboard-response","389","496841","0.0-3.0-1.319","<span style=""font-size:30px; font-family: monospace"">avô.</span>"," ","","exp-sent","avô.","","",""
"","null","html-keyboard-response","390","498093","0.0-3.0-0.320-0.320","<span style= ""font-size:30px; font-family: monospace"">+</span>","null","fixation","","","","",""
"","33","html-keyboard-response","391","498377","0.0-3.0-1.320","<span style=""font-size:30px; font-family: monospace"">Ele</span>"," ","","exp-sent","Ele","","",""
"","580","html-keyboard-response","392","499209","0.0-3.0-1.321","<span style=""font-size:30px; font-family: monospace"">conversou</span>"," ","","exp-sent","conversou","","",""
"","581","html-keyboard-response","393","500041","0.0-3.0-1.322","<span style=""font-size:30px; font-family: monospace"">com</span>"," ","","exp-sent","com","","",""
"","597","html-keyboard-response","394","500889","0.0-3.0-1.323","<span style=""font-size:30px; font-family: monospace"">o</span>"," ","","exp-sent","o","","",""
"","484","html-keyboard-response","395","501625","0.0-3.0-1.324","<span style=""font-size:30px; font-family: monospace"">patrão</span>"," ","","exp-sent","patrão","","",""
"","533","html-keyboard-response","396","502409","0.0-3.0-1.325","<span style=""font-size:30px; font-family: monospace"">durante</span>"," ","","exp-sent","durante","","",""
"","533","html-keyboard-response","397","503193","0.0-3.0-1.326","<span style=""font-size:30px; font-family: monospace"">a</span>"," ","","exp-sent","a","","",""
"","501","html-keyboard-response","398","503945","0.0-3.0-1.327","<span style=""font-size:30px; font-family: monospace"">tarde.</span>"," ","","exp-sent","tarde.","","",""
"","null","html-keyboard-response","399","505197","0.0-3.0-0.328-0.328","<span style= ""font-size:30px; font-family: monospace"">+</span>","null","fixation","","","","",""
"","79","html-keyboard-response","400","505529","0.0-3.0-1.328","<span style=""font-size:30px; font-family: monospace"">Algumas</span>"," ","","exp-sent","Algumas","","",""
"","564","html-keyboard-response","401","506345","0.0-3.0-1.329","<span style=""font-size:30px; font-family: monospace"">pessoas</span>"," ","","exp-sent","pessoas","","",""
"","533","html-keyboard-response","402","507129","0.0-3.0-1.330","<span style=""font-size:30px; font-family: monospace"">acreditam</span>"," ","","exp-sent","acreditam","","",""
"","581","html-keyboard-response","403","507961","0.0-3.0-1.331","<span style=""font-size:30px; font-family: monospace"">em</span>"," ","","exp-sent","em","","",""
"","532","html-keyboard-response","404","508745","0.0-3.0-1.332","<span style=""font-size:30px; font-family: monospace"">espíritos</span>"," ","","exp-sent","espíritos","","",""
"","533","html-keyboard-response","405","509529","0.0-3.0-1.333","<span style=""font-size:30px; font-family: monospace"">e</span>"," ","","exp-sent","e","","",""
"","438","html-keyboard-response","406","510217","0.0-3.0-1.334","<span style=""font-size:30px; font-family: monospace"">em</span>"," ","","exp-sent","em","","",""
"","485","html-keyboard-response","407","510953","0.0-3.0-1.335","<span style=""font-size:30px; font-family: monospace"">outras</span>"," ","","exp-sent","outras","","",""
"","533","html-keyboard-response","408","511737","0.0-3.0-1.336","<span style=""font-size:30px; font-family: monospace"">vidas.</span>"," ","","exp-sent","vidas.","","",""
"","null","html-keyboard-response","409","512988","0.0-3.0-0.337-0.337","<span style= ""font-size:30px; font-family: monospace"">+</span>","null","fixation","","","","",""
"","17","html-keyboard-response","410","513257","0.0-3.0-1.337","<span style=""font-size:30px; font-family: monospace"">Ela</span>"," ","","exp-sent","Ela","","",""
"","532","html-keyboard-response","411","514041","0.0-3.0-1.338","<span style=""font-size:30px; font-family: monospace"">gosta</span>"," ","","exp-sent","gosta","","",""
"","533","html-keyboard-response","412","514825","0.0-3.0-1.339","<span style=""font-size:30px; font-family: monospace"">de</span>"," ","","exp-sent","de","","",""
"","581","html-keyboard-response","413","515657","0.0-3.0-1.340","<span style=""font-size:30px; font-family: monospace"">estudar</span>"," ","","exp-sent","estudar","","",""
"","501","html-keyboard-response","414","516409","0.0-3.0-1.341","<span style=""font-size:30px; font-family: monospace"">matemática</span>"," ","","exp-sent","matemática","","",""
"","486","html-keyboard-response","415","517145","0.0-3.0-1.342","<span style=""font-size:30px; font-family: monospace"">com</span>"," ","","exp-sent","com","","",""
"","549","html-keyboard-response","416","517945","0.0-3.0-1.343","<span style=""font-size:30px; font-family: monospace"">colegas.</span>"," ","","comp","colegas.","","",""
"","901","html-keyboard-response","417","519097","0.0-3.0-2.343-0.343","<span style=""font-size:30px; font-family: monospace"">Ela gosta de estudar física?</span>","s","","comp","","Ela gosta de estudar física?","não","false"
"","null","html-keyboard-response","418","520598","0.0-3.0-0.344-0.344","<span style= ""font-size:30px; font-family: monospace"">+</span>","null","fixation","","","","",""
"","344","html-keyboard-response","419","521193","0.0-3.0-1.344","<span style=""font-size:30px; font-family: monospace"">O</span>"," ","","exp-sent","O","","",""
"","581","html-keyboard-response","420","522025","0.0-3.0-1.345","<span style=""font-size:30px; font-family: monospace"">texto</span>"," ","","exp-sent","texto","","",""
"","549","html-keyboard-response","421","522825","0.0-3.0-1.346","<span style=""font-size:30px; font-family: monospace"">trazia</span>"," ","","exp-sent","trazia","","",""
"","372","html-keyboard-response","422","523449","0.0-3.0-1.347","<span style=""font-size:30px; font-family: monospace"">um</span>"," ","","exp-sent","um","","",""
"","437","html-keyboard-response","423","524137","0.0-3.0-1.348","<span style=""font-size:30px; font-family: monospace"">argumento</span>"," ","","exp-sent","argumento","","",""
"","420","html-keyboard-response","424","524809","0.0-3.0-1.349","<span style=""font-size:30px; font-family: monospace"">central</span>"," ","","exp-sent","central","","",""
"","437","html-keyboard-response","425","525497","0.0-3.0-1.350","<span style=""font-size:30px; font-family: monospace"">para</span>"," ","","exp-sent","para","","",""
"","485","html-keyboard-response","426","526233","0.0-3.0-1.351","<span style=""font-size:30px; font-family: monospace"">a</span>"," ","","exp-sent","a","","",""
"","517","html-keyboard-response","427","527001","0.0-3.0-1.352","<span style=""font-size:30px; font-family: monospace"">conversa.</span>"," ","","exp-sent","conversa.","","",""
"","null","html-keyboard-response","428","528253","0.0-3.0-0.353-0.353","<span style= ""font-size:30px; font-family: monospace"">+</span>","null","fixation","","","","",""
"","33","html-keyboard-response","429","528537","0.0-3.0-1.353","<span style=""font-size:30px; font-family: monospace"">Ontem</span>"," ","","exp-sent","Ontem","","",""
"","581","html-keyboard-response","430","529369","0.0-3.0-1.354","<span style=""font-size:30px; font-family: monospace"">a</span>"," ","","exp-sent","a","","",""
"","549","html-keyboard-response","431","530169","0.0-3.0-1.355","<span style=""font-size:30px; font-family: monospace"">temperatura</span>"," ","","exp-sent","temperatura","","",""
"","773","html-keyboard-response","432","531193","0.0-3.0-1.356","<span style=""font-size:30px; font-family: monospace"">estava</span>"," ","","exp-sent","estava","","",""
"","613","html-keyboard-response","433","532057","0.0-3.0-1.357","<span style=""font-size:30px; font-family: monospace"">amena</span>"," ","","exp-sent","amena","","",""
"","501","html-keyboard-response","434","532809","0.0-3.0-1.358","<span style=""font-size:30px; font-family: monospace"">durante</span>"," ","","exp-sent","durante","","",""
"","469","html-keyboard-response","435","533529","0.0-3.0-1.359","<span style=""font-size:30px; font-family: monospace"">o</span>"," ","","exp-sent","o","","",""
"","517","html-keyboard-response","436","534297","0.0-3.0-1.360","<span style=""font-size:30px; font-family: monospace"">dia.</span>"," ","","exp-sent","dia.","","",""
"","null","html-keyboard-response","437","535548","0.0-3.0-0.361-0.361","<span style= ""font-size:30px; font-family: monospace"">+</span>","null","fixation","","","","",""
"","162","html-keyboard-response","438","535961","0.0-3.0-1.361","<span style=""font-size:30px; font-family: monospace"">Havia</span>"," ","","exp-sent","Havia","","",""
"","533","html-keyboard-response","439","536745","0.0-3.0-1.362","<span style=""font-size:30px; font-family: monospace"">um</span>"," ","","exp-sent","um","","",""
"","501","html-keyboard-response","440","537497","0.0-3.0-1.363","<span style=""font-size:30px; font-family: monospace"">machucado</span>"," ","","exp-sent","machucado","","",""
"","485","html-keyboard-response","441","538233","0.0-3.0-1.364","<span style=""font-size:30px; font-family: monospace"">no</span>"," ","","exp-sent","no","","",""
"","437","html-keyboard-response","442","538921","0.0-3.0-1.365","<span style=""font-size:30px; font-family: monospace"">dedo</span>"," ","","exp-sent","dedo","","",""
"","517","html-keyboard-response","443","539689","0.0-3.0-1.366","<span style=""font-size:30px; font-family: monospace"">da</span>"," ","","exp-sent","da","","",""
"","517","html-keyboard-response","444","540457","0.0-3.0-1.367","<span style=""font-size:30px; font-family: monospace"">criança.</span>"," ","","exp-sent","criança.","","",""
"","null","html-keyboard-response","445","541709","0.0-3.0-0.368-0.368","<span style= ""font-size:30px; font-family: monospace"">+</span>","null","fixation","","","","",""
"","113","html-keyboard-response","446","542073","0.0-3.0-1.368","<span style=""font-size:30px; font-family: monospace"">A</span>"," ","","exp-sent","A","","",""
"","596","html-keyboard-response","447","542921","0.0-3.0-1.369","<span style=""font-size:30px; font-family: monospace"">borboleta</span>"," ","","exp-sent","borboleta","","",""
"","453","html-keyboard-response","448","543625","0.0-3.0-1.370","<span style=""font-size:30px; font-family: monospace"">pousou</span>"," ","","exp-sent","pousou","","",""
"","549","html-keyboard-response","449","544425","0.0-3.0-1.371","<span style=""font-size:30px; font-family: monospace"">no</span>"," ","","exp-sent","no","","",""
"","484","html-keyboard-response","450","545161","0.0-3.0-1.372","<span style=""font-size:30px; font-family: monospace"">ombro</span>"," ","","exp-sent","ombro","","",""
"","516","html-keyboard-response","451","545929","0.0-3.0-1.373","<span style=""font-size:30px; font-family: monospace"">daquela</span>"," ","","exp-sent","daquela","","",""
"","566","html-keyboard-response","452","546746","0.0-3.0-1.374","<span style=""font-size:30px; font-family: monospace"">moça.</span>"," ","","exp-sent","moça.","","",""
"","null","html-keyboard-response","453","547997","0.0-3.0-0.375-0.375","<span style= ""font-size:30px; font-family: monospace"">+</span>","null","fixation","","","","",""
"","578","html-keyboard-response","454","548825","0.0-3.0-1.375","<span style=""font-size:30px; font-family: monospace"">Eu</span>"," ","","exp-sent","Eu","","",""
"","438","html-keyboard-response","455","549513","0.0-3.0-1.376","<span style=""font-size:30px; font-family: monospace"">quero</span>"," ","","exp-sent","quero","","",""
"","373","html-keyboard-response","456","550137","0.0-3.0-1.377","<span style=""font-size:30px; font-family: monospace"">um</span>"," ","","exp-sent","um","","",""
"","405","html-keyboard-response","457","550793","0.0-3.0-1.378","<span style=""font-size:30px; font-family: monospace"">namorado</span>"," ","","exp-sent","namorado","","",""
"","357","html-keyboard-response","458","551401","0.0-3.0-1.379","<span style=""font-size:30px; font-family: monospace"">honesto</span>"," ","","exp-sent","honesto","","",""
"","437","html-keyboard-response","459","552089","0.0-3.0-1.380","<span style=""font-size:30px; font-family: monospace"">e</span>"," ","","exp-sent","e","","",""
"","468","html-keyboard-response","460","552809","0.0-3.0-1.381","<span style=""font-size:30px; font-family: monospace"">compreensivo.</span>"," ","","comp","compreensivo.","","",""
"","917","html-keyboard-response","461","553977","0.0-3.0-2.381-0.381","<span style=""font-size:30px; font-family: monospace"">Eu quero um namorado honesto?</span>","s","","comp","","Eu quero um namorado honesto?","sim","false"
"","null","html-keyboard-response","462","555479","0.0-3.0-0.382-0.382","<span style= ""font-size:30px; font-family: monospace"">+</span>","null","fixation","","","","",""
"","742","html-keyboard-response","463","556473","0.0-3.0-1.382","<span style=""font-size:30px; font-family: monospace"">Preciso</span>"," ","","exp-sent","Preciso","","",""
"","436","html-keyboard-response","464","557161","0.0-3.0-1.383","<span style=""font-size:30px; font-family: monospace"">de</span>"," ","","exp-sent","de","","",""
"","644","html-keyboard-response","465","558057","0.0-3.0-1.384","<span style=""font-size:30px; font-family: monospace"">um</span>"," ","","exp-sent","um","","",""
"","501","html-keyboard-response","466","558809","0.0-3.0-1.385","<span style=""font-size:30px; font-family: monospace"">relatório</span>"," ","","exp-sent","relatório","","",""
"","404","html-keyboard-response","467","559465","0.0-3.0-1.386","<span style=""font-size:30px; font-family: monospace"">oficial</span>"," ","","exp-sent","oficial","","",""
"","437","html-keyboard-response","468","560153","0.0-3.0-1.387","<span style=""font-size:30px; font-family: monospace"">para</span>"," ","","exp-sent","para","","",""
"","277","html-keyboard-response","469","560681","0.0-3.0-1.388","<span style=""font-size:30px; font-family: monospace"">amanhã.</span>"," ","","exp-sent","amanhã.","","",""
"","null","html-keyboard-response","470","561932","0.0-3.0-0.389-0.389","<span style= ""font-size:30px; font-family: monospace"">+</span>","null","fixation","","","","",""
"","466","html-keyboard-response","471","562649","0.0-3.0-1.389","<span style=""font-size:30px; font-family: monospace"">Ele</span>"," ","","exp-sent","Ele","","",""
"","389","html-keyboard-response","472","563289","0.0-3.0-1.390","<span style=""font-size:30px; font-family: monospace"">viu</span>"," ","","exp-sent","viu","","",""
"","373","html-keyboard-response","473","563913","0.0-3.0-1.391","<span style=""font-size:30px; font-family: monospace"">um</span>"," ","","exp-sent","um","","",""
"","436","html-keyboard-response","474","564601","0.0-3.0-1.392","<span style=""font-size:30px; font-family: monospace"">inseto</span>"," ","","exp-sent","inseto","","",""
"","389","html-keyboard-response","475","565241","0.0-3.0-1.393","<span style=""font-size:30px; font-family: monospace"">marrom</span>"," ","","exp-sent","marrom","","",""
"","421","html-keyboard-response","476","565913","0.0-3.0-1.394","<span style=""font-size:30px; font-family: monospace"">na</span>"," ","","exp-sent","na","","",""
"","373","html-keyboard-response","477","566537","0.0-3.0-1.395","<span style=""font-size:30px; font-family: monospace"">parede.</span>"," ","","exp-sent","parede.","","",""
"","null","html-keyboard-response","478","567789","0.0-3.0-0.396-0.396","<span style= ""font-size:30px; font-family: monospace"">+</span>","null","fixation","","","","",""
"","129","html-keyboard-response","479","568169","0.0-3.0-1.396","<span style=""font-size:30px; font-family: monospace"">O</span>"," ","","exp-sent","O","","",""
"","437","html-keyboard-response","480","568857","0.0-3.0-1.397","<span style=""font-size:30px; font-family: monospace"">avô</span>"," ","","exp-sent","avô","","",""
"","421","html-keyboard-response","481","569529","0.0-3.0-1.398","<span style=""font-size:30px; font-family: monospace"">fez</span>"," ","","exp-sent","fez","","",""
"","405","html-keyboard-response","482","570185","0.0-3.0-1.399","<span style=""font-size:30px; font-family: monospace"">uma</span>"," ","","exp-sent","uma","","",""
"","389","html-keyboard-response","483","570825","0.0-3.0-1.400","<span style=""font-size:30px; font-family: monospace"">lista</span>"," ","","exp-sent","lista","","",""
"","421","html-keyboard-response","484","571497","0.0-3.0-1.401","<span style=""font-size:30px; font-family: monospace"">de</span>"," ","","exp-sent","de","","",""
"","469","html-keyboard-response","485","572217","0.0-3.0-1.402","<span style=""font-size:30px; font-family: monospace"">compras</span>"," ","","exp-sent","compras","","",""
"","373","html-keyboard-response","486","572841","0.0-3.0-1.403","<span style=""font-size:30px; font-family: monospace"">do</span>"," ","","exp-sent","do","","",""
"","388","html-keyboard-response","487","573481","0.0-3.0-1.404","<span style=""font-size:30px; font-family: monospace"">mercado.</span>"," ","","exp-sent","mercado.","","",""
"","null","html-keyboard-response","488","574733","0.0-3.0-0.405-0.405","<span style= ""font-size:30px; font-family: monospace"">+</span>","null","fixation","","","","",""
"","65","html-keyboard-response","489","575049","0.0-3.0-1.405","<span style=""font-size:30px; font-family: monospace"">As</span>"," ","","exp-sent","As","","",""
"","533","html-keyboard-response","490","575833","0.0-3.0-1.406","<span style=""font-size:30px; font-family: monospace"">pessoas</span>"," ","","exp-sent","pessoas","","",""
"","469","html-keyboard-response","491","576553","0.0-3.0-1.407","<span style=""font-size:30px; font-family: monospace"">não</span>"," ","","exp-sent","não","","",""
"","405","html-keyboard-response","492","577209","0.0-3.0-1.408","<span style=""font-size:30px; font-family: monospace"">enviam</span>"," ","","exp-sent","enviam","","",""
"","389","html-keyboard-response","493","577849","0.0-3.0-1.409","<span style=""font-size:30px; font-family: monospace"">telegrama</span>"," ","","exp-sent","telegrama","","",""
"","470","html-keyboard-response","494","578569","0.0-3.0-1.410","<span style=""font-size:30px; font-family: monospace"">nos</span>"," ","","exp-sent","nos","","",""
"","277","html-keyboard-response","495","579097","0.0-3.0-1.411","<span style=""font-size:30px; font-family: monospace"">dias</span>"," ","","exp-sent","dias","","",""
"","389","html-keyboard-response","496","579737","0.0-3.0-1.412","<span style=""font-size:30px; font-family: monospace"">de</span>"," ","","exp-sent","de","","",""
"","373","html-keyboard-response","497","580361","0.0-3.0-1.413","<span style=""font-size:30px; font-family: monospace"">hoje.</span>"," ","","exp-sent","hoje.","","",""
"","null","html-keyboard-response","498","581614","0.0-3.0-0.414-0.414","<span style= ""font-size:30px; font-family: monospace"">+</span>","null","fixation","","","","",""
"","544","html-keyboard-response","499","582409","0.0-3.0-1.414","<span style=""font-size:30px; font-family: monospace"">Ele</span>"," ","","exp-sent","Ele","","",""
"","417","html-keyboard-response","500","583081","0.0-3.0-1.415","<span style=""font-size:30px; font-family: monospace"">não</span>"," ","","exp-sent","não","","",""
"","405","html-keyboard-response","501","583737","0.0-3.0-1.416","<span style=""font-size:30px; font-family: monospace"">gosta</span>"," ","","exp-sent","gosta","","",""
"","356","html-keyboard-response","502","584345","0.0-3.0-1.417","<span style=""font-size:30px; font-family: monospace"">de</span>"," ","","exp-sent","de","","",""
"","293","html-keyboard-response","503","584889","0.0-3.0-1.418","<span style=""font-size:30px; font-family: monospace"">tomate</span>"," ","","exp-sent","tomate","","",""
"","228","html-keyboard-response","504","585369","0.0-3.0-1.419","<span style=""font-size:30px; font-family: monospace"">misturado</span>"," ","","exp-sent","misturado","","",""
"","213","html-keyboard-response","505","585833","0.0-3.0-1.420","<span style=""font-size:30px; font-family: monospace"">na</span>"," ","","exp-sent","na","","",""
"","213","html-keyboard-response","506","586297","0.0-3.0-1.421","<span style=""font-size:30px; font-family: monospace"">comida.</span>"," ","","comp","comida.","","",""
"","725","html-keyboard-response","507","587273","0.0-3.0-2.421-0.421","<span style=""font-size:30px; font-family: monospace"">Ele gosta de tomate na comida?</span>","s","","comp","","Ele gosta de tomate na comida?","não","false"
"","null","html-keyboard-response","508","588776","0.0-3.0-0.422-0.422","<span style= ""font-size:30px; font-family: monospace"">+</span>","null","fixation","","","","",""
"","150","html-keyboard-response","509","589177","0.0-3.0-1.422","<span style=""font-size:30px; font-family: monospace"">A</span>"," ","","exp-sent","A","","",""
"","325","html-keyboard-response","510","589753","0.0-3.0-1.423","<span style=""font-size:30px; font-family: monospace"">senhora</span>"," ","","exp-sent","senhora","","",""
"","437","html-keyboard-response","511","590441","0.0-3.0-1.424","<span style=""font-size:30px; font-family: monospace"">cumprimentou</span>"," ","","exp-sent","cumprimentou","","",""
"","437","html-keyboard-response","512","591129","0.0-3.0-1.425","<span style=""font-size:30px; font-family: monospace"">o</span>"," ","","exp-sent","o","","",""
"","453","html-keyboard-response","513","591833","0.0-3.0-1.426","<span style=""font-size:30px; font-family: monospace"">operador</span>"," ","","exp-sent","operador","","",""
"","453","html-keyboard-response","514","592537","0.0-3.0-1.427","<span style=""font-size:30px; font-family: monospace"">de</span>"," ","","exp-sent","de","","",""
"","423","html-keyboard-response","515","593225","0.0-3.0-1.428","<span style=""font-size:30px; font-family: monospace"">caixa.</span>"," ","","exp-sent","caixa.","","",""
"","null","html-keyboard-response","516","594478","0.0-3.0-0.429-0.429","<span style= ""font-size:30px; font-family: monospace"">+</span>","null","fixation","","","","",""
"","496","html-keyboard-response","517","595225","0.0-3.0-1.429","<span style=""font-size:30px; font-family: monospace"">A</span>"," ","","exp-sent","A","","",""
"","357","html-keyboard-response","518","595833","0.0-3.0-1.430","<span style=""font-size:30px; font-family: monospace"">gente</span>"," ","","exp-sent","gente","","",""
"","372","html-keyboard-response","519","596457","0.0-3.0-1.431","<span style=""font-size:30px; font-family: monospace"">viu</span>"," ","","exp-sent","viu","","",""
"","452","html-keyboard-response","520","597161","0.0-3.0-1.432","<span style=""font-size:30px; font-family: monospace"">o</span>"," ","","exp-sent","o","","",""
"","533","html-keyboard-response","521","597945","0.0-3.0-1.433","<span style=""font-size:30px; font-family: monospace"">eclipse</span>"," ","","exp-sent","eclipse","","",""
"","405","html-keyboard-response","522","598601","0.0-3.0-1.434","<span style=""font-size:30px; font-family: monospace"">lunar</span>"," ","","exp-sent","lunar","","",""
"","437","html-keyboard-response","523","599289","0.0-3.0-1.435","<span style=""font-size:30px; font-family: monospace"">durante</span>"," ","","exp-sent","durante","","",""
"","469","html-keyboard-response","524","600009","0.0-3.0-1.436","<span style=""font-size:30px; font-family: monospace"">o</span>"," ","","exp-sent","o","","",""
"","438","html-keyboard-response","525","600697","0.0-3.0-1.437","<span style=""font-size:30px; font-family: monospace"">dia.</span>"," ","","exp-sent","dia.","","",""
"","null","html-keyboard-response","526","601950","0.0-3.0-0.438-0.438","<span style= ""font-size:30px; font-family: monospace"">+</span>","null","fixation","","","","",""
"","48","html-keyboard-response","527","602249","0.0-3.0-1.438","<span style=""font-size:30px; font-family: monospace"">A</span>"," ","","exp-sent","A","","",""
"","517","html-keyboard-response","528","603017","0.0-3.0-1.439","<span style=""font-size:30px; font-family: monospace"">mordida</span>"," ","","exp-sent","mordida","","",""
"","341","html-keyboard-response","529","603609","0.0-3.0-1.440","<span style=""font-size:30px; font-family: monospace"">do</span>"," ","","exp-sent","do","","",""
"","437","html-keyboard-response","530","604297","0.0-3.0-1.441","<span style=""font-size:30px; font-family: monospace"">cachorro</span>"," ","","exp-sent","cachorro","","",""
"","390","html-keyboard-response","531","604937","0.0-3.0-1.442","<span style=""font-size:30px; font-family: monospace"">voraz</span>"," ","","exp-sent","voraz","","",""
"","420","html-keyboard-response","532","605609","0.0-3.0-1.443","<span style=""font-size:30px; font-family: monospace"">causou</span>"," ","","exp-sent","causou","","",""
"","373","html-keyboard-response","533","606233","0.0-3.0-1.444","<span style=""font-size:30px; font-family: monospace"">uma</span>"," ","","exp-sent","uma","","",""
"","325","html-keyboard-response","534","606809","0.0-3.0-1.445","<span style=""font-size:30px; font-family: monospace"">cicatriz.</span>"," ","","exp-sent","cicatriz.","","",""
"","null","html-keyboard-response","535","608061","0.0-3.0-0.446-0.446","<span style= ""font-size:30px; font-family: monospace"">+</span>","null","fixation","","","","",""
"","529","html-keyboard-response","536","608841","0.0-3.0-1.446","<span style=""font-size:30px; font-family: monospace"">Elas</span>"," ","","exp-sent","Elas","","",""
"","325","html-keyboard-response","537","609417","0.0-3.0-1.447","<span style=""font-size:30px; font-family: monospace"">não</span>"," ","","exp-sent","não","","",""
"","389","html-keyboard-response","538","610057","0.0-3.0-1.448","<span style=""font-size:30px; font-family: monospace"">viram</span>"," ","","exp-sent","viram","","",""
"","325","html-keyboard-response","539","610633","0.0-3.0-1.449","<span style=""font-size:30px; font-family: monospace"">nenhuma</span>"," ","","exp-sent","nenhuma","","",""
"","357","html-keyboard-response","540","611241","0.0-3.0-1.450","<span style=""font-size:30px; font-family: monospace"">diferença</span>"," ","","exp-sent","diferença","","",""
"","326","html-keyboard-response","541","611817","0.0-3.0-1.451","<span style=""font-size:30px; font-family: monospace"">entre</span>"," ","","exp-sent","entre","","",""
"","293","html-keyboard-response","542","612361","0.0-3.0-1.452","<span style=""font-size:30px; font-family: monospace"">os</span>"," ","","exp-sent","os","","",""
"","389","html-keyboard-response","543","613001","0.0-3.0-1.453","<span style=""font-size:30px; font-family: monospace"">textos.</span>"," ","","exp-sent","textos.","","",""
"","null","html-keyboard-response","544","614252","0.0-3.0-0.454-0.454","<span style= ""font-size:30px; font-family: monospace"">+</span>","null","fixation","","","","",""
"","210","html-keyboard-response","545","614713","0.0-3.0-1.454","<span style=""font-size:30px; font-family: monospace"">Amanhã</span>"," ","","exp-sent","Amanhã","","",""
"","613","html-keyboard-response","546","615577","0.0-3.0-1.455","<span style=""font-size:30px; font-family: monospace"">vai</span>"," ","","exp-sent","vai","","",""
"","373","html-keyboard-response","547","616201","0.0-3.0-1.456","<span style=""font-size:30px; font-family: monospace"">ter</span>"," ","","exp-sent","ter","","",""
"","405","html-keyboard-response","548","616857","0.0-3.0-1.457","<span style=""font-size:30px; font-family: monospace"">um</span>"," ","","exp-sent","um","","",""
"","340","html-keyboard-response","549","617449","0.0-3.0-1.458","<span style=""font-size:30px; font-family: monospace"">bazar</span>"," ","","exp-sent","bazar","","",""
"","373","html-keyboard-response","550","618073","0.0-3.0-1.459","<span style=""font-size:30px; font-family: monospace"">no</span>"," ","","exp-sent","no","","",""
"","340","html-keyboard-response","551","618665","0.0-3.0-1.460","<span style=""font-size:30px; font-family: monospace"">bairro.</span>"," ","","comp","bairro.","","",""
"","469","html-keyboard-response","552","619385","0.0-3.0-2.460-0.460","<span style=""font-size:30px; font-family: monospace"">Amanhã vai acontecer um bazar no bairro?</span>","s","","comp","","Amanhã vai acontecer um bazar no bairro?","sim","false"
"","null","html-keyboard-response","553","620887","0.0-3.0-0.461-0.461","<span style= ""font-size:30px; font-family: monospace"">+</span>","null","fixation","","","","",""
"","448","html-keyboard-response","554","621593","0.0-3.0-1.461","<span style=""font-size:30px; font-family: monospace"">Ele</span>"," ","","exp-sent","Ele","","",""
"","389","html-keyboard-response","555","622233","0.0-3.0-1.462","<span style=""font-size:30px; font-family: monospace"">é</span>"," ","","exp-sent","é","","",""
"","277","html-keyboard-response","556","622761","0.0-3.0-1.463","<span style=""font-size:30px; font-family: monospace"">um</span>"," ","","exp-sent","um","","",""
"","325","html-keyboard-response","557","623337","0.0-3.0-1.464","<span style=""font-size:30px; font-family: monospace"">pai</span>"," ","","exp-sent","pai","","",""
"","293","html-keyboard-response","558","623881","0.0-3.0-1.465","<span style=""font-size:30px; font-family: monospace"">ausente</span>"," ","","exp-sent","ausente","","",""
"","358","html-keyboard-response","559","624489","0.0-3.0-1.466","<span style=""font-size:30px; font-family: monospace"">e</span>"," ","","exp-sent","e","","",""
"","516","html-keyboard-response","560","625257","0.0-3.0-1.467","<span style=""font-size:30px; font-family: monospace"">muito</span>"," ","","exp-sent","muito","","",""
"","453","html-keyboard-response","561","625961","0.0-3.0-1.468","<span style=""font-size:30px; font-family: monospace"">fofoqueiro.</span>"," ","","exp-sent","fofoqueiro.","","",""
"","null","html-keyboard-response","562","627212","0.0-3.0-0.469-0.469","<span style= ""font-size:30px; font-family: monospace"">+</span>","null","fixation","","","","",""
"","546","html-keyboard-response","563","628009","0.0-3.0-1.469","<span style=""font-size:30px; font-family: monospace"">O</span>"," ","","exp-sent","O","","",""
"","597","html-keyboard-response","564","628857","0.0-3.0-1.470","<span style=""font-size:30px; font-family: monospace"">filho</span>"," ","","exp-sent","filho","","",""
"","629","html-keyboard-response","565","629737","0.0-3.0-1.471","<span style=""font-size:30px; font-family: monospace"">lavou</span>"," ","","exp-sent","lavou","","",""
"","580","html-keyboard-response","566","630569","0.0-3.0-1.472","<span style=""font-size:30px; font-family: monospace"">a</span>"," ","","exp-sent","a","","",""
"","455","html-keyboard-response","567","631289","0.0-3.0-1.473","<span style=""font-size:30px; font-family: monospace"">roupa</span>"," ","","exp-sent","roupa","","",""
"","422","html-keyboard-response","568","631961","0.0-3.0-1.474","<span style=""font-size:30px; font-family: monospace"">sem</span>"," ","","exp-sent","sem","","",""
"","645","html-keyboard-response","569","632857","0.0-3.0-1.475","<span style=""font-size:30px; font-family: monospace"">nenhuma</span>"," ","","exp-sent","nenhuma","","",""
"","373","html-keyboard-response","570","633481","0.0-3.0-1.476","<span style=""font-size:30px; font-family: monospace"">ajuda.</span>"," ","","exp-sent","ajuda.","","",""
"","null","html-keyboard-response","571","634733","0.0-3.0-0.477-0.477","<span style= ""font-size:30px; font-family: monospace"">+</span>","null","fixation","","","","",""
"","225","html-keyboard-response","572","635209","0.0-3.0-1.477","<span style=""font-size:30px; font-family: monospace"">O</span>"," ","","exp-sent","O","","",""
"","357","html-keyboard-response","573","635817","0.0-3.0-1.478","<span style=""font-size:30px; font-family: monospace"">menino</span>"," ","","exp-sent","menino","","",""
"","309","html-keyboard-response","574","636377","0.0-3.0-1.479","<span style=""font-size:30px; font-family: monospace"">quebrou</span>"," ","","exp-sent","quebrou","","",""
"","340","html-keyboard-response","575","636969","0.0-3.0-1.480","<span style=""font-size:30px; font-family: monospace"">a</span>"," ","","exp-sent","a","","",""
"","309","html-keyboard-response","576","637529","0.0-3.0-1.481","<span style=""font-size:30px; font-family: monospace"">perna</span>"," ","","exp-sent","perna","","",""
"","341","html-keyboard-response","577","638121","0.0-3.0-1.482","<span style=""font-size:30px; font-family: monospace"">nos</span>"," ","","exp-sent","nos","","",""
"","389","html-keyboard-response","578","638761","0.0-3.0-1.483","<span style=""font-size:30px; font-family: monospace"">esportes.</span>"," ","","exp-sent","esportes.","","",""
"","null","html-keyboard-response","579","640013","0.0-3.0-0.484-0.484","<span style= ""font-size:30px; font-family: monospace"">+</span>","null","fixation","","","","",""
"","177","html-keyboard-response","580","640441","0.0-3.0-1.484","<span style=""font-size:30px; font-family: monospace"">Ela</span>"," ","","exp-sent","Ela","","",""
"","373","html-keyboard-response","581","641065","0.0-3.0-1.485","<span style=""font-size:30px; font-family: monospace"">brincou</span>"," ","","exp-sent","brincou","","",""
"","357","html-keyboard-response","582","641673","0.0-3.0-1.486","<span style=""font-size:30px; font-family: monospace"">com</span>"," ","","exp-sent","com","","",""
"","452","html-keyboard-response","583","642377","0.0-3.0-1.487","<span style=""font-size:30px; font-family: monospace"">uma</span>"," ","","exp-sent","uma","","",""
"","373","html-keyboard-response","584","643001","0.0-3.0-1.488","<span style=""font-size:30px; font-family: monospace"">menina</span>"," ","","exp-sent","menina","","",""
