[
	{
		"view_history": [
			{
				"page_index": 0,
				"viewing_time": 16053
			}
		],
		"rt": 16054,
		"trial_type": "instructions",
		"trial_index": 0,
		"time_elapsed": 16076,
		"internal_node_id": "0.0-0.0"
	},
	{
		"rt": 388357,
		"response": {
			"tcle": "Concordo voluntariamente em participar da pesquisa conforme texto acima."
		},
		"question_order": [
			0
		],
		"trial_type": "survey-multi-choice",
		"trial_index": 1,
		"time_elapsed": 404635,
		"internal_node_id": "0.0-1.0"
	},
	{
		"rt": 53008,
		"response": {
			"email": "gk100"
		},
		"trial_type": "survey-text",
		"trial_index": 2,
		"time_elapsed": 458651,
		"internal_node_id": "0.0-2.0"
	}
]