"view_history","rt","trial_type","trial_index","time_elapsed","internal_node_id","stimulus","response","trial_part","word","question","answer","trial","accuracy"
"[{""page_index"":0,""viewing_time"":64128},{""page_index"":1,""viewing_time"":13328}]","77456","instructions","0","77457","0.0-0.0","","","","","","","",""
"","null","html-keyboard-response","1","78559","0.0-1.0-0.0-0.0","<span style= ""font-size:30px; font-family: monospace"">+</span>","null","fixation","","","","",""
"","5160","audio-keyboard-response","2","84312","0.0-1.0-1.0","../audio/prac-question-1-1.mp3"," ","","O","","","",""
"","2971","audio-keyboard-response","3","87560","0.0-1.0-1.1","../audio/prac-question-1-2.mp3"," ","","dia","","","",""
"","2211","audio-keyboard-response","4","90056","0.0-1.0-1.2","../audio/prac-question-1-3.mp3"," ","","estará","","","",""
"","2120","audio-keyboard-response","5","92456","0.0-1.0-1.3","../audio/prac-question-1-4.mp3"," ","","cheio","","","",""
"","1459","audio-keyboard-response","6","94200","0.0-1.0-1.4","../audio/prac-question-1-5.mp3"," ","","de","","","",""
"","1741","audio-keyboard-response","7","96216","0.0-1.0-1.5","../audio/prac-question-1-6.mp3"," ","","nuvens","","","",""
"","1459","audio-keyboard-response","8","97960","0.0-1.0-1.6","../audio/prac-question-1-7.mp3"," ","","hoje.","","","",""
"","null","html-keyboard-response","9","99237","0.0-1.0-0.7-0.7","<span style= ""font-size:30px; font-family: monospace"">+</span>","null","fixation","","","","",""
"","1280","audio-keyboard-response","10","100792","0.0-1.0-1.7","../audio/prac-question-2-1.mp3"," ","","A","","","",""
"","2080","audio-keyboard-response","11","103160","0.0-1.0-1.8","../audio/prac-question-2-2.mp3"," ","","caneca","","","",""
"","1851","audio-keyboard-response","12","105288","0.0-1.0-1.9","../audio/prac-question-2-3.mp3"," ","","colorida","","","",""
"","1659","audio-keyboard-response","13","107224","0.0-1.0-1.10","../audio/prac-question-2-4.mp3"," ","","caiu","","","",""
"","1229","audio-keyboard-response","14","108728","0.0-1.0-1.11","../audio/prac-question-2-5.mp3"," ","","da","","","",""
"","1221","audio-keyboard-response","15","110216","0.0-1.0-1.12","../audio/prac-question-2-6.mp3"," ","","mesa","","","",""
"","1029","audio-keyboard-response","16","111528","0.0-1.0-1.13","../audio/prac-question-2-7.mp3"," ","","de","","","",""
"","1320","audio-keyboard-response","17","113128","0.0-1.0-1.14","../audio/prac-question-2-8.mp3"," ","","jantar.","","","",""
"","26850","html-keyboard-response","18","140231","0.0-1.0-2.14-0.14","<span style=""font-size:25px; font-family: monospace"">A caneca era colorida?</span>","s","","","A caneca era colorida?","null","prac-sent","false"
"[{""page_index"":0,""viewing_time"":30409}]","30409","instructions","19","171152","0.0-2.0","","","","","","","",""
"","null","html-keyboard-response","20","172254","0.0-3.0-0.0-0.0","<span style= ""font-size:30px; font-family: monospace"">+</span>","null","fixation","","","","",""
"","3688","audio-keyboard-response","21","176312","0.0-3.0-1.0","../audio/69-1-masc.mp3"," ","","A","","","",""
"","1731","audio-keyboard-response","22","178312","0.0-3.0-1.1","../audio/69-2-masc.mp3"," ","","loja","","","",""
"","1568","audio-keyboard-response","23","180151","0.0-3.0-1.2","../audio/69-3-masc.mp3"," ","","recebeu","","","",""
"","1560","audio-keyboard-response","24","181991","0.0-3.0-1.3","../audio/69-4-masc.mp3"," ","","uma","","","",""
"","1789","audio-keyboard-response","25","184071","0.0-3.0-1.4","../audio/69-5-masc.mp3"," ","","poltrona","","","",""
"","1152","audio-keyboard-response","26","185495","0.0-3.0-1.5","../audio/69-6-masc.mp3"," ","","de","","","",""
"","1779","audio-keyboard-response","27","187559","0.0-3.0-1.6","../audio/69-7-masc.mp3"," ","","couro","","","",""
"","4189","audio-keyboard-response","28","192023","0.0-3.0-1.7","../audio/69-8-masc.mp3"," ","","preto.","","","",""
"","null","html-keyboard-response","29","193292","0.0-3.0-0.8-0.8","<span style= ""font-size:30px; font-family: monospace"">+</span>","null","fixation","","","","",""
"","1659","audio-keyboard-response","30","195239","0.0-3.0-1.8","../audio/68-1-fem.mp3"," ","","Meu","","","",""
"","1789","audio-keyboard-response","31","197303","0.0-3.0-1.9","../audio/68-2-fem.mp3"," ","","irmão","","","",""
"","2128","audio-keyboard-response","32","199703","0.0-3.0-1.10","../audio/68-3-fem.mp3"," ","","teve","","","",""
"","1808","audio-keyboard-response","33","201782","0.0-3.0-1.11","../audio/68-4-fem.mp3"," ","","um","","","",""
"","2131","audio-keyboard-response","34","204199","0.0-3.0-1.12","../audio/68-5-fem.mp3"," ","","noivado","","","",""
"","1781","audio-keyboard-response","35","206247","0.0-3.0-1.13","../audio/68-6-fem.mp3"," ","","longo","","","",""
"","1160","audio-keyboard-response","36","207687","0.0-3.0-1.14","../audio/68-7-fem.mp3"," ","","e","","","",""
"","1979","audio-keyboard-response","37","209942","0.0-3.0-1.15","../audio/68-8-fem.mp3"," ","","maravilhoso.","","","",""
"","null","html-keyboard-response","38","211212","0.0-3.0-0.16-0.16","<span style= ""font-size:30px; font-family: monospace"">+</span>","null","fixation","","","","",""
"","1469","audio-keyboard-response","39","212967","0.0-3.0-1.16","../audio/66-1-masc.mp3"," ","","Não","","","",""
"","1309","audio-keyboard-response","40","214551","0.0-3.0-1.17","../audio/66-2-masc.mp3"," ","","gosto","","","",""
"","1269","audio-keyboard-response","41","216087","0.0-3.0-1.18","../audio/66-3-masc.mp3"," ","","de","","","",""
"","1219","audio-keyboard-response","42","217591","0.0-3.0-1.19","../audio/66-4-masc.mp3"," ","","gente","","","",""
"","1400","audio-keyboard-response","43","219271","0.0-3.0-1.20","../audio/66-5-masc.mp3"," ","","egoísta","","","",""
"","1200","audio-keyboard-response","44","220743","0.0-3.0-1.21","../audio/66-6-masc.mp3"," ","","nem","","","",""
"","1128","audio-keyboard-response","45","222151","0.0-3.0-1.22","../audio/66-7-masc.mp3"," ","","chata.","","","",""
"","null","html-keyboard-response","46","223423","0.0-3.0-0.23-0.23","<span style= ""font-size:30px; font-family: monospace"">+</span>","null","fixation","","","","",""
"","1328","audio-keyboard-response","47","225031","0.0-3.0-1.23","../audio/67-1-masc.mp3"," ","","Minha","","","",""
"","1101","audio-keyboard-response","48","226407","0.0-3.0-1.24","../audio/67-2-masc.mp3"," ","","tia","","","",""
"","1141","audio-keyboard-response","49","227815","0.0-3.0-1.25","../audio/67-3-masc.mp3"," ","","comprou","","","",""
"","1229","audio-keyboard-response","50","229319","0.0-3.0-1.26","../audio/67-4-masc.mp3"," ","","um","","","",""
"","1160","audio-keyboard-response","51","230759","0.0-3.0-1.27","../audio/67-5-masc.mp3"," ","","cordão","","","",""
"","1080","audio-keyboard-response","52","232102","0.0-3.0-1.28","../audio/67-6-masc.mp3"," ","","para","","","",""
"","880","audio-keyboard-response","53","233255","0.0-3.0-1.29","../audio/67-7-masc.mp3"," ","","o","","","",""
"","1168","audio-keyboard-response","54","234711","0.0-3.0-1.30","../audio/67-8-masc.mp3"," ","","varal.","","","",""
"","null","html-keyboard-response","55","235983","0.0-3.0-0.31-0.31","<span style= ""font-size:30px; font-family: monospace"">+</span>","null","fixation","","","","",""
"","1408","audio-keyboard-response","56","237671","0.0-3.0-1.31","../audio/70-1-fem.mp3"," ","","O","","","",""
"","1240","audio-keyboard-response","57","239191","0.0-3.0-1.32","../audio/70-2-fem.mp3"," ","","meu","","","",""
"","1072","audio-keyboard-response","58","240535","0.0-3.0-1.33","../audio/70-3-fem.mp3"," ","","filho","","","",""
"","939","audio-keyboard-response","59","241751","0.0-3.0-1.34","../audio/70-4-fem.mp3"," ","","tem","","","",""
"","1139","audio-keyboard-response","60","243158","0.0-3.0-1.35","../audio/70-5-fem.mp3"," ","","medo","","","",""
"","949","audio-keyboard-response","61","244391","0.0-3.0-1.36","../audio/70-6-fem.mp3"," ","","de","","","",""
"","1392","audio-keyboard-response","62","246055","0.0-3.0-1.37","../audio/70-7-fem.mp3"," ","","enguia","","","",""
"","869","audio-keyboard-response","63","247207","0.0-3.0-1.38","../audio/70-8-fem.mp3"," ","","e","","","",""
"","1099","audio-keyboard-response","64","248583","0.0-3.0-1.39","../audio/70-9-fem.mp3"," ","","beija-flor.","","","",""
"","25618","html-keyboard-response","65","274454","0.0-3.0-2.39-0.39","<span style=""font-size:25px; font-family: monospace"">O filho tem medo de tigre?</span>","s","","","O filho tem medo de tigre?","null","exp-sent","false"
"","null","html-keyboard-response","66","275985","0.0-3.0-0.40-0.40","<span style= ""font-size:30px; font-family: monospace"">+</span>","null","fixation","","","","",""
"","2160","audio-keyboard-response","67","278406","0.0-3.0-1.40","../audio/43-1-masc.mp3"," ","","Eu","","","",""
"","1491","audio-keyboard-response","68","280166","0.0-3.0-1.41","../audio/43-2-masc.mp3"," ","","achei","","","",""
"","1611","audio-keyboard-response","69","282054","0.0-3.0-1.42","../audio/43-3-masc.mp3"," ","","um","","","",""
"","1480","audio-keyboard-response","70","283814","0.0-3.0-1.43","../audio/43-4-masc.mp3"," ","","colchão","","","",""
"","1371","audio-keyboard-response","71","285446","0.0-3.0-1.44","../audio/43-5-masc.mp3"," ","","velho","","","",""
"","1160","audio-keyboard-response","72","286886","0.0-3.0-1.45","../audio/43-6-masc.mp3"," ","","e","","","",""
"","1179","audio-keyboard-response","73","288342","0.0-3.0-1.46","../audio/43-7-masc.mp3"," ","","imundo","","","",""
"","1141","audio-keyboard-response","74","289766","0.0-3.0-1.47","../audio/43-8-masc.mp3"," ","","na","","","",""
"","1291","audio-keyboard-response","75","291334","0.0-3.0-1.48","../audio/43-9-masc.mp3"," ","","casa.","","","",""
"","null","html-keyboard-response","76","292595","0.0-3.0-0.49-0.49","<span style= ""font-size:30px; font-family: monospace"">+</span>","null","fixation","","","","",""
"","1091","audio-keyboard-response","77","293958","0.0-3.0-1.49","../audio/41-1-masc.mp3"," ","","A","","","",""
"","1181","audio-keyboard-response","78","295414","0.0-3.0-1.50","../audio/41-2-masc.mp3"," ","","novela","","","",""
"","1149","audio-keyboard-response","79","296838","0.0-3.0-1.51","../audio/41-3-masc.mp3"," ","","falava","","","",""
"","1112","audio-keyboard-response","80","298214","0.0-3.0-1.52","../audio/41-4-masc.mp3"," ","","de","","","",""
"","1349","audio-keyboard-response","81","299846","0.0-3.0-1.53","../audio/41-5-masc.mp3"," ","","paixão","","","",""
"","869","audio-keyboard-response","82","300982","0.0-3.0-1.54","../audio/41-6-masc.mp3"," ","","e","","","",""
"","1011","audio-keyboard-response","83","302278","0.0-3.0-1.55","../audio/41-7-masc.mp3"," ","","comédia.","","","",""
"","null","html-keyboard-response","84","303549","0.0-3.0-0.56-0.56","<span style= ""font-size:30px; font-family: monospace"">+</span>","null","fixation","","","","",""
"","1149","audio-keyboard-response","85","304982","0.0-3.0-1.56","../audio/44-1-fem.mp3"," ","","Meus","","","",""
"","1168","audio-keyboard-response","86","306422","0.0-3.0-1.57","../audio/44-2-fem.mp3"," ","","irmãos","","","",""
"","989","audio-keyboard-response","87","307686","0.0-3.0-1.58","../audio/44-3-fem.mp3"," ","","brigam","","","",""
"","1139","audio-keyboard-response","88","309110","0.0-3.0-1.59","../audio/44-4-fem.mp3"," ","","por","","","",""
"","1269","audio-keyboard-response","89","310662","0.0-3.0-1.60","../audio/44-5-fem.mp3"," ","","bobagem","","","",""
"","1051","audio-keyboard-response","90","311974","0.0-3.0-1.61","../audio/44-6-fem.mp3"," ","","todos","","","",""
"","920","audio-keyboard-response","91","313174","0.0-3.0-1.62","../audio/44-7-fem.mp3"," ","","os","","","",""
"","1019","audio-keyboard-response","92","314470","0.0-3.0-1.63","../audio/44-8-fem.mp3"," ","","dias.","","","",""
"","null","html-keyboard-response","93","315750","0.0-3.0-0.64-0.64","<span style= ""font-size:30px; font-family: monospace"">+</span>","null","fixation","","","","",""
"","1040","audio-keyboard-response","94","317078","0.0-3.0-1.64","../audio/42-1-fem.mp3"," ","","Eu","","","",""
"","981","audio-keyboard-response","95","318326","0.0-3.0-1.65","../audio/42-2-fem.mp3"," ","","fui","","","",""
"","1051","audio-keyboard-response","96","319638","0.0-3.0-1.66","../audio/42-3-fem.mp3"," ","","a","","","",""
"","920","audio-keyboard-response","97","320822","0.0-3.0-1.67","../audio/42-4-fem.mp3"," ","","uma","","","",""
"","1088","audio-keyboard-response","98","322182","0.0-3.0-1.68","../audio/42-5-fem.mp3"," ","","loja","","","",""
"","928","audio-keyboard-response","99","323382","0.0-3.0-1.69","../audio/42-6-fem.mp3"," ","","de","","","",""
"","1099","audio-keyboard-response","100","324758","0.0-3.0-1.70","../audio/42-7-fem.mp3"," ","","móveis","","","",""
"","869","audio-keyboard-response","101","325910","0.0-3.0-1.71","../audio/42-8-fem.mp3"," ","","no","","","",""
"","1040","audio-keyboard-response","102","327222","0.0-3.0-1.72","../audio/42-9-fem.mp3"," ","","bairro.","","","",""
"","null","html-keyboard-response","103","328497","0.0-3.0-0.73-0.73","<span style= ""font-size:30px; font-family: monospace"">+</span>","null","fixation","","","","",""
"","1040","audio-keyboard-response","104","329814","0.0-3.0-1.73","../audio/45-1-fem.mp3"," ","","O","","","",""
"","1029","audio-keyboard-response","105","331126","0.0-3.0-1.74","../audio/45-2-fem.mp3"," ","","homem","","","",""
"","1080","audio-keyboard-response","106","332486","0.0-3.0-1.75","../audio/45-3-fem.mp3"," ","","pagou","","","",""
"","1019","audio-keyboard-response","107","333782","0.0-3.0-1.76","../audio/45-4-fem.mp3"," ","","o","","","",""
"","1280","audio-keyboard-response","108","335350","0.0-3.0-1.77","../audio/45-5-fem.mp3"," ","","aluguel","","","",""
"","912","audio-keyboard-response","109","336534","0.0-3.0-1.78","../audio/45-6-fem.mp3"," ","","com","","","",""
"","1200","audio-keyboard-response","110","338006","0.0-3.0-1.79","../audio/45-7-fem.mp3"," ","","atraso.","","","",""
"","9993","html-keyboard-response","111","348262","0.0-3.0-2.79-0.79","<span style=""font-size:25px; font-family: monospace"">O homem pagou o aluguel em dia?</span>","s","","","O homem pagou o aluguel em dia?","null","exp-sent","false"
"","null","html-keyboard-response","112","349791","0.0-3.0-0.80-0.80","<span style= ""font-size:30px; font-family: monospace"">+</span>","null","fixation","","","","",""
"","2000","audio-keyboard-response","113","352054","0.0-3.0-1.80","../audio/03-1-masc.mp3"," ","","O","","","",""
"","1339","audio-keyboard-response","114","353670","0.0-3.0-1.81","../audio/03-2-masc.mp3"," ","","coelho","","","",""
"","1000","audio-keyboard-response","115","354950","0.0-3.0-1.82","../audio/03-3-masc.mp3"," ","","foi","","","",""
"","1211","audio-keyboard-response","116","356438","0.0-3.0-1.83","../audio/03-4-masc.mp3"," ","","bastante","","","",""
"","1051","audio-keyboard-response","117","357766","0.0-3.0-1.84","../audio/03-5-masc.mp3"," ","","dócil","","","",""
"","949","audio-keyboard-response","118","358982","0.0-3.0-1.85","../audio/03-6-masc.mp3"," ","","com","","","",""
"","899","audio-keyboard-response","119","360150","0.0-3.0-1.86","../audio/03-7-masc.mp3"," ","","as","","","",""
"","1152","audio-keyboard-response","120","361574","0.0-3.0-1.87","../audio/03-8-masc.mp3"," ","","crianças.","","","",""
"","null","html-keyboard-response","121","362841","0.0-3.0-0.88-0.88","<span style= ""font-size:30px; font-family: monospace"">+</span>","null","fixation","","","","",""
"","1331","audio-keyboard-response","122","364454","0.0-3.0-1.88","../audio/04-1-fem.mp3"," ","","Duzentos","","","",""
"","1000","audio-keyboard-response","123","365734","0.0-3.0-1.89","../audio/04-2-fem.mp3"," ","","carros","","","",""
"","1208","audio-keyboard-response","124","367222","0.0-3.0-1.90","../audio/04-3-fem.mp3"," ","","passaram","","","",""
"","1040","audio-keyboard-response","125","368534","0.0-3.0-1.91","../audio/04-4-fem.mp3"," ","","pela","","","",""
"","1171","audio-keyboard-response","126","369974","0.0-3.0-1.92","../audio/04-5-fem.mp3"," ","","ponte","","","",""
"","1099","audio-keyboard-response","127","371350","0.0-3.0-1.93","../audio/04-6-fem.mp3"," ","","hoje","","","",""
"","960","audio-keyboard-response","128","372582","0.0-3.0-1.94","../audio/04-7-fem.mp3"," ","","de","","","",""
"","1040","audio-keyboard-response","129","373894","0.0-3.0-1.95","../audio/04-8-fem.mp3"," ","","tarde.","","","",""
"","null","html-keyboard-response","130","375154","0.0-3.0-0.96-0.96","<span style= ""font-size:30px; font-family: monospace"">+</span>","null","fixation","","","","",""
"","920","audio-keyboard-response","131","376342","0.0-3.0-1.96","../audio/01-1-masc.mp3"," ","","O","","","",""
"","979","audio-keyboard-response","132","377590","0.0-3.0-1.97","../audio/01-2-masc.mp3"," ","","menino","","","",""
"","1080","audio-keyboard-response","133","378934","0.0-3.0-1.98","../audio/01-3-masc.mp3"," ","","derrubou","","","",""
"","899","audio-keyboard-response","134","380102","0.0-3.0-1.99","../audio/01-4-masc.mp3"," ","","a","","","",""
"","920","audio-keyboard-response","135","381302","0.0-3.0-1.100","../audio/01-5-masc.mp3"," ","","guitarra","","","",""
"","1768","audio-keyboard-response","136","383350","0.0-3.0-1.101","../audio/01-6-masc.mp3"," ","","no","","","",""
"","1448","audio-keyboard-response","137","385062","0.0-3.0-1.102","../audio/01-7-masc.mp3"," ","","chão.","","","",""
"","null","html-keyboard-response","138","386331","0.0-3.0-0.103-0.103","<span style= ""font-size:30px; font-family: monospace"">+</span>","null","fixation","","","","",""
"","1120","audio-keyboard-response","139","387734","0.0-3.0-1.103","../audio/02-2-fem.mp3"," ","","Havia","","","",""
"","1240","audio-keyboard-response","140","389222","0.0-3.0-1.104","../audio/02-2-fem.mp3"," ","","um","","","",""
"","1040","audio-keyboard-response","141","390550","0.0-3.0-1.105","../audio/02-3-fem.mp3"," ","","cheiro","","","",""
"","851","audio-keyboard-response","142","391686","0.0-3.0-1.106","../audio/02-4-fem.mp3"," ","","de","","","",""
"","1701","audio-keyboard-response","143","393654","0.0-3.0-1.107","../audio/02-5-fem.mp3"," ","","gasolina","","","",""
"","1128","audio-keyboard-response","144","395062","0.0-3.0-1.108","../audio/02-6-fem.mp3"," ","","na","","","",""
"","1400","audio-keyboard-response","145","396742","0.0-3.0-1.109","../audio/02-7-fem.mp3"," ","","garagem.","","","",""
"","null","html-keyboard-response","146","398000","0.0-3.0-0.110-0.110","<span style= ""font-size:30px; font-family: monospace"">+</span>","null","fixation","","","","",""
"","901","audio-keyboard-response","147","399174","0.0-3.0-1.110","../audio/05-1-masc.mp3"," ","","A","","","",""
"","1448","audio-keyboard-response","148","400902","0.0-3.0-1.111","../audio/05-2-masc.mp3"," ","","vendedora","","","",""
"","1288","audio-keyboard-response","149","402470","0.0-3.0-1.112","../audio/05-3-masc.mp3"," ","","ajudou","","","",""
"","920","audio-keyboard-response","150","403670","0.0-3.0-1.113","../audio/05-4-masc.mp3"," ","","um","","","",""
"","1189","audio-keyboard-response","151","405142","0.0-3.0-1.114","../audio/05-5-masc.mp3"," ","","turista","","","",""
"","1019","audio-keyboard-response","152","406438","0.0-3.0-1.115","../audio/05-6-masc.mp3"," ","","na","","","",""
"","1109","audio-keyboard-response","153","407830","0.0-3.0-1.116","../audio/05-7-masc.mp3"," ","","loja.","","","",""
"","8526","html-keyboard-response","154","416614","0.0-3.0-2.116-0.116","<span style=""font-size:25px; font-family: monospace"">A vendedora ajudou um turista?</span>","s","","","A vendedora ajudou um turista?","null","exp-sent","false"
"","null","html-keyboard-response","155","418138","0.0-3.0-0.117-0.117","<span style= ""font-size:30px; font-family: monospace"">+</span>","null","fixation","","","","",""
"","1680","audio-keyboard-response","156","420102","0.0-3.0-1.117","../audio/77-1-fem.mp3"," ","","A","","","",""
"","1349","audio-keyboard-response","157","421718","0.0-3.0-1.118","../audio/77-2-fem.mp3"," ","","criança","","","",""
"","1341","audio-keyboard-response","158","423334","0.0-3.0-1.119","../audio/77-3-fem.mp3"," ","","ficou","","","",""
"","1248","audio-keyboard-response","159","424870","0.0-3.0-1.120","../audio/77-4-fem.mp3"," ","","muito","","","",""
"","1291","audio-keyboard-response","160","426438","0.0-3.0-1.121","../audio/77-5-fem.mp3"," ","","feliz","","","",""
"","851","audio-keyboard-response","161","427558","0.0-3.0-1.122","../audio/77-6-fem.mp3"," ","","com","","","",""
"","851","audio-keyboard-response","162","428678","0.0-3.0-1.123","../audio/77-7-fem.mp3"," ","","o","","","",""
"","1320","audio-keyboard-response","163","430278","0.0-3.0-1.124","../audio/77-8-fem.mp3"," ","","brinquedo.","","","",""
"","null","html-keyboard-response","164","431550","0.0-3.0-0.125-0.125","<span style= ""font-size:30px; font-family: monospace"">+</span>","null","fixation","","","","",""
"","720","audio-keyboard-response","165","432550","0.0-3.0-1.125","../audio/76-1-masc.mp3"," ","","O","","","",""
"","1229","audio-keyboard-response","166","434071","0.0-3.0-1.126","../audio/76-2-masc.mp3"," ","","bisavô","","","",""
"","1040","audio-keyboard-response","167","435382","0.0-3.0-1.127","../audio/76-3-masc.mp3"," ","","comprou","","","",""
"","888","audio-keyboard-response","168","436550","0.0-3.0-1.128","../audio/76-4-masc.mp3"," ","","um","","","",""
"","1171","audio-keyboard-response","169","438007","0.0-3.0-1.129","../audio/76-5-masc.mp3"," ","","ralador","","","",""
"","840","audio-keyboard-response","170","439126","0.0-3.0-1.130","../audio/76-6-masc.mp3"," ","","de","","","",""
"","1019","audio-keyboard-response","171","440422","0.0-3.0-1.131","../audio/76-7-masc.mp3"," ","","queijo.","","","",""
"","null","html-keyboard-response","172","441699","0.0-3.0-0.132-0.132","<span style= ""font-size:30px; font-family: monospace"">+</span>","null","fixation","","","","",""
"","728","audio-keyboard-response","173","442710","0.0-3.0-1.132","../audio/79-1-fem.mp3"," ","","A","","","",""
"","1341","audio-keyboard-response","174","444326","0.0-3.0-1.133","../audio/79-2-fem.mp3"," ","","médica","","","",""
"","1349","audio-keyboard-response","175","445958","0.0-3.0-1.134","../audio/79-3-fem.mp3"," ","","verificou","","","",""
"","749","audio-keyboard-response","176","446982","0.0-3.0-1.135","../audio/79-4-fem.mp3"," ","","a","","","",""
"","1179","audio-keyboard-response","177","448423","0.0-3.0-1.136","../audio/79-5-fem.mp3"," ","","gengiva","","","",""
"","808","audio-keyboard-response","178","449510","0.0-3.0-1.137","../audio/79-6-fem.mp3"," ","","por","","","",""
"","1051","audio-keyboard-response","179","450838","0.0-3.0-1.138","../audio/79-7-fem.mp3"," ","","último.","","","",""
"","null","html-keyboard-response","180","452106","0.0-3.0-0.139-0.139","<span style= ""font-size:30px; font-family: monospace"">+</span>","null","fixation","","","","",""
"","1061","audio-keyboard-response","181","453446","0.0-3.0-1.139","../audio/78-1-fem.mp3"," ","","Eles","","","",""
"","1011","audio-keyboard-response","182","454726","0.0-3.0-1.140","../audio/78-2-fem.mp3"," ","","trazem","","","",""
"","811","audio-keyboard-response","183","455814","0.0-3.0-1.141","../audio/78-3-fem.mp3"," ","","um","","","",""
"","1179","audio-keyboard-response","184","457269","0.0-3.0-1.142","../audio/78-4-fem.mp3"," ","","fato","","","",""
"","1531","audio-keyboard-response","185","459078","0.0-3.0-1.143","../audio/78-5-fem.mp3"," ","","urgente","","","",""
"","1011","audio-keyboard-response","186","460358","0.0-3.0-1.144","../audio/78-6-fem.mp3"," ","","todos","","","",""
"","840","audio-keyboard-response","187","461478","0.0-3.0-1.145","../audio/78-7-fem.mp3"," ","","os","","","",""
"","941","audio-keyboard-response","188","462694","0.0-3.0-1.146","../audio/78-8-fem.mp3"," ","","dias.","","","",""
"","null","html-keyboard-response","189","463968","0.0-3.0-0.147-0.147","<span style= ""font-size:30px; font-family: monospace"">+</span>","null","fixation","","","","",""
"","939","audio-keyboard-response","190","465189","0.0-3.0-1.147","../audio/80-1-fem.mp3"," ","","Meu","","","",""
"","971","audio-keyboard-response","191","466438","0.0-3.0-1.148","../audio/80-2-fem.mp3"," ","","primo","","","",""
"","1309","audio-keyboard-response","192","468021","0.0-3.0-1.149","../audio/80-3-fem.mp3"," ","","conheceu","","","",""
"","989","audio-keyboard-response","193","469286","0.0-3.0-1.150","../audio/80-4-fem.mp3"," ","","um","","","",""
"","1309","audio-keyboard-response","194","470885","0.0-3.0-1.151","../audio/80-5-fem.mp3"," ","","jovem","","","",""
"","1520","audio-keyboard-response","195","472678","0.0-3.0-1.152","../audio/80-6-fem.mp3"," ","","amável","","","",""
"","811","audio-keyboard-response","196","473765","0.0-3.0-1.153","../audio/80-7-fem.mp3"," ","","e","","","",""
"","1429","audio-keyboard-response","197","475478","0.0-3.0-1.154","../audio/80-8-fem.mp3"," ","","confiante.","","","",""
"","9339","html-keyboard-response","198","485078","0.0-3.0-2.154-0.154","<span style=""font-size:25px; font-family: monospace"">O primo conheceu um jovem irritante?</span>","s","","","O primo conheceu um jovem irritante?","null","exp-sent","false"
"","null","html-keyboard-response","199","486605","0.0-3.0-0.155-0.155","<span style= ""font-size:30px; font-family: monospace"">+</span>","null","fixation","","","","",""
"","1749","audio-keyboard-response","200","488645","0.0-3.0-1.155","../audio/34-1-masc.mp3"," ","","Cobrança","","","",""
"","1491","audio-keyboard-response","201","490406","0.0-3.0-1.156","../audio/34-2-masc.mp3"," ","","excessiva","","","",""
"","789","audio-keyboard-response","202","491478","0.0-3.0-1.157","../audio/34-3-masc.mp3"," ","","é","","","",""
"","800","audio-keyboard-response","203","492549","0.0-3.0-1.158","../audio/34-4-masc.mp3"," ","","um","","","",""
"","1021","audio-keyboard-response","204","493845","0.0-3.0-1.159","../audio/34-5-masc.mp3"," ","","fardo","","","",""
"","869","audio-keyboard-response","205","494981","0.0-3.0-1.160","../audio/34-6-masc.mp3"," ","","para","","","",""
"","928","audio-keyboard-response","206","496181","0.0-3.0-1.161","../audio/34-7-masc.mp3"," ","","a","","","",""
"","1040","audio-keyboard-response","207","497494","0.0-3.0-1.162","../audio/34-8-masc.mp3"," ","","cabeça.","","","",""
"","null","html-keyboard-response","208","498767","0.0-3.0-0.163-0.163","<span style= ""font-size:30px; font-family: monospace"">+</span>","null","fixation","","","","",""
"","1029","audio-keyboard-response","209","500070","0.0-3.0-1.163","../audio/33-1-masc.mp3"," ","","Eles","","","",""
"","1072","audio-keyboard-response","210","501414","0.0-3.0-1.164","../audio/33-2-masc.mp3"," ","","sabem","","","",""
"","1040","audio-keyboard-response","211","502726","0.0-3.0-1.165","../audio/33-3-masc.mp3"," ","","do","","","",""
"","1149","audio-keyboard-response","212","504150","0.0-3.0-1.166","../audio/33-4-masc.mp3"," ","","seu","","","",""
"","1611","audio-keyboard-response","213","506038","0.0-3.0-1.167","../audio/33-5-masc.mp3"," ","","privilégio","","","",""
"","1301","audio-keyboard-response","214","507606","0.0-3.0-1.168","../audio/33-6-masc.mp3"," ","","nessa","","","",""
"","1371","audio-keyboard-response","215","509254","0.0-3.0-1.169","../audio/33-7-masc.mp3"," ","","confusão.","","","",""
"","null","html-keyboard-response","216","510521","0.0-3.0-0.170-0.170","<span style= ""font-size:30px; font-family: monospace"">+</span>","null","fixation","","","","",""
"","960","audio-keyboard-response","217","511766","0.0-3.0-1.170","../audio/31-1-masc.mp3"," ","","O","","","",""
"","1229","audio-keyboard-response","218","513270","0.0-3.0-1.171","../audio/31-2-masc.mp3"," ","","padeiro","","","",""
"","1240","audio-keyboard-response","219","514790","0.0-3.0-1.172","../audio/31-3-masc.mp3"," ","","usou","","","",""
"","1232","audio-keyboard-response","220","516294","0.0-3.0-1.173","../audio/31-4-masc.mp3"," ","","a","","","",""
"","1389","audio-keyboard-response","221","517957","0.0-3.0-1.174","../audio/31-5-masc.mp3"," ","","balança","","","",""
"","1109","audio-keyboard-response","222","519349","0.0-3.0-1.175","../audio/31-6-masc.mp3"," ","","o","","","",""
"","1320","audio-keyboard-response","223","520949","0.0-3.0-1.176","../audio/31-7-masc.mp3"," ","","dia","","","",""
"","1312","audio-keyboard-response","224","522533","0.0-3.0-1.177","../audio/31-8-masc.mp3"," ","","inteiro.","","","",""
"","null","html-keyboard-response","225","523791","0.0-3.0-0.178-0.178","<span style= ""font-size:30px; font-family: monospace"">+</span>","null","fixation","","","","",""
"","840","audio-keyboard-response","226","524901","0.0-3.0-1.178","../audio/32-1-fem.mp3"," ","","A","","","",""
"","1032","audio-keyboard-response","227","526213","0.0-3.0-1.179","../audio/32-2-fem.mp3"," ","","tia","","","",""
"","1179","audio-keyboard-response","228","527669","0.0-3.0-1.180","../audio/32-3-fem.mp3"," ","","comprou","","","",""
"","1080","audio-keyboard-response","229","529029","0.0-3.0-1.181","../audio/32-4-fem.mp3"," ","","um","","","",""
"","1211","audio-keyboard-response","230","530517","0.0-3.0-1.182","../audio/32-5-fem.mp3"," ","","pilão","","","",""
"","1240","audio-keyboard-response","231","532037","0.0-3.0-1.183","../audio/32-6-fem.mp3"," ","","para","","","",""
"","1112","audio-keyboard-response","232","533413","0.0-3.0-1.184","../audio/32-7-fem.mp3"," ","","a","","","",""
"","1299","audio-keyboard-response","233","534997","0.0-3.0-1.185","../audio/32-8-fem.mp3"," ","","cozinha.","","","",""
"","null","html-keyboard-response","234","536272","0.0-3.0-0.186-0.186","<span style= ""font-size:30px; font-family: monospace"">+</span>","null","fixation","","","","",""
"","1021","audio-keyboard-response","235","537573","0.0-3.0-1.186","../audio/35-1-fem.mp3"," ","","A","","","",""
"","1349","audio-keyboard-response","236","539205","0.0-3.0-1.187","../audio/35-2-fem.mp3"," ","","receita","","","",""
"","949","audio-keyboard-response","237","540421","0.0-3.0-1.188","../audio/35-3-fem.mp3"," ","","para","","","",""
"","760","audio-keyboard-response","238","541445","0.0-3.0-1.189","../audio/35-4-fem.mp3"," ","","a","","","",""
"","1509","audio-keyboard-response","239","543237","0.0-3.0-1.190","../audio/35-5-fem.mp3"," ","","preparação","","","",""
"","971","audio-keyboard-response","240","544485","0.0-3.0-1.191","../audio/35-6-fem.mp3"," ","","do","","","",""
"","1029","audio-keyboard-response","241","545797","0.0-3.0-1.192","../audio/35-7-fem.mp3"," ","","bolo","","","",""
"","829","audio-keyboard-response","242","546901","0.0-3.0-1.193","../audio/35-8-fem.mp3"," ","","é","","","",""
"","1141","audio-keyboard-response","243","548325","0.0-3.0-1.194","../audio/35-9-fem.mp3"," ","","leve.","","","",""
"","12362","html-keyboard-response","244","560949","0.0-3.0-2.194-0.194","<span style=""font-size:25px; font-family: monospace"">A receita do bolo é pesada?</span>","s","","","A receita do bolo é pesada?","null","exp-sent","false"
"","null","html-keyboard-response","245","562464","0.0-3.0-0.195-0.195","<span style= ""font-size:30px; font-family: monospace"">+</span>","null","fixation","","","","",""
"","1480","audio-keyboard-response","246","564213","0.0-3.0-1.195","../audio/73-1-fem.mp3"," ","","O","","","",""
"","1448","audio-keyboard-response","247","565941","0.0-3.0-1.196","../audio/73-2-fem.mp3"," ","","cliente","","","",""
"","939","audio-keyboard-response","248","567157","0.0-3.0-1.197","../audio/73-3-fem.mp3"," ","","era","","","",""
"","1011","audio-keyboard-response","249","568453","0.0-3.0-1.198","../audio/73-4-fem.mp3"," ","","um","","","",""
"","1128","audio-keyboard-response","250","569861","0.0-3.0-1.199","../audio/73-5-fem.mp3"," ","","homem","","","",""
"","1112","audio-keyboard-response","251","571253","0.0-3.0-1.200","../audio/73-6-fem.mp3"," ","","muito","","","",""
"","1280","audio-keyboard-response","252","572805","0.0-3.0-1.201","../audio/73-7-fem.mp3"," ","","educado.","","","",""
"","null","html-keyboard-response","253","574087","0.0-3.0-0.202-0.202","<span style= ""font-size:30px; font-family: monospace"">+</span>","null","fixation","","","","",""
"","888","audio-keyboard-response","254","575269","0.0-3.0-1.202","../audio/72-1-masc.mp3"," ","","A","","","",""
"","1368","audio-keyboard-response","255","576901","0.0-3.0-1.203","../audio/72-2-masc.mp3"," ","","vencedora","","","",""
"","1288","audio-keyboard-response","256","578469","0.0-3.0-1.204","../audio/72-3-masc.mp3"," ","","recebeu","","","",""
"","1040","audio-keyboard-response","257","579781","0.0-3.0-1.205","../audio/72-4-masc.mp3"," ","","um","","","",""
"","1128","audio-keyboard-response","258","581189","0.0-3.0-1.206","../audio/72-5-masc.mp3"," ","","prêmio","","","",""
"","941","audio-keyboard-response","259","582405","0.0-3.0-1.207","../audio/72-6-masc.mp3"," ","","em","","","",""
"","1200","audio-keyboard-response","260","583877","0.0-3.0-1.208","../audio/72-7-masc.mp3"," ","","dinheiro.","","","",""
"","null","html-keyboard-response","261","585155","0.0-3.0-0.209-0.209","<span style= ""font-size:30px; font-family: monospace"">+</span>","null","fixation","","","","",""
"","1269","audio-keyboard-response","262","586709","0.0-3.0-1.209","../audio/71-1-masc.mp3"," ","","Minhas","","","",""
"","1171","audio-keyboard-response","263","588165","0.0-3.0-1.210","../audio/71-2-masc.mp3"," ","","comidas","","","",""
"","1109","audio-keyboard-response","264","589557","0.0-3.0-1.211","../audio/71-3-masc.mp3"," ","","favoritas","","","",""
"","909","audio-keyboard-response","265","590757","0.0-3.0-1.212","../audio/71-4-masc.mp3"," ","","são","","","",""
"","1091","audio-keyboard-response","266","592117","0.0-3.0-1.213","../audio/71-5-masc.mp3"," ","","morango","","","",""
"","880","audio-keyboard-response","267","593270","0.0-3.0-1.214","../audio/71-6-masc.mp3"," ","","e","","","",""
"","1059","audio-keyboard-response","268","594597","0.0-3.0-1.215","../audio/71-7-masc.mp3"," ","","uva.","","","",""
"","null","html-keyboard-response","269","595863","0.0-3.0-0.216-0.216","<span style= ""font-size:30px; font-family: monospace"">+</span>","null","fixation","","","","",""
"","1032","audio-keyboard-response","270","597173","0.0-3.0-1.216","../audio/74-1-masc.mp3"," ","","Este","","","",""
"","1179","audio-keyboard-response","271","598629","0.0-3.0-1.217","../audio/74-2-masc.mp3"," ","","emprego","","","",""
"","909","audio-keyboard-response","272","599829","0.0-3.0-1.218","../audio/74-3-masc.mp3"," ","","é","","","",""
"","1120","audio-keyboard-response","273","601237","0.0-3.0-1.219","../audio/74-4-masc.mp3"," ","","muito","","","",""
"","1371","audio-keyboard-response","274","602885","0.0-3.0-1.220","../audio/74-5-masc.mp3"," ","","cansativo","","","",""
"","939","audio-keyboard-response","275","604101","0.0-3.0-1.221","../audio/74-6-masc.mp3"," ","","a","","","",""
"","1099","audio-keyboard-response","276","605478","0.0-3.0-1.222","../audio/74-7-masc.mp3"," ","","longo","","","",""
"","1080","audio-keyboard-response","277","606837","0.0-3.0-1.223","../audio/74-8-masc.mp3"," ","","prazo.","","","",""
"","null","html-keyboard-response","278","608110","0.0-3.0-0.224-0.224","<span style= ""font-size:30px; font-family: monospace"">+</span>","null","fixation","","","","",""
"","1080","audio-keyboard-response","279","609461","0.0-3.0-1.224","../audio/75-1-masc.mp3"," ","","Só","","","",""
"","1029","audio-keyboard-response","280","610757","0.0-3.0-1.225","../audio/75-2-masc.mp3"," ","","existe","","","",""
"","1011","audio-keyboard-response","281","612037","0.0-3.0-1.226","../audio/75-3-masc.mp3"," ","","uma","","","",""
"","1000","audio-keyboard-response","282","613301","0.0-3.0-1.227","../audio/75-4-masc.mp3"," ","","pessoa","","","",""
"","1141","audio-keyboard-response","283","614725","0.0-3.0-1.228","../audio/75-5-masc.mp3"," ","","canhota","","","",""
"","1040","audio-keyboard-response","284","616037","0.0-3.0-1.229","../audio/75-6-masc.mp3"," ","","nesta","","","",""
"","1029","audio-keyboard-response","285","617349","0.0-3.0-1.230","../audio/75-7-masc.mp3"," ","","cidade.","","","",""
"","19173","html-keyboard-response","286","636774","0.0-3.0-2.230-0.230","<span style=""font-size:25px; font-family: monospace"">Só existe uma pessoa canhota na cidade?</span>","s","","","Só existe uma pessoa canhota na cidade?","null","exp-sent","false"
"","null","html-keyboard-response","287","638296","0.0-3.0-0.231-0.231","<span style= ""font-size:30px; font-family: monospace"">+</span>","null","fixation","","","","",""
"","1368","audio-keyboard-response","288","639941","0.0-3.0-1.231","../audio/38-1-fem.mp3"," ","","A","","","",""
"","1659","audio-keyboard-response","289","641877","0.0-3.0-1.232","../audio/38-2-fem.mp3"," ","","empresa","","","",""
"","1120","audio-keyboard-response","290","643269","0.0-3.0-1.233","../audio/38-3-fem.mp3"," ","","criou","","","",""
"","949","audio-keyboard-response","291","644485","0.0-3.0-1.234","../audio/38-4-fem.mp3"," ","","a","","","",""
"","1029","audio-keyboard-response","292","645781","0.0-3.0-1.235","../audio/38-5-fem.mp3"," ","","patente","","","",""
"","760","audio-keyboard-response","293","646805","0.0-3.0-1.236","../audio/38-6-fem.mp3"," ","","da","","","",""
"","840","audio-keyboard-response","294","647925","0.0-3.0-1.237","../audio/38-7-fem.mp3"," ","","frigideira.","","","",""
"","null","html-keyboard-response","295","649200","0.0-3.0-0.238-0.238","<span style= ""font-size:30px; font-family: monospace"">+</span>","null","fixation","","","","",""
"","949","audio-keyboard-response","296","650421","0.0-3.0-1.238","../audio/36-1-fem.mp3"," ","","Meu","","","",""
"","939","audio-keyboard-response","297","651621","0.0-3.0-1.239","../audio/36-2-fem.mp3"," ","","tio","","","",""
"","1288","audio-keyboard-response","298","653190","0.0-3.0-1.240","../audio/36-3-fem.mp3"," ","","comprou","","","",""
"","971","audio-keyboard-response","299","654437","0.0-3.0-1.241","../audio/36-4-fem.mp3"," ","","um","","","",""
"","1229","audio-keyboard-response","300","655941","0.0-3.0-1.242","../audio/36-5-fem.mp3"," ","","filtro","","","",""
"","1008","audio-keyboard-response","301","657221","0.0-3.0-1.243","../audio/36-6-fem.mp3"," ","","de","","","",""
"","1149","audio-keyboard-response","302","658645","0.0-3.0-1.244","../audio/36-7-fem.mp3"," ","","água","","","",""
"","1091","audio-keyboard-response","303","660005","0.0-3.0-1.245","../audio/36-8-fem.mp3"," ","","hoje","","","",""
"","1109","audio-keyboard-response","304","661397","0.0-3.0-1.246","../audio/36-9-fem.mp3"," ","","cedo.","","","",""
"","null","html-keyboard-response","305","662663","0.0-3.0-0.247-0.247","<span style= ""font-size:30px; font-family: monospace"">+</span>","null","fixation","","","","",""
"","821","audio-keyboard-response","306","663765","0.0-3.0-1.247","../audio/39-1-masc.mp3"," ","","O","","","",""
"","1149","audio-keyboard-response","307","665189","0.0-3.0-1.248","../audio/39-2-masc.mp3"," ","","conselho","","","",""
"","869","audio-keyboard-response","308","666341","0.0-3.0-1.249","../audio/39-3-masc.mp3"," ","","foi","","","",""
"","1029","audio-keyboard-response","309","667637","0.0-3.0-1.250","../audio/39-4-masc.mp3"," ","","muito","","","",""
"","949","audio-keyboard-response","310","668869","0.0-3.0-1.251","../audio/39-5-masc.mp3"," ","","útil","","","",""
"","861","audio-keyboard-response","311","670005","0.0-3.0-1.252","../audio/39-6-masc.mp3"," ","","para","","","",""
"","1160","audio-keyboard-response","312","671445","0.0-3.0-1.253","../audio/39-7-masc.mp3"," ","","minha","","","",""
"","869","audio-keyboard-response","313","672581","0.0-3.0-1.254","../audio/39-8-masc.mp3"," ","","tia.","","","",""
"","null","html-keyboard-response","314","673856","0.0-3.0-0.255-0.255","<span style= ""font-size:30px; font-family: monospace"">+</span>","null","fixation","","","","",""
"","829","audio-keyboard-response","315","674965","0.0-3.0-1.255","../audio/37-1-fem.mp3"," ","","Eu","","","",""
"","1440","audio-keyboard-response","316","676677","0.0-3.0-1.256","../audio/37-2-fem.mp3"," ","","adoro","","","",""
"","1320","audio-keyboard-response","317","678278","0.0-3.0-1.257","../audio/37-3-fem.mp3"," ","","suco","","","",""
"","1080","audio-keyboard-response","318","679637","0.0-3.0-1.258","../audio/37-4-fem.mp3"," ","","de","","","",""
"","1291","audio-keyboard-response","319","681205","0.0-3.0-1.259","../audio/37-5-fem.mp3"," ","","manga","","","",""
"","1000","audio-keyboard-response","320","682485","0.0-3.0-1.260","../audio/37-6-fem.mp3"," ","","com","","","",""
"","1589","audio-keyboard-response","321","684357","0.0-3.0-1.261","../audio/37-7-fem.mp3"," ","","hortelã.","","","",""
"","null","html-keyboard-response","322","685619","0.0-3.0-0.262-0.262","<span style= ""font-size:30px; font-family: monospace"">+</span>","null","fixation","","","","",""
"","931","audio-keyboard-response","323","686837","0.0-3.0-1.262","../audio/40-1-fem.mp3"," ","","O","","","",""
"","1661","audio-keyboard-response","324","688773","0.0-3.0-1.263","../audio/40-2-fem.mp3"," ","","jogo","","","",""
"","1821","audio-keyboard-response","325","690885","0.0-3.0-1.264","../audio/40-3-fem.mp3"," ","","falava","","","",""
"","1509","audio-keyboard-response","326","692677","0.0-3.0-1.265","../audio/40-4-fem.mp3"," ","","de","","","",""
"","1771","audio-keyboard-response","327","694725","0.0-3.0-1.266","../audio/40-5-fem.mp3"," ","","fantasia","","","",""
"","1000","audio-keyboard-response","328","696005","0.0-3.0-1.267","../audio/40-6-fem.mp3"," ","","e","","","",""
"","1211","audio-keyboard-response","329","697493","0.0-3.0-1.268","../audio/40-7-fem.mp3"," ","","de","","","",""
"","1939","audio-keyboard-response","330","699701","0.0-3.0-1.269","../audio/40-8-fem.mp3"," ","","aventura.","","","",""
"","8895","html-keyboard-response","331","708853","0.0-3.0-2.269-0.269","<span style=""font-size:25px; font-family: monospace"">O jogo tinha fantasia e aventura?</span>","n","","","O jogo tinha fantasia e aventura?","null","exp-sent","false"
"","null","html-keyboard-response","332","710369","0.0-3.0-0.270-0.270","<span style= ""font-size:30px; font-family: monospace"">+</span>","null","fixation","","","","",""
"","2541","audio-keyboard-response","333","713205","0.0-3.0-1.270","../audio/51-1-fem.mp3"," ","","Suco","","","",""
"","1069","audio-keyboard-response","334","714549","0.0-3.0-1.271","../audio/51-2-fem.mp3"," ","","de","","","",""
"","1491","audio-keyboard-response","335","716325","0.0-3.0-1.272","../audio/51-3-fem.mp3"," ","","acerola","","","",""
"","949","audio-keyboard-response","336","717540","0.0-3.0-1.273","../audio/51-4-fem.mp3"," ","","é","","","",""
"","1368","audio-keyboard-response","337","719188","0.0-3.0-1.274","../audio/51-5-fem.mp3"," ","","azedo","","","",""
"","832","audio-keyboard-response","338","720293","0.0-3.0-1.275","../audio/51-6-fem.mp3"," ","","e","","","",""
"","1029","audio-keyboard-response","339","721605","0.0-3.0-1.276","../audio/51-7-fem.mp3"," ","","até","","","",""
"","1160","audio-keyboard-response","340","723044","0.0-3.0-1.277","../audio/51-8-fem.mp3"," ","","barato.","","","",""
"","null","html-keyboard-response","341","724305","0.0-3.0-0.278-0.278","<span style= ""font-size:30px; font-family: monospace"">+</span>","null","fixation","","","","",""
"","968","audio-keyboard-response","342","725541","0.0-3.0-1.278","../audio/52-1-masc.mp3"," ","","Às","","","",""
"","989","audio-keyboard-response","343","726804","0.0-3.0-1.279","../audio/52-2-masc.mp3"," ","","vezes","","","",""
"","981","audio-keyboard-response","344","728053","0.0-3.0-1.280","../audio/52-3-masc.mp3"," ","","eu","","","",""
"","1051","audio-keyboard-response","345","729365","0.0-3.0-1.281","../audio/52-4-masc.mp3"," ","","tenho","","","",""
"","1189","audio-keyboard-response","346","730820","0.0-3.0-1.282","../audio/52-5-masc.mp3"," ","","azia","","","",""
"","1128","audio-keyboard-response","347","732229","0.0-3.0-1.283","../audio/52-6-masc.mp3"," ","","depois","","","",""
"","1312","audio-keyboard-response","348","733812","0.0-3.0-1.284","../audio/52-7-masc.mp3"," ","","da","","","",""
"","1160","audio-keyboard-response","349","735253","0.0-3.0-1.285","../audio/52-8-masc.mp3"," ","","janta.","","","",""
"","null","html-keyboard-response","350","736507","0.0-3.0-0.286-0.286","<span style= ""font-size:30px; font-family: monospace"">+</span>","null","fixation","","","","",""
"","1112","audio-keyboard-response","351","737893","0.0-3.0-1.286","../audio/54-1-fem.mp3"," ","","Estou","","","",""
"","1080","audio-keyboard-response","352","739253","0.0-3.0-1.287","../audio/54-2-fem.mp3"," ","","com","","","",""
"","1128","audio-keyboard-response","353","740660","0.0-3.0-1.288","../audio/54-3-fem.mp3"," ","","medo","","","",""
"","1149","audio-keyboard-response","354","742085","0.0-3.0-1.289","../audio/54-4-fem.mp3"," ","","da","","","",""
"","1429","audio-keyboard-response","355","743780","0.0-3.0-1.290","../audio/54-5-fem.mp3"," ","","atual","","","",""
"","1728","audio-keyboard-response","356","745780","0.0-3.0-1.291","../audio/54-6-fem.mp3"," ","","organização","","","",""
"","899","audio-keyboard-response","357","746949","0.0-3.0-1.292","../audio/54-7-fem.mp3"," ","","do","","","",""
"","1088","audio-keyboard-response","358","748309","0.0-3.0-1.293","../audio/54-8-fem.mp3"," ","","país.","","","",""
"","null","html-keyboard-response","359","749577","0.0-3.0-0.294-0.294","<span style= ""font-size:30px; font-family: monospace"">+</span>","null","fixation","","","","",""
"","1000","audio-keyboard-response","360","750869","0.0-3.0-1.294","../audio/53-1-fem.mp3"," ","","O","","","",""
"","1181","audio-keyboard-response","361","752325","0.0-3.0-1.295","../audio/53-2-fem.mp3"," ","","médico","","","",""
"","960","audio-keyboard-response","362","753557","0.0-3.0-1.296","../audio/53-3-fem.mp3"," ","","foi","","","",""
"","1341","audio-keyboard-response","363","755173","0.0-3.0-1.297","../audio/53-4-fem.mp3"," ","","bastante","","","",""
"","1339","audio-keyboard-response","364","756789","0.0-3.0-1.298","../audio/53-5-fem.mp3"," ","","preciso","","","",""
"","1312","audio-keyboard-response","365","758373","0.0-3.0-1.299","../audio/53-6-fem.mp3"," ","","durante","","","",""
"","949","audio-keyboard-response","366","759604","0.0-3.0-1.300","../audio/53-7-fem.mp3"," ","","a","","","",""
"","1480","audio-keyboard-response","367","761365","0.0-3.0-1.301","../audio/53-8-fem.mp3"," ","","cirurgia.","","","",""
"","null","html-keyboard-response","368","762623","0.0-3.0-0.302-0.302","<span style= ""font-size:30px; font-family: monospace"">+</span>","null","fixation","","","","",""
"","739","audio-keyboard-response","369","763637","0.0-3.0-1.302","../audio/55-1-fem.mp3"," ","","O","","","",""
"","1400","audio-keyboard-response","370","765301","0.0-3.0-1.303","../audio/55-2-fem.mp3"," ","","insulto","","","",""
"","1419","audio-keyboard-response","371","766997","0.0-3.0-1.304","../audio/55-3-fem.mp3"," ","","recente","","","",""
"","1181","audio-keyboard-response","372","768453","0.0-3.0-1.305","../audio/55-4-fem.mp3"," ","","causou","","","",""
"","1629","audio-keyboard-response","373","770357","0.0-3.0-1.306","../audio/55-5-fem.mp3"," ","","indignação","","","",""
"","952","audio-keyboard-response","374","771573","0.0-3.0-1.307","../audio/55-6-fem.mp3"," ","","em","","","",""
"","1059","audio-keyboard-response","375","772917","0.0-3.0-1.308","../audio/55-7-fem.mp3"," ","","todos.","","","",""
"","7262","html-keyboard-response","376","780437","0.0-3.0-2.308-0.308","<span style=""font-size:25px; font-family: monospace"">O insulto causou calmaria?</span>","n","","","O insulto causou calmaria?","null","exp-sent","false"
"","null","html-keyboard-response","377","781952","0.0-3.0-0.309-0.309","<span style= ""font-size:30px; font-family: monospace"">+</span>","null","fixation","","","","",""
"","1269","audio-keyboard-response","378","783509","0.0-3.0-1.309","../audio/12-1-fem.mp3"," ","","O","","","",""
"","1040","audio-keyboard-response","379","784821","0.0-3.0-1.310","../audio/12-2-fem.mp3"," ","","dia","","","",""
"","1272","audio-keyboard-response","380","786373","0.0-3.0-1.311","../audio/12-3-fem.mp3"," ","","estava","","","",""
"","1099","audio-keyboard-response","381","787749","0.0-3.0-1.312","../audio/12-4-fem.mp3"," ","","quente,","","","",""
"","1349","audio-keyboard-response","382","789365","0.0-3.0-1.313","../audio/12-5-fem.mp3"," ","","tranquilo","","","",""
"","891","audio-keyboard-response","383","790533","0.0-3.0-1.314","../audio/12-6-fem.mp3"," ","","e","","","",""
"","1459","audio-keyboard-response","384","792277","0.0-3.0-1.315","../audio/12-7-fem.mp3"," ","","ensolarado.","","","",""
"","null","html-keyboard-response","385","793540","0.0-3.0-0.316-0.316","<span style= ""font-size:30px; font-family: monospace"">+</span>","null","fixation","","","","",""
"","1080","audio-keyboard-response","386","794901","0.0-3.0-1.316","../audio/11-1-fem.mp3"," ","","Elas","","","",""
"","1040","audio-keyboard-response","387","796229","0.0-3.0-1.317","../audio/11-2-fem.mp3"," ","","gostam","","","",""
"","1101","audio-keyboard-response","388","797605","0.0-3.0-1.318","../audio/11-3-fem.mp3"," ","","muito","","","",""
"","989","audio-keyboard-response","389","798869","0.0-3.0-1.319","../audio/11-4-fem.mp3"," ","","de","","","",""
"","1840","audio-keyboard-response","390","800997","0.0-3.0-1.320","../audio/11-5-fem.mp3"," ","","aritmética","","","",""
"","781","audio-keyboard-response","391","802053","0.0-3.0-1.321","../audio/11-6-fem.mp3"," ","","e","","","",""
"","869","audio-keyboard-response","392","803189","0.0-3.0-1.322","../audio/11-7-fem.mp3"," ","","de","","","",""
"","1261","audio-keyboard-response","393","804725","0.0-3.0-1.323","../audio/11-8-fem.mp3"," ","","leitura.","","","",""
"","null","html-keyboard-response","394","806001","0.0-3.0-0.324-0.324","<span style= ""font-size:30px; font-family: monospace"">+</span>","null","fixation","","","","",""
"","949","audio-keyboard-response","395","807221","0.0-3.0-1.324","../audio/14-1-masc.mp3"," ","","O","","","",""
"","1120","audio-keyboard-response","396","808613","0.0-3.0-1.325","../audio/14-2-masc.mp3"," ","","cachorro","","","",""
"","819","audio-keyboard-response","397","809701","0.0-3.0-1.326","../audio/14-3-masc.mp3"," ","","é","","","",""
"","1011","audio-keyboard-response","398","810997","0.0-3.0-1.327","../audio/14-4-masc.mp3"," ","","muito","","","",""
"","941","audio-keyboard-response","399","812213","0.0-3.0-1.328","../audio/14-5-masc.mp3"," ","","fiel","","","",""
"","888","audio-keyboard-response","400","813381","0.0-3.0-1.329","../audio/14-6-masc.mp3"," ","","a","","","",""
"","1032","audio-keyboard-response","401","814693","0.0-3.0-1.330","../audio/14-7-masc.mp3"," ","","seus","","","",""
"","979","audio-keyboard-response","402","815941","0.0-3.0-1.331","../audio/14-8-masc.mp3"," ","","donos.","","","",""
"","null","html-keyboard-response","403","817214","0.0-3.0-0.332-0.332","<span style= ""font-size:30px; font-family: monospace"">+</span>","null","fixation","","","","",""
"","909","audio-keyboard-response","404","818405","0.0-3.0-1.332","../audio/13-1-fem.mp3"," ","","Para","","","",""
"","891","audio-keyboard-response","405","819573","0.0-3.0-1.333","../audio/13-2-fem.mp3"," ","","mim","","","",""
"","869","audio-keyboard-response","406","820724","0.0-3.0-1.334","../audio/13-3-fem.mp3"," ","","é","","","",""
"","960","audio-keyboard-response","407","821956","0.0-3.0-1.335","../audio/13-4-fem.mp3"," ","","muito","","","",""
"","1109","audio-keyboard-response","408","823349","0.0-3.0-1.336","../audio/13-5-fem.mp3"," ","","difícil","","","",""
"","1240","audio-keyboard-response","409","824868","0.0-3.0-1.337","../audio/13-6-fem.mp3"," ","","acordar","","","",""
"","1152","audio-keyboard-response","410","826292","0.0-3.0-1.338","../audio/13-7-fem.mp3"," ","","cedo.","","","",""
"","null","html-keyboard-response","411","827561","0.0-3.0-0.339-0.339","<span style= ""font-size:30px; font-family: monospace"">+</span>","null","fixation","","","","",""
"","909","audio-keyboard-response","412","828756","0.0-3.0-1.339","../audio/15-1-masc.mp3"," ","","Meu","","","",""
"","891","audio-keyboard-response","413","829924","0.0-3.0-1.340","../audio/15-2-masc.mp3"," ","","primo","","","",""
"","829","audio-keyboard-response","414","831028","0.0-3.0-1.341","../audio/15-3-masc.mp3"," ","","é","","","",""
"","861","audio-keyboard-response","415","832164","0.0-3.0-1.342","../audio/15-4-masc.mp3"," ","","um","","","",""
"","1069","audio-keyboard-response","416","833508","0.0-3.0-1.343","../audio/15-5-masc.mp3"," ","","grande","","","",""
"","1248","audio-keyboard-response","417","835028","0.0-3.0-1.344","../audio/15-6-masc.mp3"," ","","vendedor","","","",""
"","888","audio-keyboard-response","418","836180","0.0-3.0-1.345","../audio/15-7-masc.mp3"," ","","de","","","",""
"","720","audio-keyboard-response","419","837172","0.0-3.0-1.346","../audio/15-8-masc.mp3"," ","","carros.","","","",""
"","3139","html-keyboard-response","420","840564","0.0-3.0-2.346-0.346","<span style=""font-size:25px; font-family: monospace"">O primo é um vendedor de carros?</span>","s","","","O primo é um vendedor de carros?","null","exp-sent","false"
"","null","html-keyboard-response","421","842090","0.0-3.0-0.347-0.347","<span style= ""font-size:30px; font-family: monospace"">+</span>","null","fixation","","","","",""
"","1541","audio-keyboard-response","422","843924","0.0-3.0-1.347","../audio/21-1-fem.mp3"," ","","Precisamos","","","",""
"","931","audio-keyboard-response","423","845124","0.0-3.0-1.348","../audio/21-2-fem.mp3"," ","","de","","","",""
"","1141","audio-keyboard-response","424","846532","0.0-3.0-1.349","../audio/21-3-fem.mp3"," ","","paciência","","","",""
"","1368","audio-keyboard-response","425","848180","0.0-3.0-1.350","../audio/21-4-fem.mp3"," ","","e","","","",""
"","1168","audio-keyboard-response","426","849620","0.0-3.0-1.351","../audio/21-5-fem.mp3"," ","","bondade","","","",""
"","1000","audio-keyboard-response","427","850900","0.0-3.0-1.352","../audio/21-6-fem.mp3"," ","","para","","","",""
"","872","audio-keyboard-response","428","852052","0.0-3.0-1.353","../audio/21-7-fem.mp3"," ","","um","","","",""
"","1048","audio-keyboard-response","429","853380","0.0-3.0-1.354","../audio/21-8-fem.mp3"," ","","mundo","","","",""
"","1120","audio-keyboard-response","430","854789","0.0-3.0-1.355","../audio/21-9-fem.mp3"," ","","melhor.","","","",""
"","null","html-keyboard-response","431","856062","0.0-3.0-0.356-0.356","<span style= ""font-size:30px; font-family: monospace"">+</span>","null","fixation","","","","",""
"","891","audio-keyboard-response","432","857236","0.0-3.0-1.356","../audio/24-1-masc.mp3"," ","","As","","","",""
"","1131","audio-keyboard-response","433","858644","0.0-3.0-1.357","../audio/24-2-masc.mp3"," ","","crianças","","","",""
"","989","audio-keyboard-response","434","859908","0.0-3.0-1.358","../audio/24-3-masc.mp3"," ","","vão","","","",""
"","1048","audio-keyboard-response","435","861220","0.0-3.0-1.359","../audio/24-4-masc.mp3"," ","","ao","","","",""
"","1208","audio-keyboard-response","436","862708","0.0-3.0-1.360","../audio/24-5-masc.mp3"," ","","cinema","","","",""
"","1048","audio-keyboard-response","437","864020","0.0-3.0-1.361","../audio/24-6-masc.mp3"," ","","mais","","","",""
"","909","audio-keyboard-response","438","865204","0.0-3.0-1.362","../audio/24-7-masc.mp3"," ","","tarde.","","","",""
"","null","html-keyboard-response","439","866473","0.0-3.0-0.363-0.363","<span style= ""font-size:30px; font-family: monospace"">+</span>","null","fixation","","","","",""
"","899","audio-keyboard-response","440","867668","0.0-3.0-1.363","../audio/22-1-masc.mp3"," ","","Eu","","","",""
"","832","audio-keyboard-response","441","868772","0.0-3.0-1.364","../audio/22-2-masc.mp3"," ","","detesto","","","",""
"","1179","audio-keyboard-response","442","870228","0.0-3.0-1.365","../audio/22-3-masc.mp3"," ","","fumaça","","","",""
"","808","audio-keyboard-response","443","871300","0.0-3.0-1.366","../audio/22-4-masc.mp3"," ","","de","","","",""
"","1128","audio-keyboard-response","444","872708","0.0-3.0-1.367","../audio/22-5-masc.mp3"," ","","cachimbo","","","",""
"","971","audio-keyboard-response","445","873956","0.0-3.0-1.368","../audio/22-6-masc.mp3"," ","","e","","","",""
"","949","audio-keyboard-response","446","875188","0.0-3.0-1.369","../audio/22-7-masc.mp3"," ","","de","","","",""
"","1128","audio-keyboard-response","447","876580","0.0-3.0-1.370","../audio/22-8-masc.mp3"," ","","cigarro.","","","",""
"","null","html-keyboard-response","448","877844","0.0-3.0-0.371-0.371","<span style= ""font-size:30px; font-family: monospace"">+</span>","null","fixation","","","","",""
"","1360","audio-keyboard-response","449","879492","0.0-3.0-1.371","../audio/23-1-fem.mp3"," ","","Português","","","",""
"","1269","audio-keyboard-response","450","881044","0.0-3.0-1.372","../audio/23-2-fem.mp3"," ","","é","","","",""
"","771","audio-keyboard-response","451","882084","0.0-3.0-1.373","../audio/23-3-fem.mp3"," ","","um","","","",""
"","1360","audio-keyboard-response","452","883716","0.0-3.0-1.374","../audio/23-4-fem.mp3"," ","","assunto","","","",""
"","1640","audio-keyboard-response","453","885636","0.0-3.0-1.375","../audio/23-5-fem.mp3"," ","","elementar","","","",""
"","909","audio-keyboard-response","454","886820","0.0-3.0-1.376","../audio/23-6-fem.mp3"," ","","para","","","",""
"","928","audio-keyboard-response","455","888020","0.0-3.0-1.377","../audio/23-7-fem.mp3"," ","","os","","","",""
"","1061","audio-keyboard-response","456","889365","0.0-3.0-1.378","../audio/23-8-fem.mp3"," ","","alunos.","","","",""
"","null","html-keyboard-response","457","890644","0.0-3.0-0.379-0.379","<span style= ""font-size:30px; font-family: monospace"">+</span>","null","fixation","","","","",""
"","832","audio-keyboard-response","458","891732","0.0-3.0-1.379","../audio/25-1-masc.mp3"," ","","Ela","","","",""
"","859","audio-keyboard-response","459","892868","0.0-3.0-1.380","../audio/25-2-masc.mp3"," ","","faz","","","",""
"","840","audio-keyboard-response","460","893972","0.0-3.0-1.381","../audio/25-3-masc.mp3"," ","","tanto","","","",""
"","979","audio-keyboard-response","461","895236","0.0-3.0-1.382","../audio/25-4-masc.mp3"," ","","cabelo","","","",""
"","901","audio-keyboard-response","462","896404","0.0-3.0-1.383","../audio/25-5-masc.mp3"," ","","liso","","","",""
"","901","audio-keyboard-response","463","897573","0.0-3.0-1.384","../audio/25-6-masc.mp3"," ","","quanto","","","",""
"","931","audio-keyboard-response","464","898772","0.0-3.0-1.385","../audio/25-7-masc.mp3"," ","","cacheado.","","","",""
"","2231","html-keyboard-response","465","901268","0.0-3.0-2.385-0.385","<span style=""font-size:25px; font-family: monospace"">Ela só faz cabelo cacheado?</span>","s","","","Ela só faz cabelo cacheado?","null","exp-sent","false"
"","null","html-keyboard-response","466","902795","0.0-3.0-0.386-0.386","<span style= ""font-size:30px; font-family: monospace"">+</span>","null","fixation","","","","",""
"","851","audio-keyboard-response","467","903924","0.0-3.0-1.386","../audio/28-1-fem.mp3"," ","","O","","","",""
"","939","audio-keyboard-response","468","905140","0.0-3.0-1.387","../audio/28-2-fem.mp3"," ","","time","","","",""
"","888","audio-keyboard-response","469","906308","0.0-3.0-1.388","../audio/28-3-fem.mp3"," ","","quer","","","",""
"","800","audio-keyboard-response","470","907380","0.0-3.0-1.389","../audio/28-4-fem.mp3"," ","","a","","","",""
"","1491","audio-keyboard-response","471","909157","0.0-3.0-1.390","../audio/28-5-fem.mp3"," ","","vitória","","","",""
"","880","audio-keyboard-response","472","910308","0.0-3.0-1.391","../audio/28-6-fem.mp3"," ","","no","","","",""
"","1181","audio-keyboard-response","473","911764","0.0-3.0-1.392","../audio/28-7-fem.mp3"," ","","jogo","","","",""
"","901","audio-keyboard-response","474","912932","0.0-3.0-1.393","../audio/28-8-fem.mp3"," ","","de","","","",""
"","1011","audio-keyboard-response","475","914212","0.0-3.0-1.394","../audio/28-9-fem.mp3"," ","","vôlei.","","","",""
"","null","html-keyboard-response","476","915475","0.0-3.0-0.395-0.395","<span style= ""font-size:30px; font-family: monospace"">+</span>","null","fixation","","","","",""
"","1000","audio-keyboard-response","477","916756","0.0-3.0-1.395","../audio/29-1-masc.mp3"," ","","Hoje","","","",""
"","1000","audio-keyboard-response","478","918036","0.0-3.0-1.396","../audio/29-2-masc.mp3"," ","","vamos","","","",""
"","952","audio-keyboard-response","479","919253","0.0-3.0-1.397","../audio/29-3-masc.mp3"," ","","fazer","","","",""
"","859","audio-keyboard-response","480","920388","0.0-3.0-1.398","../audio/29-4-masc.mp3"," ","","uma","","","",""
"","1349","audio-keyboard-response","481","922004","0.0-3.0-1.399","../audio/29-5-masc.mp3"," ","","atividade","","","",""
"","979","audio-keyboard-response","482","923268","0.0-3.0-1.400","../audio/29-6-masc.mp3"," ","","sobre","","","",""
"","992","audio-keyboard-response","483","924532","0.0-3.0-1.401","../audio/29-7-masc.mp3"," ","","fauna","","","",""
"","848","audio-keyboard-response","484","925668","0.0-3.0-1.402","../audio/29-8-masc.mp3"," ","","marinha.","","","",""
"","null","html-keyboard-response","485","926925","0.0-3.0-0.403-0.403","<span style= ""font-size:30px; font-family: monospace"">+</span>","null","fixation","","","","",""
"","699","audio-keyboard-response","486","927908","0.0-3.0-1.403","../audio/27-1-fem.mp3"," ","","O","","","",""
"","1000","audio-keyboard-response","487","929188","0.0-3.0-1.404","../audio/27-2-fem.mp3"," ","","dinheiro","","","",""
"","1059","audio-keyboard-response","488","930517","0.0-3.0-1.405","../audio/27-3-fem.mp3"," ","","chegou","","","",""
"","789","audio-keyboard-response","489","931588","0.0-3.0-1.406","../audio/27-4-fem.mp3"," ","","à","","","",""
"","880","audio-keyboard-response","490","932740","0.0-3.0-1.407","../audio/27-5-fem.mp3"," ","","elite","","","",""
"","1179","audio-keyboard-response","491","934196","0.0-3.0-1.408","../audio/27-6-fem.mp3"," ","","deste","","","",""
"","1051","audio-keyboard-response","492","935524","0.0-3.0-1.409","../audio/27-7-fem.mp3"," ","","país.","","","",""
"","null","html-keyboard-response","493","936800","0.0-3.0-0.410-0.410","<span style= ""font-size:30px; font-family: monospace"">+</span>","null","fixation","","","","",""
"","1091","audio-keyboard-response","494","938164","0.0-3.0-1.410","../audio/26-1-fem.mp3"," ","","Amanhã","","","",""
"","939","audio-keyboard-response","495","939380","0.0-3.0-1.411","../audio/26-2-fem.mp3"," ","","temos","","","",""
"","949","audio-keyboard-response","496","940597","0.0-3.0-1.412","../audio/26-3-fem.mp3"," ","","festa","","","",""
"","960","audio-keyboard-response","497","941828","0.0-3.0-1.413","../audio/26-4-fem.mp3"," ","","na","","","",""
"","1149","audio-keyboard-response","498","943268","0.0-3.0-1.414","../audio/26-5-fem.mp3"," ","","piscina","","","",""
"","880","audio-keyboard-response","499","944420","0.0-3.0-1.415","../audio/26-6-fem.mp3"," ","","o","","","",""
"","960","audio-keyboard-response","500","945652","0.0-3.0-1.416","../audio/26-7-fem.mp3"," ","","dia","","","",""
"","869","audio-keyboard-response","501","946804","0.0-3.0-1.417","../audio/26-8-fem.mp3"," ","","todo.","","","",""
"","null","html-keyboard-response","502","948073","0.0-3.0-0.418-0.418","<span style= ""font-size:30px; font-family: monospace"">+</span>","null","fixation","","","","",""
"","771","audio-keyboard-response","503","949124","0.0-3.0-1.418","../audio/30-1-fem.mp3"," ","","O","","","",""
"","1221","audio-keyboard-response","504","950612","0.0-3.0-1.419","../audio/30-2-fem.mp3"," ","","funcionário","","","",""
"","1229","audio-keyboard-response","505","952116","0.0-3.0-1.420","../audio/30-3-fem.mp3"," ","","entregou","","","",""
"","880","audio-keyboard-response","506","953268","0.0-3.0-1.421","../audio/30-4-fem.mp3"," ","","o","","","",""
"","1480","audio-keyboard-response","507","955028","0.0-3.0-1.422","../audio/30-5-fem.mp3"," ","","restante","","","",""
"","891","audio-keyboard-response","508","956197","0.0-3.0-1.423","../audio/30-6-fem.mp3"," ","","do","","","",""
"","1160","audio-keyboard-response","509","957636","0.0-3.0-1.424","../audio/30-7-fem.mp3"," ","","dinheiro.","","","",""
"","1422","html-keyboard-response","510","959316","0.0-3.0-2.424-0.424","<span style=""font-size:25px; font-family: monospace"">O funcionário entregou o contrato?</span>","s","","","O funcionário entregou o contrato?","null","exp-sent","false"
"","null","html-keyboard-response","511","960840","0.0-3.0-0.425-0.425","<span style= ""font-size:30px; font-family: monospace"">+</span>","null","fixation","","","","",""
"","1339","audio-keyboard-response","512","962468","0.0-3.0-1.425","../audio/61-1-masc.mp3"," ","","Aquele","","","",""
"","1261","audio-keyboard-response","513","964004","0.0-3.0-1.426","../audio/61-2-masc.mp3"," ","","senhor","","","",""
"","901","audio-keyboard-response","514","965172","0.0-3.0-1.427","../audio/61-3-masc.mp3"," ","","é","","","",""
"","1120","audio-keyboard-response","515","966564","0.0-3.0-1.428","../audio/61-4-masc.mp3"," ","","muito","","","",""
"","1349","audio-keyboard-response","516","968196","0.0-3.0-1.429","../audio/61-5-masc.mp3"," ","","sovina","","","",""
"","920","audio-keyboard-response","517","969380","0.0-3.0-1.430","../audio/61-6-masc.mp3"," ","","e","","","",""
"","1560","audio-keyboard-response","518","971220","0.0-3.0-1.431","../audio/61-7-masc.mp3"," ","","inflexível.","","","",""
"","null","html-keyboard-response","519","972471","0.0-3.0-0.432-0.432","<span style= ""font-size:30px; font-family: monospace"">+</span>","null","fixation","","","","",""
"","691","audio-keyboard-response","520","973444","0.0-3.0-1.432","../audio/63-1-fem.mp3"," ","","A","","","",""
"","1269","audio-keyboard-response","521","974996","0.0-3.0-1.433","../audio/63-2-fem.mp3"," ","","chuva","","","",""
"","1149","audio-keyboard-response","522","976420","0.0-3.0-1.434","../audio/63-3-fem.mp3"," ","","entrou","","","",""
"","899","audio-keyboard-response","523","977588","0.0-3.0-1.435","../audio/63-4-fem.mp3"," ","","pela","","","",""
"","1488","audio-keyboard-response","524","979348","0.0-3.0-1.436","../audio/63-5-fem.mp3"," ","","abertura","","","",""
"","971","audio-keyboard-response","525","980596","0.0-3.0-1.437","../audio/63-6-fem.mp3"," ","","na","","","",""
"","1200","audio-keyboard-response","526","982068","0.0-3.0-1.438","../audio/63-7-fem.mp3"," ","","janela.","","","",""
"","null","html-keyboard-response","527","983342","0.0-3.0-0.439-0.439","<span style= ""font-size:30px; font-family: monospace"">+</span>","null","fixation","","","","",""
"","1120","audio-keyboard-response","528","984740","0.0-3.0-1.439","../audio/62-1-fem.mp3"," ","","As","","","",""
"","1368","audio-keyboard-response","529","986388","0.0-3.0-1.440","../audio/62-2-fem.mp3"," ","","artesãs","","","",""
"","1008","audio-keyboard-response","530","987668","0.0-3.0-1.441","../audio/62-3-fem.mp3"," ","","gostam","","","",""
"","992","audio-keyboard-response","531","988932","0.0-3.0-1.442","../audio/62-4-fem.mp3"," ","","de","","","",""
"","1389","audio-keyboard-response","532","990596","0.0-3.0-1.443","../audio/62-5-fem.mp3"," ","","maquiagem","","","",""
"","872","audio-keyboard-response","533","991732","0.0-3.0-1.444","../audio/62-6-fem.mp3"," ","","e","","","",""
"","979","audio-keyboard-response","534","992980","0.0-3.0-1.445","../audio/62-7-fem.mp3"," ","","de","","","",""
"","1149","audio-keyboard-response","535","994404","0.0-3.0-1.446","../audio/62-8-fem.mp3"," ","","crochê.","","","",""
"","null","html-keyboard-response","536","995674","0.0-3.0-0.447-0.447","<span style= ""font-size:30px; font-family: monospace"">+</span>","null","fixation","","","","",""
"","800","audio-keyboard-response","537","996756","0.0-3.0-1.447","../audio/64-1-fem.mp3"," ","","O","","","",""
"","891","audio-keyboard-response","538","997924","0.0-3.0-1.448","../audio/64-2-fem.mp3"," ","","dia","","","",""
"","1160","audio-keyboard-response","539","999364","0.0-3.0-1.449","../audio/64-3-fem.mp3"," ","","começou","","","",""
"","880","audio-keyboard-response","540","1000516","0.0-3.0-1.450","../audio/64-4-fem.mp3"," ","","com","","","",""
"","1109","audio-keyboard-response","541","1001908","0.0-3.0-1.451","../audio/64-5-fem.mp3"," ","","garoa","","","",""
"","1320","audio-keyboard-response","542","1003508","0.0-3.0-1.452","../audio/64-6-fem.mp3"," ","","gelada","","","",""
"","840","audio-keyboard-response","543","1004612","0.0-3.0-1.453","../audio/64-7-fem.mp3"," ","","e","","","",""
"","1059","audio-keyboard-response","544","1005940","0.0-3.0-1.454","../audio/64-8-fem.mp3"," ","","leve.","","","",""
"","null","html-keyboard-response","545","1007206","0.0-3.0-0.455-0.455","<span style= ""font-size:30px; font-family: monospace"">+</span>","null","fixation","","","","",""
"","851","audio-keyboard-response","546","1008324","0.0-3.0-1.455","../audio/65-1-masc.mp3"," ","","O","","","",""
"","1061","audio-keyboard-response","547","1009652","0.0-3.0-1.456","../audio/65-2-masc.mp3"," ","","fantasma","","","",""
"","931","audio-keyboard-response","548","1010852","0.0-3.0-1.457","../audio/65-3-masc.mp3"," ","","veio","","","",""
"","851","audio-keyboard-response","549","1011972","0.0-3.0-1.458","../audio/65-4-masc.mp3"," ","","da","","","",""
"","1411","audio-keyboard-response","550","1013652","0.0-3.0-1.459","../audio/65-5-masc.mp3"," ","","escuridão","","","",""
"","899","audio-keyboard-response","551","1014820","0.0-3.0-1.460","../audio/65-6-masc.mp3"," ","","do","","","",""
"","1112","audio-keyboard-response","552","1016212","0.0-3.0-1.461","../audio/65-7-masc.mp3"," ","","armário.","","","",""
"","977","html-keyboard-response","553","1017444","0.0-3.0-2.461-0.461","<span style=""font-size:25px; font-family: monospace"">O fantasma veio da escuridão do armário?</span>","s","","","O fantasma veio da escuridão do armário?","null","exp-sent","false"
"","null","html-keyboard-response","554","1018952","0.0-3.0-0.462-0.462","<span style= ""font-size:30px; font-family: monospace"">+</span>","null","fixation","","","","",""
"","1011","audio-keyboard-response","555","1020244","0.0-3.0-1.462","../audio/49-1-masc.mp3"," ","","Eu","","","",""
"","920","audio-keyboard-response","556","1021444","0.0-3.0-1.463","../audio/49-2-masc.mp3"," ","","quero","","","",""
"","960","audio-keyboard-response","557","1022676","0.0-3.0-1.464","../audio/49-3-masc.mp3"," ","","um","","","",""
"","1021","audio-keyboard-response","558","1023972","0.0-3.0-1.465","../audio/49-4-masc.mp3"," ","","lanche","","","",""
"","1000","audio-keyboard-response","559","1025252","0.0-3.0-1.466","../audio/49-5-masc.mp3"," ","","duplo","","","",""
"","819","audio-keyboard-response","560","1026340","0.0-3.0-1.467","../audio/49-6-masc.mp3"," ","","e","","","",""
"","851","audio-keyboard-response","561","1027476","0.0-3.0-1.468","../audio/49-7-masc.mp3"," ","","um","","","",""
"","981","audio-keyboard-response","562","1028724","0.0-3.0-1.469","../audio/49-8-masc.mp3"," ","","suco.","","","",""
"","null","html-keyboard-response","563","1029991","0.0-3.0-0.470-0.470","<span style= ""font-size:30px; font-family: monospace"">+</span>","null","fixation","","","","",""
"","1171","audio-keyboard-response","564","1031444","0.0-3.0-1.470","../audio/47-1-fem.mp3"," ","","O","","","",""
"","909","audio-keyboard-response","565","1032628","0.0-3.0-1.471","../audio/47-2-fem.mp3"," ","","tio","","","",""
"","1088","audio-keyboard-response","566","1033988","0.0-3.0-1.472","../audio/47-3-fem.mp3"," ","","recusou","","","",""
"","941","audio-keyboard-response","567","1035204","0.0-3.0-1.473","../audio/47-4-fem.mp3"," ","","a","","","",""
"","1531","audio-keyboard-response","568","1037012","0.0-3.0-1.474","../audio/47-5-fem.mp3"," ","","sobremesa","","","",""
"","789","audio-keyboard-response","569","1038084","0.0-3.0-1.475","../audio/47-6-fem.mp3"," ","","no","","","",""
"","1139","audio-keyboard-response","570","1039508","0.0-3.0-1.476","../audio/47-7-fem.mp3"," ","","almoço.","","","",""
"","null","html-keyboard-response","571","1040774","0.0-3.0-0.477-0.477","<span style= ""font-size:30px; font-family: monospace"">+</span>","null","fixation","","","","",""
"","811","audio-keyboard-response","572","1041876","0.0-3.0-1.477","../audio/48-1-fem.mp3"," ","","Ela","","","",""
"","869","audio-keyboard-response","573","1043028","0.0-3.0-1.478","../audio/48-2-fem.mp3"," ","","come","","","",""
"","920","audio-keyboard-response","574","1044228","0.0-3.0-1.479","../audio/48-3-fem.mp3"," ","","feijão","","","",""
"","789","audio-keyboard-response","575","1045284","0.0-3.0-1.480","../audio/48-4-fem.mp3"," ","","com","","","",""
"","989","audio-keyboard-response","576","1046548","0.0-3.0-1.481","../audio/48-5-fem.mp3"," ","","arroz","","","",""
"","869","audio-keyboard-response","577","1047684","0.0-3.0-1.482","../audio/48-6-fem.mp3"," ","","todos","","","",""
"","789","audio-keyboard-response","578","1048756","0.0-3.0-1.483","../audio/48-7-fem.mp3"," ","","os","","","",""
"","941","audio-keyboard-response","579","1049972","0.0-3.0-1.484","../audio/48-8-fem.mp3"," ","","dias.","","","",""
"","null","html-keyboard-response","580","1051253","0.0-3.0-0.485-0.485","<span style= ""font-size:30px; font-family: monospace"">+</span>","null","fixation","","","","",""
"","789","audio-keyboard-response","581","1052324","0.0-3.0-1.485","../audio/46-1-masc.mp3"," ","","Meu","","","",""
"","859","audio-keyboard-response","582","1053460","0.0-3.0-1.486","../audio/46-2-masc.mp3"," ","","primo","","","",""
"","968","audio-keyboard-response","583","1054708","0.0-3.0-1.487","../audio/46-3-masc.mp3"," ","","estava","","","",""
"","949","audio-keyboard-response","584","1055924","0.0-3.0-1.488","../audio/46-4-masc.mp3"," ","","muito","","","",""
"","949","audio-keyboard-response","585","1057140","0.0-3.0-1.489","../audio/46-5-masc.mp3"," ","","deprimido","","","",""
"","888","audio-keyboard-response","586","1058308","0.0-3.0-1.490","../audio/46-6-masc.mp3"," ","","no","","","",""
"","941","audio-keyboard-response","587","1059524","0.0-3.0-1.491","../audio/46-7-masc.mp3"," ","","inverno.","","","",""
"","null","html-keyboard-response","588","1060799","0.0-3.0-0.492-0.492","<span style= ""font-size:30px; font-family: monospace"">+</span>","null","fixation","","","","",""
"","589","audio-keyboard-response","589","1061668","0.0-3.0-1.492","../audio/50-1-masc.mp3"," ","","O","","","",""
"","869","audio-keyboard-response","590","1062804","0.0-3.0-1.493","../audio/50-2-masc.mp3"," ","","pássaro","","","",""
"","819","audio-keyboard-response","591","1063908","0.0-3.0-1.494","../audio/50-3-masc.mp3"," ","","fugiu","","","",""
"","731","audio-keyboard-response","592","1064916","0.0-3.0-1.495","../audio/50-4-masc.mp3"," ","","da","","","",""
"","792","audio-keyboard-response","593","1065972","0.0-3.0-1.496","../audio/50-5-masc.mp3"," ","","gaiola","","","",""
"","880","audio-keyboard-response","594","1067124","0.0-3.0-1.497","../audio/50-6-masc.mp3"," ","","pela","","","",""
"","1120","audio-keyboard-response","595","1068516","0.0-3.0-1.498","../audio/50-7-masc.mp3"," ","","portinhola.","","","",""
"","931","html-keyboard-response","596","1069700","0.0-3.0-2.498-0.498","<span style=""font-size:25px; font-family: monospace"">O pássaro fugiu da gaiola?</span>","s","","","O pássaro fugiu da gaiola?","null","exp-sent","false"
"","null","html-keyboard-response","597","1071223","0.0-3.0-0.499-0.499","<span style= ""font-size:30px; font-family: monospace"">+</span>","null","fixation","","","","",""
"","901","audio-keyboard-response","598","1072404","0.0-3.0-1.499","../audio/59-1-fem.mp3"," ","","O","","","",""
"","1149","audio-keyboard-response","599","1073828","0.0-3.0-1.500","../audio/59-2-fem.mp3"," ","","carteiro","","","",""
"","1048","audio-keyboard-response","600","1075140","0.0-3.0-1.501","../audio/59-3-fem.mp3"," ","","fez","","","",""
"","859","audio-keyboard-response","601","1076276","0.0-3.0-1.502","../audio/59-4-fem.mp3"," ","","uma","","","",""
"","949","audio-keyboard-response","602","1077508","0.0-3.0-1.503","../audio/59-5-fem.mp3"," ","","tentativa","","","",""
"","891","audio-keyboard-response","603","1078676","0.0-3.0-1.504","../audio/59-6-fem.mp3"," ","","de","","","",""
"","1080","audio-keyboard-response","604","1080020","0.0-3.0-1.505","../audio/59-7-fem.mp3"," ","","entrega.","","","",""
"","null","html-keyboard-response","605","1081283","0.0-3.0-0.506-0.506","<span style= ""font-size:30px; font-family: monospace"">+</span>","null","fixation","","","","",""
"","1059","audio-keyboard-response","606","1082628","0.0-3.0-1.506","../audio/58-1-fem.mp3"," ","","Havia","","","",""
"","1109","audio-keyboard-response","607","1084020","0.0-3.0-1.507","../audio/58-2-fem.mp3"," ","","apenas","","","",""
"","848","audio-keyboard-response","608","1085140","0.0-3.0-1.508","../audio/58-3-fem.mp3"," ","","um","","","",""
"","1168","audio-keyboard-response","609","1086580","0.0-3.0-1.509","../audio/58-4-fem.mp3"," ","","último","","","",""
"","1168","audio-keyboard-response","610","1088020","0.0-3.0-1.510","../audio/58-5-fem.mp3"," ","","herdeiro","","","",""
"","1000","audio-keyboard-response","611","1089284","0.0-3.0-1.511","../audio/58-6-fem.mp3"," ","","do","","","",""
"","1189","audio-keyboard-response","612","1090740","0.0-3.0-1.512","../audio/58-7-fem.mp3"," ","","dinheiro.","","","",""
"","null","html-keyboard-response","613","1092004","0.0-3.0-0.513-0.513","<span style= ""font-size:30px; font-family: monospace"">+</span>","null","fixation","","","","",""
"","869","audio-keyboard-response","614","1093156","0.0-3.0-1.513","../audio/56-1-masc.mp3"," ","","A","","","",""
"","981","audio-keyboard-response","615","1094404","0.0-3.0-1.514","../audio/56-2-masc.mp3"," ","","moça","","","",""
"","861","audio-keyboard-response","616","1095524","0.0-3.0-1.515","../audio/56-3-masc.mp3"," ","","foi","","","",""
"","829","audio-keyboard-response","617","1096628","0.0-3.0-1.516","../audio/56-4-masc.mp3"," ","","à","","","",""
"","1232","audio-keyboard-response","618","1098132","0.0-3.0-1.517","../audio/56-5-masc.mp3"," ","","agência","","","",""
"","909","audio-keyboard-response","619","1099316","0.0-3.0-1.518","../audio/56-6-masc.mp3"," ","","bancária","","","",""
"","989","audio-keyboard-response","620","1100580","0.0-3.0-1.519","../audio/56-7-masc.mp3"," ","","ontem","","","",""
"","829","audio-keyboard-response","621","1101684","0.0-3.0-1.520","../audio/56-8-masc.mp3"," ","","de","","","",""
"","920","audio-keyboard-response","622","1102884","0.0-3.0-1.521","../audio/56-9-masc.mp3"," ","","tarde.","","","",""
"","null","html-keyboard-response","623","1104157","0.0-3.0-0.522-0.522","<span style= ""font-size:30px; font-family: monospace"">+</span>","null","fixation","","","","",""
"","811","audio-keyboard-response","624","1105252","0.0-3.0-1.522","../audio/57-1-fem.mp3"," ","","O","","","",""
"","1168","audio-keyboard-response","625","1106708","0.0-3.0-1.523","../audio/57-2-fem.mp3"," ","","capitão","","","",""
"","960","audio-keyboard-response","626","1107940","0.0-3.0-1.524","../audio/57-3-fem.mp3"," ","","deu","","","",""
"","952","audio-keyboard-response","627","1109172","0.0-3.0-1.525","../audio/57-4-fem.mp3"," ","","uma","","","",""
"","1168","audio-keyboard-response","628","1110628","0.0-3.0-1.526","../audio/57-5-fem.mp3"," ","","instrução","","","",""
"","992","audio-keyboard-response","629","1111892","0.0-3.0-1.527","../audio/57-6-fem.mp3"," ","","para","","","",""
"","880","audio-keyboard-response","630","1113044","0.0-3.0-1.528","../audio/57-7-fem.mp3"," ","","as","","","",""
"","1000","audio-keyboard-response","631","1114324","0.0-3.0-1.529","../audio/57-8-fem.mp3"," ","","pessoas.","","","",""
"","null","html-keyboard-response","632","1115589","0.0-3.0-0.530-0.530","<span style= ""font-size:30px; font-family: monospace"">+</span>","null","fixation","","","","",""
"","880","audio-keyboard-response","633","1116756","0.0-3.0-1.530","../audio/60-1-masc.mp3"," ","","Ondas","","","",""
"","829","audio-keyboard-response","634","1117860","0.0-3.0-1.531","../audio/60-2-masc.mp3"," ","","têm","","","",""
"","840","audio-keyboard-response","635","1118964","0.0-3.0-1.532","../audio/60-3-masc.mp3"," ","","um","","","",""
"","1309","audio-keyboard-response","636","1120548","0.0-3.0-1.533","../audio/60-4-masc.mp3"," ","","impacto","","","",""
"","1488","audio-keyboard-response","637","1122308","0.0-3.0-1.534","../audio/60-5-masc.mp3"," ","","destrutivo","","","",""
"","928","audio-keyboard-response","638","1123508","0.0-3.0-1.535","../audio/60-6-masc.mp3"," ","","no","","","",""
"","1160","audio-keyboard-response","639","1124948","0.0-3.0-1.536","../audio/60-7-masc.mp3"," ","","litoral.","","","",""
"","637","html-keyboard-response","640","1125844","0.0-3.0-2.536-0.536","<span style=""font-size:25px; font-family: monospace"">Ondas têm um impacto destrutivo?</span>","s","","","Ondas têm um impacto destrutivo?","null","exp-sent","false"
"","null","html-keyboard-response","641","1127358","0.0-3.0-0.537-0.537","<span style= ""font-size:30px; font-family: monospace"">+</span>","null","fixation","","","","",""
"","971","audio-keyboard-response","642","1128596","0.0-3.0-1.537","../audio/19-1-masc.mp3"," ","","O","","","",""
"","949","audio-keyboard-response","643","1129828","0.0-3.0-1.538","../audio/19-2-masc.mp3"," ","","menino","","","",""
"","1040","audio-keyboard-response","644","1131140","0.0-3.0-1.539","../audio/19-3-masc.mp3"," ","","ganhou","","","",""
"","888","audio-keyboard-response","645","1132308","0.0-3.0-1.540","../audio/19-4-masc.mp3"," ","","uma","","","",""
"","1008","audio-keyboard-response","646","1133588","0.0-3.0-1.541","../audio/19-5-masc.mp3"," ","","bala","","","",""
"","1101","audio-keyboard-response","647","1134964","0.0-3.0-1.542","../audio/19-6-masc.mp3"," ","","depois","","","",""
"","789","audio-keyboard-response","648","1136036","0.0-3.0-1.543","../audio/19-7-masc.mp3"," ","","do","","","",""
"","1280","audio-keyboard-response","649","1137588","0.0-3.0-1.544","../audio/19-8-masc.mp3"," ","","almoço.","","","",""
"","null","html-keyboard-response","650","1138859","0.0-3.0-0.545-0.545","<span style= ""font-size:30px; font-family: monospace"">+</span>","null","fixation","","","","",""
"","971","audio-keyboard-response","651","1140116","0.0-3.0-1.545","../audio/17-1-masc.mp3"," ","","Falaram","","","",""
"","920","audio-keyboard-response","652","1141300","0.0-3.0-1.546","../audio/17-2-masc.mp3"," ","","da","","","",""
"","829","audio-keyboard-response","653","1142404","0.0-3.0-1.547","../audio/17-3-masc.mp3"," ","","lei","","","",""
"","829","audio-keyboard-response","654","1143508","0.0-3.0-1.548","../audio/17-4-masc.mp3"," ","","no","","","",""
"","1000","audio-keyboard-response","655","1144788","0.0-3.0-1.549","../audio/17-5-masc.mp3"," ","","ministério","","","",""
"","912","audio-keyboard-response","656","1145972","0.0-3.0-1.550","../audio/17-6-masc.mp3"," ","","diversas","","","",""
"","899","audio-keyboard-response","657","1147156","0.0-3.0-1.551","../audio/17-7-masc.mp3"," ","","vezes.","","","",""
"","null","html-keyboard-response","658","1148435","0.0-3.0-0.552-0.552","<span style= ""font-size:30px; font-family: monospace"">+</span>","null","fixation","","","","",""
"","811","audio-keyboard-response","659","1149524","0.0-3.0-1.552","../audio/18-1-fem.mp3"," ","","O","","","",""
"","949","audio-keyboard-response","660","1150740","0.0-3.0-1.553","../audio/18-2-fem.mp3"," ","","enredo","","","",""
"","960","audio-keyboard-response","661","1151972","0.0-3.0-1.554","../audio/18-3-fem.mp3"," ","","traz","","","",""
"","811","audio-keyboard-response","662","1153044","0.0-3.0-1.555","../audio/18-4-fem.mp3"," ","","um","","","",""
"","1211","audio-keyboard-response","663","1154532","0.0-3.0-1.556","../audio/18-5-fem.mp3"," ","","dragão","","","",""
"","1000","audio-keyboard-response","664","1155796","0.0-3.0-1.557","../audio/18-6-fem.mp3"," ","","forte","","","",""
"","749","audio-keyboard-response","665","1156820","0.0-3.0-1.558","../audio/18-7-fem.mp3"," ","","e","","","",""
"","1360","audio-keyboard-response","666","1158468","0.0-3.0-1.559","../audio/18-8-fem.mp3"," ","","solitário.","","","",""
"","null","html-keyboard-response","667","1159737","0.0-3.0-0.560-0.560","<span style= ""font-size:30px; font-family: monospace"">+</span>","null","fixation","","","","",""
"","728","audio-keyboard-response","668","1160740","0.0-3.0-1.560","../audio/16-1-masc.mp3"," ","","Eu","","","",""
"","928","audio-keyboard-response","669","1161940","0.0-3.0-1.561","../audio/16-2-masc.mp3"," ","","nunca","","","",""
"","1048","audio-keyboard-response","670","1163268","0.0-3.0-1.562","../audio/16-3-masc.mp3"," ","","conheci","","","",""
"","899","audio-keyboard-response","671","1164436","0.0-3.0-1.563","../audio/16-4-masc.mp3"," ","","um","","","",""
"","1061","audio-keyboard-response","672","1165764","0.0-3.0-1.564","../audio/16-5-masc.mp3"," ","","general","","","",""
"","771","audio-keyboard-response","673","1166804","0.0-3.0-1.565","../audio/16-6-masc.mp3"," ","","do","","","",""
"","1149","audio-keyboard-response","674","1168228","0.0-3.0-1.566","../audio/16-7-masc.mp3"," ","","exército.","","","",""
"","null","html-keyboard-response","675","1169486","0.0-3.0-0.567-0.567","<span style= ""font-size:30px; font-family: monospace"">+</span>","null","fixation","","","","",""
"","659","audio-keyboard-response","676","1170436","0.0-3.0-1.567","../audio/20-1-masc.mp3"," ","","O","","","",""
"","211","audio-keyboard-response","677","1170916","0.0-3.0-1.568","../audio/20-2-masc.mp3"," ","","colega","","","",""
"","851","audio-keyboard-response","678","1172036","0.0-3.0-1.569","../audio/20-3-masc.mp3"," ","","parecia","","","",""
"","909","audio-keyboard-response","679","1173220","0.0-3.0-1.570","../audio/20-4-masc.mp3"," ","","muito","","","",""
"","1008","audio-keyboard-response","680","1174500","0.0-3.0-1.571","../audio/20-5-masc.mp3"," ","","gripado","","","",""
"","901","audio-keyboard-response","681","1175684","0.0-3.0-1.572","../audio/20-6-masc.mp3"," ","","no","","","",""
"","840","audio-keyboard-response","682","1176804","0.0-3.0-1.573","../audio/20-7-masc.mp3"," ","","dia","","","",""
"","1141","audio-keyboard-response","683","1178212","0.0-3.0-1.574","../audio/20-8-masc.mp3"," ","","anterior.","","","",""
"","948","html-keyboard-response","684","1179412","0.0-3.0-2.574-0.574","<span style=""font-size:25px; font-family: monospace"">O colega parecia muito gripado?</span>","s","","","O colega parecia muito gripado?","null","exp-sent","false"
"","null","html-keyboard-response","685","1180933","0.0-3.0-0.575-0.575","<span style= ""font-size:30px; font-family: monospace"">+</span>","null","fixation","","","","",""
"","1139","audio-keyboard-response","686","1182340","0.0-3.0-1.575","../audio/08-1-masc.mp3"," ","","A","","","",""
"","1221","audio-keyboard-response","687","1183843","0.0-3.0-1.576","../audio/08-2-masc.mp3"," ","","receita","","","",""
"","1061","audio-keyboard-response","688","1185172","0.0-3.0-1.577","../audio/08-3-masc.mp3"," ","","pede","","","",""
"","931","audio-keyboard-response","689","1186372","0.0-3.0-1.578","../audio/08-4-masc.mp3"," ","","um","","","",""
"","1139","audio-keyboard-response","690","1187780","0.0-3.0-1.579","../audio/08-5-masc.mp3"," ","","litro","","","",""
"","981","audio-keyboard-response","691","1189043","0.0-3.0-1.580","../audio/08-6-masc.mp3"," ","","de","","","",""
"","1109","audio-keyboard-response","692","1190436","0.0-3.0-1.581","../audio/08-7-masc.mp3"," ","","leite","","","",""
"","1131","audio-keyboard-response","693","1191843","0.0-3.0-1.582","../audio/08-8-masc.mp3"," ","","integral.","","","",""
"","null","html-keyboard-response","694","1193101","0.0-3.0-0.583-0.583","<span style= ""font-size:30px; font-family: monospace"">+</span>","null","fixation","","","","",""
"","832","audio-keyboard-response","695","1194212","0.0-3.0-1.583","../audio/07-1-masc.mp3"," ","","Meu","","","",""
"","819","audio-keyboard-response","696","1195299","0.0-3.0-1.584","../audio/07-2-masc.mp3"," ","","filho","","","",""
"","749","audio-keyboard-response","697","1196324","0.0-3.0-1.585","../audio/07-3-masc.mp3"," ","","é","","","",""
"","971","audio-keyboard-response","698","1197572","0.0-3.0-1.586","../audio/07-4-masc.mp3"," ","","muito","","","",""
"","1379","audio-keyboard-response","699","1199235","0.0-3.0-1.587","../audio/07-5-masc.mp3"," ","","responsável","","","",""
"","240","audio-keyboard-response","700","1199747","0.0-3.0-1.588","../audio/07-6-masc.mp3"," ","","nos","","","",""
"","1160","audio-keyboard-response","701","1201188","0.0-3.0-1.589","../audio/07-7-masc.mp3"," ","","estudos.","","","",""
"","null","html-keyboard-response","702","1202459","0.0-3.0-0.590-0.590","<span style= ""font-size:30px; font-family: monospace"">+</span>","null","fixation","","","","",""
"","909","audio-keyboard-response","703","1203636","0.0-3.0-1.590","../audio/09-1-masc.mp3"," ","","O","","","",""
"","1080","audio-keyboard-response","704","1204980","0.0-3.0-1.591","../audio/09-2-masc.mp3"," ","","rapaz","","","",""
"","1091","audio-keyboard-response","705","1206356","0.0-3.0-1.592","../audio/09-3-masc.mp3"," ","","limpou","","","",""
"","869","audio-keyboard-response","706","1207508","0.0-3.0-1.593","../audio/09-4-masc.mp3"," ","","o","","","",""
"","941","audio-keyboard-response","707","1208723","0.0-3.0-1.594","../audio/09-5-masc.mp3"," ","","terreno","","","",""
"","821","audio-keyboard-response","708","1209812","0.0-3.0-1.595","../audio/09-6-masc.mp3"," ","","com","","","",""
"","968","audio-keyboard-response","709","1211060","0.0-3.0-1.596","../audio/09-7-masc.mp3"," ","","uma","","","",""
"","720","audio-keyboard-response","710","1212052","0.0-3.0-1.597","../audio/09-8-masc.mp3"," ","","pá.","","","",""
"","null","html-keyboard-response","711","1213317","0.0-3.0-0.598-0.598","<span style= ""font-size:30px; font-family: monospace"">+</span>","null","fixation","","","","",""
"","1299","audio-keyboard-response","712","1214899","0.0-3.0-1.598","../audio/06-1-masc.mp3"," ","","Ouvimos","","","",""
"","859","audio-keyboard-response","713","1216020","0.0-3.0-1.599","../audio/06-2-masc.mp3"," ","","a","","","",""
"","909","audio-keyboard-response","714","1217204","0.0-3.0-1.600","../audio/06-3-masc.mp3"," ","","fala","","","",""
"","749","audio-keyboard-response","715","1218227","0.0-3.0-1.601","../audio/06-4-masc.mp3"," ","","do","","","",""
"","1128","audio-keyboard-response","716","1219619","0.0-3.0-1.602","../audio/06-5-masc.mp3"," ","","profeta","","","",""
"","920","audio-keyboard-response","717","1220803","0.0-3.0-1.603","../audio/06-6-masc.mp3"," ","","no","","","",""
"","1149","audio-keyboard-response","718","1222227","0.0-3.0-1.604","../audio/06-7-masc.mp3"," ","","púlpito","","","",""
"","800","audio-keyboard-response","719","1223299","0.0-3.0-1.605","../audio/06-8-masc.mp3"," ","","da","","","",""
"","1099","audio-keyboard-response","720","1224676","0.0-3.0-1.606","../audio/06-9-masc.mp3"," ","","igreja.","","","",""
"","null","html-keyboard-response","721","1225938","0.0-3.0-0.607-0.607","<span style= ""font-size:30px; font-family: monospace"">+</span>","null","fixation","","","","",""
"","952","audio-keyboard-response","722","1227172","0.0-3.0-1.607","../audio/10-1-masc.mp3"," ","","O","","","",""
"","1059","audio-keyboard-response","723","1228516","0.0-3.0-1.608","../audio/10-2-masc.mp3"," ","","pássaro","","","",""
"","869","audio-keyboard-response","724","1229668","0.0-3.0-1.609","../audio/10-3-masc.mp3"," ","","azul","","","",""
"","640","audio-keyboard-response","725","1230579","0.0-3.0-1.610","../audio/10-4-masc.mp3"," ","","estava","","","",""
"","1000","audio-keyboard-response","726","1231843","0.0-3.0-1.611","../audio/10-5-masc.mp3"," ","","vivo","","","",""
"","739","audio-keyboard-response","727","1232868","0.0-3.0-1.612","../audio/10-6-masc.mp3"," ","","e","","","",""
"","749","audio-keyboard-response","728","1233907","0.0-3.0-1.613","../audio/10-7-masc.mp3"," ","","em","","","",""
"","891","audio-keyboard-response","729","1235076","0.0-3.0-1.614","../audio/10-8-masc.mp3"," ","","segurança.","","","",""
"","557","html-keyboard-response","730","1235892","0.0-3.0-2.614-0.614","<span style=""font-size:25px; font-family: monospace"">O pássaro vermelho estava em segurança?</span>","s","","","O pássaro vermelho estava em segurança?","null","exp-sent","false"
"[{""page_index"":0,""viewing_time"":9582}]","9582","instructions","731","1245980","0.0-4.0","","","","","","","",""
