[
	{
		"view_history": [
			{
				"page_index": 0,
				"viewing_time": 1317
			}
		],
		"rt": 1317,
		"trial_type": "instructions",
		"trial_index": 0,
		"time_elapsed": 1319,
		"internal_node_id": "0.0-0.0"
	},
	{
		"rt": 85165,
		"response": {
			"age": "35"
		},
		"trial_type": "survey-text",
		"trial_index": 1,
		"time_elapsed": 86599,
		"internal_node_id": "0.0-1.0"
	},
	{
		"rt": 15730,
		"response": {
			"sex": "Masculino"
		},
		"question_order": [
			0
		],
		"trial_type": "survey-multi-choice",
		"trial_index": 2,
		"time_elapsed": 102431,
		"internal_node_id": "0.0-2.0"
	},
	{
		"rt": 112153,
		"response": {
			"own_schooling": "Ensino Fundamental"
		},
		"question_order": [
			0
		],
		"trial_type": "survey-multi-choice",
		"trial_index": 3,
		"time_elapsed": 214686,
		"internal_node_id": "0.0-3.0"
	},
	{
		"rt": 2554,
		"response": {
			"mother_schooling": ""
		},
		"question_order": [
			0
		],
		"trial_type": "survey-multi-choice",
		"trial_index": 4,
		"time_elapsed": 217343,
		"internal_node_id": "0.0-4.0"
	},
	{
		"rt": 113186,
		"response": {
			"father_schooling": "Ensino Fundamental"
		},
		"question_order": [
			0
		],
		"trial_type": "survey-multi-choice",
		"trial_index": 5,
		"time_elapsed": 330630,
		"internal_node_id": "0.0-5.0"
	},
	{
		"rt": 523325,
		"response": {
			"language_0": "kreyol",
			"listening_0": "2",
			"speaking_0": "",
			"reading_0": "",
			"writing_0": "",
			"language_1": "portugues",
			"listening_1": "33",
			"speaking_1": "",
			"reading_1": "",
			"writing_1": "",
			"language_2": "francais",
			"listening_2": "1026",
			"speaking_2": "",
			"reading_2": "",
			"writing_2": "",
			"language_3": "espanyol",
			"listening_3": "",
			"speaking_3": "",
			"reading_3": "",
			"writing_3": ""
		},
		"trial_type": "survey-html-form",
		"trial_index": 6,
		"time_elapsed": 854117,
		"internal_node_id": "0.0-6.0"
	},
	{
		"rt": 647198,
		"response": {
			"language_3": "portugues",
			"listening_3": "33",
			"speaking_3": "33",
			"reading_3": "33",
			"writing_3": "33",
			"language_1": "francais",
			"listening_1": "10",
			"speaking_1": "3",
			"reading_1": "10",
			"writing_1": "9",
			"language_2": "espanyol",
			"listening_2": "27",
			"speaking_2": "27",
			"reading_2": "27",
			"writing_2": "27"
		},
		"trial_type": "survey-html-form",
		"trial_index": 7,
		"time_elapsed": 1501439,
		"internal_node_id": "0.0-7.0"
	},
	{
		"rt": 53090,
		"response": {
			"country_of_origin": "haitiano"
		},
		"trial_type": "survey-text",
		"trial_index": 8,
		"time_elapsed": 1554631,
		"internal_node_id": "0.0-8.0"
	},
	{
		"rt": 55387,
		"response": {
			"country_of_residence": "haiti"
		},
		"trial_type": "survey-text",
		"trial_index": 9,
		"time_elapsed": 1610136,
		"internal_node_id": "0.0-9.0"
	},
	{
		"rt": 521803,
		"response": {
			"country_0": "haiti",
			"duration_0": "",
			"language_0": "",
			"frequency_0": "",
			"country_1": "dominkaine",
			"duration_1": "96",
			"language_1": "espagnol",
			"frequency_1": "7",
			"country_2": "",
			"duration_2": "",
			"language_2": "",
			"frequency_2": "",
			"country_3": "",
			"duration_3": "",
			"language_3": "",
			"frequency_3": ""
		},
		"trial_type": "survey-html-form",
		"trial_index": 10,
		"time_elapsed": 2132048,
		"internal_node_id": "0.0-10.0"
	},
	{
		"rt": 202410,
		"response": {
			"language_0": "2",
			"context_0": "3",
			"language_1": "",
			"context_1": "",
			"language_2": "",
			"context_2": "",
			"language_3": "",
			"context_3": ""
		},
		"trial_type": "survey-html-form",
		"trial_index": 11,
		"time_elapsed": 2334561,
		"internal_node_id": "0.0-11.0"
	},
	{
		"rt": 633540,
		"response": {
			"language_0": "kreyol",
			"home_0": "2",
			"friends_0": "2",
			"school_0": "3",
			"work_0": "10",
			"computer_0": "00",
			"games_0": "0",
			"language_1": "portugues",
			"home_1": "33",
			"friends_1": "33",
			"school_1": "",
			"work_1": "33",
			"computer_1": "",
			"games_1": "",
			"language_2": "francais",
			"home_2": "10",
			"friends_2": "10",
			"school_2": "10",
			"work_2": "27",
			"computer_2": "",
			"games_2": "",
			"language_3": "",
			"home_3": "",
			"friends_3": "",
			"school_3": "",
			"work_3": "",
			"computer_3": "",
			"games_3": ""
		},
		"trial_type": "survey-html-form",
		"trial_index": 12,
		"time_elapsed": 2968206,
		"internal_node_id": "0.0-12.0"
	},
	{
		"rt": 27952,
		"response": {
			"new_languages": 2
		},
		"question_order": [
			0
		],
		"trial_type": "survey-likert",
		"trial_index": 13,
		"time_elapsed": 2996261,
		"internal_node_id": "0.0-13.0"
	},
	{
		"rt": 302747,
		"response": {
			"language_0": "kreyol",
			"listen_0": "5",
			"talk_0": "5",
			"read_0": "5",
			"write_0": "6",
			"language_1": "portugues",
			"listen_1": "4",
			"talk_1": "4",
			"read_1": "4",
			"write_1": "3",
			"language_2": "francais",
			"listen_2": "5",
			"talk_2": "4",
			"read_2": "4",
			"write_2": "5",
			"language_3": "",
			"listen_3": "",
			"talk_3": "",
			"read_3": "",
			"write_3": ""
		},
		"trial_type": "survey-html-form",
		"trial_index": 14,
		"time_elapsed": 3299110,
		"internal_node_id": "0.0-14.0"
	},
	{
		"rt": 405179,
		"response": {
			"language_0": "kreyol",
			"tv_0": "6",
			"radio_0": "5",
			"read_fun_0": "3",
			"read_work_0": "2",
			"write_0": "7",
			"social_nets_0": "4",
			"language_1": "portugues",
			"tv_1": "3",
			"radio_1": "3",
			"read_fun_1": "2",
			"read_work_1": "5",
			"write_1": "7",
			"social_nets_1": "5",
			"language_2": "francais",
			"tv_2": "3",
			"radio_2": "5",
			"read_fun_2": "1",
			"read_work_2": "8",
			"write_2": "7",
			"social_nets_2": "1",
			"language_3": "",
			"tv_3": "",
			"radio_3": "",
			"read_fun_3": "",
			"read_work_3": "",
			"write_3": "",
			"social_nets_3": ""
		},
		"trial_type": "survey-html-form",
		"trial_index": 15,
		"time_elapsed": 3704391,
		"internal_node_id": "0.0-15.0"
	},
	{
		"rt": 220386,
		"response": {
			"language_0": "kreyol",
			"family_0": "24",
			"friends_0": "11",
			"work_0": "5",
			"school_0": "6",
			"language_1": "portugues",
			"family_1": "24",
			"friends_1": "11",
			"work_1": "7",
			"school_1": "5",
			"language_2": "francai",
			"family_2": "24",
			"friends_2": "10",
			"work_2": "3",
			"school_2": "6",
			"language_3": "",
			"family_3": "",
			"friends_3": "",
			"work_3": "",
			"school_3": ""
		},
		"trial_type": "survey-html-form",
		"trial_index": 16,
		"time_elapsed": 3924880,
		"internal_node_id": "0.0-16.0"
	},
	{
		"rt": 267776,
		"response": {
			"language_0_0": "port kreyol",
			"language_0_1": "port kreyol",
			"language_0_2": "port kreyol",
			"language_0_3": "port kreyol",
			"language_1_0": "port kreyol",
			"language_1_1": "port",
			"language_1_2": "port",
			"language_1_3": "port kreyol",
			"language_2_0": "port",
			"language_2_1": "port",
			"language_2_2": "port",
			"language_2_3": "port",
			"language_3_0": "port kreyol",
			"language_3_1": "port kreyol",
			"language_3_2": "port kreyol",
			"language_3_3": "port kreyol"
		},
		"trial_type": "survey-html-form",
		"trial_index": 17,
		"time_elapsed": 4192759,
		"internal_node_id": "0.0-17.0"
	},
	{
		"rt": 461171,
		"response": {
			"language_2": "francais",
			"think_2": "4",
			"selftalk_2": "1",
			"emotions_2": "4",
			"dream_2": "5",
			"math_2": "7",
			"remember_2": "4",
			"pray_2": "4",
			"language_1": "portugues",
			"think_1": "5",
			"selftalk_1": "4",
			"emotions_1": "7",
			"dream_1": "7",
			"math_1": "4",
			"remember_1": "7",
			"pray_1": "7",
			"language_3": "",
			"think_3": "",
			"selftalk_3": "",
			"emotions_3": "",
			"dream_3": "",
			"math_3": "",
			"remember_3": "",
			"pray_3": ""
		},
		"trial_type": "survey-html-form",
		"trial_index": 18,
		"time_elapsed": 4654031,
		"internal_node_id": "0.0-18.0"
	},
	{
		"rt": 12666,
		"response": {
			"dificuldade_visao_ou_audicao": "Sim"
		},
		"question_order": [
			0
		],
		"trial_type": "survey-multi-choice",
		"trial_index": 19,
		"time_elapsed": 4666798,
		"internal_node_id": "0.0-19.0"
	},
	{
		"rt": 21223,
		"response": {
			"detalhes_dificuldades_audicao_ou_visao": ""
		},
		"trial_type": "survey-text",
		"trial_index": 20,
		"time_elapsed": 4688126,
		"internal_node_id": "0.0-20.0"
	},
	{
		"rt": 33561,
		"response": {
			"additional_info": ""
		},
		"trial_type": "survey-text",
		"trial_index": 21,
		"time_elapsed": 4721790,
		"internal_node_id": "0.0-21.0"
	}
]