"view_history","rt","trial_type","trial_index","time_elapsed","internal_node_id","stimulus","response","class","status","answer","correct","trial","letters"
"[{""page_index"":0,""viewing_time"":43410}]","43410","instructions","0","43412","0.0-0.0","","","","","","","",""
"","null","html-keyboard-response","1","44015","0.0-1.0-0.0","+","null","","","","","",""
"","628","html-keyboard-response","2","44644","0.0-1.0-1.0","calmaria","s","null","noncog","word","S","prac","null"
"","null","html-keyboard-response","3","45146","0.0-1.0-0.1","+","null","","","","","",""
"","729","html-keyboard-response","4","45875","0.0-1.0-1.1","oliva","s","null","cog","word","S","prac","null"
"","null","html-keyboard-response","5","46377","0.0-1.0-0.2","+","null","","","","","",""
"","506","html-keyboard-response","6","46884","0.0-1.0-1.2","daja","s","null","noncog","pseudo","N","prac","null"
"","null","html-keyboard-response","7","47385","0.0-1.0-0.3","+","null","","","","","",""
"","554","html-keyboard-response","8","47939","0.0-1.0-1.3","crante","s","null","noncog","pseudo","N","prac","null"
"","null","html-keyboard-response","9","48440","0.0-1.0-0.4","+","null","","","","","",""
"","794","html-keyboard-response","10","49235","0.0-1.0-1.4","plibar","s","null","noncog","pseudo","N","prac","null"
"","null","html-keyboard-response","11","49737","0.0-1.0-0.5","+","null","","","","","",""
"","858","html-keyboard-response","12","50595","0.0-1.0-1.5","chassi","s","null","cog","word","S","prac","null"
"","null","html-keyboard-response","13","51097","0.0-1.0-0.6","+","null","","","","","",""
"","554","html-keyboard-response","14","51651","0.0-1.0-1.6","órgão","s","null","noncog","word","S","prac","null"
"[{""page_index"":0,""viewing_time"":30608}]","30608","instructions","15","82260","0.0-2.0","","","","","","","",""
"","null","html-keyboard-response","16","82861","0.0-3.0-0.0","+","null","","","","","",""
"","293","html-keyboard-response","17","83155","0.0-3.0-1.0","terdia","s","null","noncog","pseudo","N","exp","null"
"","null","html-keyboard-response","18","83656","0.0-3.0-0.1","+","null","","","","","",""
"","363","html-keyboard-response","19","84020","0.0-3.0-1.1","promeção","s","null","noncog","pseudo","N","exp","null"
"","null","html-keyboard-response","20","84521","0.0-3.0-0.2","+","null","","","","","",""
"","314","html-keyboard-response","21","84836","0.0-3.0-1.2","boreta","s","null","noncog","pseudo","N","exp","null"
"","null","html-keyboard-response","22","85337","0.0-3.0-0.3","+","null","","","","","",""
"","298","html-keyboard-response","23","85635","0.0-3.0-1.3","ótimo","s","a","noncog","word","S","exp","5"
"","null","html-keyboard-response","24","86136","0.0-3.0-0.4","+","null","","","","","",""
"","331","html-keyboard-response","25","86467","0.0-3.0-1.4","ofreta","s","null","noncog","pseudo","N","exp","null"
"","null","html-keyboard-response","26","86969","0.0-3.0-0.5","+","null","","","","","",""
"","330","html-keyboard-response","27","87299","0.0-3.0-1.5","pneucania","s","null","noncog","pseudo","N","exp","null"
"","null","html-keyboard-response","28","87801","0.0-3.0-0.6","+","null","","","","","",""
"","330","html-keyboard-response","29","88131","0.0-3.0-1.6","incomodar","s","v","noncog","word","S","exp","9"
"","null","html-keyboard-response","30","88632","0.0-3.0-0.7","+","null","","","","","",""
"","331","html-keyboard-response","31","88963","0.0-3.0-1.7","instruído","s","a","noncog","word","S","exp","9"
"","null","html-keyboard-response","32","89465","0.0-3.0-0.8","+","null","","","","","",""
"","362","html-keyboard-response","33","89827","0.0-3.0-1.8","âgnulo","s","null","noncog","pseudo","N","exp","null"
"","null","html-keyboard-response","34","90329","0.0-3.0-0.9","+","null","","","","","",""
"","314","html-keyboard-response","35","90644","0.0-3.0-1.9","espinho","s","n","noncog","word","S","exp","7"
"","null","html-keyboard-response","36","91144","0.0-3.0-0.10","+","null","","","","","",""
"","315","html-keyboard-response","37","91460","0.0-3.0-1.10","tímido","s","a","cog","word","S","exp","6"
"","null","html-keyboard-response","38","91961","0.0-3.0-0.11","+","null","","","","","",""
"","330","html-keyboard-response","39","92292","0.0-3.0-1.11","agressivo","s","a","cog","word","S","exp","9"
"","null","html-keyboard-response","40","92793","0.0-3.0-0.12","+","null","","","","","",""
"","346","html-keyboard-response","41","93139","0.0-3.0-1.12","manais","s","null","noncog","pseudo","N","exp","null"
"","null","html-keyboard-response","42","93641","0.0-3.0-0.13","+","null","","","","","",""
"","314","html-keyboard-response","43","93955","0.0-3.0-1.13","mal","s","a","cog","word","S","exp","3"
"","null","html-keyboard-response","44","94456","0.0-3.0-0.14","+","null","","","","","",""
"","331","html-keyboard-response","45","94788","0.0-3.0-1.14","glória","s","n","cog","word","S","exp","6"
"","null","html-keyboard-response","46","95289","0.0-3.0-0.15","+","null","","","","","",""
"","362","html-keyboard-response","47","95651","0.0-3.0-1.15","civil","s","a","cog","word","S","exp","5"
"","null","html-keyboard-response","48","96153","0.0-3.0-0.16","+","null","","","","","",""
"","377","html-keyboard-response","49","96531","0.0-3.0-1.16","nome","s","n","cog","word","S","exp","4"
"","null","html-keyboard-response","50","97032","0.0-3.0-0.17","+","null","","","","","",""
"","267","html-keyboard-response","51","97300","0.0-3.0-1.17","carro","s","n","noncog","word","S","exp","5"
"","null","html-keyboard-response","52","97800","0.0-3.0-0.18","+","null","","","","","",""
"","331","html-keyboard-response","53","98131","0.0-3.0-1.18","distraído","s","a","cog","word","S","exp","9"
"","null","html-keyboard-response","54","98633","0.0-3.0-0.19","+","null","","","","","",""
"","379","html-keyboard-response","55","99012","0.0-3.0-1.19","fusbão","s","null","noncog","pseudo","N","exp","null"
"","null","html-keyboard-response","56","99513","0.0-3.0-0.20","+","null","","","","","",""
"","282","html-keyboard-response","57","99795","0.0-3.0-1.20","lagoa","s","n","cog","word","S","exp","5"
"","null","html-keyboard-response","58","100297","0.0-3.0-0.21","+","null","","","","","",""
"","314","html-keyboard-response","59","100612","0.0-3.0-1.21","aparme","s","null","noncog","pseudo","N","exp","null"
"","null","html-keyboard-response","60","101124","0.0-3.0-0.22","+","null","","","","","",""
"","255","html-keyboard-response","61","101379","0.0-3.0-1.22","perdão","s","n","noncog","word","S","exp","6"
"","null","html-keyboard-response","62","101880","0.0-3.0-0.23","+","null","","","","","",""
"","203","html-keyboard-response","63","102083","0.0-3.0-1.23","euorpa","s","null","noncog","pseudo","N","exp","null"
"","null","html-keyboard-response","64","102584","0.0-3.0-0.24","+","null","","","","","",""
"","219","html-keyboard-response","65","102804","0.0-3.0-1.24","hedoru","s","null","noncog","pseudo","N","exp","null"
"","null","html-keyboard-response","66","103305","0.0-3.0-0.25","+","null","","","","","",""
"","249","html-keyboard-response","67","103555","0.0-3.0-1.25","destino","s","n","cog","word","S","exp","7"
"","null","html-keyboard-response","68","104056","0.0-3.0-0.26","+","null","","","","","",""
"","299","html-keyboard-response","69","104355","0.0-3.0-1.26","candifência","s","null","noncog","pseudo","N","exp","null"
"","null","html-keyboard-response","70","104856","0.0-3.0-0.27","+","null","","","","","",""
"","251","html-keyboard-response","71","105107","0.0-3.0-1.27","aitrou","s","null","noncog","pseudo","N","exp","null"
"","null","html-keyboard-response","72","105608","0.0-3.0-0.28","+","null","","","","","",""
"","298","html-keyboard-response","73","105907","0.0-3.0-1.28","salpicado","s","a","noncog","word","S","exp","9"
"","null","html-keyboard-response","74","106408","0.0-3.0-0.29","+","null","","","","","",""
"","299","html-keyboard-response","75","106708","0.0-3.0-1.29","sintonizar","s","v","noncog","word","S","exp","10"
"","null","html-keyboard-response","76","107209","0.0-3.0-0.30","+","null","","","","","",""
"","297","html-keyboard-response","77","107507","0.0-3.0-1.30","afual","s","null","noncog","pseudo","N","exp","null"
"","null","html-keyboard-response","78","108008","0.0-3.0-0.31","+","null","","","","","",""
"","315","html-keyboard-response","79","108323","0.0-3.0-1.31","alfabeto","s","n","cog","word","S","exp","8"
"","null","html-keyboard-response","80","108824","0.0-3.0-0.32","+","null","","","","","",""
"","299","html-keyboard-response","81","109123","0.0-3.0-1.32","convidado","s","n","noncog","word","S","exp","9"
"","null","html-keyboard-response","82","109625","0.0-3.0-0.33","+","null","","","","","",""
"","298","html-keyboard-response","83","109923","0.0-3.0-1.33","sustentar","s","v","noncog","word","S","exp","9"
"","null","html-keyboard-response","84","110424","0.0-3.0-0.34","+","null","","","","","",""
"","235","html-keyboard-response","85","110660","0.0-3.0-1.34","franda","s","null","noncog","pseudo","N","exp","null"
"","null","html-keyboard-response","86","111161","0.0-3.0-0.35","+","null","","","","","",""
"","330","html-keyboard-response","87","111491","0.0-3.0-1.35","hébies","s","null","noncog","pseudo","N","exp","null"
"","null","html-keyboard-response","88","111993","0.0-3.0-0.36","+","null","","","","","",""
"","298","html-keyboard-response","89","112291","0.0-3.0-1.36","lapestra","s","null","noncog","pseudo","N","exp","null"
"","null","html-keyboard-response","90","112793","0.0-3.0-0.37","+","null","","","","","",""
"","315","html-keyboard-response","91","113108","0.0-3.0-1.37","bagunceira","s","a","noncog","word","S","exp","10"
"","null","html-keyboard-response","92","113609","0.0-3.0-0.38","+","null","","","","","",""
"","282","html-keyboard-response","93","113891","0.0-3.0-1.38","uçar","s","null","noncog","pseudo","N","exp","null"
"","null","html-keyboard-response","94","114392","0.0-3.0-0.39","+","null","","","","","",""
"","219","html-keyboard-response","95","114611","0.0-3.0-1.39","trenos","s","null","noncog","pseudo","N","exp","null"
"","null","html-keyboard-response","96","115113","0.0-3.0-0.40","+","null","","","","","",""
"","266","html-keyboard-response","97","115379","0.0-3.0-1.40","enedro","s","null","noncog","pseudo","N","exp","null"
"","null","html-keyboard-response","98","115880","0.0-3.0-0.41","+","null","","","","","",""
"","171","html-keyboard-response","99","116051","0.0-3.0-1.41","apontar","s","v","noncog","word","S","exp","7"
"","null","html-keyboard-response","100","116552","0.0-3.0-0.42","+","null","","","","","",""
"","251","html-keyboard-response","101","116803","0.0-3.0-1.42","crutas","s","null","noncog","pseudo","N","exp","null"
"","null","html-keyboard-response","102","117305","0.0-3.0-0.43","+","null","","","","","",""
"","202","html-keyboard-response","103","117507","0.0-3.0-1.43","grátis","s","a","cog","word","S","exp","6"
"","null","html-keyboard-response","104","118009","0.0-3.0-0.44","+","null","","","","","",""
"","122","html-keyboard-response","105","118131","0.0-3.0-1.44","promessa","s","n","noncog","word","S","exp","8"
"","null","html-keyboard-response","106","118632","0.0-3.0-0.45","+","null","","","","","",""
"","235","html-keyboard-response","107","118867","0.0-3.0-1.45","pega-pega","s","n","noncog","word","S","exp","8"
"","null","html-keyboard-response","108","119369","0.0-3.0-0.46","+","null","","","","","",""
"","138","html-keyboard-response","109","119507","0.0-3.0-1.46","arranjar","s","v","cog","word","S","exp","8"
"","null","html-keyboard-response","110","120008","0.0-3.0-0.47","+","null","","","","","",""
"","299","html-keyboard-response","111","120307","0.0-3.0-1.47","cerca","s","n","noncog","word","S","exp","5"
"","null","html-keyboard-response","112","120809","0.0-3.0-0.48","+","null","","","","","",""
"","202","html-keyboard-response","113","121011","0.0-3.0-1.48","traduzir","s","v","cog","word","S","exp","8"
"","null","html-keyboard-response","114","121513","0.0-3.0-0.49","+","null","","","","","",""
"","218","html-keyboard-response","115","121731","0.0-3.0-1.49","rédesa","s","null","noncog","pseudo","N","exp","null"
"","null","html-keyboard-response","116","122233","0.0-3.0-0.50","+","null","","","","","",""
"","266","html-keyboard-response","117","122499","0.0-3.0-1.50","mania","s","n","cog","word","S","exp","5"
"","null","html-keyboard-response","118","123002","0.0-3.0-0.51","+","null","","","","","",""
"","169","html-keyboard-response","119","123172","0.0-3.0-1.51","melão","s","n","cog","word","S","exp","5"
"","null","html-keyboard-response","120","123673","0.0-3.0-0.52","+","null","","","","","",""
"","170","html-keyboard-response","121","123843","0.0-3.0-1.52","francês","s","a","cog","word","S","exp","7"
"","null","html-keyboard-response","122","124345","0.0-3.0-0.53","+","null","","","","","",""
"","218","html-keyboard-response","123","124563","0.0-3.0-1.53","macras","s","null","noncog","pseudo","N","exp","null"
"","null","html-keyboard-response","124","125064","0.0-3.0-0.54","+","null","","","","","",""
"","203","html-keyboard-response","125","125267","0.0-3.0-1.54","papai","s","n","cog","word","S","exp","5"
"","null","html-keyboard-response","126","125768","0.0-3.0-0.55","+","null","","","","","",""
"","219","html-keyboard-response","127","125988","0.0-3.0-1.55","dilheira","s","null","noncog","pseudo","N","exp","null"
"","null","html-keyboard-response","128","126498","0.0-3.0-0.56","+","null","","","","","",""
"","97","html-keyboard-response","129","126595","0.0-3.0-1.56","fino","s","a","cog","word","S","exp","4"
"","null","html-keyboard-response","130","127096","0.0-3.0-0.57","+","null","","","","","",""
"","170","html-keyboard-response","131","127267","0.0-3.0-1.57","plinta","s","null","noncog","pseudo","N","exp","null"
"","null","html-keyboard-response","132","127768","0.0-3.0-0.58","+","null","","","","","",""
"","171","html-keyboard-response","133","127939","0.0-3.0-1.58","bachir","s","null","noncog","pseudo","N","exp","null"
"","null","html-keyboard-response","134","128441","0.0-3.0-0.59","+","null","","","","","",""
"","234","html-keyboard-response","135","128676","0.0-3.0-1.59","loaco","s","null","noncog","pseudo","N","exp","null"
"","null","html-keyboard-response","136","129177","0.0-3.0-0.60","+","null","","","","","",""
"","234","html-keyboard-response","137","129411","0.0-3.0-1.60","encelhor","s","null","noncog","pseudo","N","exp","null"
"","null","html-keyboard-response","138","129913","0.0-3.0-0.61","+","null","","","","","",""
"","170","html-keyboard-response","139","130083","0.0-3.0-1.61","especial","s","a","cog","word","S","exp","8"
"","null","html-keyboard-response","140","130584","0.0-3.0-0.62","+","null","","","","","",""
"","219","html-keyboard-response","141","130804","0.0-3.0-1.62","drama","s","n","cog","word","S","exp","5"
"","null","html-keyboard-response","142","131305","0.0-3.0-0.63","+","null","","","","","",""
"","154","html-keyboard-response","143","131459","0.0-3.0-1.63","anjo","s","n","cog","word","S","exp","4"
"","null","html-keyboard-response","144","131960","0.0-3.0-0.64","+","null","","","","","",""
"","155","html-keyboard-response","145","132115","0.0-3.0-1.64","motre","s","null","noncog","pseudo","N","exp","null"
"","null","html-keyboard-response","146","132617","0.0-3.0-0.65","+","null","","","","","",""
"","202","html-keyboard-response","147","132819","0.0-3.0-1.65","esfoce","s","null","noncog","pseudo","N","exp","null"
"","null","html-keyboard-response","148","133320","0.0-3.0-0.66","+","null","","","","","",""
"","155","html-keyboard-response","149","133476","0.0-3.0-1.66","usnado","s","null","noncog","pseudo","N","exp","null"
"","null","html-keyboard-response","150","133977","0.0-3.0-0.67","+","null","","","","","",""
"","154","html-keyboard-response","151","134131","0.0-3.0-1.67","sanque","s","null","noncog","pseudo","N","exp","null"
"","null","html-keyboard-response","152","134633","0.0-3.0-0.68","+","null","","","","","",""
"","138","html-keyboard-response","153","134771","0.0-3.0-1.68","grótis","s","null","noncog","pseudo","N","exp","null"
"","null","html-keyboard-response","154","135273","0.0-3.0-0.69","+","null","","","","","",""
"","186","html-keyboard-response","155","135459","0.0-3.0-1.69","pantufa","s","n","cog","word","S","exp","7"
"","null","html-keyboard-response","156","135960","0.0-3.0-0.70","+","null","","","","","",""
"","203","html-keyboard-response","157","136163","0.0-3.0-1.70","aivões","s","null","noncog","pseudo","N","exp","null"
"","null","html-keyboard-response","158","136666","0.0-3.0-0.71","+","null","","","","","",""
"","137","html-keyboard-response","159","136803","0.0-3.0-1.71","cirado","s","null","noncog","pseudo","N","exp","null"
"","null","html-keyboard-response","160","137318","0.0-3.0-0.72","+","null","","","","","",""
"","141","html-keyboard-response","161","137459","0.0-3.0-1.72","verdade","s","n","cog","word","S","exp","7"
"","null","html-keyboard-response","162","137961","0.0-3.0-0.73","+","null","","","","","",""
"","107","html-keyboard-response","163","138068","0.0-3.0-1.73","gruja","s","null","noncog","pseudo","N","exp","null"
"","null","html-keyboard-response","164","138569","0.0-3.0-0.74","+","null","","","","","",""
"","154","html-keyboard-response","165","138723","0.0-3.0-1.74","reduzir","s","v","cog","word","S","exp","7"
"","null","html-keyboard-response","166","139224","0.0-3.0-0.75","+","null","","","","","",""
"","107","html-keyboard-response","167","139331","0.0-3.0-1.75","grave","s","a","cog","word","S","exp","5"
"","null","html-keyboard-response","168","139833","0.0-3.0-0.76","+","null","","","","","",""
"","74","html-keyboard-response","169","139907","0.0-3.0-1.76","fofo","s","a","noncog","word","S","exp","4"
"","null","html-keyboard-response","170","140408","0.0-3.0-0.77","+","null","","","","","",""
"","59","html-keyboard-response","171","140468","0.0-3.0-1.77","suipestar","s","null","noncog","pseudo","N","exp","null"
"","null","html-keyboard-response","172","140968","0.0-3.0-0.78","+","null","","","","","",""
"","59","html-keyboard-response","173","141028","0.0-3.0-1.78","costra","s","null","noncog","pseudo","N","exp","null"
"","null","html-keyboard-response","174","141529","0.0-3.0-0.79","+","null","","","","","",""
"","506","html-keyboard-response","175","142035","0.0-3.0-1.79","bibarconato","s","null","noncog","pseudo","N","exp","null"
"","null","html-keyboard-response","176","142537","0.0-3.0-0.80","+","null","","","","","",""
"","58","html-keyboard-response","177","142595","0.0-3.0-1.80","pangos","s","null","noncog","pseudo","N","exp","null"
"","null","html-keyboard-response","178","143097","0.0-3.0-0.81","+","null","","","","","",""
"","42","html-keyboard-response","179","143139","0.0-3.0-1.81","motros","s","null","noncog","pseudo","N","exp","null"
"","null","html-keyboard-response","180","143640","0.0-3.0-0.82","+","null","","","","","",""
"","43","html-keyboard-response","181","143683","0.0-3.0-1.82","azul","s","n","noncog","word","S","exp","4"
"","null","html-keyboard-response","182","144184","0.0-3.0-0.83","+","null","","","","","",""
"","75","html-keyboard-response","183","144260","0.0-3.0-1.83","telefone","s","n","cog","word","S","exp","8"
"","null","html-keyboard-response","184","144761","0.0-3.0-0.84","+","null","","","","","",""
"","42","html-keyboard-response","185","144803","0.0-3.0-1.84","tronca","s","null","noncog","pseudo","N","exp","null"
"","null","html-keyboard-response","186","145310","0.0-3.0-0.85","+","null","","","","","",""
"","37","html-keyboard-response","187","145348","0.0-3.0-1.85","morija","s","null","noncog","pseudo","N","exp","null"
"","null","html-keyboard-response","188","145849","0.0-3.0-0.86","+","null","","","","","",""
"","90","html-keyboard-response","189","145939","0.0-3.0-1.86","casuas","s","null","noncog","pseudo","N","exp","null"
"","null","html-keyboard-response","190","146451","0.0-3.0-0.87","+","null","","","","","",""
"","64","html-keyboard-response","191","146515","0.0-3.0-1.87","telafonir","s","null","noncog","pseudo","N","exp","null"
"","null","html-keyboard-response","192","147017","0.0-3.0-0.88","+","null","","","","","",""
"","586","html-keyboard-response","193","147604","0.0-3.0-1.88","burtos","s","null","noncog","pseudo","N","exp","null"
"","null","html-keyboard-response","194","148104","0.0-3.0-0.89","+","null","","","","","",""
"","155","html-keyboard-response","195","148260","0.0-3.0-1.89","jantar","s","v","noncog","word","S","exp","6"
"","null","html-keyboard-response","196","148761","0.0-3.0-0.90","+","null","","","","","",""
"","234","html-keyboard-response","197","148996","0.0-3.0-1.90","viver","s","v","cog","word","S","exp","5"
"","null","html-keyboard-response","198","149497","0.0-3.0-0.91","+","null","","","","","",""
"","122","html-keyboard-response","199","149620","0.0-3.0-1.91","hipócrita","s","a","noncog","word","S","exp","9"
"","null","html-keyboard-response","200","150121","0.0-3.0-0.92","+","null","","","","","",""
"","170","html-keyboard-response","201","150292","0.0-3.0-1.92","prenas","s","null","noncog","pseudo","N","exp","null"
"","null","html-keyboard-response","202","150793","0.0-3.0-0.93","+","null","","","","","",""
"","90","html-keyboard-response","203","150884","0.0-3.0-1.93","adoçar","s","v","noncog","word","S","exp","6"
"","null","html-keyboard-response","204","151385","0.0-3.0-0.94","+","null","","","","","",""
"","105","html-keyboard-response","205","151491","0.0-3.0-1.94","detative","s","null","noncog","pseudo","N","exp","null"
"","null","html-keyboard-response","206","151992","0.0-3.0-0.95","+","null","","","","","",""
"","107","html-keyboard-response","207","152100","0.0-3.0-1.95","aemaça","s","null","noncog","pseudo","N","exp","null"
"","null","html-keyboard-response","208","152601","0.0-3.0-0.96","+","null","","","","","",""
"","42","html-keyboard-response","209","152643","0.0-3.0-1.96","farcas","s","null","noncog","pseudo","N","exp","null"
"","null","html-keyboard-response","210","153144","0.0-3.0-0.97","+","null","","","","","",""
"","123","html-keyboard-response","211","153268","0.0-3.0-1.97","deselegante","s","a","noncog","word","S","exp","11"
"","null","html-keyboard-response","212","153769","0.0-3.0-0.98","+","null","","","","","",""
"","90","html-keyboard-response","213","153860","0.0-3.0-1.98","fasdas","s","null","noncog","pseudo","N","exp","null"
"","null","html-keyboard-response","214","154361","0.0-3.0-0.99","+","null","","","","","",""
"","58","html-keyboard-response","215","154419","0.0-3.0-1.99","avenas","s","null","noncog","pseudo","N","exp","null"
"","null","html-keyboard-response","216","154921","0.0-3.0-0.100","+","null","","","","","",""
"","58","html-keyboard-response","217","154979","0.0-3.0-1.100","delomir","s","null","noncog","pseudo","N","exp","null"
"","null","html-keyboard-response","218","155480","0.0-3.0-0.101","+","null","","","","","",""
"","27","html-keyboard-response","219","155507","0.0-3.0-1.101","trabalhar","s","v","noncog","word","S","exp","9"
"","null","html-keyboard-response","220","156009","0.0-3.0-0.102","+","null","","","","","",""
"","58","html-keyboard-response","221","156068","0.0-3.0-1.102","quenzina","s","null","noncog","pseudo","N","exp","null"
"","null","html-keyboard-response","222","156569","0.0-3.0-0.103","+","null","","","","","",""
"","330","html-keyboard-response","223","156900","0.0-3.0-1.103","areia","s","n","noncog","word","S","exp","5"
"","null","html-keyboard-response","224","157410","0.0-3.0-0.104","+","null","","","","","",""
"","337","html-keyboard-response","225","157748","0.0-3.0-1.104","dencosto","s","null","noncog","pseudo","N","exp","null"
"","null","html-keyboard-response","226","158249","0.0-3.0-0.105","+","null","","","","","",""
"","283","html-keyboard-response","227","158532","0.0-3.0-1.105","delirar","s","v","noncog","word","S","exp","7"
"","null","html-keyboard-response","228","159042","0.0-3.0-0.106","+","null","","","","","",""
"","258","html-keyboard-response","229","159300","0.0-3.0-1.106","árovre","s","null","noncog","pseudo","N","exp","null"
"","null","html-keyboard-response","230","159800","0.0-3.0-0.107","+","null","","","","","",""
"","234","html-keyboard-response","231","160036","0.0-3.0-1.107","resmungar","s","v","noncog","word","S","exp","9"
"","null","html-keyboard-response","232","160536","0.0-3.0-0.108","+","null","","","","","",""
"","203","html-keyboard-response","233","160739","0.0-3.0-1.108","livro","s","n","cog","word","S","exp","5"
"","null","html-keyboard-response","234","161248","0.0-3.0-0.109","+","null","","","","","",""
"","275","html-keyboard-response","235","161523","0.0-3.0-1.109","extravagante","s","a","cog","word","S","exp","12"
"","null","html-keyboard-response","236","162024","0.0-3.0-0.110","+","null","","","","","",""
"","315","html-keyboard-response","237","162339","0.0-3.0-1.110","senareta","s","null","noncog","pseudo","N","exp","null"
"","null","html-keyboard-response","238","162840","0.0-3.0-0.111","+","null","","","","","",""
"","331","html-keyboard-response","239","163171","0.0-3.0-1.111","frotes","s","null","noncog","pseudo","N","exp","null"
"","null","html-keyboard-response","240","163673","0.0-3.0-0.112","+","null","","","","","",""
"","363","html-keyboard-response","241","164036","0.0-3.0-1.112","berquesa","s","null","noncog","pseudo","N","exp","null"
"","null","html-keyboard-response","242","164536","0.0-3.0-0.113","+","null","","","","","",""
"","395","html-keyboard-response","243","164931","0.0-3.0-1.113","cinema","s","n","cog","word","S","exp","6"
"","null","html-keyboard-response","244","165433","0.0-3.0-0.114","+","null","","","","","",""
"","362","html-keyboard-response","245","165796","0.0-3.0-1.114","prever","s","v","cog","word","S","exp","6"
"","null","html-keyboard-response","246","166296","0.0-3.0-0.115","+","null","","","","","",""
"","379","html-keyboard-response","247","166676","0.0-3.0-1.115","socorro","s","n","noncog","word","S","exp","7"
"","null","html-keyboard-response","248","167176","0.0-3.0-0.116","+","null","","","","","",""
"","363","html-keyboard-response","249","167539","0.0-3.0-1.116","ilhure","s","null","noncog","pseudo","N","exp","null"
"","null","html-keyboard-response","250","168040","0.0-3.0-0.117","+","null","","","","","",""
"","395","html-keyboard-response","251","168436","0.0-3.0-1.117","nacional","s","a","cog","word","S","exp","8"
"","null","html-keyboard-response","252","168937","0.0-3.0-0.118","+","null","","","","","",""
"","394","html-keyboard-response","253","169332","0.0-3.0-1.118","cristal","s","n","cog","word","S","exp","7"
"","null","html-keyboard-response","254","169833","0.0-3.0-0.119","+","null","","","","","",""
"","346","html-keyboard-response","255","170179","0.0-3.0-1.119","espaço","s","n","cog","word","S","exp","6"
"","null","html-keyboard-response","256","170680","0.0-3.0-0.120","+","null","","","","","",""
"","347","html-keyboard-response","257","171027","0.0-3.0-1.120","imitar","s","v","cog","word","S","exp","6"
"","null","html-keyboard-response","258","171529","0.0-3.0-0.121","+","null","","","","","",""
"","394","html-keyboard-response","259","171923","0.0-3.0-1.121","atapdar","s","null","noncog","pseudo","N","exp","null"
"","null","html-keyboard-response","260","172426","0.0-3.0-0.122","+","null","","","","","",""
"","393","html-keyboard-response","261","172820","0.0-3.0-1.122","tela","s","n","noncog","word","S","exp","4"
"","null","html-keyboard-response","262","173329","0.0-3.0-0.123","+","null","","","","","",""
"","338","html-keyboard-response","263","173668","0.0-3.0-1.123","dia","s","n","noncog","word","S","exp","3"
"","null","html-keyboard-response","264","174169","0.0-3.0-0.124","+","null","","","","","",""
"","410","html-keyboard-response","265","174580","0.0-3.0-1.124","cápsula","s","n","noncog","word","S","exp","7"
"","null","html-keyboard-response","266","175080","0.0-3.0-0.125","+","null","","","","","",""
"","330","html-keyboard-response","267","175411","0.0-3.0-1.125","beima","s","null","noncog","pseudo","N","exp","null"
"","null","html-keyboard-response","268","175912","0.0-3.0-0.126","+","null","","","","","",""
"","443","html-keyboard-response","269","176355","0.0-3.0-1.126","perbas","s","null","noncog","pseudo","N","exp","null"
"","null","html-keyboard-response","270","176856","0.0-3.0-0.127","+","null","","","","","",""
"","363","html-keyboard-response","271","177219","0.0-3.0-1.127","tartos","s","null","noncog","pseudo","N","exp","null"
"","null","html-keyboard-response","272","177720","0.0-3.0-0.128","+","null","","","","","",""
"","426","html-keyboard-response","273","178147","0.0-3.0-1.128","carona","s","n","noncog","word","S","exp","6"
"","null","html-keyboard-response","274","178650","0.0-3.0-0.129","+","null","","","","","",""
"","409","html-keyboard-response","275","179059","0.0-3.0-1.129","cravo","s","n","noncog","word","S","exp","5"
"","null","html-keyboard-response","276","179561","0.0-3.0-0.130","+","null","","","","","",""
"","330","html-keyboard-response","277","179891","0.0-3.0-1.130","protas","s","null","noncog","pseudo","N","exp","null"
"","null","html-keyboard-response","278","180393","0.0-3.0-0.131","+","null","","","","","",""
"","410","html-keyboard-response","279","180803","0.0-3.0-1.131","carregar","s","v","noncog","word","S","exp","8"
"","null","html-keyboard-response","280","181305","0.0-3.0-0.132","+","null","","","","","",""
"","312","html-keyboard-response","281","181651","0.0-3.0-1.132","gertas","s","null","noncog","pseudo","N","exp","null"
"","null","html-keyboard-response","282","182153","0.0-3.0-0.133","+","null","","","","","",""
"","410","html-keyboard-response","283","182563","0.0-3.0-1.133","crolatário","s","null","noncog","pseudo","N","exp","null"
"","null","html-keyboard-response","284","183064","0.0-3.0-0.134","+","null","","","","","",""
"","442","html-keyboard-response","285","183507","0.0-3.0-1.134","dipata","s","null","noncog","pseudo","N","exp","null"
"","null","html-keyboard-response","286","184008","0.0-3.0-0.135","+","null","","","","","",""
"","363","html-keyboard-response","287","184371","0.0-3.0-1.135","pritas","s","null","noncog","pseudo","N","exp","null"
"","null","html-keyboard-response","288","184873","0.0-3.0-0.136","+","null","","","","","",""
"","378","html-keyboard-response","289","185251","0.0-3.0-1.136","aperor","s","null","noncog","pseudo","N","exp","null"
"","null","html-keyboard-response","290","185753","0.0-3.0-0.137","+","null","","","","","",""
"","362","html-keyboard-response","291","186115","0.0-3.0-1.137","fogão","s","n","noncog","word","S","exp","5"
"","null","html-keyboard-response","292","186616","0.0-3.0-0.138","+","null","","","","","",""
"","426","html-keyboard-response","293","187043","0.0-3.0-1.138","pitada","s","n","noncog","word","S","exp","6"
"","null","html-keyboard-response","294","187544","0.0-3.0-0.139","+","null","","","","","",""
"","298","html-keyboard-response","295","187843","0.0-3.0-1.139","planalto","s","n","cog","word","S","exp","8"
"","null","html-keyboard-response","296","188344","0.0-3.0-0.140","+","null","","","","","",""
"","363","html-keyboard-response","297","188707","0.0-3.0-1.140","esperar","s","v","cog","word","S","exp","7"
"","null","html-keyboard-response","298","189209","0.0-3.0-0.141","+","null","","","","","",""
"","378","html-keyboard-response","299","189588","0.0-3.0-1.141","ejerro","s","null","noncog","pseudo","N","exp","null"
"","null","html-keyboard-response","300","190089","0.0-3.0-0.142","+","null","","","","","",""
"","378","html-keyboard-response","301","190467","0.0-3.0-1.142","propaganda","s","n","cog","word","S","exp","10"
"","null","html-keyboard-response","302","190969","0.0-3.0-0.143","+","null","","","","","",""
"","346","html-keyboard-response","303","191315","0.0-3.0-1.143","pedaço","s","n","noncog","word","S","exp","6"
"","null","html-keyboard-response","304","191816","0.0-3.0-0.144","+","null","","","","","",""
"","299","html-keyboard-response","305","192115","0.0-3.0-1.144","comércio","s","n","noncog","word","S","exp","8"
"","null","html-keyboard-response","306","192616","0.0-3.0-0.145","+","null","","","","","",""
"","298","html-keyboard-response","307","192915","0.0-3.0-1.145","medalha","s","n","cog","word","S","exp","7"
"","null","html-keyboard-response","308","193416","0.0-3.0-0.146","+","null","","","","","",""
"","378","html-keyboard-response","309","193795","0.0-3.0-1.146","podilo","s","null","noncog","pseudo","N","exp","null"
"","null","html-keyboard-response","310","194296","0.0-3.0-0.147","+","null","","","","","",""
"","346","html-keyboard-response","311","194643","0.0-3.0-1.147","faínas","s","null","noncog","pseudo","N","exp","null"
"","null","html-keyboard-response","312","195144","0.0-3.0-0.148","+","null","","","","","",""
"","347","html-keyboard-response","313","195492","0.0-3.0-1.148","refletir","s","v","cog","word","S","exp","8"
"","null","html-keyboard-response","314","195993","0.0-3.0-0.149","+","null","","","","","",""
"","346","html-keyboard-response","315","196339","0.0-3.0-1.149","trair","s","v","cog","word","S","exp","5"
"","null","html-keyboard-response","316","196841","0.0-3.0-0.150","+","null","","","","","",""
"","330","html-keyboard-response","317","197171","0.0-3.0-1.150","bancada","s","n","noncog","word","S","exp","7"
"","null","html-keyboard-response","318","197673","0.0-3.0-0.151","+","null","","","","","",""
"","394","html-keyboard-response","319","198067","0.0-3.0-1.151","garastia","s","null","noncog","pseudo","N","exp","null"
"","null","html-keyboard-response","320","198568","0.0-3.0-0.152","+","null","","","","","",""
"","442","html-keyboard-response","321","199011","0.0-3.0-1.152","revear","s","null","noncog","pseudo","N","exp","null"
"","null","html-keyboard-response","322","199512","0.0-3.0-0.153","+","null","","","","","",""
"","331","html-keyboard-response","323","199843","0.0-3.0-1.153","orupas","s","null","noncog","pseudo","N","exp","null"
"","null","html-keyboard-response","324","200344","0.0-3.0-0.154","+","null","","","","","",""
"","347","html-keyboard-response","325","200691","0.0-3.0-1.154","atrasar","s","v","noncog","word","S","exp","7"
"","null","html-keyboard-response","326","201192","0.0-3.0-0.155","+","null","","","","","",""
"","410","html-keyboard-response","327","201603","0.0-3.0-1.155","abieso","s","null","noncog","pseudo","N","exp","null"
"","null","html-keyboard-response","328","202105","0.0-3.0-0.156","+","null","","","","","",""
"","378","html-keyboard-response","329","202483","0.0-3.0-1.156","prantal","s","null","noncog","pseudo","N","exp","null"
"","null","html-keyboard-response","330","202984","0.0-3.0-0.157","+","null","","","","","",""
"","331","html-keyboard-response","331","203315","0.0-3.0-1.157","memória","s","n","cog","word","S","exp","7"
"","null","html-keyboard-response","332","203816","0.0-3.0-0.158","+","null","","","","","",""
"","394","html-keyboard-response","333","204211","0.0-3.0-1.158","braras","s","null","noncog","pseudo","N","exp","null"
"","null","html-keyboard-response","334","204719","0.0-3.0-0.159","+","null","","","","","",""
"","372","html-keyboard-response","335","205091","0.0-3.0-1.159","mabras","s","null","noncog","pseudo","N","exp","null"
"","null","html-keyboard-response","336","205593","0.0-3.0-0.160","+","null","","","","","",""
"","362","html-keyboard-response","337","205955","0.0-3.0-1.160","nevela","s","null","noncog","pseudo","N","exp","null"
"","null","html-keyboard-response","338","206457","0.0-3.0-0.161","+","null","","","","","",""
"","378","html-keyboard-response","339","206835","0.0-3.0-1.161","gordo","s","a","noncog","word","S","exp","5"
"","null","html-keyboard-response","340","207336","0.0-3.0-0.162","+","null","","","","","",""
"","426","html-keyboard-response","341","207763","0.0-3.0-1.162","raspar","s","v","noncog","word","S","exp","6"
"","null","html-keyboard-response","342","208264","0.0-3.0-0.163","+","null","","","","","",""
"","395","html-keyboard-response","343","208659","0.0-3.0-1.163","usfiga","s","null","noncog","pseudo","N","exp","null"
"","null","html-keyboard-response","344","209170","0.0-3.0-0.164","+","null","","","","","",""
"","384","html-keyboard-response","345","209555","0.0-3.0-1.164","verde","s","a","noncog","word","S","exp","5"
"","null","html-keyboard-response","346","210056","0.0-3.0-0.165","+","null","","","","","",""
"","395","html-keyboard-response","347","210451","0.0-3.0-1.165","independente","s","a","noncog","word","S","exp","12"
"","null","html-keyboard-response","348","210954","0.0-3.0-0.166","+","null","","","","","",""
"","394","html-keyboard-response","349","211348","0.0-3.0-1.166","risbos","s","null","noncog","pseudo","N","exp","null"
"","null","html-keyboard-response","350","211849","0.0-3.0-0.167","+","null","","","","","",""
"","346","html-keyboard-response","351","212195","0.0-3.0-1.167","nivelado","s","a","cog","word","S","exp","8"
"","null","html-keyboard-response","352","212696","0.0-3.0-0.168","+","null","","","","","",""
"","459","html-keyboard-response","353","213155","0.0-3.0-1.168","fratos","s","null","noncog","pseudo","N","exp","null"
"","null","html-keyboard-response","354","213656","0.0-3.0-0.169","+","null","","","","","",""
"","475","html-keyboard-response","355","214131","0.0-3.0-1.169","afonher","s","null","noncog","pseudo","N","exp","null"
"","null","html-keyboard-response","356","214632","0.0-3.0-0.170","+","null","","","","","",""
"","426","html-keyboard-response","357","215059","0.0-3.0-1.170","barco","s","n","cog","word","S","exp","5"
"","null","html-keyboard-response","358","215561","0.0-3.0-0.171","+","null","","","","","",""
"","394","html-keyboard-response","359","215955","0.0-3.0-1.171","lorfaz","s","null","noncog","pseudo","N","exp","null"
"","null","html-keyboard-response","360","216456","0.0-3.0-0.172","+","null","","","","","",""
"","411","html-keyboard-response","361","216868","0.0-3.0-1.172","liberal","s","a","cog","word","S","exp","7"
"","null","html-keyboard-response","362","217377","0.0-3.0-0.173","+","null","","","","","",""
"","385","html-keyboard-response","363","217763","0.0-3.0-1.173","animado","s","a","noncog","word","S","exp","7"
"","null","html-keyboard-response","364","218264","0.0-3.0-0.174","+","null","","","","","",""
"","475","html-keyboard-response","365","218739","0.0-3.0-1.174","verceja","s","null","noncog","pseudo","N","exp","null"
"","null","html-keyboard-response","366","219240","0.0-3.0-0.175","+","null","","","","","",""
"","411","html-keyboard-response","367","219651","0.0-3.0-1.175","parceter","s","null","noncog","pseudo","N","exp","null"
"","null","html-keyboard-response","368","220152","0.0-3.0-0.176","+","null","","","","","",""
"","314","html-keyboard-response","369","220467","0.0-3.0-1.176","liso","s","n","noncog","word","S","exp","4"
"","null","html-keyboard-response","370","220968","0.0-3.0-0.177","+","null","","","","","",""
"","267","html-keyboard-response","371","221235","0.0-3.0-1.177","país","s","n","noncog","word","S","exp","4"
"","null","html-keyboard-response","372","221736","0.0-3.0-0.178","+","null","","","","","",""
"","299","html-keyboard-response","373","222035","0.0-3.0-1.178","espionar","s","v","cog","word","S","exp","8"
"","null","html-keyboard-response","374","222537","0.0-3.0-0.179","+","null","","","","","",""
"","330","html-keyboard-response","375","222867","0.0-3.0-1.179","chorão","s","a","noncog","word","S","exp","6"
"","null","html-keyboard-response","376","223369","0.0-3.0-0.180","+","null","","","","","",""
"","314","html-keyboard-response","377","223683","0.0-3.0-1.180","sábio","s","n","noncog","word","S","exp","5"
"","null","html-keyboard-response","378","224184","0.0-3.0-0.181","+","null","","","","","",""
"","331","html-keyboard-response","379","224515","0.0-3.0-1.181","ênclio","s","null","noncog","pseudo","N","exp","null"
"","null","html-keyboard-response","380","225016","0.0-3.0-0.182","+","null","","","","","",""
"","363","html-keyboard-response","381","225379","0.0-3.0-1.182","açúcar","s","n","noncog","word","S","exp","6"
"","null","html-keyboard-response","382","225881","0.0-3.0-0.183","+","null","","","","","",""
"","426","html-keyboard-response","383","226307","0.0-3.0-1.183","gilha","s","null","noncog","pseudo","N","exp","null"
"","null","html-keyboard-response","384","226809","0.0-3.0-0.184","+","null","","","","","",""
"","394","html-keyboard-response","385","227204","0.0-3.0-1.184","irratinte","s","null","noncog","pseudo","N","exp","null"
"","null","html-keyboard-response","386","227704","0.0-3.0-0.185","+","null","","","","","",""
"","394","html-keyboard-response","387","228099","0.0-3.0-1.185","aletiê","s","null","noncog","pseudo","N","exp","null"
"","null","html-keyboard-response","388","228600","0.0-3.0-0.186","+","null","","","","","",""
"","379","html-keyboard-response","389","228979","0.0-3.0-1.186","ideisa","s","null","noncog","pseudo","N","exp","null"
"","null","html-keyboard-response","390","229481","0.0-3.0-0.187","+","null","","","","","",""
"","378","html-keyboard-response","391","229859","0.0-3.0-1.187","oricia","s","null","noncog","pseudo","N","exp","null"
"","null","html-keyboard-response","392","230360","0.0-3.0-0.188","+","null","","","","","",""
"","379","html-keyboard-response","393","230739","0.0-3.0-1.188","filme","s","n","cog","word","S","exp","5"
"","null","html-keyboard-response","394","231240","0.0-3.0-0.189","+","null","","","","","",""
"","395","html-keyboard-response","395","231635","0.0-3.0-1.189","bandido","s","n","cog","word","S","exp","7"
"","null","html-keyboard-response","396","232136","0.0-3.0-0.190","+","null","","","","","",""
"","459","html-keyboard-response","397","232595","0.0-3.0-1.190","chato","s","n","noncog","word","S","exp","5"
"","null","html-keyboard-response","398","233096","0.0-3.0-0.191","+","null","","","","","",""
"","379","html-keyboard-response","399","233475","0.0-3.0-1.191","alpica","s","null","noncog","pseudo","N","exp","null"
"","null","html-keyboard-response","400","233976","0.0-3.0-0.192","+","null","","","","","",""
"","459","html-keyboard-response","401","234435","0.0-3.0-1.192","enxarto","s","null","noncog","pseudo","N","exp","null"
"","null","html-keyboard-response","402","234936","0.0-3.0-0.193","+","null","","","","","",""
"","443","html-keyboard-response","403","235380","0.0-3.0-1.193","temperar","s","v","noncog","word","S","exp","8"
"","null","html-keyboard-response","404","235882","0.0-3.0-0.194","+","null","","","","","",""
"","409","html-keyboard-response","405","236291","0.0-3.0-1.194","disbrituir","s","null","noncog","pseudo","N","exp","null"
"","null","html-keyboard-response","406","236793","0.0-3.0-0.195","+","null","","","","","",""
"","394","html-keyboard-response","407","237188","0.0-3.0-1.195","mudança","s","n","noncog","word","S","exp","7"
"","null","html-keyboard-response","408","237688","0.0-3.0-0.196","+","null","","","","","",""
"","363","html-keyboard-response","409","238051","0.0-3.0-1.196","lagras","s","null","noncog","pseudo","N","exp","null"
"","null","html-keyboard-response","410","238554","0.0-3.0-0.197","+","null","","","","","",""
"","457","html-keyboard-response","411","239011","0.0-3.0-1.197","escumo","s","null","noncog","pseudo","N","exp","null"
"","null","html-keyboard-response","412","239512","0.0-3.0-0.198","+","null","","","","","",""
"","410","html-keyboard-response","413","239923","0.0-3.0-1.198","filosofia","s","n","cog","word","S","exp","9"
"","null","html-keyboard-response","414","240424","0.0-3.0-0.199","+","null","","","","","",""
"","443","html-keyboard-response","415","240867","0.0-3.0-1.199","rovaz","s","null","noncog","pseudo","N","exp","null"
"","null","html-keyboard-response","416","241368","0.0-3.0-0.200","+","null","","","","","",""
"","443","html-keyboard-response","417","241811","0.0-3.0-1.200","morar","s","v","noncog","word","S","exp","5"
"","null","html-keyboard-response","418","242312","0.0-3.0-0.201","+","null","","","","","",""
"","411","html-keyboard-response","419","242723","0.0-3.0-1.201","atitro","s","null","noncog","pseudo","N","exp","null"
"","null","html-keyboard-response","420","243224","0.0-3.0-0.202","+","null","","","","","",""
"","507","html-keyboard-response","421","243731","0.0-3.0-1.202","oper","s","null","noncog","pseudo","N","exp","null"
"","null","html-keyboard-response","422","244236","0.0-3.0-0.203","+","null","","","","","",""
"","407","html-keyboard-response","423","244643","0.0-3.0-1.203","tio","s","n","noncog","word","S","exp","3"
"","null","html-keyboard-response","424","245144","0.0-3.0-0.204","+","null","","","","","",""
"","411","html-keyboard-response","425","245555","0.0-3.0-1.204","jastor","s","null","noncog","pseudo","N","exp","null"
"","null","html-keyboard-response","426","246056","0.0-3.0-0.205","+","null","","","","","",""
"","427","html-keyboard-response","427","246483","0.0-3.0-1.205","montanha","s","n","cog","word","S","exp","8"
"","null","html-keyboard-response","428","246984","0.0-3.0-0.206","+","null","","","","","",""
"","298","html-keyboard-response","429","247283","0.0-3.0-1.206","enxerido","s","a","noncog","word","S","exp","8"
"","null","html-keyboard-response","430","247798","0.0-3.0-0.207","+","null","","","","","",""
"","364","html-keyboard-response","431","248163","0.0-3.0-1.207","ronronar","s","v","cog","word","S","exp","8"
"","null","html-keyboard-response","432","248664","0.0-3.0-0.208","+","null","","","","","",""
"","363","html-keyboard-response","433","249027","0.0-3.0-1.208","matinal","s","a","cog","word","S","exp","7"
"","null","html-keyboard-response","434","249528","0.0-3.0-0.209","+","null","","","","","",""
"","315","html-keyboard-response","435","249843","0.0-3.0-1.209","undivídio","s","null","noncog","pseudo","N","exp","null"
"","null","html-keyboard-response","436","250345","0.0-3.0-0.210","+","null","","","","","",""
"","346","html-keyboard-response","437","250691","0.0-3.0-1.210","tênis","s","n","cog","word","S","exp","5"
"","null","html-keyboard-response","438","251192","0.0-3.0-0.211","+","null","","","","","",""
"","346","html-keyboard-response","439","251539","0.0-3.0-1.211","oecano","s","null","noncog","pseudo","N","exp","null"
"","null","html-keyboard-response","440","252040","0.0-3.0-0.212","+","null","","","","","",""
"","299","html-keyboard-response","441","252339","0.0-3.0-1.212","cascata","s","n","noncog","word","S","exp","7"
"","null","html-keyboard-response","442","252840","0.0-3.0-0.213","+","null","","","","","",""
"","379","html-keyboard-response","443","253219","0.0-3.0-1.213","bracos","s","null","noncog","pseudo","N","exp","null"
"","null","html-keyboard-response","444","253721","0.0-3.0-0.214","+","null","","","","","",""
"","298","html-keyboard-response","445","254019","0.0-3.0-1.214","dobradiça","s","n","noncog","word","S","exp","9"
"","null","html-keyboard-response","446","254521","0.0-3.0-0.215","+","null","","","","","",""
"","330","html-keyboard-response","447","254851","0.0-3.0-1.215","tinta","s","n","cog","word","S","exp","5"
"","null","html-keyboard-response","448","255354","0.0-3.0-0.216","+","null","","","","","",""
"","329","html-keyboard-response","449","255683","0.0-3.0-1.216","vervas","s","null","noncog","pseudo","N","exp","null"
"","null","html-keyboard-response","450","256185","0.0-3.0-0.217","+","null","","","","","",""
"","234","html-keyboard-response","451","256419","0.0-3.0-1.217","manfa","s","null","noncog","pseudo","N","exp","null"
"","null","html-keyboard-response","452","256920","0.0-3.0-0.218","+","null","","","","","",""
"","251","html-keyboard-response","453","257171","0.0-3.0-1.218","agravar","s","v","cog","word","S","exp","7"
"","null","html-keyboard-response","454","257673","0.0-3.0-0.219","+","null","","","","","",""
"","266","html-keyboard-response","455","257939","0.0-3.0-1.219","dacada","s","null","noncog","pseudo","N","exp","null"
"","null","html-keyboard-response","456","258441","0.0-3.0-0.220","+","null","","","","","",""
"","250","html-keyboard-response","457","258691","0.0-3.0-1.220","taberia","s","null","noncog","pseudo","N","exp","null"
"","null","html-keyboard-response","458","259192","0.0-3.0-0.221","+","null","","","","","",""
"","267","html-keyboard-response","459","259459","0.0-3.0-1.221","ocinto","s","null","noncog","pseudo","N","exp","null"
"","null","html-keyboard-response","460","259961","0.0-3.0-0.222","+","null","","","","","",""
"","298","html-keyboard-response","461","260259","0.0-3.0-1.222","pimada","s","null","noncog","pseudo","N","exp","null"
"","null","html-keyboard-response","462","260761","0.0-3.0-0.223","+","null","","","","","",""
"","282","html-keyboard-response","463","261043","0.0-3.0-1.223","pulmão","s","n","noncog","word","S","exp","6"
"","null","html-keyboard-response","464","261544","0.0-3.0-0.224","+","null","","","","","",""
"","347","html-keyboard-response","465","261891","0.0-3.0-1.224","morno","s","a","noncog","word","S","exp","5"
"","null","html-keyboard-response","466","262392","0.0-3.0-0.225","+","null","","","","","",""
"","283","html-keyboard-response","467","262675","0.0-3.0-1.225","preferir","s","v","cog","word","S","exp","8"
"","null","html-keyboard-response","468","263176","0.0-3.0-0.226","+","null","","","","","",""
"","298","html-keyboard-response","469","263475","0.0-3.0-1.226","nervoso","s","a","noncog","word","S","exp","7"
"","null","html-keyboard-response","470","263976","0.0-3.0-0.227","+","null","","","","","",""
"","203","html-keyboard-response","471","264179","0.0-3.0-1.227","uchães","s","null","noncog","pseudo","N","exp","null"
"","null","html-keyboard-response","472","264681","0.0-3.0-0.228","+","null","","","","","",""
"","187","html-keyboard-response","473","264868","0.0-3.0-1.228","mua","s","null","noncog","pseudo","N","exp","null"
"","null","html-keyboard-response","474","265370","0.0-3.0-0.229","+","null","","","","","",""
"","217","html-keyboard-response","475","265587","0.0-3.0-1.229","conjerto","s","null","noncog","pseudo","N","exp","null"
"","null","html-keyboard-response","476","266089","0.0-3.0-0.230","+","null","","","","","",""
"","298","html-keyboard-response","477","266387","0.0-3.0-1.230","esprotiar","s","null","noncog","pseudo","N","exp","null"
"","null","html-keyboard-response","478","266889","0.0-3.0-0.231","+","null","","","","","",""
"","266","html-keyboard-response","479","267155","0.0-3.0-1.231","brincar","s","v","noncog","word","S","exp","7"
"","null","html-keyboard-response","480","267656","0.0-3.0-0.232","+","null","","","","","",""
"","315","html-keyboard-response","481","267971","0.0-3.0-1.232","ensuas","s","null","noncog","pseudo","N","exp","null"
"","null","html-keyboard-response","482","268473","0.0-3.0-0.233","+","null","","","","","",""
"","298","html-keyboard-response","483","268772","0.0-3.0-1.233","tatear","s","v","cog","word","S","exp","6"
"","null","html-keyboard-response","484","269273","0.0-3.0-0.234","+","null","","","","","",""
"","282","html-keyboard-response","485","269555","0.0-3.0-1.234","bambu","s","n","cog","word","S","exp","5"
"","null","html-keyboard-response","486","270056","0.0-3.0-0.235","+","null","","","","","",""
"","443","html-keyboard-response","487","270499","0.0-3.0-1.235","selir","s","null","noncog","pseudo","N","exp","null"
"","null","html-keyboard-response","488","271000","0.0-3.0-0.236","+","null","","","","","",""
"","635","html-keyboard-response","489","271635","0.0-3.0-1.236","multiplicar","s","v","cog","word","S","exp","11"
"","null","html-keyboard-response","490","272136","0.0-3.0-0.237","+","null","","","","","",""
"","363","html-keyboard-response","491","272499","0.0-3.0-1.237","cenada","s","null","noncog","pseudo","N","exp","null"
"","null","html-keyboard-response","492","273001","0.0-3.0-0.238","+","null","","","","","",""
"","410","html-keyboard-response","493","273411","0.0-3.0-1.238","revista","s","n","cog","word","S","exp","7"
"","null","html-keyboard-response","494","273912","0.0-3.0-0.239","+","null","","","","","",""
"","315","html-keyboard-response","495","274227","0.0-3.0-1.239","vitrive","s","null","noncog","pseudo","N","exp","null"
