[
	{
		"view_history": [
			{
				"page_index": 0,
				"viewing_time": 3426
			}
		],
		"rt": 3426,
		"trial_type": "instructions",
		"trial_index": 0,
		"time_elapsed": 3428,
		"internal_node_id": "0.0-0.0"
	},
	{
		"rt": 263398,
		"response": {
			"reading_habits_printed_magazines": "Todos os dias",
			"reading_habits_printed_newspapers": "Uma vez por semana",
			"reading_habits_books": "Alguns dias da semana",
			"reading_habits_printed_socialmedias": "Uma vez por semana"
		},
		"question_order": [
			0,
			1,
			2,
			3
		],
		"trial_type": "survey-multi-choice",
		"trial_index": 1,
		"time_elapsed": 266933,
		"internal_node_id": "0.0-1.0"
	},
	{
		"rt": 169416,
		"response": {
			"reading_habits_virtual_magazines": "Todos os dias",
			"reading_habits_virtual_newspapers": "Alguns dias da semana",
			"reading_habits_books": "Todos os dias",
			"reading_habits_virtual_socialmedias": "Uma vez por semana"
		},
		"question_order": [
			0,
			1,
			2,
			3
		],
		"trial_type": "survey-multi-choice",
		"trial_index": 2,
		"time_elapsed": 436461,
		"internal_node_id": "0.0-2.0"
	},
	{
		"rt": 42657,
		"response": {
			"reading_habits_other_which": "",
			"reading_habits_other_frequency": ""
		},
		"trial_type": "survey-text",
		"trial_index": 3,
		"time_elapsed": 479220,
		"internal_node_id": "0.0-3.0"
	}
]