"view_history","rt","trial_type","trial_index","time_elapsed","internal_node_id","stimulus","response","portuguese","kreyol"
"[{""page_index"":0,""viewing_time"":1042}]","1042","instructions","0","1045","0.0-0.0","","","",""
"","null","html-keyboard-response","1","1655","0.0-1.0-0.0","+","null","",""
"","20949","audio-keyboard-response","2","22630","0.0-1.0-1.0","../audio/teste-vocab--58.mp3","n","nutritivo","nourisan"
"","null","html-keyboard-response","3","23142","0.0-1.0-0.1","+","null","",""
"","5851","audio-keyboard-response","4","29013","0.0-1.0-1.1","../audio/teste-vocab--23.mp3","s","acariciar","karese"
"","null","html-keyboard-response","5","29516","0.0-1.0-0.2","+","null","",""
"","5211","audio-keyboard-response","6","34757","0.0-1.0-1.2","../audio/teste-vocab--77.mp3","s","comércio","komès"
"","null","html-keyboard-response","7","35272","0.0-1.0-0.3","+","null","",""
"","3848","audio-keyboard-response","8","39141","0.0-1.0-1.3","../audio/teste-vocab--88.mp3","s","portátil","pòtab"
"","null","html-keyboard-response","9","39645","0.0-1.0-0.4","+","null","",""
"","3960","audio-keyboard-response","10","43621","0.0-1.0-1.4","../audio/teste-vocab--04.mp3","s","roda","wonn"
"","null","html-keyboard-response","11","44135","0.0-1.0-0.5","+","null","",""
"","4771","audio-keyboard-response","12","48933","0.0-1.0-1.5","../audio/teste-vocab--17.mp3","s","móvel","mobil"
"","null","html-keyboard-response","13","49446","0.0-1.0-0.6","+","null","",""
"","3280","audio-keyboard-response","14","52741","0.0-1.0-1.6","../audio/teste-vocab--22.mp3","s","quebrado","kraze"
"","null","html-keyboard-response","15","53256","0.0-1.0-0.7","+","null","",""
"","3971","audio-keyboard-response","16","57253","0.0-1.0-1.7","../audio/teste-vocab--90.mp3","n","carniça","kanivò"
"","null","html-keyboard-response","17","57769","0.0-1.0-0.8","+","null","",""
"","3251","audio-keyboard-response","18","61045","0.0-1.0-1.8","../audio/teste-vocab--94.mp3","s","paralelo","paralèl"
"","null","html-keyboard-response","19","61547","0.0-1.0-0.9","+","null","",""
"","3549","audio-keyboard-response","20","65125","0.0-1.0-1.9","../audio/teste-vocab--12.mp3","n","jaula","kaj"
"","null","html-keyboard-response","21","65628","0.0-1.0-0.10","+","null","",""
"","2560","audio-keyboard-response","22","68213","0.0-1.0-1.10","../audio/teste-vocab--114.mp3","s","fragmentar","dechire"
"","null","html-keyboard-response","23","68717","0.0-1.0-0.11","+","null","",""
"","3029","audio-keyboard-response","24","71765","0.0-1.0-1.11","../audio/teste-vocab--03.mp3","s","balançar","balanse"
"","null","html-keyboard-response","25","72269","0.0-1.0-0.12","+","null","",""
"","2768","audio-keyboard-response","26","75061","0.0-1.0-1.12","../audio/teste-vocab--122.mp3","s","transeunte","pasajè"
"","null","html-keyboard-response","27","75573","0.0-1.0-0.13","+","null","",""
"","2989","audio-keyboard-response","28","78580","0.0-1.0-1.13","../audio/teste-vocab--63.mp3","s","transparente","transparan"
"","null","html-keyboard-response","29","79087","0.0-1.0-0.14","+","null","",""
"","2520","audio-keyboard-response","30","81636","0.0-1.0-1.14","../audio/teste-vocab--20.mp3","s","medir","mezire"
"","null","html-keyboard-response","31","82137","0.0-1.0-0.15","+","null","",""
"","1789","audio-keyboard-response","32","83940","0.0-1.0-1.15","../audio/teste-vocab--108.mp3","s","moradia","kay"
"","null","html-keyboard-response","33","84449","0.0-1.0-0.16","+","null","",""
"","2301","audio-keyboard-response","34","86772","0.0-1.0-1.16","../audio/teste-vocab--82.mp3","s","roer","ronje"
"","null","html-keyboard-response","35","87274","0.0-1.0-0.17","+","null","",""
"","2461","audio-keyboard-response","36","89764","0.0-1.0-1.17","../audio/teste-vocab--125.mp3","s","lamaçal","labou"
"","null","html-keyboard-response","37","90270","0.0-1.0-0.18","+","null","",""
"","2008","audio-keyboard-response","38","92308","0.0-1.0-1.18","../audio/teste-vocab--46.mp3","s","ombro","zepòl"
"","null","html-keyboard-response","39","92815","0.0-1.0-0.19","+","null","",""
"","1960","audio-keyboard-response","40","94804","0.0-1.0-1.19","../audio/teste-vocab--27.mp3","s","rio","rivyè"
"","null","html-keyboard-response","41","95313","0.0-1.0-0.20","+","null","",""
"","2160","audio-keyboard-response","42","97492","0.0-1.0-1.20","../audio/teste-vocab--50.mp3","s","artista","atis"
"","null","html-keyboard-response","43","98004","0.0-1.0-0.21","+","null","",""
"","2091","audio-keyboard-response","44","100116","0.0-1.0-1.21","../audio/teste-vocab--64.mp3","s","colher","kiyè"
"","null","html-keyboard-response","45","100624","0.0-1.0-0.22","+","null","",""
"","2211","audio-keyboard-response","46","102852","0.0-1.0-1.22","../audio/teste-vocab--09.mp3","s","vela","bouji"
"","null","html-keyboard-response","47","103366","0.0-1.0-0.23","+","null","",""
"","1901","audio-keyboard-response","48","105284","0.0-1.0-1.23","../audio/teste-vocab--18.mp3","s","abelha","myèl"
"","null","html-keyboard-response","49","105797","0.0-1.0-0.24","+","null","",""
"","2379","audio-keyboard-response","50","108196","0.0-1.0-1.24","../audio/teste-vocab--42.mp3","s","isolamento","izòlman"
"","null","html-keyboard-response","51","108699","0.0-1.0-0.25","+","null","",""
"","2019","audio-keyboard-response","52","110740","0.0-1.0-1.25","../audio/teste-vocab--02.mp3","s","homem","gason"
"","null","html-keyboard-response","53","111255","0.0-1.0-0.26","+","null","",""
"","2379","audio-keyboard-response","54","113668","0.0-1.0-1.26","../audio/teste-vocab--05.mp3","s","limpar","netwaye"
"","null","html-keyboard-response","55","114177","0.0-1.0-0.27","+","null","",""
"","2109","audio-keyboard-response","56","116308","0.0-1.0-1.27","../audio/teste-vocab--117.mp3","s","córnea","kòn"
"","null","html-keyboard-response","57","116812","0.0-1.0-0.28","+","null","",""
"","2789","audio-keyboard-response","58","119636","0.0-1.0-1.28","../audio/teste-vocab--111.mp3","n","jubilosa","rejwisans"
"","null","html-keyboard-response","59","120137","0.0-1.0-0.29","+","null","",""
"","2491","audio-keyboard-response","60","122644","0.0-1.0-1.29","../audio/teste-vocab--119.mp3","n","numeroso","anpil"
"","null","html-keyboard-response","61","123147","0.0-1.0-0.30","+","null","",""
"","2648","audio-keyboard-response","62","125828","0.0-1.0-1.30","../audio/teste-vocab--89.mp3","s","classificar","klasifika"
"","null","html-keyboard-response","63","126334","0.0-1.0-0.31","+","null","",""
"","2451","audio-keyboard-response","64","128804","0.0-1.0-1.31","../audio/teste-vocab--83.mp3","s","morsa","mòs"
"","null","html-keyboard-response","65","129315","0.0-1.0-0.32","+","null","",""
"","2080","audio-keyboard-response","66","131412","0.0-1.0-1.32","../audio/teste-vocab--06.mp3","s","barco","bato"
"","null","html-keyboard-response","67","131915","0.0-1.0-0.33","+","null","",""
"","2611","audio-keyboard-response","68","134532","0.0-1.0-1.33","../audio/teste-vocab--91.mp3","s","bússola","bousòl"
"","null","html-keyboard-response","69","135037","0.0-1.0-0.34","+","null","",""
"","2800","audio-keyboard-response","70","137860","0.0-1.0-1.34","../audio/teste-vocab--65.mp3","s","discussão","diskisyon"
"","null","html-keyboard-response","71","138371","0.0-1.0-0.35","+","null","",""
"","1851","audio-keyboard-response","72","140244","0.0-1.0-1.35","../audio/teste-vocab--130.mp3","s","gentil","dou"
"","null","html-keyboard-response","73","140759","0.0-1.0-0.36","+","null","",""
"","2240","audio-keyboard-response","74","143028","0.0-1.0-1.36","../audio/teste-vocab--106.mp3","s","lubrificar","grese"
"","null","html-keyboard-response","75","143531","0.0-1.0-0.37","+","null","",""
"","3000","audio-keyboard-response","76","146548","0.0-1.0-1.37","../audio/teste-vocab--105.mp3","s","cítrico","sitrik"
"","null","html-keyboard-response","77","147058","0.0-1.0-0.38","+","null","",""
"","2389","audio-keyboard-response","78","149476","0.0-1.0-1.38","../audio/teste-vocab--107.mp3","n","elo","emay"
"","null","html-keyboard-response","79","149981","0.0-1.0-0.39","+","null","",""
"","1979","audio-keyboard-response","80","151988","0.0-1.0-1.39","../audio/teste-vocab--98.mp3","s","instruir","enstwi"
"","null","html-keyboard-response","81","152497","0.0-1.0-0.40","+","null","",""
"","1760","audio-keyboard-response","82","154276","0.0-1.0-1.40","../audio/teste-vocab--01.mp3","s","boneca","pope"
"","null","html-keyboard-response","83","154787","0.0-1.0-0.41","+","null","",""
"","2451","audio-keyboard-response","84","157252","0.0-1.0-1.41","../audio/teste-vocab--93.mp3","s","felino","leopa"
"","null","html-keyboard-response","85","157767","0.0-1.0-0.42","+","null","",""
"","3069","audio-keyboard-response","86","160868","0.0-1.0-1.42","../audio/teste-vocab--112.mp3","s","aparição","aparisyon"
"","null","html-keyboard-response","87","161384","0.0-1.0-0.43","+","null","",""
"","2419","audio-keyboard-response","88","163828","0.0-1.0-1.43","../audio/teste-vocab--53.mp3","s","orientar","oryante"
"","null","html-keyboard-response","89","164343","0.0-1.0-0.44","+","null","",""
"","2109","audio-keyboard-response","90","166484","0.0-1.0-1.44","../audio/teste-vocab--55.mp3","s","bosque","forè"
"","null","html-keyboard-response","91","166994","0.0-1.0-0.45","+","null","",""
"","2640","audio-keyboard-response","92","169652","0.0-1.0-1.45","../audio/teste-vocab--25.mp3","n","canguru","kanguwou"
"","null","html-keyboard-response","93","170163","0.0-1.0-0.46","+","null","",""
"","2731","audio-keyboard-response","94","172916","0.0-1.0-1.46","../audio/teste-vocab--116.mp3","n","vestuário","vestyè"
"","null","html-keyboard-response","95","173429","0.0-1.0-0.47","+","null","",""
"","2419","audio-keyboard-response","96","175860","0.0-1.0-1.47","../audio/teste-vocab--47.mp3","s","envelope","anvlope"
"","null","html-keyboard-response","97","176361","0.0-1.0-0.48","+","null","",""
"","3280","audio-keyboard-response","98","179668","0.0-1.0-1.48","../audio/teste-vocab--128.mp3","n","incisivo","ensisiv"
"","null","html-keyboard-response","99","180173","0.0-1.0-0.49","+","null","",""
"","2000","audio-keyboard-response","100","182196","0.0-1.0-1.49","../audio/teste-vocab--45.mp3","s","dentista","dantis"
"","null","html-keyboard-response","101","182706","0.0-1.0-0.50","+","null","",""
"","2248","audio-keyboard-response","102","184980","0.0-1.0-1.50","../audio/teste-vocab--120.mp3","s","induzir","pwovoke"
"","null","html-keyboard-response","103","185487","0.0-1.0-0.51","+","null","",""
"","2629","audio-keyboard-response","104","188148","0.0-1.0-1.51","../audio/teste-vocab--127.mp3","s","côncavo","konkav"
"","null","html-keyboard-response","105","188658","0.0-1.0-0.52","+","null","",""
"","2189","audio-keyboard-response","106","190884","0.0-1.0-1.52","../audio/teste-vocab--54.mp3","s","arbusto","raje"
"","null","html-keyboard-response","107","191394","0.0-1.0-0.53","+","null","",""
"","2408","audio-keyboard-response","108","193828","0.0-1.0-1.53","../audio/teste-vocab--52.mp3","s","construção","konstriksyon"
"","null","html-keyboard-response","109","194330","0.0-1.0-0.54","+","null","",""
"","2480","audio-keyboard-response","110","196836","0.0-1.0-1.54","../audio/teste-vocab--100.mp3","s","consumir","konsome"
"","null","html-keyboard-response","111","197345","0.0-1.0-0.55","+","null","",""
"","3168","audio-keyboard-response","112","200548","0.0-1.0-1.55","../audio/teste-vocab--99.mp3","n","arqueólogo","akeyológ"
"","null","html-keyboard-response","113","201049","0.0-1.0-0.56","+","null","",""
"","2309","audio-keyboard-response","114","203380","0.0-1.0-1.56","../audio/teste-vocab--85.mp3","s","trio","trio"
"","null","html-keyboard-response","115","203893","0.0-1.0-0.57","+","null","",""
"","2840","audio-keyboard-response","116","206756","0.0-1.0-1.57","../audio/teste-vocab--109.mp3","n","anfíbio","anfibyen"
"","null","html-keyboard-response","117","207262","0.0-1.0-0.58","+","null","",""
"","1739","audio-keyboard-response","118","209028","0.0-1.0-1.58","../audio/teste-vocab--59.mp3","s","par","pè"
"","null","html-keyboard-response","119","209537","0.0-1.0-0.59","+","null","",""
"","2429","audio-keyboard-response","120","211988","0.0-1.0-1.59","../audio/teste-vocab--44.mp3","s","premiar","rekonpanse"
"","null","html-keyboard-response","121","212499","0.0-1.0-0.60","+","null","",""
"","2179","audio-keyboard-response","122","214708","0.0-1.0-1.60","../audio/teste-vocab--68.mp3","s","surpreendido","sezi"
"","null","html-keyboard-response","123","215212","0.0-1.0-0.61","+","null","",""
"","2320","audio-keyboard-response","124","217556","0.0-1.0-1.61","../audio/teste-vocab--102.mp3","s","arrogante","arogan"
"","null","html-keyboard-response","125","218068","0.0-1.0-0.62","+","null","",""
"","2149","audio-keyboard-response","126","220244","0.0-1.0-1.62","../audio/teste-vocab--40.mp3","s","bebida","bwason"
"","null","html-keyboard-response","127","220754","0.0-1.0-0.63","+","null","",""
"","2160","audio-keyboard-response","128","222948","0.0-1.0-1.63","../audio/teste-vocab--70.mp3","s","funil","antónwa"
"","null","html-keyboard-response","129","223453","0.0-1.0-0.64","+","null","",""
"","1701","audio-keyboard-response","130","225172","0.0-1.0-1.64","../audio/teste-vocab--30.mp3","s","pintor","pent"
"","null","html-keyboard-response","131","225687","0.0-1.0-0.65","+","null","",""
"","2120","audio-keyboard-response","132","227828","0.0-1.0-1.65","../audio/teste-vocab--35.mp3","s","líquido","likid"
"","null","html-keyboard-response","133","228339","0.0-1.0-0.66","+","null","",""
"","1989","audio-keyboard-response","134","230356","0.0-1.0-1.66","../audio/teste-vocab--08.mp3","s","vaca","vach"
"","null","html-keyboard-response","135","230871","0.0-1.0-0.67","+","null","",""
"","1789","audio-keyboard-response","136","232676","0.0-1.0-1.67","../audio/teste-vocab--31.mp3","s","vazio","vid"
"","null","html-keyboard-response","137","233181","0.0-1.0-0.68","+","null","",""
"","2600","audio-keyboard-response","138","235812","0.0-1.0-1.68","../audio/teste-vocab--43.mp3","s","mecânico","mekanisyen"
"","null","html-keyboard-response","139","236316","0.0-1.0-0.69","+","null","",""
"","3480","audio-keyboard-response","140","239828","0.0-1.0-1.69","../audio/teste-vocab--118.mp3","s","paralelogramo","paralelogram"
"","null","html-keyboard-response","141","240335","0.0-1.0-0.70","+","null","",""
"","2899","audio-keyboard-response","142","243268","0.0-1.0-1.70","../audio/teste-vocab--115.mp3","s","perpendicular","pèpandikilè"
"","null","html-keyboard-response","143","243781","0.0-1.0-0.71","+","null","",""
"","2520","audio-keyboard-response","144","246324","0.0-1.0-1.71","../audio/teste-vocab--61.mp3","s","iluminação","iliminasyon"
"","null","html-keyboard-response","145","246828","0.0-1.0-0.72","+","null","",""
"","2459","audio-keyboard-response","146","249316","0.0-1.0-1.72","../audio/teste-vocab--51.mp3","s","recolher","kolekte"
"","null","html-keyboard-response","147","249828","0.0-1.0-0.73","+","null","",""
"","2728","audio-keyboard-response","148","252580","0.0-1.0-1.73","../audio/teste-vocab--129.mp3","n","elipse","elips"
"","null","html-keyboard-response","149","253087","0.0-1.0-0.74","+","null","",""
"","2189","audio-keyboard-response","150","255299","0.0-1.0-1.74","../audio/teste-vocab--84.mp3","s","confiar","konfye"
"","null","html-keyboard-response","151","255800","0.0-1.0-0.75","+","null","",""
"","2760","audio-keyboard-response","152","258580","0.0-1.0-1.75","../audio/teste-vocab--62.mp3","s","carretel","bobin"
"","null","html-keyboard-response","153","259094","0.0-1.0-0.76","+","null","",""
"","2669","audio-keyboard-response","154","261780","0.0-1.0-1.76","../audio/teste-vocab--110.mp3","s","prodígio","pwodij"
"","null","html-keyboard-response","155","262292","0.0-1.0-0.77","+","null","",""
"","3429","audio-keyboard-response","156","265748","0.0-1.0-1.77","../audio/teste-vocab--124.mp3","n","obelisco","obelisk"
"","null","html-keyboard-response","157","266257","0.0-1.0-0.78","+","null","",""
"","2099","audio-keyboard-response","158","268388","0.0-1.0-1.78","../audio/teste-vocab--32.mp3","s","descascar","dekale"
"","null","html-keyboard-response","159","268893","0.0-1.0-0.79","+","null","",""
"","1811","audio-keyboard-response","160","270724","0.0-1.0-1.79","../audio/teste-vocab--126.mp3","s","ambulante","promennen"
"","null","html-keyboard-response","161","271228","0.0-1.0-0.80","+","null","",""
"","1539","audio-keyboard-response","162","272788","0.0-1.0-1.80","../audio/teste-vocab--19.mp3","s","hora","è"
"","null","html-keyboard-response","163","273293","0.0-1.0-0.81","+","null","",""
"","2181","audio-keyboard-response","164","275492","0.0-1.0-1.81","../audio/teste-vocab--80.mp3","s","binóculo","longvi"
"","null","html-keyboard-response","165","275996","0.0-1.0-0.82","+","null","",""
"","2272","audio-keyboard-response","166","278292","0.0-1.0-1.82","../audio/teste-vocab--37.mp3","s","músico","mizisyen"
"","null","html-keyboard-response","167","278804","0.0-1.0-0.83","+","null","",""
"","2800","audio-keyboard-response","168","281620","0.0-1.0-1.83","../audio/teste-vocab--103.mp3","s","utensílio","istansil"
"","null","html-keyboard-response","169","282127","0.0-1.0-0.84","+","null","",""
"","1912","audio-keyboard-response","170","284052","0.0-1.0-1.84","../audio/teste-vocab--15.mp3","s","flecha","flèch"
"","null","html-keyboard-response","171","284567","0.0-1.0-0.85","+","null","",""
"","1680","audio-keyboard-response","172","286260","0.0-1.0-1.85","../audio/teste-vocab--07.mp3","s","abajur","lanp"
"","null","html-keyboard-response","173","286766","0.0-1.0-0.86","+","null","",""
"","1752","audio-keyboard-response","174","288532","0.0-1.0-1.86","../audio/teste-vocab--48.mp3","s","joia","bijou"
"","null","html-keyboard-response","175","289046","0.0-1.0-0.87","+","null","",""
"","3469","audio-keyboard-response","176","292548","0.0-1.0-1.87","../audio/teste-vocab--101.mp3","n","incandescente","enkandesan"
"","null","html-keyboard-response","177","293052","0.0-1.0-0.88","+","null","",""
"","1949","audio-keyboard-response","178","295028","0.0-1.0-1.88","../audio/teste-vocab--121.mp3","s","atônito","sezi"
"","null","html-keyboard-response","179","295537","0.0-1.0-0.89","+","null","",""
"","2411","audio-keyboard-response","180","297972","0.0-1.0-1.89","../audio/teste-vocab--96.mp3","s","árido","sechrès"
"","null","html-keyboard-response","181","298477","0.0-1.0-0.90","+","null","",""
"","1749","audio-keyboard-response","182","300260","0.0-1.0-1.90","../audio/teste-vocab--21.mp3","s","baleia","balèn"
"","null","html-keyboard-response","183","300771","0.0-1.0-0.91","+","null","",""
"","3309","audio-keyboard-response","184","304100","0.0-1.0-1.91","../audio/teste-vocab--72.mp3","s","ilha","zile"
"","null","html-keyboard-response","185","304608","0.0-1.0-0.92","+","null","",""
"","2269","audio-keyboard-response","186","306900","0.0-1.0-1.92","../audio/teste-vocab--41.mp3","s","médico","doktè,"
"","null","html-keyboard-response","187","307412","0.0-1.0-0.93","+","null","",""
"","2520","audio-keyboard-response","188","309956","0.0-1.0-1.93","../audio/teste-vocab--87.mp3","s","ave","zwazo"
"","null","html-keyboard-response","189","310461","0.0-1.0-0.94","+","null","",""
"","2400","audio-keyboard-response","190","312884","0.0-1.0-1.94","../audio/teste-vocab--81.mp3","s","judicial","jidisyè"
"","null","html-keyboard-response","191","313386","0.0-1.0-0.95","+","null","",""
"","2288","audio-keyboard-response","192","315700","0.0-1.0-1.95","../audio/teste-vocab--95.mp3","s","submergir","plonje"
"","null","html-keyboard-response","193","316213","0.0-1.0-0.96","+","null","",""
"","1981","audio-keyboard-response","194","318212","0.0-1.0-1.96","../audio/teste-vocab--24.mp3","s","acidente","aksidan"
"","null","html-keyboard-response","195","318721","0.0-1.0-0.97","+","null","",""
"","2061","audio-keyboard-response","196","320804","0.0-1.0-1.97","../audio/teste-vocab--97.mp3","s","frágil","frajil"
"","null","html-keyboard-response","197","321319","0.0-1.0-0.98","+","null","",""
"","1701","audio-keyboard-response","198","323044","0.0-1.0-1.98","../audio/teste-vocab--26.mp3","s","cotovelo","koud"
"","null","html-keyboard-response","199","323550","0.0-1.0-0.99","+","null","",""
"","1709","audio-keyboard-response","200","325284","0.0-1.0-1.99","../audio/teste-vocab--49.mp3","s","humano","moun"
"","null","html-keyboard-response","201","325786","0.0-1.0-0.100","+","null","",""
"","2139","audio-keyboard-response","202","327940","0.0-1.0-1.100","../audio/teste-vocab--79.mp3","s","moldura"," chanbranl"
"","null","html-keyboard-response","203","328441","0.0-1.0-0.101","+","null","",""
"","1541","audio-keyboard-response","204","330004","0.0-1.0-1.101","../audio/teste-vocab--14.mp3","s","ler","li"
"","null","html-keyboard-response","205","330517","0.0-1.0-0.102","+","null","",""
"","1920","audio-keyboard-response","206","332452","0.0-1.0-1.102","../audio/teste-vocab--104.mp3","s","ira","pwal"
"","null","html-keyboard-response","207","332954","0.0-1.0-0.103","+","null","",""
"","2120","audio-keyboard-response","208","335092","0.0-1.0-1.103","../audio/teste-vocab--123.mp3","s","emissão","emisyon"
"","null","html-keyboard-response","209","335596","0.0-1.0-0.104","+","null","",""
"","1960","audio-keyboard-response","210","337588","0.0-1.0-1.104","../audio/teste-vocab--11.mp3","s","joelho","jenou"
"","null","html-keyboard-response","211","338100","0.0-1.0-0.105","+","null","",""
"","1749","audio-keyboard-response","212","339876","0.0-1.0-1.105","../audio/teste-vocab--92.mp3","s","esférico","won"
"","null","html-keyboard-response","213","340384","0.0-1.0-0.106","+","null","",""
"","1549","audio-keyboard-response","214","341956","0.0-1.0-1.106","../audio/teste-vocab--28.mp3","s","águia","èg"
"","null","html-keyboard-response","215","342459","0.0-1.0-0.107","+","null","",""
"","1389","audio-keyboard-response","216","343860","0.0-1.0-1.107","../audio/teste-vocab--10.mp3","s","corneta","kòn"
"","null","html-keyboard-response","217","344365","0.0-1.0-0.108","+","null","",""
"","1832","audio-keyboard-response","218","346212","0.0-1.0-1.108","../audio/teste-vocab--71.mp3","s","caule","tij"
"","null","html-keyboard-response","219","346721","0.0-1.0-0.109","+","null","",""
"","2400","audio-keyboard-response","220","349156","0.0-1.0-1.109","../audio/teste-vocab--75.mp3","s","carpinteiro","chapantye"
"","null","html-keyboard-response","221","349669","0.0-1.0-0.110","+","null","",""
"","1768","audio-keyboard-response","222","351460","0.0-1.0-1.110","../audio/teste-vocab--67.mp3","s","corrimão","ranp"
"","null","html-keyboard-response","223","351968","0.0-1.0-0.111","+","null","",""
"","1781","audio-keyboard-response","224","353764","0.0-1.0-1.111","../audio/teste-vocab--86.mp3","s","pensar","panse"
"","null","html-keyboard-response","225","354276","0.0-1.0-0.112","+","null","",""
"","1912","audio-keyboard-response","226","356212","0.0-1.0-1.112","../audio/teste-vocab--113.mp3","s","ascender","limen"
"","null","html-keyboard-response","227","356713","0.0-1.0-0.113","+","null","",""
"","1608","audio-keyboard-response","228","358340","0.0-1.0-1.113","../audio/teste-vocab--34.mp3","s","tronco","twon"
"","null","html-keyboard-response","229","358841","0.0-1.0-0.114","+","null","",""
"","1912","audio-keyboard-response","230","360772","0.0-1.0-1.114","../audio/teste-vocab--57.mp3","s","raiz","rasin"
"","null","html-keyboard-response","231","361275","0.0-1.0-0.115","+","null","",""
"","1829","audio-keyboard-response","232","363124","0.0-1.0-1.115","../audio/teste-vocab--78.mp3","s","quarteto","qwatèt"
"","null","html-keyboard-response","233","363628","0.0-1.0-0.116","+","null","",""
"","1648","audio-keyboard-response","234","365300","0.0-1.0-1.116","../audio/teste-vocab--73.mp3","s","ângulo","ang"
"","null","html-keyboard-response","235","365810","0.0-1.0-0.117","+","null","",""
"","2280","audio-keyboard-response","236","368116","0.0-1.0-1.117","../audio/teste-vocab--69.mp3","s","pingar","degoute"
"","null","html-keyboard-response","237","368629","0.0-1.0-0.118","+","null","",""
"","1560","audio-keyboard-response","238","370212","0.0-1.0-1.118","../audio/teste-vocab--16.mp3","s","pescoço","kou"
"","null","html-keyboard-response","239","370714","0.0-1.0-0.119","+","null","",""
"","1960","audio-keyboard-response","240","372692","0.0-1.0-1.119","../audio/teste-vocab--33.mp3","s","uniforme","inifòm"
"","null","html-keyboard-response","241","373203","0.0-1.0-0.120","+","null","",""
"","1840","audio-keyboard-response","242","375060","0.0-1.0-1.120","../audio/teste-vocab--36.mp3","s","grupo","gwoup"
"","null","html-keyboard-response","243","375567","0.0-1.0-0.121","+","null","",""
"","1941","audio-keyboard-response","244","377524","0.0-1.0-1.121","../audio/teste-vocab--76.mp3","s","arquivar","achive"
"","null","html-keyboard-response","245","378039","0.0-1.0-0.122","+","null","",""
"","1752","audio-keyboard-response","246","379812","0.0-1.0-1.122","../audio/teste-vocab--39.mp3","s","cobra","koulèv"
"","null","html-keyboard-response","247","380318","0.0-1.0-0.123","+","null","",""
"","2160","audio-keyboard-response","248","382500","0.0-1.0-1.123","../audio/teste-vocab--56.mp3","s","agricultura","agrikilti"
"","null","html-keyboard-response","249","383008","0.0-1.0-0.124","+","null","",""
"","1931","audio-keyboard-response","250","384996","0.0-1.0-1.124","../audio/teste-vocab--60.mp3","s","secretaria","sekretè"
"","null","html-keyboard-response","251","385507","0.0-1.0-0.125","+","null","",""
"","1859","audio-keyboard-response","252","387380","0.0-1.0-1.125","../audio/teste-vocab--13.mp3","s","ambulância","anbilans"
"","null","html-keyboard-response","253","387891","0.0-1.0-0.126","+","null","",""
"","2011","audio-keyboard-response","254","389924","0.0-1.0-1.126","../audio/teste-vocab--38.mp3","s","cerimônia","seremoni"
"","null","html-keyboard-response","255","390425","0.0-1.0-0.127","+","null","",""
"","2768","audio-keyboard-response","256","393220","0.0-1.0-1.127","../audio/teste-vocab--66.mp3","s","cooperação","koperasyon"
"","null","html-keyboard-response","257","393732","0.0-1.0-0.128","+","null","",""
"","2040","audio-keyboard-response","258","395796","0.0-1.0-1.128","../audio/teste-vocab--29.mp3","s","rasgar","chire"
"","null","html-keyboard-response","259","396297","0.0-1.0-0.129","+","null","",""
"","3979","audio-keyboard-response","260","400308","0.0-1.0-1.129","../audio/teste-vocab--74.mp3","n","desilusão","dezilizyon"
