[
	{
		"view_history": [
			{
				"page_index": 0,
				"viewing_time": 1161
			},
			{
				"page_index": 1,
				"viewing_time": 856
			}
		],
		"rt": 2017,
		"trial_type": "instructions",
		"trial_index": 0,
		"time_elapsed": 2018,
		"internal_node_id": "0.0-0.0"
	},
	{
		"rt": null,
		"stimulus": "<span style= \"font-size:30px; font-family: monospace\">+</span>",
		"response": null,
		"trial_part": "fixation",
		"trial_type": "html-keyboard-response",
		"trial_index": 1,
		"time_elapsed": 3130,
		"internal_node_id": "0.0-1.0-0.0-0.0"
	},
	{
		"rt": 33079,
		"stimulus": "<span style=\"font-size:30px; font-family: monospace\">O</span>",
		"response": " ",
		"trial": "prac-sent",
		"word": "O",
		"trial_type": "html-keyboard-response",
		"trial_index": 2,
		"time_elapsed": 36473,
		"internal_node_id": "0.0-1.0-1.0"
	},
	{
		"rt": 1733,
		"stimulus": "<span style=\"font-size:30px; font-family: monospace\">dia</span>",
		"response": " ",
		"trial": "prac-sent",
		"word": "dia",
		"trial_type": "html-keyboard-response",
		"trial_index": 3,
		"time_elapsed": 38457,
		"internal_node_id": "0.0-1.0-1.1"
	},
	{
		"rt": 2757,
		"stimulus": "<span style=\"font-size:30px; font-family: monospace\">estará</span>",
		"response": " ",
		"trial": "prac-sent",
		"word": "estará",
		"trial_type": "html-keyboard-response",
		"trial_index": 4,
		"time_elapsed": 41465,
		"internal_node_id": "0.0-1.0-1.2"
	},
	{
		"rt": 2469,
		"stimulus": "<span style=\"font-size:30px; font-family: monospace\">cheio</span>",
		"response": " ",
		"trial": "prac-sent",
		"word": "cheio",
		"trial_type": "html-keyboard-response",
		"trial_index": 5,
		"time_elapsed": 44185,
		"internal_node_id": "0.0-1.0-1.3"
	},
	{
		"rt": 2406,
		"stimulus": "<span style=\"font-size:30px; font-family: monospace\">de</span>",
		"response": " ",
		"trial": "prac-sent",
		"word": "de",
		"trial_type": "html-keyboard-response",
		"trial_index": 6,
		"time_elapsed": 46841,
		"internal_node_id": "0.0-1.0-1.4"
	},
	{
		"rt": 2709,
		"stimulus": "<span style=\"font-size:30px; font-family: monospace\">nuvens</span>",
		"response": " ",
		"trial": "prac-sent",
		"word": "nuvens",
		"trial_type": "html-keyboard-response",
		"trial_index": 7,
		"time_elapsed": 49801,
		"internal_node_id": "0.0-1.0-1.5"
	},
	{
		"rt": 16724,
		"stimulus": "<span style=\"font-size:30px; font-family: monospace\">hoje.</span>",
		"response": " ",
		"trial": "prac-sent",
		"word": "hoje.",
		"trial_type": "html-keyboard-response",
		"trial_index": 8,
		"time_elapsed": 66777,
		"internal_node_id": "0.0-1.0-1.6"
	},
	{
		"rt": null,
		"stimulus": "<span style= \"font-size:30px; font-family: monospace\">+</span>",
		"response": null,
		"trial_part": "fixation",
		"trial_type": "html-keyboard-response",
		"trial_index": 9,
		"time_elapsed": 68029,
		"internal_node_id": "0.0-1.0-0.7-0.7"
	},
	{
		"rt": 15841,
		"stimulus": "<span style=\"font-size:30px; font-family: monospace\">A</span>",
		"response": " ",
		"trial": "prac-sent",
		"word": "A",
		"trial_type": "html-keyboard-response",
		"trial_index": 10,
		"time_elapsed": 84121,
		"internal_node_id": "0.0-1.0-1.7"
	},
	{
		"rt": 3732,
		"stimulus": "<span style=\"font-size:30px; font-family: monospace\">caneca</span>",
		"response": " ",
		"trial": "prac-sent",
		"word": "caneca",
		"trial_type": "html-keyboard-response",
		"trial_index": 11,
		"time_elapsed": 88105,
		"internal_node_id": "0.0-1.0-1.8"
	},
	{
		"rt": 2693,
		"stimulus": "<span style=\"font-size:30px; font-family: monospace\">colorida</span>",
		"response": " ",
		"trial": "prac-sent",
		"word": "colorida",
		"trial_type": "html-keyboard-response",
		"trial_index": 12,
		"time_elapsed": 91049,
		"internal_node_id": "0.0-1.0-1.9"
	},
	{
		"rt": 2677,
		"stimulus": "<span style=\"font-size:30px; font-family: monospace\">caiu</span>",
		"response": " ",
		"trial": "prac-sent",
		"word": "caiu",
		"trial_type": "html-keyboard-response",
		"trial_index": 13,
		"time_elapsed": 93977,
		"internal_node_id": "0.0-1.0-1.10"
	},
	{
		"rt": 2165,
		"stimulus": "<span style=\"font-size:30px; font-family: monospace\">da</span>",
		"response": " ",
		"trial": "prac-sent",
		"word": "da",
		"trial_type": "html-keyboard-response",
		"trial_index": 14,
		"time_elapsed": 96393,
		"internal_node_id": "0.0-1.0-1.11"
	},
	{
		"rt": 2245,
		"stimulus": "<span style=\"font-size:30px; font-family: monospace\">mesa</span>",
		"response": " ",
		"trial": "prac-sent",
		"word": "mesa",
		"trial_type": "html-keyboard-response",
		"trial_index": 15,
		"time_elapsed": 98889,
		"internal_node_id": "0.0-1.0-1.12"
	},
	{
		"rt": 1557,
		"stimulus": "<span style=\"font-size:30px; font-family: monospace\">de</span>",
		"response": " ",
		"trial": "prac-sent",
		"word": "de",
		"trial_type": "html-keyboard-response",
		"trial_index": 16,
		"time_elapsed": 100697,
		"internal_node_id": "0.0-1.0-1.13"
	},
	{
		"rt": 8214,
		"stimulus": "<span style=\"font-size:30px; font-family: monospace\">jantar.</span>",
		"response": " ",
		"trial": "prac-comp",
		"word": "jantar.",
		"trial_type": "html-keyboard-response",
		"trial_index": 17,
		"time_elapsed": 109161,
		"internal_node_id": "0.0-1.0-1.14"
	},
	{
		"rt": 17860,
		"stimulus": "<span style=\"font-size:30px; font-family: monospace\">A caneca permaneceu na mesa?</span>",
		"response": "n",
		"question": "A caneca permaneceu na mesa?",
		"answer": "não",
		"trial": "prac-comp",
		"trial_type": "html-keyboard-response",
		"trial_index": 18,
		"time_elapsed": 127273,
		"internal_node_id": "0.0-1.0-2.14-0.14",
		"accuracy": false
	},
	{
		"view_history": [
			{
				"page_index": 0,
				"viewing_time": 5979
			}
		],
		"rt": 5979,
		"trial_type": "instructions",
		"trial_index": 19,
		"time_elapsed": 133754,
		"internal_node_id": "0.0-2.0"
	},
	{
		"rt": null,
		"stimulus": "<span style= \"font-size:30px; font-family: monospace\">+</span>",
		"response": null,
		"trial_part": "fixation",
		"trial_type": "html-keyboard-response",
		"trial_index": 20,
		"time_elapsed": 134856,
		"internal_node_id": "0.0-3.0-0.0-0.0"
	},
	{
		"rt": 4918,
		"stimulus": "<span style=\"font-size:30px; font-family: monospace\">Minha</span>",
		"response": " ",
		"trial": "exp-sent",
		"word": "Minha",
		"trial_type": "html-keyboard-response",
		"trial_index": 21,
		"time_elapsed": 140025,
		"internal_node_id": "0.0-3.0-1.0"
	},
	{
		"rt": 4436,
		"stimulus": "<span style=\"font-size:30px; font-family: monospace\">prima</span>",
		"response": " ",
		"trial": "exp-sent",
		"word": "prima",
		"trial_type": "html-keyboard-response",
		"trial_index": 22,
		"time_elapsed": 144713,
		"internal_node_id": "0.0-3.0-1.1"
	},
	{
		"rt": 2329,
		"stimulus": "<span style=\"font-size:30px; font-family: monospace\">trocou</span>",
		"response": " ",
		"trial": "exp-sent",
		"word": "trocou",
		"trial_type": "html-keyboard-response",
		"trial_index": 23,
		"time_elapsed": 147305,
		"internal_node_id": "0.0-3.0-1.2"
	},
	{
		"rt": 1781,
		"stimulus": "<span style=\"font-size:30px; font-family: monospace\">a</span>",
		"response": " ",
		"trial": "exp-sent",
		"word": "a",
		"trial_type": "html-keyboard-response",
		"trial_index": 24,
		"time_elapsed": 149337,
		"internal_node_id": "0.0-3.0-1.3"
	},
	{
		"rt": 2181,
		"stimulus": "<span style=\"font-size:30px; font-family: monospace\">tela</span>",
		"response": " ",
		"trial": "exp-sent",
		"word": "tela",
		"trial_type": "html-keyboard-response",
		"trial_index": 25,
		"time_elapsed": 151769,
		"internal_node_id": "0.0-3.0-1.4"
	},
	{
		"rt": 1492,
		"stimulus": "<span style=\"font-size:30px; font-family: monospace\">do</span>",
		"response": " ",
		"trial": "exp-sent",
		"word": "do",
		"trial_type": "html-keyboard-response",
		"trial_index": 26,
		"time_elapsed": 153513,
		"internal_node_id": "0.0-3.0-1.5"
	},
	{
		"rt": 2149,
		"stimulus": "<span style=\"font-size:30px; font-family: monospace\">celular</span>",
		"response": " ",
		"trial": "exp-sent",
		"word": "celular",
		"trial_type": "html-keyboard-response",
		"trial_index": 27,
		"time_elapsed": 155913,
		"internal_node_id": "0.0-3.0-1.6"
	},
	{
		"rt": 1589,
		"stimulus": "<span style=\"font-size:30px; font-family: monospace\">duas</span>",
		"response": " ",
		"trial": "exp-sent",
		"word": "duas",
		"trial_type": "html-keyboard-response",
		"trial_index": 28,
		"time_elapsed": 157753,
		"internal_node_id": "0.0-3.0-1.7"
	},
	{
		"rt": 15189,
		"stimulus": "<span style=\"font-size:30px; font-family: monospace\">vezes.</span>",
		"response": " ",
		"trial": "exp-sent",
		"word": "vezes.",
		"trial_type": "html-keyboard-response",
		"trial_index": 29,
		"time_elapsed": 173192,
		"internal_node_id": "0.0-3.0-1.8"
	},
	{
		"rt": null,
		"stimulus": "<span style= \"font-size:30px; font-family: monospace\">+</span>",
		"response": null,
		"trial_part": "fixation",
		"trial_type": "html-keyboard-response",
		"trial_index": 30,
		"time_elapsed": 174451,
		"internal_node_id": "0.0-3.0-0.9-0.9"
	},
	{
		"rt": 5083,
		"stimulus": "<span style=\"font-size:30px; font-family: monospace\">Agora</span>",
		"response": " ",
		"trial": "exp-sent",
		"word": "Agora",
		"trial_type": "html-keyboard-response",
		"trial_index": 31,
		"time_elapsed": 179785,
		"internal_node_id": "0.0-3.0-1.9"
	},
	{
		"rt": 2357,
		"stimulus": "<span style=\"font-size:30px; font-family: monospace\">a</span>",
		"response": " ",
		"trial": "exp-sent",
		"word": "a",
		"trial_type": "html-keyboard-response",
		"trial_index": 32,
		"time_elapsed": 182393,
		"internal_node_id": "0.0-3.0-1.10"
	},
	{
		"rt": 3557,
		"stimulus": "<span style=\"font-size:30px; font-family: monospace\">minha</span>",
		"response": " ",
		"trial": "exp-sent",
		"word": "minha",
		"trial_type": "html-keyboard-response",
		"trial_index": 33,
		"time_elapsed": 186200,
		"internal_node_id": "0.0-3.0-1.11"
	},
	{
		"rt": 2325,
		"stimulus": "<span style=\"font-size:30px; font-family: monospace\">única</span>",
		"response": " ",
		"trial": "exp-sent",
		"word": "única",
		"trial_type": "html-keyboard-response",
		"trial_index": 34,
		"time_elapsed": 188777,
		"internal_node_id": "0.0-3.0-1.12"
	},
	{
		"rt": 3925,
		"stimulus": "<span style=\"font-size:30px; font-family: monospace\">preocupação</span>",
		"response": " ",
		"trial": "exp-sent",
		"word": "preocupação",
		"trial_type": "html-keyboard-response",
		"trial_index": 35,
		"time_elapsed": 192953,
		"internal_node_id": "0.0-3.0-1.13"
	},
	{
		"rt": 2740,
		"stimulus": "<span style=\"font-size:30px; font-family: monospace\">é</span>",
		"response": " ",
		"trial": "exp-sent",
		"word": "é",
		"trial_type": "html-keyboard-response",
		"trial_index": 36,
		"time_elapsed": 195944,
		"internal_node_id": "0.0-3.0-1.14"
	},
	{
		"rt": 7685,
		"stimulus": "<span style=\"font-size:30px; font-family: monospace\">um</span>",
		"response": " ",
		"trial": "exp-sent",
		"word": "um",
		"trial_type": "html-keyboard-response",
		"trial_index": 37,
		"time_elapsed": 203881,
		"internal_node_id": "0.0-3.0-1.15"
	},
	{
		"rt": 7348,
		"stimulus": "<span style=\"font-size:30px; font-family: monospace\">descanso</span>",
		"response": " ",
		"trial": "exp-sent",
		"word": "descanso",
		"trial_type": "html-keyboard-response",
		"trial_index": 38,
		"time_elapsed": 211480,
		"internal_node_id": "0.0-3.0-1.16"
	},
	{
		"rt": 13781,
		"stimulus": "<span style=\"font-size:30px; font-family: monospace\">tranquilo.</span>",
		"response": " ",
		"trial": "exp-sent",
		"word": "tranquilo.",
		"trial_type": "html-keyboard-response",
		"trial_index": 39,
		"time_elapsed": 225512,
		"internal_node_id": "0.0-3.0-1.17"
	},
	{
		"rt": null,
		"stimulus": "<span style= \"font-size:30px; font-family: monospace\">+</span>",
		"response": null,
		"trial_part": "fixation",
		"trial_type": "html-keyboard-response",
		"trial_index": 40,
		"time_elapsed": 226766,
		"internal_node_id": "0.0-3.0-0.18-0.18"
	},
	{
		"rt": 3520,
		"stimulus": "<span style=\"font-size:30px; font-family: monospace\">A</span>",
		"response": " ",
		"trial": "exp-sent",
		"word": "A",
		"trial_type": "html-keyboard-response",
		"trial_index": 41,
		"time_elapsed": 230536,
		"internal_node_id": "0.0-3.0-1.18"
	},
	{
		"rt": 3253,
		"stimulus": "<span style=\"font-size:30px; font-family: monospace\">criança</span>",
		"response": " ",
		"trial": "exp-sent",
		"word": "criança",
		"trial_type": "html-keyboard-response",
		"trial_index": 42,
		"time_elapsed": 234040,
		"internal_node_id": "0.0-3.0-1.19"
	},
	{
		"rt": 2324,
		"stimulus": "<span style=\"font-size:30px; font-family: monospace\">ganhou</span>",
		"response": " ",
		"trial": "exp-sent",
		"word": "ganhou",
		"trial_type": "html-keyboard-response",
		"trial_index": 43,
		"time_elapsed": 236616,
		"internal_node_id": "0.0-3.0-1.20"
	},
	{
		"rt": 2596,
		"stimulus": "<span style=\"font-size:30px; font-family: monospace\">um</span>",
		"response": " ",
		"trial": "exp-sent",
		"word": "um",
		"trial_type": "html-keyboard-response",
		"trial_index": 44,
		"time_elapsed": 239464,
		"internal_node_id": "0.0-3.0-1.21"
	},
	{
		"rt": 2805,
		"stimulus": "<span style=\"font-size:30px; font-family: monospace\">presente</span>",
		"response": " ",
		"trial": "exp-sent",
		"word": "presente",
		"trial_type": "html-keyboard-response",
		"trial_index": 45,
		"time_elapsed": 242520,
		"internal_node_id": "0.0-3.0-1.22"
	},
	{
		"rt": 10917,
		"stimulus": "<span style=\"font-size:30px; font-family: monospace\">maravilhoso.</span>",
		"response": " ",
		"trial": "exp-sent",
		"word": "maravilhoso.",
		"trial_type": "html-keyboard-response",
		"trial_index": 46,
		"time_elapsed": 253688,
		"internal_node_id": "0.0-3.0-1.23"
	},
	{
		"rt": null,
		"stimulus": "<span style= \"font-size:30px; font-family: monospace\">+</span>",
		"response": null,
		"trial_part": "fixation",
		"trial_type": "html-keyboard-response",
		"trial_index": 47,
		"time_elapsed": 254941,
		"internal_node_id": "0.0-3.0-0.24-0.24"
	},
	{
		"rt": 4352,
		"stimulus": "<span style=\"font-size:30px; font-family: monospace\">Os</span>",
		"response": " ",
		"trial": "exp-sent",
		"word": "Os",
		"trial_type": "html-keyboard-response",
		"trial_index": 48,
		"time_elapsed": 259544,
		"internal_node_id": "0.0-3.0-1.24"
	},
	{
		"rt": 4277,
		"stimulus": "<span style=\"font-size:30px; font-family: monospace\">bichos</span>",
		"response": " ",
		"trial": "exp-sent",
		"word": "bichos",
		"trial_type": "html-keyboard-response",
		"trial_index": 49,
		"time_elapsed": 264072,
		"internal_node_id": "0.0-3.0-1.25"
	},
	{
		"rt": 5636,
		"stimulus": "<span style=\"font-size:30px; font-family: monospace\">têm</span>",
		"response": " ",
		"trial": "exp-sent",
		"word": "têm",
		"trial_type": "html-keyboard-response",
		"trial_index": 50,
		"time_elapsed": 269960,
		"internal_node_id": "0.0-3.0-1.26"
	},
	{
		"rt": 4212,
		"stimulus": "<span style=\"font-size:30px; font-family: monospace\">um</span>",
		"response": " ",
		"trial": "exp-sent",
		"word": "um",
		"trial_type": "html-keyboard-response",
		"trial_index": 51,
		"time_elapsed": 274425,
		"internal_node_id": "0.0-3.0-1.27"
	},
	{
		"rt": 6452,
		"stimulus": "<span style=\"font-size:30px; font-family: monospace\">instinto</span>",
		"response": " ",
		"trial": "exp-sent",
		"word": "instinto",
		"trial_type": "html-keyboard-response",
		"trial_index": 52,
		"time_elapsed": 281128,
		"internal_node_id": "0.0-3.0-1.28"
	},
	{
		"rt": 12165,
		"stimulus": "<span style=\"font-size:30px; font-family: monospace\">de</span>",
		"response": " ",
		"trial": "exp-sent",
		"word": "de",
		"trial_type": "html-keyboard-response",
		"trial_index": 53,
		"time_elapsed": 293545,
		"internal_node_id": "0.0-3.0-1.29"
	},
	{
		"rt": 12692,
		"stimulus": "<span style=\"font-size:30px; font-family: monospace\">sobrevivência</span>",
		"response": " ",
		"trial": "exp-sent",
		"word": "sobrevivência",
		"trial_type": "html-keyboard-response",
		"trial_index": 54,
		"time_elapsed": 306488,
		"internal_node_id": "0.0-3.0-1.30"
	},
	{
		"rt": 14789,
		"stimulus": "<span style=\"font-size:30px; font-family: monospace\">forte.</span>",
		"response": " ",
		"trial": "exp-sent",
		"word": "forte.",
		"trial_type": "html-keyboard-response",
		"trial_index": 55,
		"time_elapsed": 321528,
		"internal_node_id": "0.0-3.0-1.31"
	},
	{
		"rt": null,
		"stimulus": "<span style= \"font-size:30px; font-family: monospace\">+</span>",
		"response": null,
		"trial_part": "fixation",
		"trial_type": "html-keyboard-response",
		"trial_index": 56,
		"time_elapsed": 322780,
		"internal_node_id": "0.0-3.0-0.32-0.32"
	},
	{
		"rt": 7216,
		"stimulus": "<span style=\"font-size:30px; font-family: monospace\">Aquele</span>",
		"response": " ",
		"trial": "exp-sent",
		"word": "Aquele",
		"trial_type": "html-keyboard-response",
		"trial_index": 57,
		"time_elapsed": 330248,
		"internal_node_id": "0.0-3.0-1.32"
	},
	{
		"rt": 2581,
		"stimulus": "<span style=\"font-size:30px; font-family: monospace\">menino</span>",
		"response": " ",
		"trial": "exp-sent",
		"word": "menino",
		"trial_type": "html-keyboard-response",
		"trial_index": 58,
		"time_elapsed": 333080,
		"internal_node_id": "0.0-3.0-1.33"
	},
	{
		"rt": 3236,
		"stimulus": "<span style=\"font-size:30px; font-family: monospace\">alto</span>",
		"response": " ",
		"trial": "exp-sent",
		"word": "alto",
		"trial_type": "html-keyboard-response",
		"trial_index": 59,
		"time_elapsed": 336568,
		"internal_node_id": "0.0-3.0-1.34"
	},
	{
		"rt": 3188,
		"stimulus": "<span style=\"font-size:30px; font-family: monospace\">é</span>",
		"response": " ",
		"trial": "exp-sent",
		"word": "é",
		"trial_type": "html-keyboard-response",
		"trial_index": 60,
		"time_elapsed": 340008,
		"internal_node_id": "0.0-3.0-1.35"
	},
	{
		"rt": 4853,
		"stimulus": "<span style=\"font-size:30px; font-family: monospace\">exibido</span>",
		"response": " ",
		"trial": "exp-sent",
		"word": "exibido",
		"trial_type": "html-keyboard-response",
		"trial_index": 61,
		"time_elapsed": 345112,
		"internal_node_id": "0.0-3.0-1.36"
	},
	{
		"rt": 2085,
		"stimulus": "<span style=\"font-size:30px; font-family: monospace\">e</span>",
		"response": " ",
		"trial": "exp-sent",
		"word": "e",
		"trial_type": "html-keyboard-response",
		"trial_index": 62,
		"time_elapsed": 347448,
		"internal_node_id": "0.0-3.0-1.37"
	},
	{
		"rt": 13781,
		"stimulus": "<span style=\"font-size:30px; font-family: monospace\">sovina.</span>",
		"response": " ",
		"trial": "comp",
		"word": "sovina.",
		"trial_type": "html-keyboard-response",
		"trial_index": 63,
		"time_elapsed": 361480,
		"internal_node_id": "0.0-3.0-1.38"
	},
	{
		"rt": 7173,
		"stimulus": "<span style=\"font-size:30px; font-family: monospace\">Aquele menino é humilde?</span>",
		"response": "s",
		"question": "Aquele menino é humilde?",
		"answer": "não",
		"trial": "comp",
		"trial_type": "html-keyboard-response",
		"trial_index": 64,
		"time_elapsed": 368904,
		"internal_node_id": "0.0-3.0-2.38-0.38",
		"accuracy": false
	},
	{
		"rt": null,
		"stimulus": "<span style= \"font-size:30px; font-family: monospace\">+</span>",
		"response": null,
		"trial_part": "fixation",
		"trial_type": "html-keyboard-response",
		"trial_index": 65,
		"time_elapsed": 370406,
		"internal_node_id": "0.0-3.0-0.39-0.39"
	},
	{
		"rt": 19255,
		"stimulus": "<span style=\"font-size:30px; font-family: monospace\">O</span>",
		"response": " ",
		"trial": "exp-sent",
		"word": "O",
		"trial_type": "html-keyboard-response",
		"trial_index": 66,
		"time_elapsed": 389912,
		"internal_node_id": "0.0-3.0-1.39"
	},
	{
		"rt": 4948,
		"stimulus": "<span style=\"font-size:30px; font-family: monospace\">travesseiro</span>",
		"response": " ",
		"trial": "exp-sent",
		"word": "travesseiro",
		"trial_type": "html-keyboard-response",
		"trial_index": 67,
		"time_elapsed": 395112,
		"internal_node_id": "0.0-3.0-1.40"
	},
	{
		"rt": 2373,
		"stimulus": "<span style=\"font-size:30px; font-family: monospace\">era</span>",
		"response": " ",
		"trial": "exp-sent",
		"word": "era",
		"trial_type": "html-keyboard-response",
		"trial_index": 68,
		"time_elapsed": 397735,
		"internal_node_id": "0.0-3.0-1.41"
	},
	{
		"rt": 2789,
		"stimulus": "<span style=\"font-size:30px; font-family: monospace\">muito</span>",
		"response": " ",
		"trial": "exp-sent",
		"word": "muito",
		"trial_type": "html-keyboard-response",
		"trial_index": 69,
		"time_elapsed": 400776,
		"internal_node_id": "0.0-3.0-1.42"
	},
	{
		"rt": 4948,
		"stimulus": "<span style=\"font-size:30px; font-family: monospace\">macio</span>",
		"response": " ",
		"trial": "exp-sent",
		"word": "macio",
		"trial_type": "html-keyboard-response",
		"trial_index": 70,
		"time_elapsed": 405976,
		"internal_node_id": "0.0-3.0-1.43"
	},
	{
		"rt": 1589,
		"stimulus": "<span style=\"font-size:30px; font-family: monospace\">e</span>",
		"response": " ",
		"trial": "exp-sent",
		"word": "e",
		"trial_type": "html-keyboard-response",
		"trial_index": 71,
		"time_elapsed": 407816,
		"internal_node_id": "0.0-3.0-1.44"
	},
	{
		"rt": 15589,
		"stimulus": "<span style=\"font-size:30px; font-family: monospace\">confortável.</span>",
		"response": " ",
		"trial": "exp-sent",
		"word": "confortável.",
		"trial_type": "html-keyboard-response",
		"trial_index": 72,
		"time_elapsed": 423655,
		"internal_node_id": "0.0-3.0-1.45"
	},
	{
		"rt": null,
		"stimulus": "<span style= \"font-size:30px; font-family: monospace\">+</span>",
		"response": null,
		"trial_part": "fixation",
		"trial_type": "html-keyboard-response",
		"trial_index": 73,
		"time_elapsed": 424908,
		"internal_node_id": "0.0-3.0-0.46-0.46"
	},
	{
		"rt": 4897,
		"stimulus": "<span style=\"font-size:30px; font-family: monospace\">Hoje</span>",
		"response": " ",
		"trial": "exp-sent",
		"word": "Hoje",
		"trial_type": "html-keyboard-response",
		"trial_index": 74,
		"time_elapsed": 430056,
		"internal_node_id": "0.0-3.0-1.46"
	},
	{
		"rt": 2581,
		"stimulus": "<span style=\"font-size:30px; font-family: monospace\">a</span>",
		"response": " ",
		"trial": "exp-sent",
		"word": "a",
		"trial_type": "html-keyboard-response",
		"trial_index": 75,
		"time_elapsed": 432888,
		"internal_node_id": "0.0-3.0-1.47"
	},
	{
		"rt": 11605,
		"stimulus": "<span style=\"font-size:30px; font-family: monospace\">atendente</span>",
		"response": " ",
		"trial": "exp-sent",
		"word": "atendente",
		"trial_type": "html-keyboard-response",
		"trial_index": 76,
		"time_elapsed": 444744,
		"internal_node_id": "0.0-3.0-1.48"
	},
	{
		"rt": 5829,
		"stimulus": "<span style=\"font-size:30px; font-family: monospace\">estava</span>",
		"response": " ",
		"trial": "exp-sent",
		"word": "estava",
		"trial_type": "html-keyboard-response",
		"trial_index": 77,
		"time_elapsed": 450824,
		"internal_node_id": "0.0-3.0-1.49"
	},
	{
		"rt": 4404,
		"stimulus": "<span style=\"font-size:30px; font-family: monospace\">furiosa</span>",
		"response": " ",
		"trial": "exp-sent",
		"word": "furiosa",
		"trial_type": "html-keyboard-response",
		"trial_index": 78,
		"time_elapsed": 455479,
		"internal_node_id": "0.0-3.0-1.50"
	},
	{
		"rt": 3413,
		"stimulus": "<span style=\"font-size:30px; font-family: monospace\">com</span>",
		"response": " ",
		"trial": "exp-sent",
		"word": "com",
		"trial_type": "html-keyboard-response",
		"trial_index": 79,
		"time_elapsed": 459143,
		"internal_node_id": "0.0-3.0-1.51"
	},
	{
		"rt": 1125,
		"stimulus": "<span style=\"font-size:30px; font-family: monospace\">o</span>",
		"response": " ",
		"trial": "exp-sent",
		"word": "o",
		"trial_type": "html-keyboard-response",
		"trial_index": 80,
		"time_elapsed": 460519,
		"internal_node_id": "0.0-3.0-1.52"
	},
	{
		"rt": 13653,
		"stimulus": "<span style=\"font-size:30px; font-family: monospace\">cliente.</span>",
		"response": " ",
		"trial": "exp-sent",
		"word": "cliente.",
		"trial_type": "html-keyboard-response",
		"trial_index": 81,
		"time_elapsed": 474424,
		"internal_node_id": "0.0-3.0-1.53"
	},
	{
		"rt": null,
		"stimulus": "<span style= \"font-size:30px; font-family: monospace\">+</span>",
		"response": null,
		"trial_part": "fixation",
		"trial_type": "html-keyboard-response",
		"trial_index": 82,
		"time_elapsed": 475675,
		"internal_node_id": "0.0-3.0-0.54-0.54"
	},
	{
		"rt": 5330,
		"stimulus": "<span style=\"font-size:30px; font-family: monospace\">O</span>",
		"response": " ",
		"trial": "exp-sent",
		"word": "O",
		"trial_type": "html-keyboard-response",
		"trial_index": 83,
		"time_elapsed": 481256,
		"internal_node_id": "0.0-3.0-1.54"
	},
	{
		"rt": 4469,
		"stimulus": "<span style=\"font-size:30px; font-family: monospace\">vizinho</span>",
		"response": " ",
		"trial": "exp-sent",
		"word": "vizinho",
		"trial_type": "html-keyboard-response",
		"trial_index": 84,
		"time_elapsed": 485975,
		"internal_node_id": "0.0-3.0-1.55"
	},
	{
		"rt": 3861,
		"stimulus": "<span style=\"font-size:30px; font-family: monospace\">é</span>",
		"response": " ",
		"trial": "exp-sent",
		"word": "é",
		"trial_type": "html-keyboard-response",
		"trial_index": 85,
		"time_elapsed": 490087,
		"internal_node_id": "0.0-3.0-1.56"
	},
	{
		"rt": 2438,
		"stimulus": "<span style=\"font-size:30px; font-family: monospace\">um</span>",
		"response": " ",
		"trial": "exp-sent",
		"word": "um",
		"trial_type": "html-keyboard-response",
		"trial_index": 86,
		"time_elapsed": 492776,
		"internal_node_id": "0.0-3.0-1.57"
	},
	{
		"rt": 3829,
		"stimulus": "<span style=\"font-size:30px; font-family: monospace\">arquiteto</span>",
		"response": " ",
		"trial": "exp-sent",
		"word": "arquiteto",
		"trial_type": "html-keyboard-response",
		"trial_index": 87,
		"time_elapsed": 496855,
		"internal_node_id": "0.0-3.0-1.58"
	},
	{
		"rt": 1429,
		"stimulus": "<span style=\"font-size:30px; font-family: monospace\">muito</span>",
		"response": " ",
		"trial": "exp-sent",
		"word": "muito",
		"trial_type": "html-keyboard-response",
		"trial_index": 88,
		"time_elapsed": 498535,
		"internal_node_id": "0.0-3.0-1.59"
	},
	{
		"rt": 18357,
		"stimulus": "<span style=\"font-size:30px; font-family: monospace\">excêntrico.</span>",
		"response": " ",
		"trial": "exp-sent",
		"word": "excêntrico.",
		"trial_type": "html-keyboard-response",
		"trial_index": 89,
		"time_elapsed": 517143,
		"internal_node_id": "0.0-3.0-1.60"
	},
	{
		"rt": null,
		"stimulus": "<span style= \"font-size:30px; font-family: monospace\">+</span>",
		"response": null,
		"trial_part": "fixation",
		"trial_type": "html-keyboard-response",
		"trial_index": 90,
		"time_elapsed": 518396,
		"internal_node_id": "0.0-3.0-0.61-0.61"
	},
	{
		"rt": 4321,
		"stimulus": "<span style=\"font-size:30px; font-family: monospace\">A</span>",
		"response": " ",
		"trial": "exp-sent",
		"word": "A",
		"trial_type": "html-keyboard-response",
		"trial_index": 91,
		"time_elapsed": 522967,
		"internal_node_id": "0.0-3.0-1.61"
	},
	{
		"rt": 2821,
		"stimulus": "<span style=\"font-size:30px; font-family: monospace\">nossa</span>",
		"response": " ",
		"trial": "exp-sent",
		"word": "nossa",
		"trial_type": "html-keyboard-response",
		"trial_index": 92,
		"time_elapsed": 526039,
		"internal_node_id": "0.0-3.0-1.62"
	},
	{
		"rt": 13971,
		"stimulus": "<span style=\"font-size:30px; font-family: monospace\">colega</span>",
		"response": " ",
		"trial": "exp-sent",
		"word": "colega",
		"trial_type": "html-keyboard-response",
		"trial_index": 93,
		"time_elapsed": 540263,
		"internal_node_id": "0.0-3.0-1.63"
	},
	{
		"rt": 4757,
		"stimulus": "<span style=\"font-size:30px; font-family: monospace\">foi</span>",
		"response": " ",
		"trial": "exp-sent",
		"word": "foi",
		"trial_type": "html-keyboard-response",
		"trial_index": 94,
		"time_elapsed": 545271,
		"internal_node_id": "0.0-3.0-1.64"
	},
	{
		"rt": 10372,
		"stimulus": "<span style=\"font-size:30px; font-family: monospace\">má</span>",
		"response": " ",
		"trial": "exp-sent",
		"word": "má",
		"trial_type": "html-keyboard-response",
		"trial_index": 95,
		"time_elapsed": 555895,
		"internal_node_id": "0.0-3.0-1.65"
	},
	{
		"rt": 4260,
		"stimulus": "<span style=\"font-size:30px; font-family: monospace\">com</span>",
		"response": " ",
		"trial": "exp-sent",
		"word": "com",
		"trial_type": "html-keyboard-response",
		"trial_index": 96,
		"time_elapsed": 560407,
		"internal_node_id": "0.0-3.0-1.66"
	},
	{
		"rt": 5990,
		"stimulus": "<span style=\"font-size:30px; font-family: monospace\">as</span>",
		"response": " ",
		"trial": "exp-sent",
		"word": "as",
		"trial_type": "html-keyboard-response",
		"trial_index": 97,
		"time_elapsed": 566647,
		"internal_node_id": "0.0-3.0-1.67"
	},
	{
		"rt": 13461,
		"stimulus": "<span style=\"font-size:30px; font-family: monospace\">crianças.</span>",
		"response": " ",
		"trial": "exp-sent",
		"word": "crianças.",
		"trial_type": "html-keyboard-response",
		"trial_index": 98,
		"time_elapsed": 580359,
		"internal_node_id": "0.0-3.0-1.68"
	},
	{
		"rt": null,
		"stimulus": "<span style= \"font-size:30px; font-family: monospace\">+</span>",
		"response": null,
		"trial_part": "fixation",
		"trial_type": "html-keyboard-response",
		"trial_index": 99,
		"time_elapsed": 581610,
		"internal_node_id": "0.0-3.0-0.69-0.69"
	},
	{
		"rt": 7234,
		"stimulus": "<span style=\"font-size:30px; font-family: monospace\">Virtudes</span>",
		"response": " ",
		"trial": "exp-sent",
		"word": "Virtudes",
		"trial_type": "html-keyboard-response",
		"trial_index": 100,
		"time_elapsed": 589095,
		"internal_node_id": "0.0-3.0-1.69"
	},
	{
		"rt": 3206,
		"stimulus": "<span style=\"font-size:30px; font-family: monospace\">não</span>",
		"response": " ",
		"trial": "exp-sent",
		"word": "não",
		"trial_type": "html-keyboard-response",
		"trial_index": 101,
		"time_elapsed": 592551,
		"internal_node_id": "0.0-3.0-1.70"
	},
	{
		"rt": 3364,
		"stimulus": "<span style=\"font-size:30px; font-family: monospace\">são</span>",
		"response": " ",
		"trial": "exp-sent",
		"word": "são",
		"trial_type": "html-keyboard-response",
		"trial_index": 102,
		"time_elapsed": 596167,
		"internal_node_id": "0.0-3.0-1.71"
	},
	{
		"rt": 14662,
		"stimulus": "<span style=\"font-size:30px; font-family: monospace\">preguiça,</span>",
		"response": " ",
		"trial": "exp-sent",
		"word": "preguiça,",
		"trial_type": "html-keyboard-response",
		"trial_index": 103,
		"time_elapsed": 611079,
		"internal_node_id": "0.0-3.0-1.72"
	},
	{
		"rt": 3684,
		"stimulus": "<span style=\"font-size:30px; font-family: monospace\">gula</span>",
		"response": " ",
		"trial": "exp-sent",
		"word": "gula",
		"trial_type": "html-keyboard-response",
		"trial_index": 104,
		"time_elapsed": 615015,
		"internal_node_id": "0.0-3.0-1.73"
	},
	{
		"rt": 3461,
		"stimulus": "<span style=\"font-size:30px; font-family: monospace\">nem</span>",
		"response": " ",
		"trial": "exp-sent",
		"word": "nem",
		"trial_type": "html-keyboard-response",
		"trial_index": 105,
		"time_elapsed": 618727,
		"internal_node_id": "0.0-3.0-1.74"
	},
	{
		"rt": 15509,
		"stimulus": "<span style=\"font-size:30px; font-family: monospace\">ganância.</span>",
		"response": " ",
		"trial": "comp",
		"word": "ganância.",
		"trial_type": "html-keyboard-response",
		"trial_index": 106,
		"time_elapsed": 634487,
		"internal_node_id": "0.0-3.0-1.75"
	},
	{
		"rt": 32389,
		"stimulus": "<span style=\"font-size:30px; font-family: monospace\">Preguiça é uma virtude?</span>",
		"response": "n",
		"question": "Preguiça é uma virtude?",
		"answer": "não",
		"trial": "comp",
		"trial_type": "html-keyboard-response",
		"trial_index": 107,
		"time_elapsed": 667127,
		"internal_node_id": "0.0-3.0-2.75-0.75",
		"accuracy": false
	},
	{
		"rt": null,
		"stimulus": "<span style= \"font-size:30px; font-family: monospace\">+</span>",
		"response": null,
		"trial_part": "fixation",
		"trial_type": "html-keyboard-response",
		"trial_index": 108,
		"time_elapsed": 668629,
		"internal_node_id": "0.0-3.0-0.76-0.76"
	},
	{
		"rt": 4469,
		"stimulus": "<span style=\"font-size:30px; font-family: monospace\">A</span>",
		"response": " ",
		"trial": "exp-sent",
		"word": "A",
		"trial_type": "html-keyboard-response",
		"trial_index": 109,
		"time_elapsed": 673350,
		"internal_node_id": "0.0-3.0-1.76"
	},
	{
		"rt": 4629,
		"stimulus": "<span style=\"font-size:30px; font-family: monospace\">motorista</span>",
		"response": " ",
		"trial": "exp-sent",
		"word": "motorista",
		"trial_type": "html-keyboard-response",
		"trial_index": 110,
		"time_elapsed": 678231,
		"internal_node_id": "0.0-3.0-1.77"
	},
	{
		"rt": 2132,
		"stimulus": "<span style=\"font-size:30px; font-family: monospace\">fez</span>",
		"response": " ",
		"trial": "exp-sent",
		"word": "fez",
		"trial_type": "html-keyboard-response",
		"trial_index": 111,
		"time_elapsed": 680614,
		"internal_node_id": "0.0-3.0-1.78"
	},
	{
		"rt": 1302,
		"stimulus": "<span style=\"font-size:30px; font-family: monospace\">o</span>",
		"response": " ",
		"trial": "exp-sent",
		"word": "o",
		"trial_type": "html-keyboard-response",
		"trial_index": 112,
		"time_elapsed": 682166,
		"internal_node_id": "0.0-3.0-1.79"
	},
	{
		"rt": 3124,
		"stimulus": "<span style=\"font-size:30px; font-family: monospace\">retorno</span>",
		"response": " ",
		"trial": "exp-sent",
		"word": "retorno",
		"trial_type": "html-keyboard-response",
		"trial_index": 113,
		"time_elapsed": 685543,
		"internal_node_id": "0.0-3.0-1.80"
	},
	{
		"rt": 2133,
		"stimulus": "<span style=\"font-size:30px; font-family: monospace\">com</span>",
		"response": " ",
		"trial": "exp-sent",
		"word": "com",
		"trial_type": "html-keyboard-response",
		"trial_index": 114,
		"time_elapsed": 687927,
		"internal_node_id": "0.0-3.0-1.81"
	},
	{
		"rt": 11893,
		"stimulus": "<span style=\"font-size:30px; font-family: monospace\">cuidado.</span>",
		"response": " ",
		"trial": "exp-sent",
		"word": "cuidado.",
		"trial_type": "html-keyboard-response",
		"trial_index": 115,
		"time_elapsed": 700070,
		"internal_node_id": "0.0-3.0-1.82"
	},
	{
		"rt": null,
		"stimulus": "<span style= \"font-size:30px; font-family: monospace\">+</span>",
		"response": null,
		"trial_part": "fixation",
		"trial_type": "html-keyboard-response",
		"trial_index": 116,
		"time_elapsed": 701322,
		"internal_node_id": "0.0-3.0-0.83-0.83"
	},
	{
		"rt": 3186,
		"stimulus": "<span style=\"font-size:30px; font-family: monospace\">Contos</span>",
		"response": " ",
		"trial": "exp-sent",
		"word": "Contos",
		"trial_type": "html-keyboard-response",
		"trial_index": 117,
		"time_elapsed": 704759,
		"internal_node_id": "0.0-3.0-1.83"
	},
	{
		"rt": 3717,
		"stimulus": "<span style=\"font-size:30px; font-family: monospace\">de</span>",
		"response": " ",
		"trial": "exp-sent",
		"word": "de",
		"trial_type": "html-keyboard-response",
		"trial_index": 118,
		"time_elapsed": 708726,
		"internal_node_id": "0.0-3.0-1.84"
	},
	{
		"rt": 4005,
		"stimulus": "<span style=\"font-size:30px; font-family: monospace\">ação</span>",
		"response": " ",
		"trial": "exp-sent",
		"word": "ação",
		"trial_type": "html-keyboard-response",
		"trial_index": 119,
		"time_elapsed": 712982,
		"internal_node_id": "0.0-3.0-1.85"
	},
	{
		"rt": 3925,
		"stimulus": "<span style=\"font-size:30px; font-family: monospace\">têm</span>",
		"response": " ",
		"trial": "exp-sent",
		"word": "têm",
		"trial_type": "html-keyboard-response",
		"trial_index": 120,
		"time_elapsed": 717158,
		"internal_node_id": "0.0-3.0-1.86"
	},
	{
		"rt": 6693,
		"stimulus": "<span style=\"font-size:30px; font-family: monospace\">chantagem</span>",
		"response": " ",
		"trial": "exp-sent",
		"word": "chantagem",
		"trial_type": "html-keyboard-response",
		"trial_index": 121,
		"time_elapsed": 724102,
		"internal_node_id": "0.0-3.0-1.87"
	},
	{
		"rt": 2423,
		"stimulus": "<span style=\"font-size:30px; font-family: monospace\">e</span>",
		"response": " ",
		"trial": "exp-sent",
		"word": "e",
		"trial_type": "html-keyboard-response",
		"trial_index": 122,
		"time_elapsed": 726790,
		"internal_node_id": "0.0-3.0-1.88"
	},
	{
		"rt": 3765,
		"stimulus": "<span style=\"font-size:30px; font-family: monospace\">muita</span>",
		"response": " ",
		"trial": "exp-sent",
		"word": "muita",
		"trial_type": "html-keyboard-response",
		"trial_index": 123,
		"time_elapsed": 730807,
		"internal_node_id": "0.0-3.0-1.89"
	},
	{
		"rt": 25077,
		"stimulus": "<span style=\"font-size:30px; font-family: monospace\">luta.</span>",
		"response": " ",
		"trial": "exp-sent",
		"word": "luta.",
		"trial_type": "html-keyboard-response",
		"trial_index": 124,
		"time_elapsed": 756134,
		"internal_node_id": "0.0-3.0-1.90"
	},
	{
		"rt": null,
		"stimulus": "<span style= \"font-size:30px; font-family: monospace\">+</span>",
		"response": null,
		"trial_part": "fixation",
		"trial_type": "html-keyboard-response",
		"trial_index": 125,
		"time_elapsed": 757386,
		"internal_node_id": "0.0-3.0-0.91-0.91"
	},
	{
		"rt": 3138,
		"stimulus": "<span style=\"font-size:30px; font-family: monospace\">A</span>",
		"response": " ",
		"trial": "exp-sent",
		"word": "A",
		"trial_type": "html-keyboard-response",
		"trial_index": 126,
		"time_elapsed": 760774,
		"internal_node_id": "0.0-3.0-1.91"
	},
	{
		"rt": 11253,
		"stimulus": "<span style=\"font-size:30px; font-family: monospace\">bisavó</span>",
		"response": " ",
		"trial": "exp-sent",
		"word": "bisavó",
		"trial_type": "html-keyboard-response",
		"trial_index": 127,
		"time_elapsed": 772278,
		"internal_node_id": "0.0-3.0-1.92"
	},
	{
		"rt": 3749,
		"stimulus": "<span style=\"font-size:30px; font-family: monospace\">recebeu</span>",
		"response": " ",
		"trial": "exp-sent",
		"word": "recebeu",
		"trial_type": "html-keyboard-response",
		"trial_index": 128,
		"time_elapsed": 776278,
		"internal_node_id": "0.0-3.0-1.93"
	},
	{
		"rt": 10102,
		"stimulus": "<span style=\"font-size:30px; font-family: monospace\">um</span>",
		"response": " ",
		"trial": "exp-sent",
		"word": "um",
		"trial_type": "html-keyboard-response",
		"trial_index": 129,
		"time_elapsed": 786630,
		"internal_node_id": "0.0-3.0-1.94"
	},
	{
		"rt": 12405,
		"stimulus": "<span style=\"font-size:30px; font-family: monospace\">benefício</span>",
		"response": " ",
		"trial": "exp-sent",
		"word": "benefício",
		"trial_type": "html-keyboard-response",
		"trial_index": 130,
		"time_elapsed": 799286,
		"internal_node_id": "0.0-3.0-1.95"
	},
	{
		"rt": 10597,
		"stimulus": "<span style=\"font-size:30px; font-family: monospace\">temporário</span>",
		"response": " ",
		"trial": "exp-sent",
		"word": "temporário",
		"trial_type": "html-keyboard-response",
		"trial_index": 131,
		"time_elapsed": 810134,
		"internal_node_id": "0.0-3.0-1.96"
	},
	{
		"rt": 2244,
		"stimulus": "<span style=\"font-size:30px; font-family: monospace\">do</span>",
		"response": " ",
		"trial": "exp-sent",
		"word": "do",
		"trial_type": "html-keyboard-response",
		"trial_index": 132,
		"time_elapsed": 812630,
		"internal_node_id": "0.0-3.0-1.97"
	},
	{
		"rt": 12501,
		"stimulus": "<span style=\"font-size:30px; font-family: monospace\">governo.</span>",
		"response": " ",
		"trial": "exp-sent",
		"word": "governo.",
		"trial_type": "html-keyboard-response",
		"trial_index": 133,
		"time_elapsed": 825382,
		"internal_node_id": "0.0-3.0-1.98"
	},
	{
		"rt": null,
		"stimulus": "<span style= \"font-size:30px; font-family: monospace\">+</span>",
		"response": null,
		"trial_part": "fixation",
		"trial_type": "html-keyboard-response",
		"trial_index": 134,
		"time_elapsed": 826634,
		"internal_node_id": "0.0-3.0-0.99-0.99"
	},
	{
		"rt": 5217,
		"stimulus": "<span style=\"font-size:30px; font-family: monospace\">As</span>",
		"response": " ",
		"trial": "exp-sent",
		"word": "As",
		"trial_type": "html-keyboard-response",
		"trial_index": 135,
		"time_elapsed": 832102,
		"internal_node_id": "0.0-3.0-1.99"
	},
	{
		"rt": 2373,
		"stimulus": "<span style=\"font-size:30px; font-family: monospace\">crianças</span>",
		"response": " ",
		"trial": "exp-sent",
		"word": "crianças",
		"trial_type": "html-keyboard-response",
		"trial_index": 136,
		"time_elapsed": 834726,
		"internal_node_id": "0.0-3.0-1.100"
	},
	{
		"rt": 3860,
		"stimulus": "<span style=\"font-size:30px; font-family: monospace\">brincaram</span>",
		"response": " ",
		"trial": "exp-sent",
		"word": "brincaram",
		"trial_type": "html-keyboard-response",
		"trial_index": 137,
		"time_elapsed": 838838,
		"internal_node_id": "0.0-3.0-1.101"
	},
	{
		"rt": 2165,
		"stimulus": "<span style=\"font-size:30px; font-family: monospace\">no</span>",
		"response": " ",
		"trial": "exp-sent",
		"word": "no",
		"trial_type": "html-keyboard-response",
		"trial_index": 138,
		"time_elapsed": 841254,
		"internal_node_id": "0.0-3.0-1.102"
	},
	{
		"rt": 2661,
		"stimulus": "<span style=\"font-size:30px; font-family: monospace\">balanço</span>",
		"response": " ",
		"trial": "exp-sent",
		"word": "balanço",
		"trial_type": "html-keyboard-response",
		"trial_index": 139,
		"time_elapsed": 844166,
		"internal_node_id": "0.0-3.0-1.103"
	},
	{
		"rt": 2390,
		"stimulus": "<span style=\"font-size:30px; font-family: monospace\">a</span>",
		"response": " ",
		"trial": "exp-sent",
		"word": "a",
		"trial_type": "html-keyboard-response",
		"trial_index": 140,
		"time_elapsed": 846806,
		"internal_node_id": "0.0-3.0-1.104"
	},
	{
		"rt": 1941,
		"stimulus": "<span style=\"font-size:30px; font-family: monospace\">tarde</span>",
		"response": " ",
		"trial": "exp-sent",
		"word": "tarde",
		"trial_type": "html-keyboard-response",
		"trial_index": 141,
		"time_elapsed": 848998,
		"internal_node_id": "0.0-3.0-1.105"
	},
	{
		"rt": 9093,
		"stimulus": "<span style=\"font-size:30px; font-family: monospace\">toda.</span>",
		"response": " ",
		"trial": "exp-sent",
		"word": "toda.",
		"trial_type": "html-keyboard-response",
		"trial_index": 142,
		"time_elapsed": 858342,
		"internal_node_id": "0.0-3.0-1.106"
	},
	{
		"rt": null,
		"stimulus": "<span style= \"font-size:30px; font-family: monospace\">+</span>",
		"response": null,
		"trial_part": "fixation",
		"trial_type": "html-keyboard-response",
		"trial_index": 143,
		"time_elapsed": 859594,
		"internal_node_id": "0.0-3.0-0.107-0.107"
	},
	{
		"rt": 6033,
		"stimulus": "<span style=\"font-size:30px; font-family: monospace\">Ela</span>",
		"response": " ",
		"trial": "exp-sent",
		"word": "Ela",
		"trial_type": "html-keyboard-response",
		"trial_index": 144,
		"time_elapsed": 865878,
		"internal_node_id": "0.0-3.0-1.107"
	},
	{
		"rt": 3972,
		"stimulus": "<span style=\"font-size:30px; font-family: monospace\">gosta</span>",
		"response": " ",
		"trial": "exp-sent",
		"word": "gosta",
		"trial_type": "html-keyboard-response",
		"trial_index": 145,
		"time_elapsed": 870102,
		"internal_node_id": "0.0-3.0-1.108"
	},
	{
		"rt": 2245,
		"stimulus": "<span style=\"font-size:30px; font-family: monospace\">de</span>",
		"response": " ",
		"trial": "exp-sent",
		"word": "de",
		"trial_type": "html-keyboard-response",
		"trial_index": 146,
		"time_elapsed": 872598,
		"internal_node_id": "0.0-3.0-1.109"
	},
	{
		"rt": 1941,
		"stimulus": "<span style=\"font-size:30px; font-family: monospace\">comida</span>",
		"response": " ",
		"trial": "exp-sent",
		"word": "comida",
		"trial_type": "html-keyboard-response",
		"trial_index": 147,
		"time_elapsed": 874790,
		"internal_node_id": "0.0-3.0-1.110"
	},
	{
		"rt": 2165,
		"stimulus": "<span style=\"font-size:30px; font-family: monospace\">natural</span>",
		"response": " ",
		"trial": "exp-sent",
		"word": "natural",
		"trial_type": "html-keyboard-response",
		"trial_index": 148,
		"time_elapsed": 877206,
		"internal_node_id": "0.0-3.0-1.111"
	},
	{
		"rt": 2693,
		"stimulus": "<span style=\"font-size:30px; font-family: monospace\">no</span>",
		"response": " ",
		"trial": "exp-sent",
		"word": "no",
		"trial_type": "html-keyboard-response",
		"trial_index": 149,
		"time_elapsed": 880150,
		"internal_node_id": "0.0-3.0-1.112"
	},
	{
		"rt": 24245,
		"stimulus": "<span style=\"font-size:30px; font-family: monospace\">almoço.</span>",
		"response": " ",
		"trial": "comp",
		"word": "almoço.",
		"trial_type": "html-keyboard-response",
		"trial_index": 150,
		"time_elapsed": 904646,
		"internal_node_id": "0.0-3.0-1.113"
	},
	{
		"rt": 14261,
		"stimulus": "<span style=\"font-size:30px; font-family: monospace\">Ela gosta de comida natural no almoço?</span>",
		"response": "s",
		"question": "Ela gosta de comida natural no almoço?",
		"answer": "sim",
		"trial": "comp",
		"trial_type": "html-keyboard-response",
		"trial_index": 151,
		"time_elapsed": 919158,
		"internal_node_id": "0.0-3.0-2.113-0.113",
		"accuracy": false
	},
	{
		"rt": null,
		"stimulus": "<span style= \"font-size:30px; font-family: monospace\">+</span>",
		"response": null,
		"trial_part": "fixation",
		"trial_type": "html-keyboard-response",
		"trial_index": 152,
		"time_elapsed": 920659,
		"internal_node_id": "0.0-3.0-0.114-0.114"
	},
	{
		"rt": 5911,
		"stimulus": "<span style=\"font-size:30px; font-family: monospace\">Barulho</span>",
		"response": " ",
		"trial": "exp-sent",
		"word": "Barulho",
		"trial_type": "html-keyboard-response",
		"trial_index": 153,
		"time_elapsed": 926821,
		"internal_node_id": "0.0-3.0-1.114"
	},
	{
		"rt": 5142,
		"stimulus": "<span style=\"font-size:30px; font-family: monospace\">de</span>",
		"response": " ",
		"trial": "exp-sent",
		"word": "de",
		"trial_type": "html-keyboard-response",
		"trial_index": 154,
		"time_elapsed": 932214,
		"internal_node_id": "0.0-3.0-1.115"
	},
	{
		"rt": 3973,
		"stimulus": "<span style=\"font-size:30px; font-family: monospace\">carros</span>",
		"response": " ",
		"trial": "exp-sent",
		"word": "carros",
		"trial_type": "html-keyboard-response",
		"trial_index": 155,
		"time_elapsed": 936437,
		"internal_node_id": "0.0-3.0-1.116"
	},
	{
		"rt": 2821,
		"stimulus": "<span style=\"font-size:30px; font-family: monospace\">é</span>",
		"response": " ",
		"trial": "exp-sent",
		"word": "é",
		"trial_type": "html-keyboard-response",
		"trial_index": 156,
		"time_elapsed": 939509,
		"internal_node_id": "0.0-3.0-1.117"
	},
	{
		"rt": 2838,
		"stimulus": "<span style=\"font-size:30px; font-family: monospace\">irritante</span>",
		"response": " ",
		"trial": "exp-sent",
		"word": "irritante",
		"trial_type": "html-keyboard-response",
		"trial_index": 157,
		"time_elapsed": 942598,
		"internal_node_id": "0.0-3.0-1.118"
	},
	{
		"rt": 3445,
		"stimulus": "<span style=\"font-size:30px; font-family: monospace\">para</span>",
		"response": " ",
		"trial": "exp-sent",
		"word": "para",
		"trial_type": "html-keyboard-response",
		"trial_index": 158,
		"time_elapsed": 946293,
		"internal_node_id": "0.0-3.0-1.119"
	},
	{
		"rt": 2036,
		"stimulus": "<span style=\"font-size:30px; font-family: monospace\">a</span>",
		"response": " ",
		"trial": "exp-sent",
		"word": "a",
		"trial_type": "html-keyboard-response",
		"trial_index": 159,
		"time_elapsed": 948581,
		"internal_node_id": "0.0-3.0-1.120"
	},
	{
		"rt": 16389,
		"stimulus": "<span style=\"font-size:30px; font-family: monospace\">moça.</span>",
		"response": " ",
		"trial": "exp-sent",
		"word": "moça.",
		"trial_type": "html-keyboard-response",
		"trial_index": 160,
		"time_elapsed": 965221,
		"internal_node_id": "0.0-3.0-1.121"
	},
	{
		"rt": null,
		"stimulus": "<span style= \"font-size:30px; font-family: monospace\">+</span>",
		"response": null,
		"trial_part": "fixation",
		"trial_type": "html-keyboard-response",
		"trial_index": 161,
		"time_elapsed": 966474,
		"internal_node_id": "0.0-3.0-0.122-0.122"
	},
	{
		"rt": 5329,
		"stimulus": "<span style=\"font-size:30px; font-family: monospace\">A</span>",
		"response": " ",
		"trial": "exp-sent",
		"word": "A",
		"trial_type": "html-keyboard-response",
		"trial_index": 162,
		"time_elapsed": 972053,
		"internal_node_id": "0.0-3.0-1.122"
	},
	{
		"rt": 6436,
		"stimulus": "<span style=\"font-size:30px; font-family: monospace\">loja</span>",
		"response": " ",
		"trial": "exp-sent",
		"word": "loja",
		"trial_type": "html-keyboard-response",
		"trial_index": 163,
		"time_elapsed": 978741,
		"internal_node_id": "0.0-3.0-1.123"
	},
	{
		"rt": 6981,
		"stimulus": "<span style=\"font-size:30px; font-family: monospace\">também</span>",
		"response": " ",
		"trial": "exp-sent",
		"word": "também",
		"trial_type": "html-keyboard-response",
		"trial_index": 164,
		"time_elapsed": 985973,
		"internal_node_id": "0.0-3.0-1.124"
	},
	{
		"rt": 15637,
		"stimulus": "<span style=\"font-size:30px; font-family: monospace\">vende</span>",
		"response": " ",
		"trial": "exp-sent",
		"word": "vende",
		"trial_type": "html-keyboard-response",
		"trial_index": 165,
		"time_elapsed": 1001861,
		"internal_node_id": "0.0-3.0-1.125"
	},
	{
		"rt": 5031,
		"stimulus": "<span style=\"font-size:30px; font-family: monospace\">taça</span>",
		"response": " ",
		"trial": "exp-sent",
		"word": "taça",
		"trial_type": "html-keyboard-response",
		"trial_index": 166,
		"time_elapsed": 1007157,
		"internal_node_id": "0.0-3.0-1.126"
	},
	{
		"rt": 1605,
		"stimulus": "<span style=\"font-size:30px; font-family: monospace\">de</span>",
		"response": " ",
		"trial": "exp-sent",
		"word": "de",
		"trial_type": "html-keyboard-response",
		"trial_index": 167,
		"time_elapsed": 1009013,
		"internal_node_id": "0.0-3.0-1.127"
	},
	{
		"rt": 2902,
		"stimulus": "<span style=\"font-size:30px; font-family: monospace\">vinho</span>",
		"response": " ",
		"trial": "exp-sent",
		"word": "vinho",
		"trial_type": "html-keyboard-response",
		"trial_index": 168,
		"time_elapsed": 1012165,
		"internal_node_id": "0.0-3.0-1.128"
	},
	{
		"rt": 1205,
		"stimulus": "<span style=\"font-size:30px; font-family: monospace\">e</span>",
		"response": " ",
		"trial": "exp-sent",
		"word": "e",
		"trial_type": "html-keyboard-response",
		"trial_index": 169,
		"time_elapsed": 1013621,
		"internal_node_id": "0.0-3.0-1.129"
	},
	{
		"rt": 16709,
		"stimulus": "<span style=\"font-size:30px; font-family: monospace\">espumante.</span>",
		"response": " ",
		"trial": "exp-sent",
		"word": "espumante.",
		"trial_type": "html-keyboard-response",
		"trial_index": 170,
		"time_elapsed": 1030581,
		"internal_node_id": "0.0-3.0-1.130"
	},
	{
		"rt": null,
		"stimulus": "<span style= \"font-size:30px; font-family: monospace\">+</span>",
		"response": null,
		"trial_part": "fixation",
		"trial_type": "html-keyboard-response",
		"trial_index": 171,
		"time_elapsed": 1031833,
		"internal_node_id": "0.0-3.0-0.131-0.131"
	},
	{
		"rt": 3041,
		"stimulus": "<span style=\"font-size:30px; font-family: monospace\">A</span>",
		"response": " ",
		"trial": "exp-sent",
		"word": "A",
		"trial_type": "html-keyboard-response",
		"trial_index": 172,
		"time_elapsed": 1035125,
		"internal_node_id": "0.0-3.0-1.131"
	},
	{
		"rt": 3925,
		"stimulus": "<span style=\"font-size:30px; font-family: monospace\">bruxa</span>",
		"response": " ",
		"trial": "exp-sent",
		"word": "bruxa",
		"trial_type": "html-keyboard-response",
		"trial_index": 173,
		"time_elapsed": 1039301,
		"internal_node_id": "0.0-3.0-1.132"
	},
	{
		"rt": 13685,
		"stimulus": "<span style=\"font-size:30px; font-family: monospace\">tinha</span>",
		"response": " ",
		"trial": "exp-sent",
		"word": "tinha",
		"trial_type": "html-keyboard-response",
		"trial_index": 174,
		"time_elapsed": 1053237,
		"internal_node_id": "0.0-3.0-1.133"
	},
	{
		"rt": 14757,
		"stimulus": "<span style=\"font-size:30px; font-family: monospace\">uma</span>",
		"response": " ",
		"trial": "exp-sent",
		"word": "uma",
		"trial_type": "html-keyboard-response",
		"trial_index": 175,
		"time_elapsed": 1068245,
		"internal_node_id": "0.0-3.0-1.134"
	},
	{
		"rt": 4053,
		"stimulus": "<span style=\"font-size:30px; font-family: monospace\">vassoura</span>",
		"response": " ",
		"trial": "exp-sent",
		"word": "vassoura",
		"trial_type": "html-keyboard-response",
		"trial_index": 176,
		"time_elapsed": 1072549,
		"internal_node_id": "0.0-3.0-1.135"
	},
	{
		"rt": 1829,
		"stimulus": "<span style=\"font-size:30px; font-family: monospace\">e</span>",
		"response": " ",
		"trial": "exp-sent",
		"word": "e",
		"trial_type": "html-keyboard-response",
		"trial_index": 177,
		"time_elapsed": 1074629,
		"internal_node_id": "0.0-3.0-1.136"
	},
	{
		"rt": 1589,
		"stimulus": "<span style=\"font-size:30px; font-family: monospace\">um</span>",
		"response": " ",
		"trial": "exp-sent",
		"word": "um",
		"trial_type": "html-keyboard-response",
		"trial_index": 178,
		"time_elapsed": 1076469,
		"internal_node_id": "0.0-3.0-1.137"
	},
	{
		"rt": 37845,
		"stimulus": "<span style=\"font-size:30px; font-family: monospace\">gato.</span>",
		"response": " ",
		"trial": "exp-sent",
		"word": "gato.",
		"trial_type": "html-keyboard-response",
		"trial_index": 179,
		"time_elapsed": 1114565,
		"internal_node_id": "0.0-3.0-1.138"
	},
	{
		"rt": null,
		"stimulus": "<span style= \"font-size:30px; font-family: monospace\">+</span>",
		"response": null,
		"trial_part": "fixation",
		"trial_type": "html-keyboard-response",
		"trial_index": 180,
		"time_elapsed": 1115816,
		"internal_node_id": "0.0-3.0-0.139-0.139"
	},
	{
		"rt": 3153,
		"stimulus": "<span style=\"font-size:30px; font-family: monospace\">Eu</span>",
		"response": " ",
		"trial": "exp-sent",
		"word": "Eu",
		"trial_type": "html-keyboard-response",
		"trial_index": 181,
		"time_elapsed": 1119221,
		"internal_node_id": "0.0-3.0-1.139"
	},
	{
		"rt": 2405,
		"stimulus": "<span style=\"font-size:30px; font-family: monospace\">me</span>",
		"response": " ",
		"trial": "exp-sent",
		"word": "me",
		"trial_type": "html-keyboard-response",
		"trial_index": 182,
		"time_elapsed": 1121877,
		"internal_node_id": "0.0-3.0-1.140"
	},
	{
		"rt": 3989,
		"stimulus": "<span style=\"font-size:30px; font-family: monospace\">divirto</span>",
		"response": " ",
		"trial": "exp-sent",
		"word": "divirto",
		"trial_type": "html-keyboard-response",
		"trial_index": 183,
		"time_elapsed": 1126117,
		"internal_node_id": "0.0-3.0-1.141"
	},
	{
		"rt": 2597,
		"stimulus": "<span style=\"font-size:30px; font-family: monospace\">em</span>",
		"response": " ",
		"trial": "exp-sent",
		"word": "em",
		"trial_type": "html-keyboard-response",
		"trial_index": 184,
		"time_elapsed": 1128965,
		"internal_node_id": "0.0-3.0-1.142"
	},
	{
		"rt": 3013,
		"stimulus": "<span style=\"font-size:30px; font-family: monospace\">festas</span>",
		"response": " ",
		"trial": "exp-sent",
		"word": "festas",
		"trial_type": "html-keyboard-response",
		"trial_index": 185,
		"time_elapsed": 1132229,
		"internal_node_id": "0.0-3.0-1.143"
	},
	{
		"rt": 2932,
		"stimulus": "<span style=\"font-size:30px; font-family: monospace\">de</span>",
		"response": " ",
		"trial": "exp-sent",
		"word": "de",
		"trial_type": "html-keyboard-response",
		"trial_index": 186,
		"time_elapsed": 1135413,
		"internal_node_id": "0.0-3.0-1.144"
	},
	{
		"rt": 12389,
		"stimulus": "<span style=\"font-size:30px; font-family: monospace\">criança.</span>",
		"response": " ",
		"trial": "exp-sent",
		"word": "criança.",
		"trial_type": "html-keyboard-response",
		"trial_index": 187,
		"time_elapsed": 1148053,
		"internal_node_id": "0.0-3.0-1.145"
	},
	{
		"rt": null,
		"stimulus": "<span style= \"font-size:30px; font-family: monospace\">+</span>",
		"response": null,
		"trial_part": "fixation",
		"trial_type": "html-keyboard-response",
		"trial_index": 188,
		"time_elapsed": 1149306,
		"internal_node_id": "0.0-3.0-0.146-0.146"
	},
	{
		"rt": 6064,
		"stimulus": "<span style=\"font-size:30px; font-family: monospace\">A</span>",
		"response": " ",
		"trial": "exp-sent",
		"word": "A",
		"trial_type": "html-keyboard-response",
		"trial_index": 189,
		"time_elapsed": 1155621,
		"internal_node_id": "0.0-3.0-1.146"
	},
	{
		"rt": 6680,
		"stimulus": "<span style=\"font-size:30px; font-family: monospace\">janela</span>",
		"response": " ",
		"trial": "exp-sent",
		"word": "janela",
		"trial_type": "html-keyboard-response",
		"trial_index": 190,
		"time_elapsed": 1162565,
		"internal_node_id": "0.0-3.0-1.147"
	},
	{
		"rt": 3605,
		"stimulus": "<span style=\"font-size:30px; font-family: monospace\">alta</span>",
		"response": " ",
		"trial": "exp-sent",
		"word": "alta",
		"trial_type": "html-keyboard-response",
		"trial_index": 191,
		"time_elapsed": 1166421,
		"internal_node_id": "0.0-3.0-1.148"
	},
	{
		"rt": 12165,
		"stimulus": "<span style=\"font-size:30px; font-family: monospace\">estava</span>",
		"response": " ",
		"trial": "exp-sent",
		"word": "estava",
		"trial_type": "html-keyboard-response",
		"trial_index": 192,
		"time_elapsed": 1178837,
		"internal_node_id": "0.0-3.0-1.149"
	},
	{
		"rt": 2901,
		"stimulus": "<span style=\"font-size:30px; font-family: monospace\">quebrada</span>",
		"response": " ",
		"trial": "exp-sent",
		"word": "quebrada",
		"trial_type": "html-keyboard-response",
		"trial_index": 193,
		"time_elapsed": 1181988,
		"internal_node_id": "0.0-3.0-1.150"
	},
	{
		"rt": 2133,
		"stimulus": "<span style=\"font-size:30px; font-family: monospace\">desde</span>",
		"response": " ",
		"trial": "exp-sent",
		"word": "desde",
		"trial_type": "html-keyboard-response",
		"trial_index": 194,
		"time_elapsed": 1184372,
		"internal_node_id": "0.0-3.0-1.151"
	},
	{
		"rt": 14005,
		"stimulus": "<span style=\"font-size:30px; font-family: monospace\">ontem.</span>",
		"response": " ",
		"trial": "comp",
		"word": "ontem.",
		"trial_type": "html-keyboard-response",
		"trial_index": 195,
		"time_elapsed": 1198628,
		"internal_node_id": "0.0-3.0-1.152"
	},
	{
		"rt": 8645,
		"stimulus": "<span style=\"font-size:30px; font-family: monospace\">A janela alta estava quebrada?</span>",
		"response": "n",
		"question": "A janela alta estava quebrada?",
		"answer": "sim",
		"trial": "comp",
		"trial_type": "html-keyboard-response",
		"trial_index": 196,
		"time_elapsed": 1207525,
		"internal_node_id": "0.0-3.0-2.152-0.152",
		"accuracy": false
	},
	{
		"rt": null,
		"stimulus": "<span style= \"font-size:30px; font-family: monospace\">+</span>",
		"response": null,
		"trial_part": "fixation",
		"trial_type": "html-keyboard-response",
		"trial_index": 197,
		"time_elapsed": 1209026,
		"internal_node_id": "0.0-3.0-0.153-0.153"
	},
	{
		"rt": 3736,
		"stimulus": "<span style=\"font-size:30px; font-family: monospace\">O</span>",
		"response": " ",
		"trial": "exp-sent",
		"word": "O",
		"trial_type": "html-keyboard-response",
		"trial_index": 198,
		"time_elapsed": 1213012,
		"internal_node_id": "0.0-3.0-1.153"
	},
	{
		"rt": 12454,
		"stimulus": "<span style=\"font-size:30px; font-family: monospace\">moço</span>",
		"response": " ",
		"trial": "exp-sent",
		"word": "moço",
		"trial_type": "html-keyboard-response",
		"trial_index": 199,
		"time_elapsed": 1225717,
		"internal_node_id": "0.0-3.0-1.154"
	},
	{
		"rt": 2340,
		"stimulus": "<span style=\"font-size:30px; font-family: monospace\">usou</span>",
		"response": " ",
		"trial": "exp-sent",
		"word": "usou",
		"trial_type": "html-keyboard-response",
		"trial_index": 200,
		"time_elapsed": 1228308,
		"internal_node_id": "0.0-3.0-1.155"
	},
	{
		"rt": 2436,
		"stimulus": "<span style=\"font-size:30px; font-family: monospace\">várias</span>",
		"response": " ",
		"trial": "exp-sent",
		"word": "várias",
		"trial_type": "html-keyboard-response",
		"trial_index": 201,
		"time_elapsed": 1230996,
		"internal_node_id": "0.0-3.0-1.156"
	},
	{
		"rt": 2950,
		"stimulus": "<span style=\"font-size:30px; font-family: monospace\">velas</span>",
		"response": " ",
		"trial": "exp-sent",
		"word": "velas",
		"trial_type": "html-keyboard-response",
		"trial_index": 202,
		"time_elapsed": 1234197,
		"internal_node_id": "0.0-3.0-1.157"
	},
	{
		"rt": 2756,
		"stimulus": "<span style=\"font-size:30px; font-family: monospace\">no</span>",
		"response": " ",
		"trial": "exp-sent",
		"word": "no",
		"trial_type": "html-keyboard-response",
		"trial_index": 203,
		"time_elapsed": 1237204,
		"internal_node_id": "0.0-3.0-1.158"
	},
	{
		"rt": 5860,
		"stimulus": "<span style=\"font-size:30px; font-family: monospace\">enfeite</span>",
		"response": " ",
		"trial": "exp-sent",
		"word": "enfeite",
		"trial_type": "html-keyboard-response",
		"trial_index": 204,
		"time_elapsed": 1243316,
		"internal_node_id": "0.0-3.0-1.159"
	},
	{
		"rt": 2149,
		"stimulus": "<span style=\"font-size:30px; font-family: monospace\">de</span>",
		"response": " ",
		"trial": "exp-sent",
		"word": "de",
		"trial_type": "html-keyboard-response",
		"trial_index": 205,
		"time_elapsed": 1245716,
		"internal_node_id": "0.0-3.0-1.160"
	},
	{
		"rt": 12036,
		"stimulus": "<span style=\"font-size:30px; font-family: monospace\">mesa.</span>",
		"response": " ",
		"trial": "exp-sent",
		"word": "mesa.",
		"trial_type": "html-keyboard-response",
		"trial_index": 206,
		"time_elapsed": 1258004,
		"internal_node_id": "0.0-3.0-1.161"
	},
	{
		"rt": null,
		"stimulus": "<span style= \"font-size:30px; font-family: monospace\">+</span>",
		"response": null,
		"trial_part": "fixation",
		"trial_type": "html-keyboard-response",
		"trial_index": 207,
		"time_elapsed": 1259257,
		"internal_node_id": "0.0-3.0-0.162-0.162"
	},
	{
		"rt": 2609,
		"stimulus": "<span style=\"font-size:30px; font-family: monospace\">Gostamos</span>",
		"response": " ",
		"trial": "exp-sent",
		"word": "Gostamos",
		"trial_type": "html-keyboard-response",
		"trial_index": 208,
		"time_elapsed": 1262116,
		"internal_node_id": "0.0-3.0-1.162"
	},
	{
		"rt": 3029,
		"stimulus": "<span style=\"font-size:30px; font-family: monospace\">de</span>",
		"response": " ",
		"trial": "exp-sent",
		"word": "de",
		"trial_type": "html-keyboard-response",
		"trial_index": 209,
		"time_elapsed": 1265396,
		"internal_node_id": "0.0-3.0-1.163"
	},
	{
		"rt": 2741,
		"stimulus": "<span style=\"font-size:30px; font-family: monospace\">suco</span>",
		"response": " ",
		"trial": "exp-sent",
		"word": "suco",
		"trial_type": "html-keyboard-response",
		"trial_index": 210,
		"time_elapsed": 1268388,
		"internal_node_id": "0.0-3.0-1.164"
	},
	{
		"rt": 1893,
		"stimulus": "<span style=\"font-size:30px; font-family: monospace\">em</span>",
		"response": " ",
		"trial": "exp-sent",
		"word": "em",
		"trial_type": "html-keyboard-response",
		"trial_index": 211,
		"time_elapsed": 1270532,
		"internal_node_id": "0.0-3.0-1.165"
	},
	{
		"rt": 2310,
		"stimulus": "<span style=\"font-size:30px; font-family: monospace\">garrafa</span>",
		"response": " ",
		"trial": "exp-sent",
		"word": "garrafa",
		"trial_type": "html-keyboard-response",
		"trial_index": 212,
		"time_elapsed": 1273092,
		"internal_node_id": "0.0-3.0-1.166"
	},
	{
		"rt": 1685,
		"stimulus": "<span style=\"font-size:30px; font-family: monospace\">de</span>",
		"response": " ",
		"trial": "exp-sent",
		"word": "de",
		"trial_type": "html-keyboard-response",
		"trial_index": 213,
		"time_elapsed": 1275028,
		"internal_node_id": "0.0-3.0-1.167"
	},
	{
		"rt": 1795,
		"stimulus": "<span style=\"font-size:30px; font-family: monospace\">tamanho</span>",
		"response": " ",
		"trial": "exp-sent",
		"word": "tamanho",
		"trial_type": "html-keyboard-response",
		"trial_index": 214,
		"time_elapsed": 1277076,
		"internal_node_id": "0.0-3.0-1.168"
	},
	{
		"rt": 26453,
		"stimulus": "<span style=\"font-size:30px; font-family: monospace\">pequeno.</span>",
		"response": " ",
		"trial": "exp-sent",
		"word": "pequeno.",
		"trial_type": "html-keyboard-response",
		"trial_index": 215,
		"time_elapsed": 1303780,
		"internal_node_id": "0.0-3.0-1.169"
	},
	{
		"rt": null,
		"stimulus": "<span style= \"font-size:30px; font-family: monospace\">+</span>",
		"response": null,
		"trial_part": "fixation",
		"trial_type": "html-keyboard-response",
		"trial_index": 216,
		"time_elapsed": 1305035,
		"internal_node_id": "0.0-3.0-0.170-0.170"
	},
	{
		"rt": 4718,
		"stimulus": "<span style=\"font-size:30px; font-family: monospace\">Sua</span>",
		"response": " ",
		"trial": "exp-sent",
		"word": "Sua",
		"trial_type": "html-keyboard-response",
		"trial_index": 217,
		"time_elapsed": 1310004,
		"internal_node_id": "0.0-3.0-1.170"
	},
	{
		"rt": 3206,
		"stimulus": "<span style=\"font-size:30px; font-family: monospace\">filha</span>",
		"response": " ",
		"trial": "exp-sent",
		"word": "filha",
		"trial_type": "html-keyboard-response",
		"trial_index": 218,
		"time_elapsed": 1313460,
		"internal_node_id": "0.0-3.0-1.171"
	},
	{
		"rt": 3061,
		"stimulus": "<span style=\"font-size:30px; font-family: monospace\">é</span>",
		"response": " ",
		"trial": "exp-sent",
		"word": "é",
		"trial_type": "html-keyboard-response",
		"trial_index": 219,
		"time_elapsed": 1316772,
		"internal_node_id": "0.0-3.0-1.172"
	},
	{
		"rt": 2451,
		"stimulus": "<span style=\"font-size:30px; font-family: monospace\">muito</span>",
		"response": " ",
		"trial": "exp-sent",
		"word": "muito",
		"trial_type": "html-keyboard-response",
		"trial_index": 220,
		"time_elapsed": 1319476,
		"internal_node_id": "0.0-3.0-1.173"
	},
	{
		"rt": 1878,
		"stimulus": "<span style=\"font-size:30px; font-family: monospace\">capaz</span>",
		"response": " ",
		"trial": "exp-sent",
		"word": "capaz",
		"trial_type": "html-keyboard-response",
		"trial_index": 221,
		"time_elapsed": 1321604,
		"internal_node_id": "0.0-3.0-1.174"
	},
	{
		"rt": 1877,
		"stimulus": "<span style=\"font-size:30px; font-family: monospace\">e</span>",
		"response": " ",
		"trial": "exp-sent",
		"word": "e",
		"trial_type": "html-keyboard-response",
		"trial_index": 222,
		"time_elapsed": 1323732,
		"internal_node_id": "0.0-3.0-1.175"
	},
	{
		"rt": 13493,
		"stimulus": "<span style=\"font-size:30px; font-family: monospace\">esforçada.</span>",
		"response": " ",
		"trial": "exp-sent",
		"word": "esforçada.",
		"trial_type": "html-keyboard-response",
		"trial_index": 223,
		"time_elapsed": 1337476,
		"internal_node_id": "0.0-3.0-1.176"
	},
	{
		"rt": null,
		"stimulus": "<span style= \"font-size:30px; font-family: monospace\">+</span>",
		"response": null,
		"trial_part": "fixation",
		"trial_type": "html-keyboard-response",
		"trial_index": 224,
		"time_elapsed": 1338728,
		"internal_node_id": "0.0-3.0-0.177-0.177"
	},
	{
		"rt": 2225,
		"stimulus": "<span style=\"font-size:30px; font-family: monospace\">A</span>",
		"response": " ",
		"trial": "exp-sent",
		"word": "A",
		"trial_type": "html-keyboard-response",
		"trial_index": 225,
		"time_elapsed": 1341204,
		"internal_node_id": "0.0-3.0-1.177"
	},
	{
		"rt": 5077,
		"stimulus": "<span style=\"font-size:30px; font-family: monospace\">batida</span>",
		"response": " ",
		"trial": "exp-sent",
		"word": "batida",
		"trial_type": "html-keyboard-response",
		"trial_index": 226,
		"time_elapsed": 1346532,
		"internal_node_id": "0.0-3.0-1.178"
	},
	{
		"rt": 9237,
		"stimulus": "<span style=\"font-size:30px; font-family: monospace\">causou</span>",
		"response": " ",
		"trial": "exp-sent",
		"word": "causou",
		"trial_type": "html-keyboard-response",
		"trial_index": 227,
		"time_elapsed": 1356020,
		"internal_node_id": "0.0-3.0-1.179"
	},
	{
		"rt": 4228,
		"stimulus": "<span style=\"font-size:30px; font-family: monospace\">muita</span>",
		"response": " ",
		"trial": "exp-sent",
		"word": "muita",
		"trial_type": "html-keyboard-response",
		"trial_index": 228,
		"time_elapsed": 1360500,
		"internal_node_id": "0.0-3.0-1.180"
	},
	{
		"rt": 4549,
		"stimulus": "<span style=\"font-size:30px; font-family: monospace\">confusão</span>",
		"response": " ",
		"trial": "exp-sent",
		"word": "confusão",
		"trial_type": "html-keyboard-response",
		"trial_index": 229,
		"time_elapsed": 1365300,
		"internal_node_id": "0.0-3.0-1.181"
	},
	{
		"rt": 2709,
		"stimulus": "<span style=\"font-size:30px; font-family: monospace\">na</span>",
		"response": " ",
		"trial": "exp-sent",
		"word": "na",
		"trial_type": "html-keyboard-response",
		"trial_index": 230,
		"time_elapsed": 1368260,
		"internal_node_id": "0.0-3.0-1.182"
	},
	{
		"rt": 23730,
		"stimulus": "<span style=\"font-size:30px; font-family: monospace\">estrada.</span>",
		"response": " ",
		"trial": "exp-sent",
		"word": "estrada.",
		"trial_type": "html-keyboard-response",
		"trial_index": 231,
		"time_elapsed": 1392244,
		"internal_node_id": "0.0-3.0-1.183"
	},
	{
		"rt": null,
		"stimulus": "<span style= \"font-size:30px; font-family: monospace\">+</span>",
		"response": null,
		"trial_part": "fixation",
		"trial_type": "html-keyboard-response",
		"trial_index": 232,
		"time_elapsed": 1393496,
		"internal_node_id": "0.0-3.0-0.184-0.184"
	},
	{
		"rt": 2882,
		"stimulus": "<span style=\"font-size:30px; font-family: monospace\">Eu</span>",
		"response": " ",
		"trial": "exp-sent",
		"word": "Eu",
		"trial_type": "html-keyboard-response",
		"trial_index": 233,
		"time_elapsed": 1396628,
		"internal_node_id": "0.0-3.0-1.184"
	},
	{
		"rt": 2933,
		"stimulus": "<span style=\"font-size:30px; font-family: monospace\">cozinhei</span>",
		"response": " ",
		"trial": "exp-sent",
		"word": "cozinhei",
		"trial_type": "html-keyboard-response",
		"trial_index": 234,
		"time_elapsed": 1399812,
		"internal_node_id": "0.0-3.0-1.185"
	},
	{
		"rt": 4677,
		"stimulus": "<span style=\"font-size:30px; font-family: monospace\">um</span>",
		"response": " ",
		"trial": "exp-sent",
		"word": "um",
		"trial_type": "html-keyboard-response",
		"trial_index": 235,
		"time_elapsed": 1404740,
		"internal_node_id": "0.0-3.0-1.186"
	},
	{
		"rt": 2800,
		"stimulus": "<span style=\"font-size:30px; font-family: monospace\">almoço</span>",
		"response": " ",
		"trial": "exp-sent",
		"word": "almoço",
		"trial_type": "html-keyboard-response",
		"trial_index": 236,
		"time_elapsed": 1407796,
		"internal_node_id": "0.0-3.0-1.187"
	},
	{
		"rt": 2789,
		"stimulus": "<span style=\"font-size:30px; font-family: monospace\">nutritivo</span>",
		"response": " ",
		"trial": "exp-sent",
		"word": "nutritivo",
		"trial_type": "html-keyboard-response",
		"trial_index": 237,
		"time_elapsed": 1410835,
		"internal_node_id": "0.0-3.0-1.188"
	},
	{
		"rt": 2374,
		"stimulus": "<span style=\"font-size:30px; font-family: monospace\">para</span>",
		"response": " ",
		"trial": "exp-sent",
		"word": "para",
		"trial_type": "html-keyboard-response",
		"trial_index": 238,
		"time_elapsed": 1413459,
		"internal_node_id": "0.0-3.0-1.189"
	},
	{
		"rt": 35573,
		"stimulus": "<span style=\"font-size:30px; font-family: monospace\">hoje.</span>",
		"response": " ",
		"trial": "comp",
		"word": "hoje.",
		"trial_type": "html-keyboard-response",
		"trial_index": 239,
		"time_elapsed": 1449283,
		"internal_node_id": "0.0-3.0-1.190"
	},
	{
		"rt": 20837,
		"stimulus": "<span style=\"font-size:30px; font-family: monospace\">O almoço era nutritivo?</span>",
		"response": "s",
		"question": "O almoço era nutritivo?",
		"answer": "sim",
		"trial": "comp",
		"trial_type": "html-keyboard-response",
		"trial_index": 240,
		"time_elapsed": 1470371,
		"internal_node_id": "0.0-3.0-2.190-0.190",
		"accuracy": false
	},
	{
		"rt": null,
		"stimulus": "<span style= \"font-size:30px; font-family: monospace\">+</span>",
		"response": null,
		"trial_part": "fixation",
		"trial_type": "html-keyboard-response",
		"trial_index": 241,
		"time_elapsed": 1471874,
		"internal_node_id": "0.0-3.0-0.191-0.191"
	},
	{
		"rt": 1975,
		"stimulus": "<span style=\"font-size:30px; font-family: monospace\">Preciso</span>",
		"response": " ",
		"trial": "exp-sent",
		"word": "Preciso",
		"trial_type": "html-keyboard-response",
		"trial_index": 242,
		"time_elapsed": 1474099,
		"internal_node_id": "0.0-3.0-1.191"
	},
	{
		"rt": 3125,
		"stimulus": "<span style=\"font-size:30px; font-family: monospace\">de</span>",
		"response": " ",
		"trial": "exp-sent",
		"word": "de",
		"trial_type": "html-keyboard-response",
		"trial_index": 243,
		"time_elapsed": 1477475,
		"internal_node_id": "0.0-3.0-1.192"
	},
	{
		"rt": 2758,
		"stimulus": "<span style=\"font-size:30px; font-family: monospace\">um</span>",
		"response": " ",
		"trial": "exp-sent",
		"word": "um",
		"trial_type": "html-keyboard-response",
		"trial_index": 244,
		"time_elapsed": 1480484,
		"internal_node_id": "0.0-3.0-1.193"
	},
	{
		"rt": 15092,
		"stimulus": "<span style=\"font-size:30px; font-family: monospace\">relatório</span>",
		"response": " ",
		"trial": "exp-sent",
		"word": "relatório",
		"trial_type": "html-keyboard-response",
		"trial_index": 245,
		"time_elapsed": 1495827,
		"internal_node_id": "0.0-3.0-1.194"
	},
	{
		"rt": 1989,
		"stimulus": "<span style=\"font-size:30px; font-family: monospace\">oficial</span>",
		"response": " ",
		"trial": "exp-sent",
		"word": "oficial",
		"trial_type": "html-keyboard-response",
		"trial_index": 246,
		"time_elapsed": 1498067,
		"internal_node_id": "0.0-3.0-1.195"
	},
	{
		"rt": 1925,
		"stimulus": "<span style=\"font-size:30px; font-family: monospace\">para</span>",
		"response": " ",
		"trial": "exp-sent",
		"word": "para",
		"trial_type": "html-keyboard-response",
		"trial_index": 247,
		"time_elapsed": 1500243,
		"internal_node_id": "0.0-3.0-1.196"
	},
	{
		"rt": 8405,
		"stimulus": "<span style=\"font-size:30px; font-family: monospace\">amanhã.</span>",
		"response": " ",
		"trial": "exp-sent",
		"word": "amanhã.",
		"trial_type": "html-keyboard-response",
		"trial_index": 248,
		"time_elapsed": 1508899,
		"internal_node_id": "0.0-3.0-1.197"
	},
	{
		"rt": null,
		"stimulus": "<span style= \"font-size:30px; font-family: monospace\">+</span>",
		"response": null,
		"trial_part": "fixation",
		"trial_type": "html-keyboard-response",
		"trial_index": 249,
		"time_elapsed": 1510151,
		"internal_node_id": "0.0-3.0-0.198-0.198"
	},
	{
		"rt": 2033,
		"stimulus": "<span style=\"font-size:30px; font-family: monospace\">Ele</span>",
		"response": " ",
		"trial": "exp-sent",
		"word": "Ele",
		"trial_type": "html-keyboard-response",
		"trial_index": 250,
		"time_elapsed": 1512435,
		"internal_node_id": "0.0-3.0-1.198"
	},
	{
		"rt": 3813,
		"stimulus": "<span style=\"font-size:30px; font-family: monospace\">viu</span>",
		"response": " ",
		"trial": "exp-sent",
		"word": "viu",
		"trial_type": "html-keyboard-response",
		"trial_index": 251,
		"time_elapsed": 1516499,
		"internal_node_id": "0.0-3.0-1.199"
	},
	{
		"rt": 2933,
		"stimulus": "<span style=\"font-size:30px; font-family: monospace\">um</span>",
		"response": " ",
		"trial": "exp-sent",
		"word": "um",
		"trial_type": "html-keyboard-response",
		"trial_index": 252,
		"time_elapsed": 1519683,
		"internal_node_id": "0.0-3.0-1.200"
	},
	{
		"rt": 3253,
		"stimulus": "<span style=\"font-size:30px; font-family: monospace\">inseto</span>",
		"response": " ",
		"trial": "exp-sent",
		"word": "inseto",
		"trial_type": "html-keyboard-response",
		"trial_index": 253,
		"time_elapsed": 1523187,
		"internal_node_id": "0.0-3.0-1.201"
	},
	{
		"rt": 1957,
		"stimulus": "<span style=\"font-size:30px; font-family: monospace\">marrom</span>",
		"response": " ",
		"trial": "exp-sent",
		"word": "marrom",
		"trial_type": "html-keyboard-response",
		"trial_index": 254,
		"time_elapsed": 1525395,
		"internal_node_id": "0.0-3.0-1.202"
	},
	{
		"rt": 1765,
		"stimulus": "<span style=\"font-size:30px; font-family: monospace\">na</span>",
		"response": " ",
		"trial": "exp-sent",
		"word": "na",
		"trial_type": "html-keyboard-response",
		"trial_index": 255,
		"time_elapsed": 1527411,
		"internal_node_id": "0.0-3.0-1.203"
	},
	{
		"rt": 10245,
		"stimulus": "<span style=\"font-size:30px; font-family: monospace\">parede.</span>",
		"response": " ",
		"trial": "exp-sent",
		"word": "parede.",
		"trial_type": "html-keyboard-response",
		"trial_index": 256,
		"time_elapsed": 1537907,
		"internal_node_id": "0.0-3.0-1.204"
	},
	{
		"rt": null,
		"stimulus": "<span style= \"font-size:30px; font-family: monospace\">+</span>",
		"response": null,
		"trial_part": "fixation",
		"trial_type": "html-keyboard-response",
		"trial_index": 257,
		"time_elapsed": 1539158,
		"internal_node_id": "0.0-3.0-0.205-0.205"
	},
	{
		"rt": 4193,
		"stimulus": "<span style=\"font-size:30px; font-family: monospace\">O</span>",
		"response": " ",
		"trial": "exp-sent",
		"word": "O",
		"trial_type": "html-keyboard-response",
		"trial_index": 258,
		"time_elapsed": 1543603,
		"internal_node_id": "0.0-3.0-1.205"
	},
	{
		"rt": 9461,
		"stimulus": "<span style=\"font-size:30px; font-family: monospace\">avô</span>",
		"response": " ",
		"trial": "exp-sent",
		"word": "avô",
		"trial_type": "html-keyboard-response",
		"trial_index": 259,
		"time_elapsed": 1553315,
		"internal_node_id": "0.0-3.0-1.206"
	},
	{
		"rt": 3925,
		"stimulus": "<span style=\"font-size:30px; font-family: monospace\">fez</span>",
		"response": " ",
		"trial": "exp-sent",
		"word": "fez",
		"trial_type": "html-keyboard-response",
		"trial_index": 260,
		"time_elapsed": 1557491,
		"internal_node_id": "0.0-3.0-1.207"
	},
	{
		"rt": 9317,
		"stimulus": "<span style=\"font-size:30px; font-family: monospace\">uma</span>",
		"response": " ",
		"trial": "exp-sent",
		"word": "uma",
		"trial_type": "html-keyboard-response",
		"trial_index": 261,
		"time_elapsed": 1567059,
		"internal_node_id": "0.0-3.0-1.208"
	},
	{
		"rt": 3296,
		"stimulus": "<span style=\"font-size:30px; font-family: monospace\">lista</span>",
		"response": " ",
		"trial": "exp-sent",
		"word": "lista",
		"trial_type": "html-keyboard-response",
		"trial_index": 262,
		"time_elapsed": 1570611,
		"internal_node_id": "0.0-3.0-1.209"
	},
	{
		"rt": 2117,
		"stimulus": "<span style=\"font-size:30px; font-family: monospace\">de</span>",
		"response": " ",
		"trial": "exp-sent",
		"word": "de",
		"trial_type": "html-keyboard-response",
		"trial_index": 263,
		"time_elapsed": 1572979,
		"internal_node_id": "0.0-3.0-1.210"
	},
	{
		"rt": 2772,
		"stimulus": "<span style=\"font-size:30px; font-family: monospace\">compras</span>",
		"response": " ",
		"trial": "exp-sent",
		"word": "compras",
		"trial_type": "html-keyboard-response",
		"trial_index": 264,
		"time_elapsed": 1576003,
		"internal_node_id": "0.0-3.0-1.211"
	},
	{
		"rt": 2293,
		"stimulus": "<span style=\"font-size:30px; font-family: monospace\">do</span>",
		"response": " ",
		"trial": "exp-sent",
		"word": "do",
		"trial_type": "html-keyboard-response",
		"trial_index": 265,
		"time_elapsed": 1578547,
		"internal_node_id": "0.0-3.0-1.212"
	},
	{
		"rt": 15157,
		"stimulus": "<span style=\"font-size:30px; font-family: monospace\">mercado.</span>",
		"response": " ",
		"trial": "exp-sent",
		"word": "mercado.",
		"trial_type": "html-keyboard-response",
		"trial_index": 266,
		"time_elapsed": 1593955,
		"internal_node_id": "0.0-3.0-1.213"
	},
	{
		"rt": null,
		"stimulus": "<span style= \"font-size:30px; font-family: monospace\">+</span>",
		"response": null,
		"trial_part": "fixation",
		"trial_type": "html-keyboard-response",
		"trial_index": 267,
		"time_elapsed": 1595206,
		"internal_node_id": "0.0-3.0-0.214-0.214"
	},
	{
		"rt": 3472,
		"stimulus": "<span style=\"font-size:30px; font-family: monospace\">As</span>",
		"response": " ",
		"trial": "exp-sent",
		"word": "As",
		"trial_type": "html-keyboard-response",
		"trial_index": 268,
		"time_elapsed": 1598930,
		"internal_node_id": "0.0-3.0-1.214"
	},
	{
		"rt": 5109,
		"stimulus": "<span style=\"font-size:30px; font-family: monospace\">pessoas</span>",
		"response": " ",
		"trial": "exp-sent",
		"word": "pessoas",
		"trial_type": "html-keyboard-response",
		"trial_index": 269,
		"time_elapsed": 1604291,
		"internal_node_id": "0.0-3.0-1.215"
	},
	{
		"rt": 2789,
		"stimulus": "<span style=\"font-size:30px; font-family: monospace\">não</span>",
		"response": " ",
		"trial": "exp-sent",
		"word": "não",
		"trial_type": "html-keyboard-response",
		"trial_index": 270,
		"time_elapsed": 1607331,
		"internal_node_id": "0.0-3.0-1.216"
	},
	{
		"rt": 2006,
		"stimulus": "<span style=\"font-size:30px; font-family: monospace\">enviam</span>",
		"response": " ",
		"trial": "exp-sent",
		"word": "enviam",
		"trial_type": "html-keyboard-response",
		"trial_index": 271,
		"time_elapsed": 1609587,
		"internal_node_id": "0.0-3.0-1.217"
	},
	{
		"rt": 2069,
		"stimulus": "<span style=\"font-size:30px; font-family: monospace\">telegrama</span>",
		"response": " ",
		"trial": "exp-sent",
		"word": "telegrama",
		"trial_type": "html-keyboard-response",
		"trial_index": 272,
		"time_elapsed": 1611907,
		"internal_node_id": "0.0-3.0-1.218"
	},
	{
		"rt": 1829,
		"stimulus": "<span style=\"font-size:30px; font-family: monospace\">nos</span>",
		"response": " ",
		"trial": "exp-sent",
		"word": "nos",
		"trial_type": "html-keyboard-response",
		"trial_index": 273,
		"time_elapsed": 1613987,
		"internal_node_id": "0.0-3.0-1.219"
	},
	{
		"rt": 1525,
		"stimulus": "<span style=\"font-size:30px; font-family: monospace\">dias</span>",
		"response": " ",
		"trial": "exp-sent",
		"word": "dias",
		"trial_type": "html-keyboard-response",
		"trial_index": 274,
		"time_elapsed": 1615763,
		"internal_node_id": "0.0-3.0-1.220"
	},
	{
		"rt": 1108,
		"stimulus": "<span style=\"font-size:30px; font-family: monospace\">de</span>",
		"response": " ",
		"trial": "exp-sent",
		"word": "de",
		"trial_type": "html-keyboard-response",
		"trial_index": 275,
		"time_elapsed": 1617122,
		"internal_node_id": "0.0-3.0-1.221"
	},
	{
		"rt": 14165,
		"stimulus": "<span style=\"font-size:30px; font-family: monospace\">hoje.</span>",
		"response": " ",
		"trial": "exp-sent",
		"word": "hoje.",
		"trial_type": "html-keyboard-response",
		"trial_index": 276,
		"time_elapsed": 1631539,
		"internal_node_id": "0.0-3.0-1.222"
	},
	{
		"rt": null,
		"stimulus": "<span style= \"font-size:30px; font-family: monospace\">+</span>",
		"response": null,
		"trial_part": "fixation",
		"trial_type": "html-keyboard-response",
		"trial_index": 277,
		"time_elapsed": 1632794,
		"internal_node_id": "0.0-3.0-0.223-0.223"
	},
	{
		"rt": 3821,
		"stimulus": "<span style=\"font-size:30px; font-family: monospace\">Ele</span>",
		"response": " ",
		"trial": "exp-sent",
		"word": "Ele",
		"trial_type": "html-keyboard-response",
		"trial_index": 278,
		"time_elapsed": 1636867,
		"internal_node_id": "0.0-3.0-1.223"
	},
	{
		"rt": 3237,
		"stimulus": "<span style=\"font-size:30px; font-family: monospace\">não</span>",
		"response": " ",
		"trial": "exp-sent",
		"word": "não",
		"trial_type": "html-keyboard-response",
		"trial_index": 279,
		"time_elapsed": 1640354,
		"internal_node_id": "0.0-3.0-1.224"
	},
	{
		"rt": 1685,
		"stimulus": "<span style=\"font-size:30px; font-family: monospace\">gosta</span>",
		"response": " ",
		"trial": "exp-sent",
		"word": "gosta",
		"trial_type": "html-keyboard-response",
		"trial_index": 280,
		"time_elapsed": 1642290,
		"internal_node_id": "0.0-3.0-1.225"
	},
	{
		"rt": 1429,
		"stimulus": "<span style=\"font-size:30px; font-family: monospace\">de</span>",
		"response": " ",
		"trial": "exp-sent",
		"word": "de",
		"trial_type": "html-keyboard-response",
		"trial_index": 281,
		"time_elapsed": 1643971,
		"internal_node_id": "0.0-3.0-1.226"
	},
	{
		"rt": 1909,
		"stimulus": "<span style=\"font-size:30px; font-family: monospace\">tomate</span>",
		"response": " ",
		"trial": "exp-sent",
		"word": "tomate",
		"trial_type": "html-keyboard-response",
		"trial_index": 282,
		"time_elapsed": 1646130,
		"internal_node_id": "0.0-3.0-1.227"
	},
	{
		"rt": 2389,
		"stimulus": "<span style=\"font-size:30px; font-family: monospace\">misturado</span>",
		"response": " ",
		"trial": "exp-sent",
		"word": "misturado",
		"trial_type": "html-keyboard-response",
		"trial_index": 283,
		"time_elapsed": 1648771,
		"internal_node_id": "0.0-3.0-1.228"
	},
	{
		"rt": 1413,
		"stimulus": "<span style=\"font-size:30px; font-family: monospace\">na</span>",
		"response": " ",
		"trial": "exp-sent",
		"word": "na",
		"trial_type": "html-keyboard-response",
		"trial_index": 284,
		"time_elapsed": 1650435,
		"internal_node_id": "0.0-3.0-1.229"
	},
	{
		"rt": 11285,
		"stimulus": "<span style=\"font-size:30px; font-family: monospace\">comida.</span>",
		"response": " ",
		"trial": "comp",
		"word": "comida.",
		"trial_type": "html-keyboard-response",
		"trial_index": 285,
		"time_elapsed": 1661971,
		"internal_node_id": "0.0-3.0-1.230"
	},
	{
		"rt": 12533,
		"stimulus": "<span style=\"font-size:30px; font-family: monospace\">Ele gosta de tomate na comida?</span>",
		"response": "s",
		"question": "Ele gosta de tomate na comida?",
		"answer": "não",
		"trial": "comp",
		"trial_type": "html-keyboard-response",
		"trial_index": 286,
		"time_elapsed": 1674755,
		"internal_node_id": "0.0-3.0-2.230-0.230",
		"accuracy": false
	},
	{
		"rt": null,
		"stimulus": "<span style= \"font-size:30px; font-family: monospace\">+</span>",
		"response": null,
		"trial_part": "fixation",
		"trial_type": "html-keyboard-response",
		"trial_index": 287,
		"time_elapsed": 1676256,
		"internal_node_id": "0.0-3.0-0.231-0.231"
	},
	{
		"rt": 10136,
		"stimulus": "<span style=\"font-size:30px; font-family: monospace\">Ganhamos</span>",
		"response": " ",
		"trial": "exp-sent",
		"word": "Ganhamos",
		"trial_type": "html-keyboard-response",
		"trial_index": 288,
		"time_elapsed": 1686642,
		"internal_node_id": "0.0-3.0-1.231"
	},
	{
		"rt": 2821,
		"stimulus": "<span style=\"font-size:30px; font-family: monospace\">passagem</span>",
		"response": " ",
		"trial": "exp-sent",
		"word": "passagem",
		"trial_type": "html-keyboard-response",
		"trial_index": 289,
		"time_elapsed": 1689715,
		"internal_node_id": "0.0-3.0-1.232"
	},
	{
		"rt": 2517,
		"stimulus": "<span style=\"font-size:30px; font-family: monospace\">para</span>",
		"response": " ",
		"trial": "exp-sent",
		"word": "para",
		"trial_type": "html-keyboard-response",
		"trial_index": 290,
		"time_elapsed": 1692483,
		"internal_node_id": "0.0-3.0-1.233"
	},
	{
		"rt": 2677,
		"stimulus": "<span style=\"font-size:30px; font-family: monospace\">uma</span>",
		"response": " ",
		"trial": "exp-sent",
		"word": "uma",
		"trial_type": "html-keyboard-response",
		"trial_index": 291,
		"time_elapsed": 1695411,
		"internal_node_id": "0.0-3.0-1.234"
	},
	{
		"rt": 2134,
		"stimulus": "<span style=\"font-size:30px; font-family: monospace\">viagem</span>",
		"response": " ",
		"trial": "exp-sent",
		"word": "viagem",
		"trial_type": "html-keyboard-response",
		"trial_index": 292,
		"time_elapsed": 1697795,
		"internal_node_id": "0.0-3.0-1.235"
	},
	{
		"rt": 1524,
		"stimulus": "<span style=\"font-size:30px; font-family: monospace\">de</span>",
		"response": " ",
		"trial": "exp-sent",
		"word": "de",
		"trial_type": "html-keyboard-response",
		"trial_index": 293,
		"time_elapsed": 1699570,
		"internal_node_id": "0.0-3.0-1.236"
	},
	{
		"rt": 14181,
		"stimulus": "<span style=\"font-size:30px; font-family: monospace\">férias.</span>",
		"response": " ",
		"trial": "exp-sent",
		"word": "férias.",
		"trial_type": "html-keyboard-response",
		"trial_index": 294,
		"time_elapsed": 1714003,
		"internal_node_id": "0.0-3.0-1.237"
	},
	{
		"rt": null,
		"stimulus": "<span style= \"font-size:30px; font-family: monospace\">+</span>",
		"response": null,
		"trial_part": "fixation",
		"trial_type": "html-keyboard-response",
		"trial_index": 295,
		"time_elapsed": 1715254,
		"internal_node_id": "0.0-3.0-0.238-0.238"
	},
	{
		"rt": 5841,
		"stimulus": "<span style=\"font-size:30px; font-family: monospace\">Caiu</span>",
		"response": " ",
		"trial": "exp-sent",
		"word": "Caiu",
		"trial_type": "html-keyboard-response",
		"trial_index": 296,
		"time_elapsed": 1721346,
		"internal_node_id": "0.0-3.0-1.238"
	},
	{
		"rt": 2742,
		"stimulus": "<span style=\"font-size:30px; font-family: monospace\">algo</span>",
		"response": " ",
		"trial": "exp-sent",
		"word": "algo",
		"trial_type": "html-keyboard-response",
		"trial_index": 297,
		"time_elapsed": 1724338,
		"internal_node_id": "0.0-3.0-1.239"
	},
	{
		"rt": 2020,
		"stimulus": "<span style=\"font-size:30px; font-family: monospace\">no</span>",
		"response": " ",
		"trial": "exp-sent",
		"word": "no",
		"trial_type": "html-keyboard-response",
		"trial_index": 298,
		"time_elapsed": 1726610,
		"internal_node_id": "0.0-3.0-1.240"
	},
	{
		"rt": 4021,
		"stimulus": "<span style=\"font-size:30px; font-family: monospace\">meu</span>",
		"response": " ",
		"trial": "exp-sent",
		"word": "meu",
		"trial_type": "html-keyboard-response",
		"trial_index": 299,
		"time_elapsed": 1730882,
		"internal_node_id": "0.0-3.0-1.241"
	},
	{
		"rt": 4901,
		"stimulus": "<span style=\"font-size:30px; font-family: monospace\">olho</span>",
		"response": " ",
		"trial": "exp-sent",
		"word": "olho",
		"trial_type": "html-keyboard-response",
		"trial_index": 300,
		"time_elapsed": 1736034,
		"internal_node_id": "0.0-3.0-1.242"
	},
	{
		"rt": 2725,
		"stimulus": "<span style=\"font-size:30px; font-family: monospace\">ontem</span>",
		"response": " ",
		"trial": "exp-sent",
		"word": "ontem",
		"trial_type": "html-keyboard-response",
		"trial_index": 301,
		"time_elapsed": 1739010,
		"internal_node_id": "0.0-3.0-1.243"
	},
	{
		"rt": 2373,
		"stimulus": "<span style=\"font-size:30px; font-family: monospace\">de</span>",
		"response": " ",
		"trial": "exp-sent",
		"word": "de",
		"trial_type": "html-keyboard-response",
		"trial_index": 302,
		"time_elapsed": 1741634,
		"internal_node_id": "0.0-3.0-1.244"
	},
	{
		"rt": 9893,
		"stimulus": "<span style=\"font-size:30px; font-family: monospace\">tarde.</span>",
		"response": " ",
		"trial": "exp-sent",
		"word": "tarde.",
		"trial_type": "html-keyboard-response",
		"trial_index": 303,
		"time_elapsed": 1751778,
		"internal_node_id": "0.0-3.0-1.245"
	},
	{
		"rt": null,
		"stimulus": "<span style= \"font-size:30px; font-family: monospace\">+</span>",
		"response": null,
		"trial_part": "fixation",
		"trial_type": "html-keyboard-response",
		"trial_index": 304,
		"time_elapsed": 1753032,
		"internal_node_id": "0.0-3.0-0.246-0.246"
	},
	{
		"rt": 3648,
		"stimulus": "<span style=\"font-size:30px; font-family: monospace\">Não</span>",
		"response": " ",
		"trial": "exp-sent",
		"word": "Não",
		"trial_type": "html-keyboard-response",
		"trial_index": 305,
		"time_elapsed": 1756930,
		"internal_node_id": "0.0-3.0-1.246"
	},
	{
		"rt": 3141,
		"stimulus": "<span style=\"font-size:30px; font-family: monospace\">havia</span>",
		"response": " ",
		"trial": "exp-sent",
		"word": "havia",
		"trial_type": "html-keyboard-response",
		"trial_index": 306,
		"time_elapsed": 1760322,
		"internal_node_id": "0.0-3.0-1.247"
	},
	{
		"rt": 2501,
		"stimulus": "<span style=\"font-size:30px; font-family: monospace\">mais</span>",
		"response": " ",
		"trial": "exp-sent",
		"word": "mais",
		"trial_type": "html-keyboard-response",
		"trial_index": 307,
		"time_elapsed": 1763074,
		"internal_node_id": "0.0-3.0-1.248"
	},
	{
		"rt": 2693,
		"stimulus": "<span style=\"font-size:30px; font-family: monospace\">nenhum</span>",
		"response": " ",
		"trial": "exp-sent",
		"word": "nenhum",
		"trial_type": "html-keyboard-response",
		"trial_index": 308,
		"time_elapsed": 1766018,
		"internal_node_id": "0.0-3.0-1.249"
	},
	{
		"rt": 3333,
		"stimulus": "<span style=\"font-size:30px; font-family: monospace\">ingresso</span>",
		"response": " ",
		"trial": "exp-sent",
		"word": "ingresso",
		"trial_type": "html-keyboard-response",
		"trial_index": 309,
		"time_elapsed": 1769602,
		"internal_node_id": "0.0-3.0-1.250"
	},
	{
		"rt": 2278,
		"stimulus": "<span style=\"font-size:30px; font-family: monospace\">para</span>",
		"response": " ",
		"trial": "exp-sent",
		"word": "para",
		"trial_type": "html-keyboard-response",
		"trial_index": 310,
		"time_elapsed": 1772130,
		"internal_node_id": "0.0-3.0-1.251"
	},
	{
		"rt": 1189,
		"stimulus": "<span style=\"font-size:30px; font-family: monospace\">o</span>",
		"response": " ",
		"trial": "exp-sent",
		"word": "o",
		"trial_type": "html-keyboard-response",
		"trial_index": 311,
		"time_elapsed": 1773570,
		"internal_node_id": "0.0-3.0-1.252"
	},
	{
		"rt": 8309,
		"stimulus": "<span style=\"font-size:30px; font-family: monospace\">evento.</span>",
		"response": " ",
		"trial": "exp-sent",
		"word": "evento.",
		"trial_type": "html-keyboard-response",
		"trial_index": 312,
		"time_elapsed": 1782130,
		"internal_node_id": "0.0-3.0-1.253"
	},
	{
		"rt": null,
		"stimulus": "<span style= \"font-size:30px; font-family: monospace\">+</span>",
		"response": null,
		"trial_part": "fixation",
		"trial_type": "html-keyboard-response",
		"trial_index": 313,
		"time_elapsed": 1783381,
		"internal_node_id": "0.0-3.0-0.254-0.254"
	},
	{
		"rt": 2610,
		"stimulus": "<span style=\"font-size:30px; font-family: monospace\">A</span>",
		"response": " ",
		"trial": "exp-sent",
		"word": "A",
		"trial_type": "html-keyboard-response",
		"trial_index": 314,
		"time_elapsed": 1786242,
		"internal_node_id": "0.0-3.0-1.254"
	},
	{
		"rt": 3909,
		"stimulus": "<span style=\"font-size:30px; font-family: monospace\">médica</span>",
		"response": " ",
		"trial": "exp-sent",
		"word": "médica",
		"trial_type": "html-keyboard-response",
		"trial_index": 315,
		"time_elapsed": 1790402,
		"internal_node_id": "0.0-3.0-1.255"
	},
	{
		"rt": 2645,
		"stimulus": "<span style=\"font-size:30px; font-family: monospace\">descobriu</span>",
		"response": " ",
		"trial": "exp-sent",
		"word": "descobriu",
		"trial_type": "html-keyboard-response",
		"trial_index": 316,
		"time_elapsed": 1793298,
		"internal_node_id": "0.0-3.0-1.256"
	},
	{
		"rt": 2356,
		"stimulus": "<span style=\"font-size:30px; font-family: monospace\">uma</span>",
		"response": " ",
		"trial": "exp-sent",
		"word": "uma",
		"trial_type": "html-keyboard-response",
		"trial_index": 317,
		"time_elapsed": 1795906,
		"internal_node_id": "0.0-3.0-1.257"
	},
	{
		"rt": 3748,
		"stimulus": "<span style=\"font-size:30px; font-family: monospace\">cura</span>",
		"response": " ",
		"trial": "exp-sent",
		"word": "cura",
		"trial_type": "html-keyboard-response",
		"trial_index": 318,
		"time_elapsed": 1799906,
		"internal_node_id": "0.0-3.0-1.258"
	},
	{
		"rt": 4149,
		"stimulus": "<span style=\"font-size:30px; font-family: monospace\">para</span>",
		"response": " ",
		"trial": "exp-sent",
		"word": "para",
		"trial_type": "html-keyboard-response",
		"trial_index": 319,
		"time_elapsed": 1804306,
		"internal_node_id": "0.0-3.0-1.259"
	},
	{
		"rt": 1604,
		"stimulus": "<span style=\"font-size:30px; font-family: monospace\">a</span>",
		"response": " ",
		"trial": "exp-sent",
		"word": "a",
		"trial_type": "html-keyboard-response",
		"trial_index": 320,
		"time_elapsed": 1806162,
		"internal_node_id": "0.0-3.0-1.260"
	},
	{
		"rt": 37301,
		"stimulus": "<span style=\"font-size:30px; font-family: monospace\">doença.</span>",
		"response": " ",
		"trial": "exp-sent",
		"word": "doença.",
		"trial_type": "html-keyboard-response",
		"trial_index": 321,
		"time_elapsed": 1843714,
		"internal_node_id": "0.0-3.0-1.261"
	},
	{
		"rt": null,
		"stimulus": "<span style= \"font-size:30px; font-family: monospace\">+</span>",
		"response": null,
		"trial_part": "fixation",
		"trial_type": "html-keyboard-response",
		"trial_index": 322,
		"time_elapsed": 1844966,
		"internal_node_id": "0.0-3.0-0.262-0.262"
	},
	{
		"rt": 2546,
		"stimulus": "<span style=\"font-size:30px; font-family: monospace\">O</span>",
		"response": " ",
		"trial": "exp-sent",
		"word": "O",
		"trial_type": "html-keyboard-response",
		"trial_index": 323,
		"time_elapsed": 1847762,
		"internal_node_id": "0.0-3.0-1.262"
	},
	{
		"rt": 3045,
		"stimulus": "<span style=\"font-size:30px; font-family: monospace\">menino</span>",
		"response": " ",
		"trial": "exp-sent",
		"word": "menino",
		"trial_type": "html-keyboard-response",
		"trial_index": 324,
		"time_elapsed": 1851058,
		"internal_node_id": "0.0-3.0-1.263"
	},
	{
		"rt": 6853,
		"stimulus": "<span style=\"font-size:30px; font-family: monospace\">riscou</span>",
		"response": " ",
		"trial": "exp-sent",
		"word": "riscou",
		"trial_type": "html-keyboard-response",
		"trial_index": 325,
		"time_elapsed": 1858162,
		"internal_node_id": "0.0-3.0-1.264"
	},
	{
		"rt": 2901,
		"stimulus": "<span style=\"font-size:30px; font-family: monospace\">o</span>",
		"response": " ",
		"trial": "exp-sent",
		"word": "o",
		"trial_type": "html-keyboard-response",
		"trial_index": 326,
		"time_elapsed": 1861314,
		"internal_node_id": "0.0-3.0-1.265"
	},
	{
		"rt": 3509,
		"stimulus": "<span style=\"font-size:30px; font-family: monospace\">caderno</span>",
		"response": " ",
		"trial": "exp-sent",
		"word": "caderno",
		"trial_type": "html-keyboard-response",
		"trial_index": 327,
		"time_elapsed": 1865074,
		"internal_node_id": "0.0-3.0-1.266"
	},
	{
		"rt": 3157,
		"stimulus": "<span style=\"font-size:30px; font-family: monospace\">com</span>",
		"response": " ",
		"trial": "exp-sent",
		"word": "com",
		"trial_type": "html-keyboard-response",
		"trial_index": 328,
		"time_elapsed": 1868482,
		"internal_node_id": "0.0-3.0-1.267"
	},
	{
		"rt": 1797,
		"stimulus": "<span style=\"font-size:30px; font-family: monospace\">a</span>",
		"response": " ",
		"trial": "exp-sent",
		"word": "a",
		"trial_type": "html-keyboard-response",
		"trial_index": 329,
		"time_elapsed": 1870530,
		"internal_node_id": "0.0-3.0-1.268"
	},
	{
		"rt": 22084,
		"stimulus": "<span style=\"font-size:30px; font-family: monospace\">caneta.</span>",
		"response": " ",
		"trial": "comp",
		"word": "caneta.",
		"trial_type": "html-keyboard-response",
		"trial_index": 330,
		"time_elapsed": 1892865,
		"internal_node_id": "0.0-3.0-1.269"
	},
	{
		"rt": 26293,
		"stimulus": "<span style=\"font-size:30px; font-family: monospace\">O menino riscou a parede com a caneta?</span>",
		"response": "s",
		"question": "O menino riscou a parede com a caneta?",
		"answer": "não",
		"trial": "comp",
		"trial_type": "html-keyboard-response",
		"trial_index": 331,
		"time_elapsed": 1919410,
		"internal_node_id": "0.0-3.0-2.269-0.269",
		"accuracy": false
	},
	{
		"rt": null,
		"stimulus": "<span style= \"font-size:30px; font-family: monospace\">+</span>",
		"response": null,
		"trial_part": "fixation",
		"trial_type": "html-keyboard-response",
		"trial_index": 332,
		"time_elapsed": 1920911,
		"internal_node_id": "0.0-3.0-0.270-0.270"
	},
	{
		"rt": 5591,
		"stimulus": "<span style=\"font-size:30px; font-family: monospace\">A</span>",
		"response": " ",
		"trial": "exp-sent",
		"word": "A",
		"trial_type": "html-keyboard-response",
		"trial_index": 333,
		"time_elapsed": 1926753,
		"internal_node_id": "0.0-3.0-1.270"
	},
	{
		"rt": 2645,
		"stimulus": "<span style=\"font-size:30px; font-family: monospace\">senhora</span>",
		"response": " ",
		"trial": "exp-sent",
		"word": "senhora",
		"trial_type": "html-keyboard-response",
		"trial_index": 334,
		"time_elapsed": 1929649,
		"internal_node_id": "0.0-3.0-1.271"
	},
	{
		"rt": 5172,
		"stimulus": "<span style=\"font-size:30px; font-family: monospace\">cumprimentou</span>",
		"response": " ",
		"trial": "exp-sent",
		"word": "cumprimentou",
		"trial_type": "html-keyboard-response",
		"trial_index": 335,
		"time_elapsed": 1935074,
		"internal_node_id": "0.0-3.0-1.272"
	},
	{
		"rt": 3093,
		"stimulus": "<span style=\"font-size:30px; font-family: monospace\">o</span>",
		"response": " ",
		"trial": "exp-sent",
		"word": "o",
		"trial_type": "html-keyboard-response",
		"trial_index": 336,
		"time_elapsed": 1938418,
		"internal_node_id": "0.0-3.0-1.273"
	},
	{
		"rt": 1782,
		"stimulus": "<span style=\"font-size:30px; font-family: monospace\">operador</span>",
		"response": " ",
		"trial": "exp-sent",
		"word": "operador",
		"trial_type": "html-keyboard-response",
		"trial_index": 337,
		"time_elapsed": 1940450,
		"internal_node_id": "0.0-3.0-1.274"
	},
	{
		"rt": 5269,
		"stimulus": "<span style=\"font-size:30px; font-family: monospace\">de</span>",
		"response": " ",
		"trial": "exp-sent",
		"word": "de",
		"trial_type": "html-keyboard-response",
		"trial_index": 338,
		"time_elapsed": 1945970,
		"internal_node_id": "0.0-3.0-1.275"
	},
	{
