"view_history","rt","trial_type","trial_index","time_elapsed","internal_node_id","stimulus","response","class","status","answer","correct","trial","letters"
"[{""page_index"":0,""viewing_time"":24875}]","24875","instructions","0","24876","0.0-0.0","","","","","","","",""
"","null","html-keyboard-response","1","25505","0.0-1.0-0.0","+","null","","","","","",""
"","7219","html-keyboard-response","2","32724","0.0-1.0-1.0","órgão","s","null","noncog","word","S","prac","null"
"","null","html-keyboard-response","3","33224","0.0-1.0-0.1","+","null","","","","","",""
"","4123","html-keyboard-response","4","37348","0.0-1.0-1.1","crante","s","null","noncog","pseudo","N","prac","null"
"","null","html-keyboard-response","5","37849","0.0-1.0-0.2","+","null","","","","","",""
"","3019","html-keyboard-response","6","40868","0.0-1.0-1.2","oliva","s","null","cog","word","S","prac","null"
"","null","html-keyboard-response","7","41369","0.0-1.0-0.3","+","null","","","","","",""
"","4267","html-keyboard-response","8","45636","0.0-1.0-1.3","calmaria","s","null","noncog","word","S","prac","null"
"","null","html-keyboard-response","9","46137","0.0-1.0-0.4","+","null","","","","","",""
"","4282","html-keyboard-response","10","50420","0.0-1.0-1.4","chassi","s","null","cog","word","S","prac","null"
"","null","html-keyboard-response","11","50930","0.0-1.0-0.5","+","null","","","","","",""
"","4161","html-keyboard-response","12","55092","0.0-1.0-1.5","daja","n","null","noncog","pseudo","N","prac","null"
"","null","html-keyboard-response","13","55592","0.0-1.0-0.6","+","null","","","","","",""
"","2507","html-keyboard-response","14","58100","0.0-1.0-1.6","plibar","s","null","noncog","pseudo","N","prac","null"
"[{""page_index"":0,""viewing_time"":29360}]","29360","instructions","15","87460","0.0-2.0","","","","","","","",""
"","null","html-keyboard-response","16","88063","0.0-3.0-0.0","+","null","","","","","",""
"","2165","html-keyboard-response","17","90228","0.0-3.0-1.0","manfa","n","null","noncog","pseudo","N","exp","null"
"","null","html-keyboard-response","18","90730","0.0-3.0-0.1","+","null","","","","","",""
"","5689","html-keyboard-response","19","96420","0.0-3.0-1.1","plinta","s","null","noncog","pseudo","N","exp","null"
"","null","html-keyboard-response","20","96920","0.0-3.0-0.2","+","null","","","","","",""
"","3419","html-keyboard-response","21","100340","0.0-3.0-1.2","cinema","s","n","cog","word","S","exp","6"
"","null","html-keyboard-response","22","100842","0.0-3.0-0.3","+","null","","","","","",""
"","2026","html-keyboard-response","23","102868","0.0-3.0-1.3","cerca","s","n","noncog","word","S","exp","5"
"","null","html-keyboard-response","24","103369","0.0-3.0-0.4","+","null","","","","","",""
"","2618","html-keyboard-response","25","105988","0.0-3.0-1.4","gertas","s","null","noncog","pseudo","N","exp","null"
"","null","html-keyboard-response","26","106489","0.0-3.0-0.5","+","null","","","","","",""
"","2794","html-keyboard-response","27","109284","0.0-3.0-1.5","esprotiar","s","null","noncog","pseudo","N","exp","null"
"","null","html-keyboard-response","28","109784","0.0-3.0-0.6","+","null","","","","","",""
"","2667","html-keyboard-response","29","112452","0.0-3.0-1.6","ronronar","s","v","cog","word","S","exp","8"
"","null","html-keyboard-response","30","112954","0.0-3.0-0.7","+","null","","","","","",""
"","1977","html-keyboard-response","31","114931","0.0-3.0-1.7","oricia","s","null","noncog","pseudo","N","exp","null"
"","null","html-keyboard-response","32","115432","0.0-3.0-0.8","+","null","","","","","",""
"","1931","html-keyboard-response","33","117364","0.0-3.0-1.8","medalha","s","n","cog","word","S","exp","7"
"","null","html-keyboard-response","34","117865","0.0-3.0-0.9","+","null","","","","","",""
"","1482","html-keyboard-response","35","119348","0.0-3.0-1.9","atrasar","s","v","noncog","word","S","exp","7"
"","null","html-keyboard-response","36","119848","0.0-3.0-0.10","+","null","","","","","",""
"","1371","html-keyboard-response","37","121220","0.0-3.0-1.10","grave","s","a","cog","word","S","exp","5"
"","null","html-keyboard-response","38","121731","0.0-3.0-0.11","+","null","","","","","",""
"","1248","html-keyboard-response","39","122980","0.0-3.0-1.11","cristal","s","n","cog","word","S","exp","7"
"","null","html-keyboard-response","40","123481","0.0-3.0-0.12","+","null","","","","","",""
"","1242","html-keyboard-response","41","124724","0.0-3.0-1.12","tronca","s","null","noncog","pseudo","N","exp","null"
"","null","html-keyboard-response","42","125225","0.0-3.0-0.13","+","null","","","","","",""
"","2026","html-keyboard-response","43","127252","0.0-3.0-1.13","nevela","s","null","noncog","pseudo","N","exp","null"
"","null","html-keyboard-response","44","127753","0.0-3.0-0.14","+","null","","","","","",""
"","1306","html-keyboard-response","45","129060","0.0-3.0-1.14","afual","s","null","noncog","pseudo","N","exp","null"
"","null","html-keyboard-response","46","129561","0.0-3.0-0.15","+","null","","","","","",""
"","3162","html-keyboard-response","47","132724","0.0-3.0-1.15","telafonir","s","null","noncog","pseudo","N","exp","null"
"","null","html-keyboard-response","48","133225","0.0-3.0-0.16","+","null","","","","","",""
"","1819","html-keyboard-response","49","135044","0.0-3.0-1.16","selir","s","null","noncog","pseudo","N","exp","null"
"","null","html-keyboard-response","50","135546","0.0-3.0-0.17","+","null","","","","","",""
"","1353","html-keyboard-response","51","136900","0.0-3.0-1.17","civil","s","a","cog","word","S","exp","5"
"","null","html-keyboard-response","52","137401","0.0-3.0-0.18","+","null","","","","","",""
"","1866","html-keyboard-response","53","139268","0.0-3.0-1.18","oper","s","null","noncog","pseudo","N","exp","null"
"","null","html-keyboard-response","54","139769","0.0-3.0-0.19","+","null","","","","","",""
"","1531","html-keyboard-response","55","141300","0.0-3.0-1.19","filme","s","n","cog","word","S","exp","5"
"","null","html-keyboard-response","56","141800","0.0-3.0-0.20","+","null","","","","","",""
"","2139","html-keyboard-response","57","143940","0.0-3.0-1.20","bagunceira","s","a","noncog","word","S","exp","10"
"","null","html-keyboard-response","58","144441","0.0-3.0-0.21","+","null","","","","","",""
"","1610","html-keyboard-response","59","146052","0.0-3.0-1.21","mua","s","null","noncog","pseudo","N","exp","null"
"","null","html-keyboard-response","60","146553","0.0-3.0-0.22","+","null","","","","","",""
"","1722","html-keyboard-response","61","148276","0.0-3.0-1.22","bambu","s","n","cog","word","S","exp","5"
"","null","html-keyboard-response","62","148777","0.0-3.0-0.23","+","null","","","","","",""
"","1578","html-keyboard-response","63","150356","0.0-3.0-1.23","prantal","s","null","noncog","pseudo","N","exp","null"
"","null","html-keyboard-response","64","150869","0.0-3.0-0.24","+","null","","","","","",""
"","1854","html-keyboard-response","65","152724","0.0-3.0-1.24","tatear","s","v","cog","word","S","exp","6"
"","null","html-keyboard-response","66","153225","0.0-3.0-0.25","+","null","","","","","",""
"","1738","html-keyboard-response","67","154963","0.0-3.0-1.25","pitada","s","n","noncog","word","S","exp","6"
"","null","html-keyboard-response","68","155465","0.0-3.0-0.26","+","null","","","","","",""
"","1866","html-keyboard-response","69","157332","0.0-3.0-1.26","fofo","s","a","noncog","word","S","exp","4"
"","null","html-keyboard-response","70","157832","0.0-3.0-0.27","+","null","","","","","",""
"","1355","html-keyboard-response","71","159187","0.0-3.0-1.27","nervoso","s","a","noncog","word","S","exp","7"
"","null","html-keyboard-response","72","159689","0.0-3.0-0.28","+","null","","","","","",""
"","1322","html-keyboard-response","73","161012","0.0-3.0-1.28","gordo","s","a","noncog","word","S","exp","5"
"","null","html-keyboard-response","74","161512","0.0-3.0-0.29","+","null","","","","","",""
"","1355","html-keyboard-response","75","162868","0.0-3.0-1.29","lorfaz","s","null","noncog","pseudo","N","exp","null"
"","null","html-keyboard-response","76","163369","0.0-3.0-0.30","+","null","","","","","",""
"","1834","html-keyboard-response","77","165204","0.0-3.0-1.30","orupas","s","null","noncog","pseudo","N","exp","null"
"","null","html-keyboard-response","78","165705","0.0-3.0-0.31","+","null","","","","","",""
"","1850","html-keyboard-response","79","167556","0.0-3.0-1.31","memória","s","n","cog","word","S","exp","7"
"","null","html-keyboard-response","80","168056","0.0-3.0-0.32","+","null","","","","","",""
"","1291","html-keyboard-response","81","169347","0.0-3.0-1.32","areia","s","n","noncog","word","S","exp","5"
"","null","html-keyboard-response","82","169849","0.0-3.0-0.33","+","null","","","","","",""
"","1578","html-keyboard-response","83","171427","0.0-3.0-1.33","bancada","s","n","noncog","word","S","exp","7"
"","null","html-keyboard-response","84","171929","0.0-3.0-0.34","+","null","","","","","",""
"","1578","html-keyboard-response","85","173507","0.0-3.0-1.34","chato","s","n","noncog","word","S","exp","5"
"","null","html-keyboard-response","86","174009","0.0-3.0-0.35","+","null","","","","","",""
"","1450","html-keyboard-response","87","175460","0.0-3.0-1.35","animado","s","a","noncog","word","S","exp","7"
"","null","html-keyboard-response","88","175960","0.0-3.0-0.36","+","null","","","","","",""
"","1450","html-keyboard-response","89","177411","0.0-3.0-1.36","risbos","s","null","noncog","pseudo","N","exp","null"
"","null","html-keyboard-response","90","177912","0.0-3.0-0.37","+","null","","","","","",""
"","1595","html-keyboard-response","91","179508","0.0-3.0-1.37","carona","s","n","noncog","word","S","exp","6"
"","null","html-keyboard-response","92","180010","0.0-3.0-0.38","+","null","","","","","",""
"","1641","html-keyboard-response","93","181651","0.0-3.0-1.38","alfabeto","s","n","cog","word","S","exp","8"
"","null","html-keyboard-response","94","182152","0.0-3.0-0.39","+","null","","","","","",""
"","4187","html-keyboard-response","95","186340","0.0-3.0-1.39","francês","s","a","cog","word","S","exp","7"
"","null","html-keyboard-response","96","186840","0.0-3.0-0.40","+","null","","","","","",""
"","1691","html-keyboard-response","97","188532","0.0-3.0-1.40","sintonizar","s","v","noncog","word","S","exp","10"
"","null","html-keyboard-response","98","189033","0.0-3.0-0.41","+","null","","","","","",""
"","1258","html-keyboard-response","99","190291","0.0-3.0-1.41","trabalhar","s","v","noncog","word","S","exp","9"
"","null","html-keyboard-response","100","190792","0.0-3.0-0.42","+","null","","","","","",""
"","2618","html-keyboard-response","101","193411","0.0-3.0-1.42","casuas","s","null","noncog","pseudo","N","exp","null"
"","null","html-keyboard-response","102","193912","0.0-3.0-0.43","+","null","","","","","",""
"","1339","html-keyboard-response","103","195251","0.0-3.0-1.43","agressivo","s","a","cog","word","S","exp","9"
"","null","html-keyboard-response","104","195753","0.0-3.0-0.44","+","null","","","","","",""
"","2394","html-keyboard-response","105","198148","0.0-3.0-1.44","conjerto","s","null","noncog","pseudo","N","exp","null"
"","null","html-keyboard-response","106","198648","0.0-3.0-0.45","+","null","","","","","",""
"","1595","html-keyboard-response","107","200244","0.0-3.0-1.45","cirado","s","null","noncog","pseudo","N","exp","null"
"","null","html-keyboard-response","108","200745","0.0-3.0-0.46","+","null","","","","","",""
"","1755","html-keyboard-response","109","202500","0.0-3.0-1.46","chorão","s","a","noncog","word","S","exp","6"
"","null","html-keyboard-response","110","203001","0.0-3.0-0.47","+","null","","","","","",""
"","1402","html-keyboard-response","111","204403","0.0-3.0-1.47","anjo","s","n","cog","word","S","exp","4"
"","null","html-keyboard-response","112","204904","0.0-3.0-0.48","+","null","","","","","",""
"","1451","html-keyboard-response","113","206355","0.0-3.0-1.48","bachir","s","null","noncog","pseudo","N","exp","null"
"","null","html-keyboard-response","114","206856","0.0-3.0-0.49","+","null","","","","","",""
"","3402","html-keyboard-response","115","210259","0.0-3.0-1.49","usfiga","s","null","noncog","pseudo","N","exp","null"
"","null","html-keyboard-response","116","210761","0.0-3.0-0.50","+","null","","","","","",""
"","1130","html-keyboard-response","117","211891","0.0-3.0-1.50","dia","s","n","noncog","word","S","exp","3"
"","null","html-keyboard-response","118","212394","0.0-3.0-0.51","+","null","","","","","",""
"","1337","html-keyboard-response","119","213731","0.0-3.0-1.51","jastor","s","null","noncog","pseudo","N","exp","null"
"","null","html-keyboard-response","120","214232","0.0-3.0-0.52","+","null","","","","","",""
"","1915","html-keyboard-response","121","216147","0.0-3.0-1.52","extravagante","s","a","cog","word","S","exp","12"
"","null","html-keyboard-response","122","216648","0.0-3.0-0.53","+","null","","","","","",""
"","1659","html-keyboard-response","123","218307","0.0-3.0-1.53","alpica","s","null","noncog","pseudo","N","exp","null"
"","null","html-keyboard-response","124","218814","0.0-3.0-0.54","+","null","","","","","",""
"","2629","html-keyboard-response","125","221444","0.0-3.0-1.54","delomir","s","null","noncog","pseudo","N","exp","null"
"","null","html-keyboard-response","126","221945","0.0-3.0-0.55","+","null","","","","","",""
"","1738","html-keyboard-response","127","223683","0.0-3.0-1.55","independente","s","a","noncog","word","S","exp","12"
"","null","html-keyboard-response","128","224184","0.0-3.0-0.56","+","null","","","","","",""
"","1787","html-keyboard-response","129","225971","0.0-3.0-1.56","lagoa","s","n","cog","word","S","exp","5"
"","null","html-keyboard-response","130","226472","0.0-3.0-0.57","+","null","","","","","",""
"","1915","html-keyboard-response","131","228387","0.0-3.0-1.57","frotes","s","null","noncog","pseudo","N","exp","null"
"","null","html-keyboard-response","132","228888","0.0-3.0-0.58","+","null","","","","","",""
"","2427","html-keyboard-response","133","231315","0.0-3.0-1.58","aletiê","s","null","noncog","pseudo","N","exp","null"
"","null","html-keyboard-response","134","231817","0.0-3.0-0.59","+","null","","","","","",""
"","1466","html-keyboard-response","135","233283","0.0-3.0-1.59","mal","s","a","cog","word","S","exp","3"
"","null","html-keyboard-response","136","233784","0.0-3.0-0.60","+","null","","","","","",""
"","1915","html-keyboard-response","137","235699","0.0-3.0-1.60","pangos","s","null","noncog","pseudo","N","exp","null"
"","null","html-keyboard-response","138","236201","0.0-3.0-0.61","+","null","","","","","",""
"","3434","html-keyboard-response","139","239635","0.0-3.0-1.61","enedro","s","null","noncog","pseudo","N","exp","null"
"","null","html-keyboard-response","140","240136","0.0-3.0-0.62","+","null","","","","","",""
"","1354","html-keyboard-response","141","241491","0.0-3.0-1.62","prenas","s","null","noncog","pseudo","N","exp","null"
"","null","html-keyboard-response","142","241992","0.0-3.0-0.63","+","null","","","","","",""
"","1851","html-keyboard-response","143","243843","0.0-3.0-1.63","distraído","s","a","cog","word","S","exp","9"
"","null","html-keyboard-response","144","244345","0.0-3.0-0.64","+","null","","","","","",""
"","1402","html-keyboard-response","145","245747","0.0-3.0-1.64","verdade","s","n","cog","word","S","exp","7"
"","null","html-keyboard-response","146","246248","0.0-3.0-0.65","+","null","","","","","",""
"","2395","html-keyboard-response","147","248643","0.0-3.0-1.65","arranjar","s","v","cog","word","S","exp","8"
"","null","html-keyboard-response","148","249144","0.0-3.0-0.66","+","null","","","","","",""
"","1323","html-keyboard-response","149","250467","0.0-3.0-1.66","carro","s","n","noncog","word","S","exp","5"
"","null","html-keyboard-response","150","250968","0.0-3.0-0.67","+","null","","","","","",""
"","4395","html-keyboard-response","151","255363","0.0-3.0-1.67","dacada","n","null","noncog","pseudo","N","exp","null"
"","null","html-keyboard-response","152","255864","0.0-3.0-0.68","+","null","","","","","",""
"","1467","html-keyboard-response","153","257331","0.0-3.0-1.68","farcas","s","null","noncog","pseudo","N","exp","null"
"","null","html-keyboard-response","154","257832","0.0-3.0-0.69","+","null","","","","","",""
"","2570","html-keyboard-response","155","260403","0.0-3.0-1.69","aperor","s","null","noncog","pseudo","N","exp","null"
"","null","html-keyboard-response","156","260904","0.0-3.0-0.70","+","null","","","","","",""
"","1739","html-keyboard-response","157","262643","0.0-3.0-1.70","hipócrita","s","a","noncog","word","S","exp","9"
"","null","html-keyboard-response","158","263144","0.0-3.0-0.71","+","null","","","","","",""
"","2139","html-keyboard-response","159","265283","0.0-3.0-1.71","usnado","s","null","noncog","pseudo","N","exp","null"
"","null","html-keyboard-response","160","265784","0.0-3.0-0.72","+","null","","","","","",""
"","1498","html-keyboard-response","161","267283","0.0-3.0-1.72","delirar","s","v","noncog","word","S","exp","7"
"","null","html-keyboard-response","162","267784","0.0-3.0-0.73","+","null","","","","","",""
"","3898","html-keyboard-response","163","271683","0.0-3.0-1.73","hedoru","n","null","noncog","pseudo","N","exp","null"
"","null","html-keyboard-response","164","272184","0.0-3.0-0.74","+","null","","","","","",""
"","2059","html-keyboard-response","165","274243","0.0-3.0-1.74","rédesa","s","null","noncog","pseudo","N","exp","null"
"","null","html-keyboard-response","166","274757","0.0-3.0-0.75","+","null","","","","","",""
"","1422","html-keyboard-response","167","276179","0.0-3.0-1.75","fino","s","a","cog","word","S","exp","4"
"","null","html-keyboard-response","168","276681","0.0-3.0-0.76","+","null","","","","","",""
"","1530","html-keyboard-response","169","278211","0.0-3.0-1.76","sábio","s","n","noncog","word","S","exp","5"
"","null","html-keyboard-response","170","278712","0.0-3.0-0.77","+","null","","","","","",""
"","1323","html-keyboard-response","171","280035","0.0-3.0-1.77","aivões","s","null","noncog","pseudo","N","exp","null"
"","null","html-keyboard-response","172","280537","0.0-3.0-0.78","+","null","","","","","",""
"","1370","html-keyboard-response","173","281907","0.0-3.0-1.78","trair","s","v","cog","word","S","exp","5"
"","null","html-keyboard-response","174","282409","0.0-3.0-0.79","+","null","","","","","",""
"","1962","html-keyboard-response","175","284371","0.0-3.0-1.79","macras","s","null","noncog","pseudo","N","exp","null"
"","null","html-keyboard-response","176","284873","0.0-3.0-0.80","+","null","","","","","",""
"","1865","html-keyboard-response","177","286739","0.0-3.0-1.80","uchães","s","null","noncog","pseudo","N","exp","null"
"","null","html-keyboard-response","178","287241","0.0-3.0-0.81","+","null","","","","","",""
"","1562","html-keyboard-response","179","288803","0.0-3.0-1.81","fratos","s","null","noncog","pseudo","N","exp","null"
"","null","html-keyboard-response","180","289304","0.0-3.0-0.82","+","null","","","","","",""
"","1515","html-keyboard-response","181","290819","0.0-3.0-1.82","oecano","s","null","noncog","pseudo","N","exp","null"
"","null","html-keyboard-response","182","291321","0.0-3.0-0.83","+","null","","","","","",""
"","2266","html-keyboard-response","183","293587","0.0-3.0-1.83","candifência","s","null","noncog","pseudo","N","exp","null"
"","null","html-keyboard-response","184","294088","0.0-3.0-0.84","+","null","","","","","",""
"","1755","html-keyboard-response","185","295843","0.0-3.0-1.84","abieso","s","null","noncog","pseudo","N","exp","null"
"","null","html-keyboard-response","186","296345","0.0-3.0-0.85","+","null","","","","","",""
"","2090","html-keyboard-response","187","298435","0.0-3.0-1.85","morno","s","a","noncog","word","S","exp","5"
"","null","html-keyboard-response","188","298935","0.0-3.0-0.86","+","null","","","","","",""
"","1227","html-keyboard-response","189","300163","0.0-3.0-1.86","jantar","s","v","noncog","word","S","exp","6"
"","null","html-keyboard-response","190","300664","0.0-3.0-0.87","+","null","","","","","",""
"","1370","html-keyboard-response","191","302035","0.0-3.0-1.87","país","s","n","noncog","word","S","exp","4"
"","null","html-keyboard-response","192","302537","0.0-3.0-0.88","+","null","","","","","",""
"","2810","html-keyboard-response","193","305347","0.0-3.0-1.88","berquesa","s","null","noncog","pseudo","N","exp","null"
"","null","html-keyboard-response","194","305848","0.0-3.0-0.89","+","null","","","","","",""
"","2251","html-keyboard-response","195","308099","0.0-3.0-1.89","garastia","s","null","noncog","pseudo","N","exp","null"
"","null","html-keyboard-response","196","308601","0.0-3.0-0.90","+","null","","","","","",""
"","1354","html-keyboard-response","197","309955","0.0-3.0-1.90","tinta","s","n","cog","word","S","exp","5"
"","null","html-keyboard-response","198","310457","0.0-3.0-0.91","+","null","","","","","",""
"","3210","html-keyboard-response","199","313667","0.0-3.0-1.91","senareta","s","null","noncog","pseudo","N","exp","null"
"","null","html-keyboard-response","200","314169","0.0-3.0-0.92","+","null","","","","","",""
"","2186","html-keyboard-response","201","316355","0.0-3.0-1.92","enxerido","s","a","noncog","word","S","exp","8"
"","null","html-keyboard-response","202","316856","0.0-3.0-0.93","+","null","","","","","",""
"","1291","html-keyboard-response","203","318147","0.0-3.0-1.93","grátis","s","a","cog","word","S","exp","6"
"","null","html-keyboard-response","204","318648","0.0-3.0-0.94","+","null","","","","","",""
"","1818","html-keyboard-response","205","320467","0.0-3.0-1.94","resmungar","s","v","noncog","word","S","exp","9"
"","null","html-keyboard-response","206","320968","0.0-3.0-0.95","+","null","","","","","",""
"","5195","html-keyboard-response","207","326163","0.0-3.0-1.95","âgnulo","n","null","noncog","pseudo","N","exp","null"
"","null","html-keyboard-response","208","326664","0.0-3.0-0.96","+","null","","","","","",""
"","2011","html-keyboard-response","209","328675","0.0-3.0-1.96","sustentar","s","v","noncog","word","S","exp","9"
"","null","html-keyboard-response","210","329176","0.0-3.0-0.97","+","null","","","","","",""
"","2186","html-keyboard-response","211","331363","0.0-3.0-1.97","parceter","s","null","noncog","pseudo","N","exp","null"
"","null","html-keyboard-response","212","331865","0.0-3.0-0.98","+","null","","","","","",""
"","1834","html-keyboard-response","213","333699","0.0-3.0-1.98","ocinto","s","null","noncog","pseudo","N","exp","null"
"","null","html-keyboard-response","214","334200","0.0-3.0-0.99","+","null","","","","","",""
"","1210","html-keyboard-response","215","335411","0.0-3.0-1.99","verde","s","a","noncog","word","S","exp","5"
"","null","html-keyboard-response","216","335913","0.0-3.0-0.100","+","null","","","","","",""
"","2554","html-keyboard-response","217","338467","0.0-3.0-1.100","melão","s","n","cog","word","S","exp","5"
"","null","html-keyboard-response","218","338969","0.0-3.0-0.101","+","null","","","","","",""
"","1146","html-keyboard-response","219","340115","0.0-3.0-1.101","brincar","s","v","noncog","word","S","exp","7"
"","null","html-keyboard-response","220","340625","0.0-3.0-0.102","+","null","","","","","",""
"","1601","html-keyboard-response","221","342227","0.0-3.0-1.102","trenos","s","null","noncog","pseudo","N","exp","null"
"","null","html-keyboard-response","222","342728","0.0-3.0-0.103","+","null","","","","","",""
"","2522","html-keyboard-response","223","345251","0.0-3.0-1.103","pega-pega","s","n","noncog","word","S","exp","8"
"","null","html-keyboard-response","224","345752","0.0-3.0-0.104","+","null","","","","","",""
"","5259","html-keyboard-response","225","351011","0.0-3.0-1.104","promeção","n","null","noncog","pseudo","N","exp","null"
"","null","html-keyboard-response","226","351513","0.0-3.0-0.105","+","null","","","","","",""
"","1353","html-keyboard-response","227","352867","0.0-3.0-1.105","agravar","s","v","cog","word","S","exp","7"
"","null","html-keyboard-response","228","353369","0.0-3.0-0.106","+","null","","","","","",""
"","1321","html-keyboard-response","229","354691","0.0-3.0-1.106","espaço","s","n","cog","word","S","exp","6"
"","null","html-keyboard-response","230","355192","0.0-3.0-0.107","+","null","","","","","",""
"","1355","html-keyboard-response","231","356547","0.0-3.0-1.107","pimada","s","null","noncog","pseudo","N","exp","null"
"","null","html-keyboard-response","232","357048","0.0-3.0-0.108","+","null","","","","","",""
"","1659","html-keyboard-response","233","358707","0.0-3.0-1.108","espinho","s","n","noncog","word","S","exp","7"
"","null","html-keyboard-response","234","359208","0.0-3.0-0.109","+","null","","","","","",""
"","2058","html-keyboard-response","235","361267","0.0-3.0-1.109","sanque","s","null","noncog","pseudo","N","exp","null"
"","null","html-keyboard-response","236","361769","0.0-3.0-0.110","+","null","","","","","",""
"","1610","html-keyboard-response","237","363379","0.0-3.0-1.110","glória","s","n","cog","word","S","exp","6"
"","null","html-keyboard-response","238","363880","0.0-3.0-0.111","+","null","","","","","",""
"","3707","html-keyboard-response","239","367587","0.0-3.0-1.111","ideisa","s","null","noncog","pseudo","N","exp","null"
"","null","html-keyboard-response","240","368088","0.0-3.0-0.112","+","null","","","","","",""
"","3706","html-keyboard-response","241","371795","0.0-3.0-1.112","taberia","s","null","noncog","pseudo","N","exp","null"
"","null","html-keyboard-response","242","372296","0.0-3.0-0.113","+","null","","","","","",""
"","1355","html-keyboard-response","243","373651","0.0-3.0-1.113","drama","s","n","cog","word","S","exp","5"
"","null","html-keyboard-response","244","374152","0.0-3.0-0.114","+","null","","","","","",""
"","2650","html-keyboard-response","245","376803","0.0-3.0-1.114","pritas","s","null","noncog","pseudo","N","exp","null"
"","null","html-keyboard-response","246","377303","0.0-3.0-0.115","+","null","","","","","",""
"","5115","html-keyboard-response","247","382419","0.0-3.0-1.115","esfoce","s","null","noncog","pseudo","N","exp","null"
"","null","html-keyboard-response","248","382920","0.0-3.0-0.116","+","null","","","","","",""
"","2682","html-keyboard-response","249","385603","0.0-3.0-1.116","dilheira","s","null","noncog","pseudo","N","exp","null"
"","null","html-keyboard-response","250","386104","0.0-3.0-0.117","+","null","","","","","",""
"","1275","html-keyboard-response","251","387379","0.0-3.0-1.117","nome","s","n","cog","word","S","exp","4"
"","null","html-keyboard-response","252","387880","0.0-3.0-0.118","+","null","","","","","",""
"","1258","html-keyboard-response","253","389139","0.0-3.0-1.118","traduzir","s","v","cog","word","S","exp","8"
"","null","html-keyboard-response","254","389640","0.0-3.0-0.119","+","null","","","","","",""
"","1978","html-keyboard-response","255","391619","0.0-3.0-1.119","prever","s","v","cog","word","S","exp","6"
"","null","html-keyboard-response","256","392123","0.0-3.0-0.120","+","null","","","","","",""
"","1496","html-keyboard-response","257","393619","0.0-3.0-1.120","apontar","s","v","noncog","word","S","exp","7"
"","null","html-keyboard-response","258","394120","0.0-3.0-0.121","+","null","","","","","",""
"","3194","html-keyboard-response","259","397315","0.0-3.0-1.121","aemaça","n","null","noncog","pseudo","N","exp","null"
"","null","html-keyboard-response","260","397815","0.0-3.0-0.122","+","null","","","","","",""
"","4907","html-keyboard-response","261","402723","0.0-3.0-1.122","disbrituir","n","null","noncog","pseudo","N","exp","null"
"","null","html-keyboard-response","262","403223","0.0-3.0-0.123","+","null","","","","","",""
"","1739","html-keyboard-response","263","404963","0.0-3.0-1.123","refletir","s","v","cog","word","S","exp","8"
"","null","html-keyboard-response","264","405465","0.0-3.0-0.124","+","null","","","","","",""
"","4666","html-keyboard-response","265","410131","0.0-3.0-1.124","ênclio","s","null","noncog","pseudo","N","exp","null"
"","null","html-keyboard-response","266","410633","0.0-3.0-0.125","+","null","","","","","",""
"","1658","html-keyboard-response","267","412291","0.0-3.0-1.125","gruja","s","null","noncog","pseudo","N","exp","null"
"","null","html-keyboard-response","268","412792","0.0-3.0-0.126","+","null","","","","","",""
"","1403","html-keyboard-response","269","414195","0.0-3.0-1.126","tímido","s","a","cog","word","S","exp","6"
"","null","html-keyboard-response","270","414696","0.0-3.0-0.127","+","null","","","","","",""
"","1914","html-keyboard-response","271","416611","0.0-3.0-1.127","cravo","s","n","noncog","word","S","exp","5"
"","null","html-keyboard-response","272","417112","0.0-3.0-0.128","+","null","","","","","",""
"","2490","html-keyboard-response","273","419603","0.0-3.0-1.128","lapestra","s","null","noncog","pseudo","N","exp","null"
"","null","html-keyboard-response","274","420104","0.0-3.0-0.129","+","null","","","","","",""
"","5226","html-keyboard-response","275","425331","0.0-3.0-1.129","pneucania","s","null","noncog","pseudo","N","exp","null"
"","null","html-keyboard-response","276","425831","0.0-3.0-0.130","+","null","","","","","",""
"","1884","html-keyboard-response","277","427715","0.0-3.0-1.130","mania","s","n","cog","word","S","exp","5"
"","null","html-keyboard-response","278","428216","0.0-3.0-0.131","+","null","","","","","",""
"","2442","html-keyboard-response","279","430659","0.0-3.0-1.131","ilhure","n","null","noncog","pseudo","N","exp","null"
"","null","html-keyboard-response","280","431160","0.0-3.0-0.132","+","null","","","","","",""
"","2539","html-keyboard-response","281","433699","0.0-3.0-1.132","atitro","s","null","noncog","pseudo","N","exp","null"
"","null","html-keyboard-response","282","434201","0.0-3.0-0.133","+","null","","","","","",""
"","2826","html-keyboard-response","283","437027","0.0-3.0-1.133","morija","s","null","noncog","pseudo","N","exp","null"
"","null","html-keyboard-response","284","437537","0.0-3.0-0.134","+","null","","","","","",""
"","2898","html-keyboard-response","285","440435","0.0-3.0-1.134","enxarto","s","null","noncog","pseudo","N","exp","null"
"","null","html-keyboard-response","286","440936","0.0-3.0-0.135","+","null","","","","","",""
"","3066","html-keyboard-response","287","444003","0.0-3.0-1.135","filosofia","s","n","cog","word","S","exp","9"
"","null","html-keyboard-response","288","444503","0.0-3.0-0.136","+","null","","","","","",""
"","3003","html-keyboard-response","289","447507","0.0-3.0-1.136","braras","s","null","noncog","pseudo","N","exp","null"
"","null","html-keyboard-response","290","448007","0.0-3.0-0.137","+","null","","","","","",""
"","1371","html-keyboard-response","291","449379","0.0-3.0-1.137","pedaço","s","n","noncog","word","S","exp","6"
"","null","html-keyboard-response","292","449880","0.0-3.0-0.138","+","null","","","","","",""
"","1962","html-keyboard-response","293","451843","0.0-3.0-1.138","incomodar","s","v","noncog","word","S","exp","9"
"","null","html-keyboard-response","294","452344","0.0-3.0-0.139","+","null","","","","","",""
"","2266","html-keyboard-response","295","454610","0.0-3.0-1.139","hébies","s","null","noncog","pseudo","N","exp","null"
"","null","html-keyboard-response","296","455111","0.0-3.0-0.140","+","null","","","","","",""
"","2523","html-keyboard-response","297","457635","0.0-3.0-1.140","raspar","s","v","noncog","word","S","exp","6"
"","null","html-keyboard-response","298","458135","0.0-3.0-0.141","+","null","","","","","",""
"","2299","html-keyboard-response","299","460435","0.0-3.0-1.141","podilo","s","null","noncog","pseudo","N","exp","null"
"","null","html-keyboard-response","300","460935","0.0-3.0-0.142","+","null","","","","","",""
"","1547","html-keyboard-response","301","462483","0.0-3.0-1.142","barco","s","n","cog","word","S","exp","5"
"","null","html-keyboard-response","302","462983","0.0-3.0-0.143","+","null","","","","","",""
"","1291","html-keyboard-response","303","464274","0.0-3.0-1.143","tênis","s","n","cog","word","S","exp","5"
"","null","html-keyboard-response","304","464775","0.0-3.0-0.144","+","null","","","","","",""
"","2155","html-keyboard-response","305","466930","0.0-3.0-1.144","faínas","s","null","noncog","pseudo","N","exp","null"
"","null","html-keyboard-response","306","467446","0.0-3.0-0.145","+","null","","","","","",""
"","1196","html-keyboard-response","307","468642","0.0-3.0-1.145","mudança","s","n","noncog","word","S","exp","7"
"","null","html-keyboard-response","308","469144","0.0-3.0-0.146","+","null","","","","","",""
"","3114","html-keyboard-response","309","472259","0.0-3.0-1.146","vitrive","s","null","noncog","pseudo","N","exp","null"
"","null","html-keyboard-response","310","472759","0.0-3.0-0.147","+","null","","","","","",""
"","3051","html-keyboard-response","311","475811","0.0-3.0-1.147","suipestar","n","null","noncog","pseudo","N","exp","null"
"","null","html-keyboard-response","312","476311","0.0-3.0-0.148","+","null","","","","","",""
"","1403","html-keyboard-response","313","477714","0.0-3.0-1.148","carregar","s","v","noncog","word","S","exp","8"
"","null","html-keyboard-response","314","478216","0.0-3.0-0.149","+","null","","","","","",""
"","3626","html-keyboard-response","315","481842","0.0-3.0-1.149","boreta","s","null","noncog","pseudo","N","exp","null"
"","null","html-keyboard-response","316","482343","0.0-3.0-0.150","+","null","","","","","",""
"","1403","html-keyboard-response","317","483747","0.0-3.0-1.150","liso","s","n","noncog","word","S","exp","4"
"","null","html-keyboard-response","318","484247","0.0-3.0-0.151","+","null","","","","","",""
"","1579","html-keyboard-response","319","485827","0.0-3.0-1.151","propaganda","s","n","cog","word","S","exp","10"
"","null","html-keyboard-response","320","486328","0.0-3.0-0.152","+","null","","","","","",""
"","1386","html-keyboard-response","321","487714","0.0-3.0-1.152","tartos","s","null","noncog","pseudo","N","exp","null"
"","null","html-keyboard-response","322","488227","0.0-3.0-0.153","+","null","","","","","",""
"","3408","html-keyboard-response","323","491635","0.0-3.0-1.153","ejerro","n","null","noncog","pseudo","N","exp","null"
"","null","html-keyboard-response","324","492135","0.0-3.0-0.154","+","null","","","","","",""
"","1643","html-keyboard-response","325","493779","0.0-3.0-1.154","protas","s","null","noncog","pseudo","N","exp","null"
"","null","html-keyboard-response","326","494280","0.0-3.0-0.155","+","null","","","","","",""
"","1034","html-keyboard-response","327","495315","0.0-3.0-1.155","esperar","s","v","cog","word","S","exp","7"
"","null","html-keyboard-response","328","495816","0.0-3.0-0.156","+","null","","","","","",""
"","1115","html-keyboard-response","329","496931","0.0-3.0-1.156","preferir","s","v","cog","word","S","exp","8"
"","null","html-keyboard-response","330","497433","0.0-3.0-0.157","+","null","","","","","",""
"","1417","html-keyboard-response","331","498850","0.0-3.0-1.157","terdia","s","null","noncog","pseudo","N","exp","null"
"","null","html-keyboard-response","332","499351","0.0-3.0-0.158","+","null","","","","","",""
"","827","html-keyboard-response","333","500178","0.0-3.0-1.158","liberal","s","a","cog","word","S","exp","7"
"","null","html-keyboard-response","334","500680","0.0-3.0-0.159","+","null","","","","","",""
"","938","html-keyboard-response","335","501618","0.0-3.0-1.159","rovaz","s","null","noncog","pseudo","N","exp","null"
"","null","html-keyboard-response","336","502120","0.0-3.0-0.160","+","null","","","","","",""
"","1194","html-keyboard-response","337","503314","0.0-3.0-1.160","instruído","s","a","noncog","word","S","exp","9"
"","null","html-keyboard-response","338","503815","0.0-3.0-0.161","+","null","","","","","",""
"","827","html-keyboard-response","339","504642","0.0-3.0-1.161","pulmão","s","n","noncog","word","S","exp","6"
"","null","html-keyboard-response","340","505144","0.0-3.0-0.162","+","null","","","","","",""
"","842","html-keyboard-response","341","505986","0.0-3.0-1.162","cascata","s","n","noncog","word","S","exp","7"
"","null","html-keyboard-response","342","506487","0.0-3.0-0.163","+","null","","","","","",""
"","763","html-keyboard-response","343","507251","0.0-3.0-1.163","imitar","s","v","cog","word","S","exp","6"
"","null","html-keyboard-response","344","507752","0.0-3.0-0.164","+","null","","","","","",""
"","890","html-keyboard-response","345","508642","0.0-3.0-1.164","avenas","s","null","noncog","pseudo","N","exp","null"
"","null","html-keyboard-response","346","509144","0.0-3.0-0.165","+","null","","","","","",""
"","698","html-keyboard-response","347","509842","0.0-3.0-1.165","revista","s","n","cog","word","S","exp","7"
"","null","html-keyboard-response","348","510343","0.0-3.0-0.166","+","null","","","","","",""
"","1259","html-keyboard-response","349","511602","0.0-3.0-1.166","aparme","s","null","noncog","pseudo","N","exp","null"
"","null","html-keyboard-response","350","512103","0.0-3.0-0.167","+","null","","","","","",""
"","1083","html-keyboard-response","351","513186","0.0-3.0-1.167","lagras","s","null","noncog","pseudo","N","exp","null"
"","null","html-keyboard-response","352","513687","0.0-3.0-0.168","+","null","","","","","",""
"","8987","html-keyboard-response","353","522675","0.0-3.0-1.168","quenzina","n","null","noncog","pseudo","N","exp","null"
"","null","html-keyboard-response","354","523176","0.0-3.0-0.169","+","null","","","","","",""
"","1545","html-keyboard-response","355","524722","0.0-3.0-1.169","loaco","s","null","noncog","pseudo","N","exp","null"
"","null","html-keyboard-response","356","525223","0.0-3.0-0.170","+","null","","","","","",""
"","667","html-keyboard-response","357","525890","0.0-3.0-1.170","costra","s","null","noncog","pseudo","N","exp","null"
"","null","html-keyboard-response","358","526391","0.0-3.0-0.171","+","null","","","","","",""
"","2011","html-keyboard-response","359","528402","0.0-3.0-1.171","pantufa","s","n","cog","word","S","exp","7"
"","null","html-keyboard-response","360","528903","0.0-3.0-0.172","+","null","","","","","",""
"","1115","html-keyboard-response","361","530018","0.0-3.0-1.172","montanha","s","n","cog","word","S","exp","8"
"","null","html-keyboard-response","362","530520","0.0-3.0-0.173","+","null","","","","","",""
"","2202","html-keyboard-response","363","532722","0.0-3.0-1.173","livro","s","n","cog","word","S","exp","5"
"","null","html-keyboard-response","364","533224","0.0-3.0-0.174","+","null","","","","","",""
"","1034","html-keyboard-response","365","534258","0.0-3.0-1.174","comércio","s","n","noncog","word","S","exp","8"
"","null","html-keyboard-response","366","534759","0.0-3.0-0.175","+","null","","","","","",""
"","1275","html-keyboard-response","367","536034","0.0-3.0-1.175","nivelado","s","a","cog","word","S","exp","8"
"","null","html-keyboard-response","368","536536","0.0-3.0-0.176","+","null","","","","","",""
"","1402","html-keyboard-response","369","537938","0.0-3.0-1.176","mabras","s","null","noncog","pseudo","N","exp","null"
"","null","html-keyboard-response","370","538440","0.0-3.0-0.177","+","null","","","","","",""
"","778","html-keyboard-response","371","539218","0.0-3.0-1.177","nacional","s","a","cog","word","S","exp","8"
"","null","html-keyboard-response","372","539719","0.0-3.0-0.178","+","null","","","","","",""
"","3227","html-keyboard-response","373","542947","0.0-3.0-1.178","encelhor","s","null","noncog","pseudo","N","exp","null"
"","null","html-keyboard-response","374","543447","0.0-3.0-0.179","+","null","","","","","",""
"","1178","html-keyboard-response","375","544626","0.0-3.0-1.179","fusbão","s","null","noncog","pseudo","N","exp","null"
"","null","html-keyboard-response","376","545128","0.0-3.0-0.180","+","null","","","","","",""
"","1738","html-keyboard-response","377","546866","0.0-3.0-1.180","verceja","s","null","noncog","pseudo","N","exp","null"
"","null","html-keyboard-response","378","547368","0.0-3.0-0.181","+","null","","","","","",""
"","1338","html-keyboard-response","379","548706","0.0-3.0-1.181","revear","s","null","noncog","pseudo","N","exp","null"
"","null","html-keyboard-response","380","549208","0.0-3.0-0.182","+","null","","","","","",""
"","1290","html-keyboard-response","381","550498","0.0-3.0-1.182","burtos","s","null","noncog","pseudo","N","exp","null"
"","null","html-keyboard-response","382","550999","0.0-3.0-0.183","+","null","","","","","",""
"","1611","html-keyboard-response","383","552610","0.0-3.0-1.183","detative","s","null","noncog","pseudo","N","exp","null"
"","null","html-keyboard-response","384","553111","0.0-3.0-0.184","+","null","","","","","",""
"","1323","html-keyboard-response","385","554434","0.0-3.0-1.184","açúcar","s","n","noncog","word","S","exp","6"
"","null","html-keyboard-response","386","554935","0.0-3.0-0.185","+","null","","","","","",""
"","2475","html-keyboard-response","387","557410","0.0-3.0-1.185","morar","s","v","noncog","word","S","exp","5"
"","null","html-keyboard-response","388","557912","0.0-3.0-0.186","+","null","","","","","",""
"","6186","html-keyboard-response","389","564098","0.0-3.0-1.186","árovre","n","null","noncog","pseudo","N","exp","null"
"","null","html-keyboard-response","390","564599","0.0-3.0-0.187","+","null","","","","","",""
"","1978","html-keyboard-response","391","566578","0.0-3.0-1.187","cápsula","s","n","noncog","word","S","exp","7"
"","null","html-keyboard-response","392","567079","0.0-3.0-0.188","+","null","","","","","",""
"","1051","html-keyboard-response","393","568130","0.0-3.0-1.188","ótimo","s","a","noncog","word","S","exp","5"
"","null","html-keyboard-response","394","568631","0.0-3.0-0.189","+","null","","","","","",""
"","4058","html-keyboard-response","395","572690","0.0-3.0-1.189","deselegante","s","a","noncog","word","S","exp","11"
"","null","html-keyboard-response","396","573190","0.0-3.0-0.190","+","null","","","","","",""
"","843","html-keyboard-response","397","574034","0.0-3.0-1.190","perbas","s","null","noncog","pseudo","N","exp","null"
"","null","html-keyboard-response","398","574537","0.0-3.0-0.191","+","null","","","","","",""
"","1481","html-keyboard-response","399","576018","0.0-3.0-1.191","ensuas","s","null","noncog","pseudo","N","exp","null"
"","null","html-keyboard-response","400","576520","0.0-3.0-0.192","+","null","","","","","",""
"","1306","html-keyboard-response","401","577826","0.0-3.0-1.192","escumo","s","null","noncog","pseudo","N","exp","null"
"","null","html-keyboard-response","402","578336","0.0-3.0-0.193","+","null","","","","","",""
"","1474","html-keyboard-response","403","579810","0.0-3.0-1.193","multiplicar","s","v","cog","word","S","exp","11"
"","null","html-keyboard-response","404","580311","0.0-3.0-0.194","+","null","","","","","",""
"","1387","html-keyboard-response","405","581698","0.0-3.0-1.194","dencosto","s","null","noncog","pseudo","N","exp","null"
"","null","html-keyboard-response","406","582199","0.0-3.0-0.195","+","null","","","","","",""
"","1963","html-keyboard-response","407","584162","0.0-3.0-1.195","tela","s","n","noncog","word","S","exp","4"
"","null","html-keyboard-response","408","584663","0.0-3.0-0.196","+","null","","","","","",""
"","1595","html-keyboard-response","409","586258","0.0-3.0-1.196","franda","s","null","noncog","pseudo","N","exp","null"
"","null","html-keyboard-response","410","586759","0.0-3.0-0.197","+","null","","","","","",""
"","2059","html-keyboard-response","411","588818","0.0-3.0-1.197","motros","s","null","noncog","pseudo","N","exp","null"
"","null","html-keyboard-response","412","589320","0.0-3.0-0.198","+","null","","","","","",""
"","1690","html-keyboard-response","413","591010","0.0-3.0-1.198","espionar","s","v","cog","word","S","exp","8"
"","null","html-keyboard-response","414","591512","0.0-3.0-0.199","+","null","","","","","",""
"","2074","html-keyboard-response","415","593586","0.0-3.0-1.199","uçar","s","null","noncog","pseudo","N","exp","null"
"","null","html-keyboard-response","416","594087","0.0-3.0-0.200","+","null","","","","","",""
"","1338","html-keyboard-response","417","595426","0.0-3.0-1.200","temperar","s","v","noncog","word","S","exp","8"
"","null","html-keyboard-response","418","595927","0.0-3.0-0.201","+","null","","","","","",""
"","3211","html-keyboard-response","419","599138","0.0-3.0-1.201","matinal","s","a","cog","word","S","exp","7"
"","null","html-keyboard-response","420","599639","0.0-3.0-0.202","+","null","","","","","",""
"","1178","html-keyboard-response","421","600818","0.0-3.0-1.202","bandido","s","n","cog","word","S","exp","7"
"","null","html-keyboard-response","422","601319","0.0-3.0-0.203","+","null","","","","","",""
"","3210","html-keyboard-response","423","604530","0.0-3.0-1.203","crolatário","s","null","noncog","pseudo","N","exp","null"
"","null","html-keyboard-response","424","605032","0.0-3.0-0.204","+","null","","","","","",""
"","1610","html-keyboard-response","425","606642","0.0-3.0-1.204","fasdas","s","null","noncog","pseudo","N","exp","null"
"","null","html-keyboard-response","426","607143","0.0-3.0-0.205","+","null","","","","","",""
"","2378","html-keyboard-response","427","609522","0.0-3.0-1.205","salpicado","s","a","noncog","word","S","exp","9"
"","null","html-keyboard-response","428","610024","0.0-3.0-0.206","+","null","","","","","",""
"","2554","html-keyboard-response","429","612578","0.0-3.0-1.206","undivídio","s","null","noncog","pseudo","N","exp","null"
"","null","html-keyboard-response","430","613080","0.0-3.0-0.207","+","null","","","","","",""
"","3706","html-keyboard-response","431","616786","0.0-3.0-1.207","viver","s","v","cog","word","S","exp","5"
"","null","html-keyboard-response","432","617287","0.0-3.0-0.208","+","null","","","","","",""
"","8362","html-keyboard-response","433","625650","0.0-3.0-1.208","beima","n","null","noncog","pseudo","N","exp","null"
"","null","html-keyboard-response","434","626152","0.0-3.0-0.209","+","null","","","","","",""
"","1658","html-keyboard-response","435","627810","0.0-3.0-1.209","afonher","n","null","noncog","pseudo","N","exp","null"
"","null","html-keyboard-response","436","628311","0.0-3.0-0.210","+","null","","","","","",""
"","6875","html-keyboard-response","437","635186","0.0-3.0-1.210","bibarconato","n","null","noncog","pseudo","N","exp","null"
"","null","html-keyboard-response","438","635687","0.0-3.0-0.211","+","null","","","","","",""
"","2507","html-keyboard-response","439","638194","0.0-3.0-1.211","dobradiça","s","n","noncog","word","S","exp","9"
"","null","html-keyboard-response","440","638696","0.0-3.0-0.212","+","null","","","","","",""
"","4042","html-keyboard-response","441","642738","0.0-3.0-1.212","atapdar","n","null","noncog","pseudo","N","exp","null"
"","null","html-keyboard-response","442","643239","0.0-3.0-0.213","+","null","","","","","",""
"","2378","html-keyboard-response","443","645618","0.0-3.0-1.213","planalto","s","n","cog","word","S","exp","8"
"","null","html-keyboard-response","444","646119","0.0-3.0-0.214","+","null","","","","","",""
"","1274","html-keyboard-response","445","647394","0.0-3.0-1.214","perdão","s","n","noncog","word","S","exp","6"
"","null","html-keyboard-response","446","647895","0.0-3.0-0.215","+","null","","","","","",""
"","970","html-keyboard-response","447","648866","0.0-3.0-1.215","bracos","s","null","noncog","pseudo","N","exp","null"
"","null","html-keyboard-response","448","649368","0.0-3.0-0.216","+","null","","","","","",""
"","1306","html-keyboard-response","449","650674","0.0-3.0-1.216","papai","s","n","cog","word","S","exp","5"
"","null","html-keyboard-response","450","651175","0.0-3.0-0.217","+","null","","","","","",""
"","1995","html-keyboard-response","451","653170","0.0-3.0-1.217","gilha","s","null","noncog","pseudo","N","exp","null"
"","null","html-keyboard-response","452","653671","0.0-3.0-0.218","+","null","","","","","",""
"","2122","html-keyboard-response","453","655794","0.0-3.0-1.218","motre","n","null","noncog","pseudo","N","exp","null"
"","null","html-keyboard-response","454","656295","0.0-3.0-0.219","+","null","","","","","",""
"","1306","html-keyboard-response","455","657602","0.0-3.0-1.219","grótis","s","null","noncog","pseudo","N","exp","null"
"","null","html-keyboard-response","456","658103","0.0-3.0-0.220","+","null","","","","","",""
"","810","html-keyboard-response","457","658914","0.0-3.0-1.220","destino","s","n","cog","word","S","exp","7"
"","null","html-keyboard-response","458","659415","0.0-3.0-0.221","+","null","","","","","",""
"","891","html-keyboard-response","459","660306","0.0-3.0-1.221","convidado","s","n","noncog","word","S","exp","9"
"","null","html-keyboard-response","460","660819","0.0-3.0-0.222","+","null","","","","","",""
"","5407","html-keyboard-response","461","666226","0.0-3.0-1.222","ofreta","n","null","noncog","pseudo","N","exp","null"
"","null","html-keyboard-response","462","666727","0.0-3.0-0.223","+","null","","","","","",""
"","2187","html-keyboard-response","463","668914","0.0-3.0-1.223","dipata","s","null","noncog","pseudo","N","exp","null"
"","null","html-keyboard-response","464","669415","0.0-3.0-0.224","+","null","","","","","",""
"","1578","html-keyboard-response","465","670994","0.0-3.0-1.224","vervas","s","null","noncog","pseudo","N","exp","null"
"","null","html-keyboard-response","466","671496","0.0-3.0-0.225","+","null","","","","","",""
"","2202","html-keyboard-response","467","673698","0.0-3.0-1.225","manais","n","null","noncog","pseudo","N","exp","null"
"","null","html-keyboard-response","468","674200","0.0-3.0-0.226","+","null","","","","","",""
"","3625","html-keyboard-response","469","677826","0.0-3.0-1.226","irratinte","n","null","noncog","pseudo","N","exp","null"
"","null","html-keyboard-response","470","678327","0.0-3.0-0.227","+","null","","","","","",""
"","1067","html-keyboard-response","471","679394","0.0-3.0-1.227","azul","s","n","noncog","word","S","exp","4"
"","null","html-keyboard-response","472","679895","0.0-3.0-0.228","+","null","","","","","",""
"","1018","html-keyboard-response","473","680914","0.0-3.0-1.228","tio","s","n","noncog","word","S","exp","3"
"","null","html-keyboard-response","474","681415","0.0-3.0-0.229","+","null","","","","","",""
"","3675","html-keyboard-response","475","685090","0.0-3.0-1.229","euorpa","n","null","noncog","pseudo","N","exp","null"
"","null","html-keyboard-response","476","685591","0.0-3.0-0.230","+","null","","","","","",""
"","1499","html-keyboard-response","477","687090","0.0-3.0-1.230","promessa","s","n","noncog","word","S","exp","8"
"","null","html-keyboard-response","478","687591","0.0-3.0-0.231","+","null","","","","","",""
"","1114","html-keyboard-response","479","688706","0.0-3.0-1.231","reduzir","s","v","cog","word","S","exp","7"
"","null","html-keyboard-response","480","689207","0.0-3.0-0.232","+","null","","","","","",""
"","2763","html-keyboard-response","481","691970","0.0-3.0-1.232","adoçar","s","v","noncog","word","S","exp","6"
"","null","html-keyboard-response","482","692480","0.0-3.0-0.233","+","null","","","","","",""
"","1089","html-keyboard-response","483","693570","0.0-3.0-1.233","socorro","s","n","noncog","word","S","exp","7"
"","null","html-keyboard-response","484","694071","0.0-3.0-0.234","+","null","","","","","",""
"","3114","html-keyboard-response","485","697186","0.0-3.0-1.234","crutas","s","null","noncog","pseudo","N","exp","null"
"","null","html-keyboard-response","486","697692","0.0-3.0-0.235","+","null","","","","","",""
"","726","html-keyboard-response","487","698418","0.0-3.0-1.235","telefone","s","n","cog","word","S","exp","8"
"","null","html-keyboard-response","488","698919","0.0-3.0-0.236","+","null","","","","","",""
"","794","html-keyboard-response","489","699714","0.0-3.0-1.236","especial","s","a","cog","word","S","exp","8"
"","null","html-keyboard-response","490","700215","0.0-3.0-0.237","+","null","","","","","",""
"","827","html-keyboard-response","491","701042","0.0-3.0-1.237","fogão","s","n","noncog","word","S","exp","5"
"","null","html-keyboard-response","492","701543","0.0-3.0-0.238","+","null","","","","","",""
"","1003","html-keyboard-response","493","702546","0.0-3.0-1.238","cenada","s","null","noncog","pseudo","N","exp","null"
"","null","html-keyboard-response","494","703047","0.0-3.0-0.239","+","null","","","","","",""
"","4347","html-keyboard-response","495","707394","0.0-3.0-1.239","aitrou","s","null","noncog","pseudo","N","exp","null"
