"view_history","rt","trial_type","trial_index","time_elapsed","internal_node_id","stimulus","response","trial_part","trial","word","question","answer","accuracy"
"[{""page_index"":0,""viewing_time"":1161},{""page_index"":1,""viewing_time"":856}]","2017","instructions","0","2018","0.0-0.0","","","","","","","",""
"","null","html-keyboard-response","1","3130","0.0-1.0-0.0-0.0","<span style= ""font-size:30px; font-family: monospace"">+</span>","null","fixation","","","","",""
"","33079","html-keyboard-response","2","36473","0.0-1.0-1.0","<span style=""font-size:30px; font-family: monospace"">O</span>"," ","","prac-sent","O","","",""
"","1733","html-keyboard-response","3","38457","0.0-1.0-1.1","<span style=""font-size:30px; font-family: monospace"">dia</span>"," ","","prac-sent","dia","","",""
"","2757","html-keyboard-response","4","41465","0.0-1.0-1.2","<span style=""font-size:30px; font-family: monospace"">estará</span>"," ","","prac-sent","estará","","",""
"","2469","html-keyboard-response","5","44185","0.0-1.0-1.3","<span style=""font-size:30px; font-family: monospace"">cheio</span>"," ","","prac-sent","cheio","","",""
"","2406","html-keyboard-response","6","46841","0.0-1.0-1.4","<span style=""font-size:30px; font-family: monospace"">de</span>"," ","","prac-sent","de","","",""
"","2709","html-keyboard-response","7","49801","0.0-1.0-1.5","<span style=""font-size:30px; font-family: monospace"">nuvens</span>"," ","","prac-sent","nuvens","","",""
"","16724","html-keyboard-response","8","66777","0.0-1.0-1.6","<span style=""font-size:30px; font-family: monospace"">hoje.</span>"," ","","prac-sent","hoje.","","",""
"","null","html-keyboard-response","9","68029","0.0-1.0-0.7-0.7","<span style= ""font-size:30px; font-family: monospace"">+</span>","null","fixation","","","","",""
"","15841","html-keyboard-response","10","84121","0.0-1.0-1.7","<span style=""font-size:30px; font-family: monospace"">A</span>"," ","","prac-sent","A","","",""
"","3732","html-keyboard-response","11","88105","0.0-1.0-1.8","<span style=""font-size:30px; font-family: monospace"">caneca</span>"," ","","prac-sent","caneca","","",""
"","2693","html-keyboard-response","12","91049","0.0-1.0-1.9","<span style=""font-size:30px; font-family: monospace"">colorida</span>"," ","","prac-sent","colorida","","",""
"","2677","html-keyboard-response","13","93977","0.0-1.0-1.10","<span style=""font-size:30px; font-family: monospace"">caiu</span>"," ","","prac-sent","caiu","","",""
"","2165","html-keyboard-response","14","96393","0.0-1.0-1.11","<span style=""font-size:30px; font-family: monospace"">da</span>"," ","","prac-sent","da","","",""
"","2245","html-keyboard-response","15","98889","0.0-1.0-1.12","<span style=""font-size:30px; font-family: monospace"">mesa</span>"," ","","prac-sent","mesa","","",""
"","1557","html-keyboard-response","16","100697","0.0-1.0-1.13","<span style=""font-size:30px; font-family: monospace"">de</span>"," ","","prac-sent","de","","",""
"","8214","html-keyboard-response","17","109161","0.0-1.0-1.14","<span style=""font-size:30px; font-family: monospace"">jantar.</span>"," ","","prac-comp","jantar.","","",""
"","17860","html-keyboard-response","18","127273","0.0-1.0-2.14-0.14","<span style=""font-size:30px; font-family: monospace"">A caneca permaneceu na mesa?</span>","n","","prac-comp","","A caneca permaneceu na mesa?","não","false"
"[{""page_index"":0,""viewing_time"":5979}]","5979","instructions","19","133754","0.0-2.0","","","","","","","",""
"","null","html-keyboard-response","20","134856","0.0-3.0-0.0-0.0","<span style= ""font-size:30px; font-family: monospace"">+</span>","null","fixation","","","","",""
"","4918","html-keyboard-response","21","140025","0.0-3.0-1.0","<span style=""font-size:30px; font-family: monospace"">Minha</span>"," ","","exp-sent","Minha","","",""
"","4436","html-keyboard-response","22","144713","0.0-3.0-1.1","<span style=""font-size:30px; font-family: monospace"">prima</span>"," ","","exp-sent","prima","","",""
"","2329","html-keyboard-response","23","147305","0.0-3.0-1.2","<span style=""font-size:30px; font-family: monospace"">trocou</span>"," ","","exp-sent","trocou","","",""
"","1781","html-keyboard-response","24","149337","0.0-3.0-1.3","<span style=""font-size:30px; font-family: monospace"">a</span>"," ","","exp-sent","a","","",""
"","2181","html-keyboard-response","25","151769","0.0-3.0-1.4","<span style=""font-size:30px; font-family: monospace"">tela</span>"," ","","exp-sent","tela","","",""
"","1492","html-keyboard-response","26","153513","0.0-3.0-1.5","<span style=""font-size:30px; font-family: monospace"">do</span>"," ","","exp-sent","do","","",""
"","2149","html-keyboard-response","27","155913","0.0-3.0-1.6","<span style=""font-size:30px; font-family: monospace"">celular</span>"," ","","exp-sent","celular","","",""
"","1589","html-keyboard-response","28","157753","0.0-3.0-1.7","<span style=""font-size:30px; font-family: monospace"">duas</span>"," ","","exp-sent","duas","","",""
"","15189","html-keyboard-response","29","173192","0.0-3.0-1.8","<span style=""font-size:30px; font-family: monospace"">vezes.</span>"," ","","exp-sent","vezes.","","",""
"","null","html-keyboard-response","30","174451","0.0-3.0-0.9-0.9","<span style= ""font-size:30px; font-family: monospace"">+</span>","null","fixation","","","","",""
"","5083","html-keyboard-response","31","179785","0.0-3.0-1.9","<span style=""font-size:30px; font-family: monospace"">Agora</span>"," ","","exp-sent","Agora","","",""
"","2357","html-keyboard-response","32","182393","0.0-3.0-1.10","<span style=""font-size:30px; font-family: monospace"">a</span>"," ","","exp-sent","a","","",""
"","3557","html-keyboard-response","33","186200","0.0-3.0-1.11","<span style=""font-size:30px; font-family: monospace"">minha</span>"," ","","exp-sent","minha","","",""
"","2325","html-keyboard-response","34","188777","0.0-3.0-1.12","<span style=""font-size:30px; font-family: monospace"">única</span>"," ","","exp-sent","única","","",""
"","3925","html-keyboard-response","35","192953","0.0-3.0-1.13","<span style=""font-size:30px; font-family: monospace"">preocupação</span>"," ","","exp-sent","preocupação","","",""
"","2740","html-keyboard-response","36","195944","0.0-3.0-1.14","<span style=""font-size:30px; font-family: monospace"">é</span>"," ","","exp-sent","é","","",""
"","7685","html-keyboard-response","37","203881","0.0-3.0-1.15","<span style=""font-size:30px; font-family: monospace"">um</span>"," ","","exp-sent","um","","",""
"","7348","html-keyboard-response","38","211480","0.0-3.0-1.16","<span style=""font-size:30px; font-family: monospace"">descanso</span>"," ","","exp-sent","descanso","","",""
"","13781","html-keyboard-response","39","225512","0.0-3.0-1.17","<span style=""font-size:30px; font-family: monospace"">tranquilo.</span>"," ","","exp-sent","tranquilo.","","",""
"","null","html-keyboard-response","40","226766","0.0-3.0-0.18-0.18","<span style= ""font-size:30px; font-family: monospace"">+</span>","null","fixation","","","","",""
"","3520","html-keyboard-response","41","230536","0.0-3.0-1.18","<span style=""font-size:30px; font-family: monospace"">A</span>"," ","","exp-sent","A","","",""
"","3253","html-keyboard-response","42","234040","0.0-3.0-1.19","<span style=""font-size:30px; font-family: monospace"">criança</span>"," ","","exp-sent","criança","","",""
"","2324","html-keyboard-response","43","236616","0.0-3.0-1.20","<span style=""font-size:30px; font-family: monospace"">ganhou</span>"," ","","exp-sent","ganhou","","",""
"","2596","html-keyboard-response","44","239464","0.0-3.0-1.21","<span style=""font-size:30px; font-family: monospace"">um</span>"," ","","exp-sent","um","","",""
"","2805","html-keyboard-response","45","242520","0.0-3.0-1.22","<span style=""font-size:30px; font-family: monospace"">presente</span>"," ","","exp-sent","presente","","",""
"","10917","html-keyboard-response","46","253688","0.0-3.0-1.23","<span style=""font-size:30px; font-family: monospace"">maravilhoso.</span>"," ","","exp-sent","maravilhoso.","","",""
"","null","html-keyboard-response","47","254941","0.0-3.0-0.24-0.24","<span style= ""font-size:30px; font-family: monospace"">+</span>","null","fixation","","","","",""
"","4352","html-keyboard-response","48","259544","0.0-3.0-1.24","<span style=""font-size:30px; font-family: monospace"">Os</span>"," ","","exp-sent","Os","","",""
"","4277","html-keyboard-response","49","264072","0.0-3.0-1.25","<span style=""font-size:30px; font-family: monospace"">bichos</span>"," ","","exp-sent","bichos","","",""
"","5636","html-keyboard-response","50","269960","0.0-3.0-1.26","<span style=""font-size:30px; font-family: monospace"">têm</span>"," ","","exp-sent","têm","","",""
"","4212","html-keyboard-response","51","274425","0.0-3.0-1.27","<span style=""font-size:30px; font-family: monospace"">um</span>"," ","","exp-sent","um","","",""
"","6452","html-keyboard-response","52","281128","0.0-3.0-1.28","<span style=""font-size:30px; font-family: monospace"">instinto</span>"," ","","exp-sent","instinto","","",""
"","12165","html-keyboard-response","53","293545","0.0-3.0-1.29","<span style=""font-size:30px; font-family: monospace"">de</span>"," ","","exp-sent","de","","",""
"","12692","html-keyboard-response","54","306488","0.0-3.0-1.30","<span style=""font-size:30px; font-family: monospace"">sobrevivência</span>"," ","","exp-sent","sobrevivência","","",""
"","14789","html-keyboard-response","55","321528","0.0-3.0-1.31","<span style=""font-size:30px; font-family: monospace"">forte.</span>"," ","","exp-sent","forte.","","",""
"","null","html-keyboard-response","56","322780","0.0-3.0-0.32-0.32","<span style= ""font-size:30px; font-family: monospace"">+</span>","null","fixation","","","","",""
"","7216","html-keyboard-response","57","330248","0.0-3.0-1.32","<span style=""font-size:30px; font-family: monospace"">Aquele</span>"," ","","exp-sent","Aquele","","",""
"","2581","html-keyboard-response","58","333080","0.0-3.0-1.33","<span style=""font-size:30px; font-family: monospace"">menino</span>"," ","","exp-sent","menino","","",""
"","3236","html-keyboard-response","59","336568","0.0-3.0-1.34","<span style=""font-size:30px; font-family: monospace"">alto</span>"," ","","exp-sent","alto","","",""
"","3188","html-keyboard-response","60","340008","0.0-3.0-1.35","<span style=""font-size:30px; font-family: monospace"">é</span>"," ","","exp-sent","é","","",""
"","4853","html-keyboard-response","61","345112","0.0-3.0-1.36","<span style=""font-size:30px; font-family: monospace"">exibido</span>"," ","","exp-sent","exibido","","",""
"","2085","html-keyboard-response","62","347448","0.0-3.0-1.37","<span style=""font-size:30px; font-family: monospace"">e</span>"," ","","exp-sent","e","","",""
"","13781","html-keyboard-response","63","361480","0.0-3.0-1.38","<span style=""font-size:30px; font-family: monospace"">sovina.</span>"," ","","comp","sovina.","","",""
"","7173","html-keyboard-response","64","368904","0.0-3.0-2.38-0.38","<span style=""font-size:30px; font-family: monospace"">Aquele menino é humilde?</span>","s","","comp","","Aquele menino é humilde?","não","false"
"","null","html-keyboard-response","65","370406","0.0-3.0-0.39-0.39","<span style= ""font-size:30px; font-family: monospace"">+</span>","null","fixation","","","","",""
"","19255","html-keyboard-response","66","389912","0.0-3.0-1.39","<span style=""font-size:30px; font-family: monospace"">O</span>"," ","","exp-sent","O","","",""
"","4948","html-keyboard-response","67","395112","0.0-3.0-1.40","<span style=""font-size:30px; font-family: monospace"">travesseiro</span>"," ","","exp-sent","travesseiro","","",""
"","2373","html-keyboard-response","68","397735","0.0-3.0-1.41","<span style=""font-size:30px; font-family: monospace"">era</span>"," ","","exp-sent","era","","",""
"","2789","html-keyboard-response","69","400776","0.0-3.0-1.42","<span style=""font-size:30px; font-family: monospace"">muito</span>"," ","","exp-sent","muito","","",""
"","4948","html-keyboard-response","70","405976","0.0-3.0-1.43","<span style=""font-size:30px; font-family: monospace"">macio</span>"," ","","exp-sent","macio","","",""
"","1589","html-keyboard-response","71","407816","0.0-3.0-1.44","<span style=""font-size:30px; font-family: monospace"">e</span>"," ","","exp-sent","e","","",""
"","15589","html-keyboard-response","72","423655","0.0-3.0-1.45","<span style=""font-size:30px; font-family: monospace"">confortável.</span>"," ","","exp-sent","confortável.","","",""
"","null","html-keyboard-response","73","424908","0.0-3.0-0.46-0.46","<span style= ""font-size:30px; font-family: monospace"">+</span>","null","fixation","","","","",""
"","4897","html-keyboard-response","74","430056","0.0-3.0-1.46","<span style=""font-size:30px; font-family: monospace"">Hoje</span>"," ","","exp-sent","Hoje","","",""
"","2581","html-keyboard-response","75","432888","0.0-3.0-1.47","<span style=""font-size:30px; font-family: monospace"">a</span>"," ","","exp-sent","a","","",""
"","11605","html-keyboard-response","76","444744","0.0-3.0-1.48","<span style=""font-size:30px; font-family: monospace"">atendente</span>"," ","","exp-sent","atendente","","",""
"","5829","html-keyboard-response","77","450824","0.0-3.0-1.49","<span style=""font-size:30px; font-family: monospace"">estava</span>"," ","","exp-sent","estava","","",""
"","4404","html-keyboard-response","78","455479","0.0-3.0-1.50","<span style=""font-size:30px; font-family: monospace"">furiosa</span>"," ","","exp-sent","furiosa","","",""
"","3413","html-keyboard-response","79","459143","0.0-3.0-1.51","<span style=""font-size:30px; font-family: monospace"">com</span>"," ","","exp-sent","com","","",""
"","1125","html-keyboard-response","80","460519","0.0-3.0-1.52","<span style=""font-size:30px; font-family: monospace"">o</span>"," ","","exp-sent","o","","",""
"","13653","html-keyboard-response","81","474424","0.0-3.0-1.53","<span style=""font-size:30px; font-family: monospace"">cliente.</span>"," ","","exp-sent","cliente.","","",""
"","null","html-keyboard-response","82","475675","0.0-3.0-0.54-0.54","<span style= ""font-size:30px; font-family: monospace"">+</span>","null","fixation","","","","",""
"","5330","html-keyboard-response","83","481256","0.0-3.0-1.54","<span style=""font-size:30px; font-family: monospace"">O</span>"," ","","exp-sent","O","","",""
"","4469","html-keyboard-response","84","485975","0.0-3.0-1.55","<span style=""font-size:30px; font-family: monospace"">vizinho</span>"," ","","exp-sent","vizinho","","",""
"","3861","html-keyboard-response","85","490087","0.0-3.0-1.56","<span style=""font-size:30px; font-family: monospace"">é</span>"," ","","exp-sent","é","","",""
"","2438","html-keyboard-response","86","492776","0.0-3.0-1.57","<span style=""font-size:30px; font-family: monospace"">um</span>"," ","","exp-sent","um","","",""
"","3829","html-keyboard-response","87","496855","0.0-3.0-1.58","<span style=""font-size:30px; font-family: monospace"">arquiteto</span>"," ","","exp-sent","arquiteto","","",""
"","1429","html-keyboard-response","88","498535","0.0-3.0-1.59","<span style=""font-size:30px; font-family: monospace"">muito</span>"," ","","exp-sent","muito","","",""
"","18357","html-keyboard-response","89","517143","0.0-3.0-1.60","<span style=""font-size:30px; font-family: monospace"">excêntrico.</span>"," ","","exp-sent","excêntrico.","","",""
"","null","html-keyboard-response","90","518396","0.0-3.0-0.61-0.61","<span style= ""font-size:30px; font-family: monospace"">+</span>","null","fixation","","","","",""
"","4321","html-keyboard-response","91","522967","0.0-3.0-1.61","<span style=""font-size:30px; font-family: monospace"">A</span>"," ","","exp-sent","A","","",""
"","2821","html-keyboard-response","92","526039","0.0-3.0-1.62","<span style=""font-size:30px; font-family: monospace"">nossa</span>"," ","","exp-sent","nossa","","",""
"","13971","html-keyboard-response","93","540263","0.0-3.0-1.63","<span style=""font-size:30px; font-family: monospace"">colega</span>"," ","","exp-sent","colega","","",""
"","4757","html-keyboard-response","94","545271","0.0-3.0-1.64","<span style=""font-size:30px; font-family: monospace"">foi</span>"," ","","exp-sent","foi","","",""
"","10372","html-keyboard-response","95","555895","0.0-3.0-1.65","<span style=""font-size:30px; font-family: monospace"">má</span>"," ","","exp-sent","má","","",""
"","4260","html-keyboard-response","96","560407","0.0-3.0-1.66","<span style=""font-size:30px; font-family: monospace"">com</span>"," ","","exp-sent","com","","",""
"","5990","html-keyboard-response","97","566647","0.0-3.0-1.67","<span style=""font-size:30px; font-family: monospace"">as</span>"," ","","exp-sent","as","","",""
"","13461","html-keyboard-response","98","580359","0.0-3.0-1.68","<span style=""font-size:30px; font-family: monospace"">crianças.</span>"," ","","exp-sent","crianças.","","",""
"","null","html-keyboard-response","99","581610","0.0-3.0-0.69-0.69","<span style= ""font-size:30px; font-family: monospace"">+</span>","null","fixation","","","","",""
"","7234","html-keyboard-response","100","589095","0.0-3.0-1.69","<span style=""font-size:30px; font-family: monospace"">Virtudes</span>"," ","","exp-sent","Virtudes","","",""
"","3206","html-keyboard-response","101","592551","0.0-3.0-1.70","<span style=""font-size:30px; font-family: monospace"">não</span>"," ","","exp-sent","não","","",""
"","3364","html-keyboard-response","102","596167","0.0-3.0-1.71","<span style=""font-size:30px; font-family: monospace"">são</span>"," ","","exp-sent","são","","",""
"","14662","html-keyboard-response","103","611079","0.0-3.0-1.72","<span style=""font-size:30px; font-family: monospace"">preguiça,</span>"," ","","exp-sent","preguiça,","","",""
"","3684","html-keyboard-response","104","615015","0.0-3.0-1.73","<span style=""font-size:30px; font-family: monospace"">gula</span>"," ","","exp-sent","gula","","",""
"","3461","html-keyboard-response","105","618727","0.0-3.0-1.74","<span style=""font-size:30px; font-family: monospace"">nem</span>"," ","","exp-sent","nem","","",""
"","15509","html-keyboard-response","106","634487","0.0-3.0-1.75","<span style=""font-size:30px; font-family: monospace"">ganância.</span>"," ","","comp","ganância.","","",""
"","32389","html-keyboard-response","107","667127","0.0-3.0-2.75-0.75","<span style=""font-size:30px; font-family: monospace"">Preguiça é uma virtude?</span>","n","","comp","","Preguiça é uma virtude?","não","false"
"","null","html-keyboard-response","108","668629","0.0-3.0-0.76-0.76","<span style= ""font-size:30px; font-family: monospace"">+</span>","null","fixation","","","","",""
"","4469","html-keyboard-response","109","673350","0.0-3.0-1.76","<span style=""font-size:30px; font-family: monospace"">A</span>"," ","","exp-sent","A","","",""
"","4629","html-keyboard-response","110","678231","0.0-3.0-1.77","<span style=""font-size:30px; font-family: monospace"">motorista</span>"," ","","exp-sent","motorista","","",""
"","2132","html-keyboard-response","111","680614","0.0-3.0-1.78","<span style=""font-size:30px; font-family: monospace"">fez</span>"," ","","exp-sent","fez","","",""
"","1302","html-keyboard-response","112","682166","0.0-3.0-1.79","<span style=""font-size:30px; font-family: monospace"">o</span>"," ","","exp-sent","o","","",""
"","3124","html-keyboard-response","113","685543","0.0-3.0-1.80","<span style=""font-size:30px; font-family: monospace"">retorno</span>"," ","","exp-sent","retorno","","",""
"","2133","html-keyboard-response","114","687927","0.0-3.0-1.81","<span style=""font-size:30px; font-family: monospace"">com</span>"," ","","exp-sent","com","","",""
"","11893","html-keyboard-response","115","700070","0.0-3.0-1.82","<span style=""font-size:30px; font-family: monospace"">cuidado.</span>"," ","","exp-sent","cuidado.","","",""
"","null","html-keyboard-response","116","701322","0.0-3.0-0.83-0.83","<span style= ""font-size:30px; font-family: monospace"">+</span>","null","fixation","","","","",""
"","3186","html-keyboard-response","117","704759","0.0-3.0-1.83","<span style=""font-size:30px; font-family: monospace"">Contos</span>"," ","","exp-sent","Contos","","",""
"","3717","html-keyboard-response","118","708726","0.0-3.0-1.84","<span style=""font-size:30px; font-family: monospace"">de</span>"," ","","exp-sent","de","","",""
"","4005","html-keyboard-response","119","712982","0.0-3.0-1.85","<span style=""font-size:30px; font-family: monospace"">ação</span>"," ","","exp-sent","ação","","",""
"","3925","html-keyboard-response","120","717158","0.0-3.0-1.86","<span style=""font-size:30px; font-family: monospace"">têm</span>"," ","","exp-sent","têm","","",""
"","6693","html-keyboard-response","121","724102","0.0-3.0-1.87","<span style=""font-size:30px; font-family: monospace"">chantagem</span>"," ","","exp-sent","chantagem","","",""
"","2423","html-keyboard-response","122","726790","0.0-3.0-1.88","<span style=""font-size:30px; font-family: monospace"">e</span>"," ","","exp-sent","e","","",""
"","3765","html-keyboard-response","123","730807","0.0-3.0-1.89","<span style=""font-size:30px; font-family: monospace"">muita</span>"," ","","exp-sent","muita","","",""
"","25077","html-keyboard-response","124","756134","0.0-3.0-1.90","<span style=""font-size:30px; font-family: monospace"">luta.</span>"," ","","exp-sent","luta.","","",""
"","null","html-keyboard-response","125","757386","0.0-3.0-0.91-0.91","<span style= ""font-size:30px; font-family: monospace"">+</span>","null","fixation","","","","",""
"","3138","html-keyboard-response","126","760774","0.0-3.0-1.91","<span style=""font-size:30px; font-family: monospace"">A</span>"," ","","exp-sent","A","","",""
"","11253","html-keyboard-response","127","772278","0.0-3.0-1.92","<span style=""font-size:30px; font-family: monospace"">bisavó</span>"," ","","exp-sent","bisavó","","",""
"","3749","html-keyboard-response","128","776278","0.0-3.0-1.93","<span style=""font-size:30px; font-family: monospace"">recebeu</span>"," ","","exp-sent","recebeu","","",""
"","10102","html-keyboard-response","129","786630","0.0-3.0-1.94","<span style=""font-size:30px; font-family: monospace"">um</span>"," ","","exp-sent","um","","",""
"","12405","html-keyboard-response","130","799286","0.0-3.0-1.95","<span style=""font-size:30px; font-family: monospace"">benefício</span>"," ","","exp-sent","benefício","","",""
"","10597","html-keyboard-response","131","810134","0.0-3.0-1.96","<span style=""font-size:30px; font-family: monospace"">temporário</span>"," ","","exp-sent","temporário","","",""
"","2244","html-keyboard-response","132","812630","0.0-3.0-1.97","<span style=""font-size:30px; font-family: monospace"">do</span>"," ","","exp-sent","do","","",""
"","12501","html-keyboard-response","133","825382","0.0-3.0-1.98","<span style=""font-size:30px; font-family: monospace"">governo.</span>"," ","","exp-sent","governo.","","",""
"","null","html-keyboard-response","134","826634","0.0-3.0-0.99-0.99","<span style= ""font-size:30px; font-family: monospace"">+</span>","null","fixation","","","","",""
"","5217","html-keyboard-response","135","832102","0.0-3.0-1.99","<span style=""font-size:30px; font-family: monospace"">As</span>"," ","","exp-sent","As","","",""
"","2373","html-keyboard-response","136","834726","0.0-3.0-1.100","<span style=""font-size:30px; font-family: monospace"">crianças</span>"," ","","exp-sent","crianças","","",""
"","3860","html-keyboard-response","137","838838","0.0-3.0-1.101","<span style=""font-size:30px; font-family: monospace"">brincaram</span>"," ","","exp-sent","brincaram","","",""
"","2165","html-keyboard-response","138","841254","0.0-3.0-1.102","<span style=""font-size:30px; font-family: monospace"">no</span>"," ","","exp-sent","no","","",""
"","2661","html-keyboard-response","139","844166","0.0-3.0-1.103","<span style=""font-size:30px; font-family: monospace"">balanço</span>"," ","","exp-sent","balanço","","",""
"","2390","html-keyboard-response","140","846806","0.0-3.0-1.104","<span style=""font-size:30px; font-family: monospace"">a</span>"," ","","exp-sent","a","","",""
"","1941","html-keyboard-response","141","848998","0.0-3.0-1.105","<span style=""font-size:30px; font-family: monospace"">tarde</span>"," ","","exp-sent","tarde","","",""
"","9093","html-keyboard-response","142","858342","0.0-3.0-1.106","<span style=""font-size:30px; font-family: monospace"">toda.</span>"," ","","exp-sent","toda.","","",""
"","null","html-keyboard-response","143","859594","0.0-3.0-0.107-0.107","<span style= ""font-size:30px; font-family: monospace"">+</span>","null","fixation","","","","",""
"","6033","html-keyboard-response","144","865878","0.0-3.0-1.107","<span style=""font-size:30px; font-family: monospace"">Ela</span>"," ","","exp-sent","Ela","","",""
"","3972","html-keyboard-response","145","870102","0.0-3.0-1.108","<span style=""font-size:30px; font-family: monospace"">gosta</span>"," ","","exp-sent","gosta","","",""
"","2245","html-keyboard-response","146","872598","0.0-3.0-1.109","<span style=""font-size:30px; font-family: monospace"">de</span>"," ","","exp-sent","de","","",""
"","1941","html-keyboard-response","147","874790","0.0-3.0-1.110","<span style=""font-size:30px; font-family: monospace"">comida</span>"," ","","exp-sent","comida","","",""
"","2165","html-keyboard-response","148","877206","0.0-3.0-1.111","<span style=""font-size:30px; font-family: monospace"">natural</span>"," ","","exp-sent","natural","","",""
"","2693","html-keyboard-response","149","880150","0.0-3.0-1.112","<span style=""font-size:30px; font-family: monospace"">no</span>"," ","","exp-sent","no","","",""
"","24245","html-keyboard-response","150","904646","0.0-3.0-1.113","<span style=""font-size:30px; font-family: monospace"">almoço.</span>"," ","","comp","almoço.","","",""
"","14261","html-keyboard-response","151","919158","0.0-3.0-2.113-0.113","<span style=""font-size:30px; font-family: monospace"">Ela gosta de comida natural no almoço?</span>","s","","comp","","Ela gosta de comida natural no almoço?","sim","false"
"","null","html-keyboard-response","152","920659","0.0-3.0-0.114-0.114","<span style= ""font-size:30px; font-family: monospace"">+</span>","null","fixation","","","","",""
"","5911","html-keyboard-response","153","926821","0.0-3.0-1.114","<span style=""font-size:30px; font-family: monospace"">Barulho</span>"," ","","exp-sent","Barulho","","",""
"","5142","html-keyboard-response","154","932214","0.0-3.0-1.115","<span style=""font-size:30px; font-family: monospace"">de</span>"," ","","exp-sent","de","","",""
"","3973","html-keyboard-response","155","936437","0.0-3.0-1.116","<span style=""font-size:30px; font-family: monospace"">carros</span>"," ","","exp-sent","carros","","",""
"","2821","html-keyboard-response","156","939509","0.0-3.0-1.117","<span style=""font-size:30px; font-family: monospace"">é</span>"," ","","exp-sent","é","","",""
"","2838","html-keyboard-response","157","942598","0.0-3.0-1.118","<span style=""font-size:30px; font-family: monospace"">irritante</span>"," ","","exp-sent","irritante","","",""
"","3445","html-keyboard-response","158","946293","0.0-3.0-1.119","<span style=""font-size:30px; font-family: monospace"">para</span>"," ","","exp-sent","para","","",""
"","2036","html-keyboard-response","159","948581","0.0-3.0-1.120","<span style=""font-size:30px; font-family: monospace"">a</span>"," ","","exp-sent","a","","",""
"","16389","html-keyboard-response","160","965221","0.0-3.0-1.121","<span style=""font-size:30px; font-family: monospace"">moça.</span>"," ","","exp-sent","moça.","","",""
"","null","html-keyboard-response","161","966474","0.0-3.0-0.122-0.122","<span style= ""font-size:30px; font-family: monospace"">+</span>","null","fixation","","","","",""
"","5329","html-keyboard-response","162","972053","0.0-3.0-1.122","<span style=""font-size:30px; font-family: monospace"">A</span>"," ","","exp-sent","A","","",""
"","6436","html-keyboard-response","163","978741","0.0-3.0-1.123","<span style=""font-size:30px; font-family: monospace"">loja</span>"," ","","exp-sent","loja","","",""
"","6981","html-keyboard-response","164","985973","0.0-3.0-1.124","<span style=""font-size:30px; font-family: monospace"">também</span>"," ","","exp-sent","também","","",""
"","15637","html-keyboard-response","165","1001861","0.0-3.0-1.125","<span style=""font-size:30px; font-family: monospace"">vende</span>"," ","","exp-sent","vende","","",""
"","5031","html-keyboard-response","166","1007157","0.0-3.0-1.126","<span style=""font-size:30px; font-family: monospace"">taça</span>"," ","","exp-sent","taça","","",""
"","1605","html-keyboard-response","167","1009013","0.0-3.0-1.127","<span style=""font-size:30px; font-family: monospace"">de</span>"," ","","exp-sent","de","","",""
"","2902","html-keyboard-response","168","1012165","0.0-3.0-1.128","<span style=""font-size:30px; font-family: monospace"">vinho</span>"," ","","exp-sent","vinho","","",""
"","1205","html-keyboard-response","169","1013621","0.0-3.0-1.129","<span style=""font-size:30px; font-family: monospace"">e</span>"," ","","exp-sent","e","","",""
"","16709","html-keyboard-response","170","1030581","0.0-3.0-1.130","<span style=""font-size:30px; font-family: monospace"">espumante.</span>"," ","","exp-sent","espumante.","","",""
"","null","html-keyboard-response","171","1031833","0.0-3.0-0.131-0.131","<span style= ""font-size:30px; font-family: monospace"">+</span>","null","fixation","","","","",""
"","3041","html-keyboard-response","172","1035125","0.0-3.0-1.131","<span style=""font-size:30px; font-family: monospace"">A</span>"," ","","exp-sent","A","","",""
"","3925","html-keyboard-response","173","1039301","0.0-3.0-1.132","<span style=""font-size:30px; font-family: monospace"">bruxa</span>"," ","","exp-sent","bruxa","","",""
"","13685","html-keyboard-response","174","1053237","0.0-3.0-1.133","<span style=""font-size:30px; font-family: monospace"">tinha</span>"," ","","exp-sent","tinha","","",""
"","14757","html-keyboard-response","175","1068245","0.0-3.0-1.134","<span style=""font-size:30px; font-family: monospace"">uma</span>"," ","","exp-sent","uma","","",""
"","4053","html-keyboard-response","176","1072549","0.0-3.0-1.135","<span style=""font-size:30px; font-family: monospace"">vassoura</span>"," ","","exp-sent","vassoura","","",""
"","1829","html-keyboard-response","177","1074629","0.0-3.0-1.136","<span style=""font-size:30px; font-family: monospace"">e</span>"," ","","exp-sent","e","","",""
"","1589","html-keyboard-response","178","1076469","0.0-3.0-1.137","<span style=""font-size:30px; font-family: monospace"">um</span>"," ","","exp-sent","um","","",""
"","37845","html-keyboard-response","179","1114565","0.0-3.0-1.138","<span style=""font-size:30px; font-family: monospace"">gato.</span>"," ","","exp-sent","gato.","","",""
"","null","html-keyboard-response","180","1115816","0.0-3.0-0.139-0.139","<span style= ""font-size:30px; font-family: monospace"">+</span>","null","fixation","","","","",""
"","3153","html-keyboard-response","181","1119221","0.0-3.0-1.139","<span style=""font-size:30px; font-family: monospace"">Eu</span>"," ","","exp-sent","Eu","","",""
"","2405","html-keyboard-response","182","1121877","0.0-3.0-1.140","<span style=""font-size:30px; font-family: monospace"">me</span>"," ","","exp-sent","me","","",""
"","3989","html-keyboard-response","183","1126117","0.0-3.0-1.141","<span style=""font-size:30px; font-family: monospace"">divirto</span>"," ","","exp-sent","divirto","","",""
"","2597","html-keyboard-response","184","1128965","0.0-3.0-1.142","<span style=""font-size:30px; font-family: monospace"">em</span>"," ","","exp-sent","em","","",""
"","3013","html-keyboard-response","185","1132229","0.0-3.0-1.143","<span style=""font-size:30px; font-family: monospace"">festas</span>"," ","","exp-sent","festas","","",""
"","2932","html-keyboard-response","186","1135413","0.0-3.0-1.144","<span style=""font-size:30px; font-family: monospace"">de</span>"," ","","exp-sent","de","","",""
"","12389","html-keyboard-response","187","1148053","0.0-3.0-1.145","<span style=""font-size:30px; font-family: monospace"">criança.</span>"," ","","exp-sent","criança.","","",""
"","null","html-keyboard-response","188","1149306","0.0-3.0-0.146-0.146","<span style= ""font-size:30px; font-family: monospace"">+</span>","null","fixation","","","","",""
"","6064","html-keyboard-response","189","1155621","0.0-3.0-1.146","<span style=""font-size:30px; font-family: monospace"">A</span>"," ","","exp-sent","A","","",""
"","6680","html-keyboard-response","190","1162565","0.0-3.0-1.147","<span style=""font-size:30px; font-family: monospace"">janela</span>"," ","","exp-sent","janela","","",""
"","3605","html-keyboard-response","191","1166421","0.0-3.0-1.148","<span style=""font-size:30px; font-family: monospace"">alta</span>"," ","","exp-sent","alta","","",""
"","12165","html-keyboard-response","192","1178837","0.0-3.0-1.149","<span style=""font-size:30px; font-family: monospace"">estava</span>"," ","","exp-sent","estava","","",""
"","2901","html-keyboard-response","193","1181988","0.0-3.0-1.150","<span style=""font-size:30px; font-family: monospace"">quebrada</span>"," ","","exp-sent","quebrada","","",""
"","2133","html-keyboard-response","194","1184372","0.0-3.0-1.151","<span style=""font-size:30px; font-family: monospace"">desde</span>"," ","","exp-sent","desde","","",""
"","14005","html-keyboard-response","195","1198628","0.0-3.0-1.152","<span style=""font-size:30px; font-family: monospace"">ontem.</span>"," ","","comp","ontem.","","",""
"","8645","html-keyboard-response","196","1207525","0.0-3.0-2.152-0.152","<span style=""font-size:30px; font-family: monospace"">A janela alta estava quebrada?</span>","n","","comp","","A janela alta estava quebrada?","sim","false"
"","null","html-keyboard-response","197","1209026","0.0-3.0-0.153-0.153","<span style= ""font-size:30px; font-family: monospace"">+</span>","null","fixation","","","","",""
"","3736","html-keyboard-response","198","1213012","0.0-3.0-1.153","<span style=""font-size:30px; font-family: monospace"">O</span>"," ","","exp-sent","O","","",""
"","12454","html-keyboard-response","199","1225717","0.0-3.0-1.154","<span style=""font-size:30px; font-family: monospace"">moço</span>"," ","","exp-sent","moço","","",""
"","2340","html-keyboard-response","200","1228308","0.0-3.0-1.155","<span style=""font-size:30px; font-family: monospace"">usou</span>"," ","","exp-sent","usou","","",""
"","2436","html-keyboard-response","201","1230996","0.0-3.0-1.156","<span style=""font-size:30px; font-family: monospace"">várias</span>"," ","","exp-sent","várias","","",""
"","2950","html-keyboard-response","202","1234197","0.0-3.0-1.157","<span style=""font-size:30px; font-family: monospace"">velas</span>"," ","","exp-sent","velas","","",""
"","2756","html-keyboard-response","203","1237204","0.0-3.0-1.158","<span style=""font-size:30px; font-family: monospace"">no</span>"," ","","exp-sent","no","","",""
"","5860","html-keyboard-response","204","1243316","0.0-3.0-1.159","<span style=""font-size:30px; font-family: monospace"">enfeite</span>"," ","","exp-sent","enfeite","","",""
"","2149","html-keyboard-response","205","1245716","0.0-3.0-1.160","<span style=""font-size:30px; font-family: monospace"">de</span>"," ","","exp-sent","de","","",""
"","12036","html-keyboard-response","206","1258004","0.0-3.0-1.161","<span style=""font-size:30px; font-family: monospace"">mesa.</span>"," ","","exp-sent","mesa.","","",""
"","null","html-keyboard-response","207","1259257","0.0-3.0-0.162-0.162","<span style= ""font-size:30px; font-family: monospace"">+</span>","null","fixation","","","","",""
"","2609","html-keyboard-response","208","1262116","0.0-3.0-1.162","<span style=""font-size:30px; font-family: monospace"">Gostamos</span>"," ","","exp-sent","Gostamos","","",""
"","3029","html-keyboard-response","209","1265396","0.0-3.0-1.163","<span style=""font-size:30px; font-family: monospace"">de</span>"," ","","exp-sent","de","","",""
"","2741","html-keyboard-response","210","1268388","0.0-3.0-1.164","<span style=""font-size:30px; font-family: monospace"">suco</span>"," ","","exp-sent","suco","","",""
"","1893","html-keyboard-response","211","1270532","0.0-3.0-1.165","<span style=""font-size:30px; font-family: monospace"">em</span>"," ","","exp-sent","em","","",""
"","2310","html-keyboard-response","212","1273092","0.0-3.0-1.166","<span style=""font-size:30px; font-family: monospace"">garrafa</span>"," ","","exp-sent","garrafa","","",""
"","1685","html-keyboard-response","213","1275028","0.0-3.0-1.167","<span style=""font-size:30px; font-family: monospace"">de</span>"," ","","exp-sent","de","","",""
"","1795","html-keyboard-response","214","1277076","0.0-3.0-1.168","<span style=""font-size:30px; font-family: monospace"">tamanho</span>"," ","","exp-sent","tamanho","","",""
"","26453","html-keyboard-response","215","1303780","0.0-3.0-1.169","<span style=""font-size:30px; font-family: monospace"">pequeno.</span>"," ","","exp-sent","pequeno.","","",""
"","null","html-keyboard-response","216","1305035","0.0-3.0-0.170-0.170","<span style= ""font-size:30px; font-family: monospace"">+</span>","null","fixation","","","","",""
"","4718","html-keyboard-response","217","1310004","0.0-3.0-1.170","<span style=""font-size:30px; font-family: monospace"">Sua</span>"," ","","exp-sent","Sua","","",""
"","3206","html-keyboard-response","218","1313460","0.0-3.0-1.171","<span style=""font-size:30px; font-family: monospace"">filha</span>"," ","","exp-sent","filha","","",""
"","3061","html-keyboard-response","219","1316772","0.0-3.0-1.172","<span style=""font-size:30px; font-family: monospace"">é</span>"," ","","exp-sent","é","","",""
"","2451","html-keyboard-response","220","1319476","0.0-3.0-1.173","<span style=""font-size:30px; font-family: monospace"">muito</span>"," ","","exp-sent","muito","","",""
"","1878","html-keyboard-response","221","1321604","0.0-3.0-1.174","<span style=""font-size:30px; font-family: monospace"">capaz</span>"," ","","exp-sent","capaz","","",""
"","1877","html-keyboard-response","222","1323732","0.0-3.0-1.175","<span style=""font-size:30px; font-family: monospace"">e</span>"," ","","exp-sent","e","","",""
"","13493","html-keyboard-response","223","1337476","0.0-3.0-1.176","<span style=""font-size:30px; font-family: monospace"">esforçada.</span>"," ","","exp-sent","esforçada.","","",""
"","null","html-keyboard-response","224","1338728","0.0-3.0-0.177-0.177","<span style= ""font-size:30px; font-family: monospace"">+</span>","null","fixation","","","","",""
"","2225","html-keyboard-response","225","1341204","0.0-3.0-1.177","<span style=""font-size:30px; font-family: monospace"">A</span>"," ","","exp-sent","A","","",""
"","5077","html-keyboard-response","226","1346532","0.0-3.0-1.178","<span style=""font-size:30px; font-family: monospace"">batida</span>"," ","","exp-sent","batida","","",""
"","9237","html-keyboard-response","227","1356020","0.0-3.0-1.179","<span style=""font-size:30px; font-family: monospace"">causou</span>"," ","","exp-sent","causou","","",""
"","4228","html-keyboard-response","228","1360500","0.0-3.0-1.180","<span style=""font-size:30px; font-family: monospace"">muita</span>"," ","","exp-sent","muita","","",""
"","4549","html-keyboard-response","229","1365300","0.0-3.0-1.181","<span style=""font-size:30px; font-family: monospace"">confusão</span>"," ","","exp-sent","confusão","","",""
"","2709","html-keyboard-response","230","1368260","0.0-3.0-1.182","<span style=""font-size:30px; font-family: monospace"">na</span>"," ","","exp-sent","na","","",""
"","23730","html-keyboard-response","231","1392244","0.0-3.0-1.183","<span style=""font-size:30px; font-family: monospace"">estrada.</span>"," ","","exp-sent","estrada.","","",""
"","null","html-keyboard-response","232","1393496","0.0-3.0-0.184-0.184","<span style= ""font-size:30px; font-family: monospace"">+</span>","null","fixation","","","","",""
"","2882","html-keyboard-response","233","1396628","0.0-3.0-1.184","<span style=""font-size:30px; font-family: monospace"">Eu</span>"," ","","exp-sent","Eu","","",""
"","2933","html-keyboard-response","234","1399812","0.0-3.0-1.185","<span style=""font-size:30px; font-family: monospace"">cozinhei</span>"," ","","exp-sent","cozinhei","","",""
"","4677","html-keyboard-response","235","1404740","0.0-3.0-1.186","<span style=""font-size:30px; font-family: monospace"">um</span>"," ","","exp-sent","um","","",""
"","2800","html-keyboard-response","236","1407796","0.0-3.0-1.187","<span style=""font-size:30px; font-family: monospace"">almoço</span>"," ","","exp-sent","almoço","","",""
"","2789","html-keyboard-response","237","1410835","0.0-3.0-1.188","<span style=""font-size:30px; font-family: monospace"">nutritivo</span>"," ","","exp-sent","nutritivo","","",""
"","2374","html-keyboard-response","238","1413459","0.0-3.0-1.189","<span style=""font-size:30px; font-family: monospace"">para</span>"," ","","exp-sent","para","","",""
"","35573","html-keyboard-response","239","1449283","0.0-3.0-1.190","<span style=""font-size:30px; font-family: monospace"">hoje.</span>"," ","","comp","hoje.","","",""
"","20837","html-keyboard-response","240","1470371","0.0-3.0-2.190-0.190","<span style=""font-size:30px; font-family: monospace"">O almoço era nutritivo?</span>","s","","comp","","O almoço era nutritivo?","sim","false"
"","null","html-keyboard-response","241","1471874","0.0-3.0-0.191-0.191","<span style= ""font-size:30px; font-family: monospace"">+</span>","null","fixation","","","","",""
"","1975","html-keyboard-response","242","1474099","0.0-3.0-1.191","<span style=""font-size:30px; font-family: monospace"">Preciso</span>"," ","","exp-sent","Preciso","","",""
"","3125","html-keyboard-response","243","1477475","0.0-3.0-1.192","<span style=""font-size:30px; font-family: monospace"">de</span>"," ","","exp-sent","de","","",""
"","2758","html-keyboard-response","244","1480484","0.0-3.0-1.193","<span style=""font-size:30px; font-family: monospace"">um</span>"," ","","exp-sent","um","","",""
"","15092","html-keyboard-response","245","1495827","0.0-3.0-1.194","<span style=""font-size:30px; font-family: monospace"">relatório</span>"," ","","exp-sent","relatório","","",""
"","1989","html-keyboard-response","246","1498067","0.0-3.0-1.195","<span style=""font-size:30px; font-family: monospace"">oficial</span>"," ","","exp-sent","oficial","","",""
"","1925","html-keyboard-response","247","1500243","0.0-3.0-1.196","<span style=""font-size:30px; font-family: monospace"">para</span>"," ","","exp-sent","para","","",""
"","8405","html-keyboard-response","248","1508899","0.0-3.0-1.197","<span style=""font-size:30px; font-family: monospace"">amanhã.</span>"," ","","exp-sent","amanhã.","","",""
"","null","html-keyboard-response","249","1510151","0.0-3.0-0.198-0.198","<span style= ""font-size:30px; font-family: monospace"">+</span>","null","fixation","","","","",""
"","2033","html-keyboard-response","250","1512435","0.0-3.0-1.198","<span style=""font-size:30px; font-family: monospace"">Ele</span>"," ","","exp-sent","Ele","","",""
"","3813","html-keyboard-response","251","1516499","0.0-3.0-1.199","<span style=""font-size:30px; font-family: monospace"">viu</span>"," ","","exp-sent","viu","","",""
"","2933","html-keyboard-response","252","1519683","0.0-3.0-1.200","<span style=""font-size:30px; font-family: monospace"">um</span>"," ","","exp-sent","um","","",""
"","3253","html-keyboard-response","253","1523187","0.0-3.0-1.201","<span style=""font-size:30px; font-family: monospace"">inseto</span>"," ","","exp-sent","inseto","","",""
"","1957","html-keyboard-response","254","1525395","0.0-3.0-1.202","<span style=""font-size:30px; font-family: monospace"">marrom</span>"," ","","exp-sent","marrom","","",""
"","1765","html-keyboard-response","255","1527411","0.0-3.0-1.203","<span style=""font-size:30px; font-family: monospace"">na</span>"," ","","exp-sent","na","","",""
"","10245","html-keyboard-response","256","1537907","0.0-3.0-1.204","<span style=""font-size:30px; font-family: monospace"">parede.</span>"," ","","exp-sent","parede.","","",""
"","null","html-keyboard-response","257","1539158","0.0-3.0-0.205-0.205","<span style= ""font-size:30px; font-family: monospace"">+</span>","null","fixation","","","","",""
"","4193","html-keyboard-response","258","1543603","0.0-3.0-1.205","<span style=""font-size:30px; font-family: monospace"">O</span>"," ","","exp-sent","O","","",""
"","9461","html-keyboard-response","259","1553315","0.0-3.0-1.206","<span style=""font-size:30px; font-family: monospace"">avô</span>"," ","","exp-sent","avô","","",""
"","3925","html-keyboard-response","260","1557491","0.0-3.0-1.207","<span style=""font-size:30px; font-family: monospace"">fez</span>"," ","","exp-sent","fez","","",""
"","9317","html-keyboard-response","261","1567059","0.0-3.0-1.208","<span style=""font-size:30px; font-family: monospace"">uma</span>"," ","","exp-sent","uma","","",""
"","3296","html-keyboard-response","262","1570611","0.0-3.0-1.209","<span style=""font-size:30px; font-family: monospace"">lista</span>"," ","","exp-sent","lista","","",""
"","2117","html-keyboard-response","263","1572979","0.0-3.0-1.210","<span style=""font-size:30px; font-family: monospace"">de</span>"," ","","exp-sent","de","","",""
"","2772","html-keyboard-response","264","1576003","0.0-3.0-1.211","<span style=""font-size:30px; font-family: monospace"">compras</span>"," ","","exp-sent","compras","","",""
"","2293","html-keyboard-response","265","1578547","0.0-3.0-1.212","<span style=""font-size:30px; font-family: monospace"">do</span>"," ","","exp-sent","do","","",""
"","15157","html-keyboard-response","266","1593955","0.0-3.0-1.213","<span style=""font-size:30px; font-family: monospace"">mercado.</span>"," ","","exp-sent","mercado.","","",""
"","null","html-keyboard-response","267","1595206","0.0-3.0-0.214-0.214","<span style= ""font-size:30px; font-family: monospace"">+</span>","null","fixation","","","","",""
"","3472","html-keyboard-response","268","1598930","0.0-3.0-1.214","<span style=""font-size:30px; font-family: monospace"">As</span>"," ","","exp-sent","As","","",""
"","5109","html-keyboard-response","269","1604291","0.0-3.0-1.215","<span style=""font-size:30px; font-family: monospace"">pessoas</span>"," ","","exp-sent","pessoas","","",""
"","2789","html-keyboard-response","270","1607331","0.0-3.0-1.216","<span style=""font-size:30px; font-family: monospace"">não</span>"," ","","exp-sent","não","","",""
"","2006","html-keyboard-response","271","1609587","0.0-3.0-1.217","<span style=""font-size:30px; font-family: monospace"">enviam</span>"," ","","exp-sent","enviam","","",""
"","2069","html-keyboard-response","272","1611907","0.0-3.0-1.218","<span style=""font-size:30px; font-family: monospace"">telegrama</span>"," ","","exp-sent","telegrama","","",""
"","1829","html-keyboard-response","273","1613987","0.0-3.0-1.219","<span style=""font-size:30px; font-family: monospace"">nos</span>"," ","","exp-sent","nos","","",""
"","1525","html-keyboard-response","274","1615763","0.0-3.0-1.220","<span style=""font-size:30px; font-family: monospace"">dias</span>"," ","","exp-sent","dias","","",""
"","1108","html-keyboard-response","275","1617122","0.0-3.0-1.221","<span style=""font-size:30px; font-family: monospace"">de</span>"," ","","exp-sent","de","","",""
"","14165","html-keyboard-response","276","1631539","0.0-3.0-1.222","<span style=""font-size:30px; font-family: monospace"">hoje.</span>"," ","","exp-sent","hoje.","","",""
"","null","html-keyboard-response","277","1632794","0.0-3.0-0.223-0.223","<span style= ""font-size:30px; font-family: monospace"">+</span>","null","fixation","","","","",""
"","3821","html-keyboard-response","278","1636867","0.0-3.0-1.223","<span style=""font-size:30px; font-family: monospace"">Ele</span>"," ","","exp-sent","Ele","","",""
"","3237","html-keyboard-response","279","1640354","0.0-3.0-1.224","<span style=""font-size:30px; font-family: monospace"">não</span>"," ","","exp-sent","não","","",""
"","1685","html-keyboard-response","280","1642290","0.0-3.0-1.225","<span style=""font-size:30px; font-family: monospace"">gosta</span>"," ","","exp-sent","gosta","","",""
"","1429","html-keyboard-response","281","1643971","0.0-3.0-1.226","<span style=""font-size:30px; font-family: monospace"">de</span>"," ","","exp-sent","de","","",""
"","1909","html-keyboard-response","282","1646130","0.0-3.0-1.227","<span style=""font-size:30px; font-family: monospace"">tomate</span>"," ","","exp-sent","tomate","","",""
"","2389","html-keyboard-response","283","1648771","0.0-3.0-1.228","<span style=""font-size:30px; font-family: monospace"">misturado</span>"," ","","exp-sent","misturado","","",""
"","1413","html-keyboard-response","284","1650435","0.0-3.0-1.229","<span style=""font-size:30px; font-family: monospace"">na</span>"," ","","exp-sent","na","","",""
"","11285","html-keyboard-response","285","1661971","0.0-3.0-1.230","<span style=""font-size:30px; font-family: monospace"">comida.</span>"," ","","comp","comida.","","",""
"","12533","html-keyboard-response","286","1674755","0.0-3.0-2.230-0.230","<span style=""font-size:30px; font-family: monospace"">Ele gosta de tomate na comida?</span>","s","","comp","","Ele gosta de tomate na comida?","não","false"
"","null","html-keyboard-response","287","1676256","0.0-3.0-0.231-0.231","<span style= ""font-size:30px; font-family: monospace"">+</span>","null","fixation","","","","",""
"","10136","html-keyboard-response","288","1686642","0.0-3.0-1.231","<span style=""font-size:30px; font-family: monospace"">Ganhamos</span>"," ","","exp-sent","Ganhamos","","",""
"","2821","html-keyboard-response","289","1689715","0.0-3.0-1.232","<span style=""font-size:30px; font-family: monospace"">passagem</span>"," ","","exp-sent","passagem","","",""
"","2517","html-keyboard-response","290","1692483","0.0-3.0-1.233","<span style=""font-size:30px; font-family: monospace"">para</span>"," ","","exp-sent","para","","",""
"","2677","html-keyboard-response","291","1695411","0.0-3.0-1.234","<span style=""font-size:30px; font-family: monospace"">uma</span>"," ","","exp-sent","uma","","",""
"","2134","html-keyboard-response","292","1697795","0.0-3.0-1.235","<span style=""font-size:30px; font-family: monospace"">viagem</span>"," ","","exp-sent","viagem","","",""
"","1524","html-keyboard-response","293","1699570","0.0-3.0-1.236","<span style=""font-size:30px; font-family: monospace"">de</span>"," ","","exp-sent","de","","",""
"","14181","html-keyboard-response","294","1714003","0.0-3.0-1.237","<span style=""font-size:30px; font-family: monospace"">férias.</span>"," ","","exp-sent","férias.","","",""
"","null","html-keyboard-response","295","1715254","0.0-3.0-0.238-0.238","<span style= ""font-size:30px; font-family: monospace"">+</span>","null","fixation","","","","",""
"","5841","html-keyboard-response","296","1721346","0.0-3.0-1.238","<span style=""font-size:30px; font-family: monospace"">Caiu</span>"," ","","exp-sent","Caiu","","",""
"","2742","html-keyboard-response","297","1724338","0.0-3.0-1.239","<span style=""font-size:30px; font-family: monospace"">algo</span>"," ","","exp-sent","algo","","",""
"","2020","html-keyboard-response","298","1726610","0.0-3.0-1.240","<span style=""font-size:30px; font-family: monospace"">no</span>"," ","","exp-sent","no","","",""
"","4021","html-keyboard-response","299","1730882","0.0-3.0-1.241","<span style=""font-size:30px; font-family: monospace"">meu</span>"," ","","exp-sent","meu","","",""
"","4901","html-keyboard-response","300","1736034","0.0-3.0-1.242","<span style=""font-size:30px; font-family: monospace"">olho</span>"," ","","exp-sent","olho","","",""
"","2725","html-keyboard-response","301","1739010","0.0-3.0-1.243","<span style=""font-size:30px; font-family: monospace"">ontem</span>"," ","","exp-sent","ontem","","",""
"","2373","html-keyboard-response","302","1741634","0.0-3.0-1.244","<span style=""font-size:30px; font-family: monospace"">de</span>"," ","","exp-sent","de","","",""
"","9893","html-keyboard-response","303","1751778","0.0-3.0-1.245","<span style=""font-size:30px; font-family: monospace"">tarde.</span>"," ","","exp-sent","tarde.","","",""
"","null","html-keyboard-response","304","1753032","0.0-3.0-0.246-0.246","<span style= ""font-size:30px; font-family: monospace"">+</span>","null","fixation","","","","",""
"","3648","html-keyboard-response","305","1756930","0.0-3.0-1.246","<span style=""font-size:30px; font-family: monospace"">Não</span>"," ","","exp-sent","Não","","",""
"","3141","html-keyboard-response","306","1760322","0.0-3.0-1.247","<span style=""font-size:30px; font-family: monospace"">havia</span>"," ","","exp-sent","havia","","",""
"","2501","html-keyboard-response","307","1763074","0.0-3.0-1.248","<span style=""font-size:30px; font-family: monospace"">mais</span>"," ","","exp-sent","mais","","",""
"","2693","html-keyboard-response","308","1766018","0.0-3.0-1.249","<span style=""font-size:30px; font-family: monospace"">nenhum</span>"," ","","exp-sent","nenhum","","",""
"","3333","html-keyboard-response","309","1769602","0.0-3.0-1.250","<span style=""font-size:30px; font-family: monospace"">ingresso</span>"," ","","exp-sent","ingresso","","",""
"","2278","html-keyboard-response","310","1772130","0.0-3.0-1.251","<span style=""font-size:30px; font-family: monospace"">para</span>"," ","","exp-sent","para","","",""
"","1189","html-keyboard-response","311","1773570","0.0-3.0-1.252","<span style=""font-size:30px; font-family: monospace"">o</span>"," ","","exp-sent","o","","",""
"","8309","html-keyboard-response","312","1782130","0.0-3.0-1.253","<span style=""font-size:30px; font-family: monospace"">evento.</span>"," ","","exp-sent","evento.","","",""
"","null","html-keyboard-response","313","1783381","0.0-3.0-0.254-0.254","<span style= ""font-size:30px; font-family: monospace"">+</span>","null","fixation","","","","",""
"","2610","html-keyboard-response","314","1786242","0.0-3.0-1.254","<span style=""font-size:30px; font-family: monospace"">A</span>"," ","","exp-sent","A","","",""
"","3909","html-keyboard-response","315","1790402","0.0-3.0-1.255","<span style=""font-size:30px; font-family: monospace"">médica</span>"," ","","exp-sent","médica","","",""
"","2645","html-keyboard-response","316","1793298","0.0-3.0-1.256","<span style=""font-size:30px; font-family: monospace"">descobriu</span>"," ","","exp-sent","descobriu","","",""
"","2356","html-keyboard-response","317","1795906","0.0-3.0-1.257","<span style=""font-size:30px; font-family: monospace"">uma</span>"," ","","exp-sent","uma","","",""
"","3748","html-keyboard-response","318","1799906","0.0-3.0-1.258","<span style=""font-size:30px; font-family: monospace"">cura</span>"," ","","exp-sent","cura","","",""
"","4149","html-keyboard-response","319","1804306","0.0-3.0-1.259","<span style=""font-size:30px; font-family: monospace"">para</span>"," ","","exp-sent","para","","",""
"","1604","html-keyboard-response","320","1806162","0.0-3.0-1.260","<span style=""font-size:30px; font-family: monospace"">a</span>"," ","","exp-sent","a","","",""
"","37301","html-keyboard-response","321","1843714","0.0-3.0-1.261","<span style=""font-size:30px; font-family: monospace"">doença.</span>"," ","","exp-sent","doença.","","",""
"","null","html-keyboard-response","322","1844966","0.0-3.0-0.262-0.262","<span style= ""font-size:30px; font-family: monospace"">+</span>","null","fixation","","","","",""
"","2546","html-keyboard-response","323","1847762","0.0-3.0-1.262","<span style=""font-size:30px; font-family: monospace"">O</span>"," ","","exp-sent","O","","",""
"","3045","html-keyboard-response","324","1851058","0.0-3.0-1.263","<span style=""font-size:30px; font-family: monospace"">menino</span>"," ","","exp-sent","menino","","",""
"","6853","html-keyboard-response","325","1858162","0.0-3.0-1.264","<span style=""font-size:30px; font-family: monospace"">riscou</span>"," ","","exp-sent","riscou","","",""
"","2901","html-keyboard-response","326","1861314","0.0-3.0-1.265","<span style=""font-size:30px; font-family: monospace"">o</span>"," ","","exp-sent","o","","",""
"","3509","html-keyboard-response","327","1865074","0.0-3.0-1.266","<span style=""font-size:30px; font-family: monospace"">caderno</span>"," ","","exp-sent","caderno","","",""
"","3157","html-keyboard-response","328","1868482","0.0-3.0-1.267","<span style=""font-size:30px; font-family: monospace"">com</span>"," ","","exp-sent","com","","",""
"","1797","html-keyboard-response","329","1870530","0.0-3.0-1.268","<span style=""font-size:30px; font-family: monospace"">a</span>"," ","","exp-sent","a","","",""
"","22084","html-keyboard-response","330","1892865","0.0-3.0-1.269","<span style=""font-size:30px; font-family: monospace"">caneta.</span>"," ","","comp","caneta.","","",""
"","26293","html-keyboard-response","331","1919410","0.0-3.0-2.269-0.269","<span style=""font-size:30px; font-family: monospace"">O menino riscou a parede com a caneta?</span>","s","","comp","","O menino riscou a parede com a caneta?","não","false"
"","null","html-keyboard-response","332","1920911","0.0-3.0-0.270-0.270","<span style= ""font-size:30px; font-family: monospace"">+</span>","null","fixation","","","","",""
"","5591","html-keyboard-response","333","1926753","0.0-3.0-1.270","<span style=""font-size:30px; font-family: monospace"">A</span>"," ","","exp-sent","A","","",""
"","2645","html-keyboard-response","334","1929649","0.0-3.0-1.271","<span style=""font-size:30px; font-family: monospace"">senhora</span>"," ","","exp-sent","senhora","","",""
"","5172","html-keyboard-response","335","1935074","0.0-3.0-1.272","<span style=""font-size:30px; font-family: monospace"">cumprimentou</span>"," ","","exp-sent","cumprimentou","","",""
"","3093","html-keyboard-response","336","1938418","0.0-3.0-1.273","<span style=""font-size:30px; font-family: monospace"">o</span>"," ","","exp-sent","o","","",""
"","1782","html-keyboard-response","337","1940450","0.0-3.0-1.274","<span style=""font-size:30px; font-family: monospace"">operador</span>"," ","","exp-sent","operador","","",""
"","5269","html-keyboard-response","338","1945970","0.0-3.0-1.275","<span style=""font-size:30px; font-family: monospace"">de</span>"," ","","exp-sent","de","","",""
"","5189","html-keyboard-response","339","1951410","0.0-3.0-1.276","<span style=""font-size:30px; font-family: monospace"">caixa.</span>"," ","","exp-sent","caixa.","","",""
"","null","html-keyboard-response","340","1952662","0.0-3.0-0.277-0.277","<span style= ""font-size:30px; font-family: monospace"">+</span>","null","fixation","","","","",""
"","1216","html-keyboard-response","341","1954130","0.0-3.0-1.277","<span style=""font-size:30px; font-family: monospace"">A</span>"," ","","exp-sent","A","","",""
"","1749","html-keyboard-response","342","1956129","0.0-3.0-1.278","<span style=""font-size:30px; font-family: monospace"">gente</span>"," ","","exp-sent","gente","","",""
"","1333","html-keyboard-response","343","1957713","0.0-3.0-1.279","<span style=""font-size:30px; font-family: monospace"">viu</span>"," ","","exp-sent","viu","","",""
"","1093","html-keyboard-response","344","1959057","0.0-3.0-1.280","<span style=""font-size:30px; font-family: monospace"">o</span>"," ","","exp-sent","o","","",""
"","1333","html-keyboard-response","345","1960641","0.0-3.0-1.281","<span style=""font-size:30px; font-family: monospace"">eclipse</span>"," ","","exp-sent","eclipse","","",""
"","1654","html-keyboard-response","346","1962546","0.0-3.0-1.282","<span style=""font-size:30px; font-family: monospace"">lunar</span>"," ","","exp-sent","lunar","","",""
"","1269","html-keyboard-response","347","1964065","0.0-3.0-1.283","<span style=""font-size:30px; font-family: monospace"">durante</span>"," ","","exp-sent","durante","","",""
"","933","html-keyboard-response","348","1965249","0.0-3.0-1.284","<span style=""font-size:30px; font-family: monospace"">o</span>"," ","","exp-sent","o","","",""
"","7669","html-keyboard-response","349","1973169","0.0-3.0-1.285","<span style=""font-size:30px; font-family: monospace"">dia.</span>"," ","","exp-sent","dia.","","",""
"","null","html-keyboard-response","350","1974421","0.0-3.0-0.286-0.286","<span style= ""font-size:30px; font-family: monospace"">+</span>","null","fixation","","","","",""
"","1553","html-keyboard-response","351","1976225","0.0-3.0-1.286","<span style=""font-size:30px; font-family: monospace"">A</span>"," ","","exp-sent","A","","",""
"","1605","html-keyboard-response","352","1978081","0.0-3.0-1.287","<span style=""font-size:30px; font-family: monospace"">mordida</span>"," ","","exp-sent","mordida","","",""
"","2501","html-keyboard-response","353","1980833","0.0-3.0-1.288","<span style=""font-size:30px; font-family: monospace"">do</span>"," ","","exp-sent","do","","",""
"","2981","html-keyboard-response","354","1984065","0.0-3.0-1.289","<span style=""font-size:30px; font-family: monospace"">cachorro</span>"," ","","exp-sent","cachorro","","",""
"","1892","html-keyboard-response","355","1986209","0.0-3.0-1.290","<span style=""font-size:30px; font-family: monospace"">voraz</span>"," ","","exp-sent","voraz","","",""
"","1686","html-keyboard-response","356","1988145","0.0-3.0-1.291","<span style=""font-size:30px; font-family: monospace"">causou</span>"," ","","exp-sent","causou","","",""
"","1077","html-keyboard-response","357","1989473","0.0-3.0-1.292","<span style=""font-size:30px; font-family: monospace"">uma</span>"," ","","exp-sent","uma","","",""
"","5381","html-keyboard-response","358","1995105","0.0-3.0-1.293","<span style=""font-size:30px; font-family: monospace"">cicatriz.</span>"," ","","exp-sent","cicatriz.","","",""
"","null","html-keyboard-response","359","1996357","0.0-3.0-0.294-0.294","<span style= ""font-size:30px; font-family: monospace"">+</span>","null","fixation","","","","",""
"","1905","html-keyboard-response","360","1998513","0.0-3.0-1.294","<span style=""font-size:30px; font-family: monospace"">Elas</span>"," ","","exp-sent","Elas","","",""
"","1236","html-keyboard-response","361","2000001","0.0-3.0-1.295","<span style=""font-size:30px; font-family: monospace"">não</span>"," ","","exp-sent","não","","",""
"","1621","html-keyboard-response","362","2001873","0.0-3.0-1.296","<span style=""font-size:30px; font-family: monospace"">viram</span>"," ","","exp-sent","viram","","",""
"","1637","html-keyboard-response","363","2003761","0.0-3.0-1.297","<span style=""font-size:30px; font-family: monospace"">nenhuma</span>"," ","","exp-sent","nenhuma","","",""
"","1605","html-keyboard-response","364","2005617","0.0-3.0-1.298","<span style=""font-size:30px; font-family: monospace"">diferença</span>"," ","","exp-sent","diferença","","",""
"","1573","html-keyboard-response","365","2007441","0.0-3.0-1.299","<span style=""font-size:30px; font-family: monospace"">entre</span>"," ","","exp-sent","entre","","",""
"","1125","html-keyboard-response","366","2008818","0.0-3.0-1.300","<span style=""font-size:30px; font-family: monospace"">os</span>"," ","","exp-sent","os","","",""
"","14772","html-keyboard-response","367","2023841","0.0-3.0-1.301","<span style=""font-size:30px; font-family: monospace"">textos.</span>"," ","","exp-sent","textos.","","",""
"","null","html-keyboard-response","368","2025093","0.0-3.0-0.302-0.302","<span style= ""font-size:30px; font-family: monospace"">+</span>","null","fixation","","","","",""
"","2353","html-keyboard-response","369","2027697","0.0-3.0-1.302","<span style=""font-size:30px; font-family: monospace"">Amanhã</span>"," ","","exp-sent","Amanhã","","",""
"","3029","html-keyboard-response","370","2030977","0.0-3.0-1.303","<span style=""font-size:30px; font-family: monospace"">vai</span>"," ","","exp-sent","vai","","",""
"","1653","html-keyboard-response","371","2032881","0.0-3.0-1.304","<span style=""font-size:30px; font-family: monospace"">ter</span>"," ","","exp-sent","ter","","",""
"","1524","html-keyboard-response","372","2034657","0.0-3.0-1.305","<span style=""font-size:30px; font-family: monospace"">um</span>"," ","","exp-sent","um","","",""
"","1717","html-keyboard-response","373","2036625","0.0-3.0-1.306","<span style=""font-size:30px; font-family: monospace"">bazar</span>"," ","","exp-sent","bazar","","",""
"","1285","html-keyboard-response","374","2038161","0.0-3.0-1.307","<span style=""font-size:30px; font-family: monospace"">no</span>"," ","","exp-sent","no","","",""
"","15429","html-keyboard-response","375","2053841","0.0-3.0-1.308","<span style=""font-size:30px; font-family: monospace"">bairro.</span>"," ","","comp","bairro.","","",""
"","7270","html-keyboard-response","376","2061361","0.0-3.0-2.308-0.308","<span style=""font-size:30px; font-family: monospace"">Amanhã vai acontecer um bazar no bairro?</span>","n","","comp","","Amanhã vai acontecer um bazar no bairro?","sim","false"
"","null","html-keyboard-response","377","2062863","0.0-3.0-0.309-0.309","<span style= ""font-size:30px; font-family: monospace"">+</span>","null","fixation","","","","",""
"","1606","html-keyboard-response","378","2064721","0.0-3.0-1.309","<span style=""font-size:30px; font-family: monospace"">Este</span>"," ","","exp-sent","Este","","",""
"","3318","html-keyboard-response","379","2068289","0.0-3.0-1.310","<span style=""font-size:30px; font-family: monospace"">conto</span>"," ","","exp-sent","conto","","",""
"","1893","html-keyboard-response","380","2070433","0.0-3.0-1.311","<span style=""font-size:30px; font-family: monospace"">tem</span>"," ","","exp-sent","tem","","",""
"","2149","html-keyboard-response","381","2072833","0.0-3.0-1.312","<span style=""font-size:30px; font-family: monospace"">um</span>"," ","","exp-sent","um","","",""
"","4421","html-keyboard-response","382","2077505","0.0-3.0-1.313","<span style=""font-size:30px; font-family: monospace"">final</span>"," ","","exp-sent","final","","",""
"","11045","html-keyboard-response","383","2088801","0.0-3.0-1.314","<span style=""font-size:30px; font-family: monospace"">perfeito.</span>"," ","","exp-sent","perfeito.","","",""
"","null","html-keyboard-response","384","2090053","0.0-3.0-0.315-0.315","<span style= ""font-size:30px; font-family: monospace"">+</span>","null","fixation","","","","",""
"","1202","html-keyboard-response","385","2091505","0.0-3.0-1.315","<span style=""font-size:30px; font-family: monospace"">Ele</span>"," ","","exp-sent","Ele","","",""
"","1957","html-keyboard-response","386","2093713","0.0-3.0-1.316","<span style=""font-size:30px; font-family: monospace"">precisa</span>"," ","","exp-sent","precisa","","",""
"","965","html-keyboard-response","387","2094929","0.0-3.0-1.317","<span style=""font-size:30px; font-family: monospace"">de</span>"," ","","exp-sent","de","","",""
"","821","html-keyboard-response","388","2096001","0.0-3.0-1.318","<span style=""font-size:30px; font-family: monospace"">um</span>"," ","","exp-sent","um","","",""
"","4526","html-keyboard-response","389","2100785","0.0-3.0-1.319","<span style=""font-size:30px; font-family: monospace"">protetor</span>"," ","","exp-sent","protetor","","",""
"","6629","html-keyboard-response","390","2107665","0.0-3.0-1.320","<span style=""font-size:30px; font-family: monospace"">de</span>"," ","","exp-sent","de","","",""
"","5491","html-keyboard-response","391","2113409","0.0-3.0-1.321","<span style=""font-size:30px; font-family: monospace"">ouvido.</span>"," ","","exp-sent","ouvido.","","",""
"","null","html-keyboard-response","392","2114660","0.0-3.0-0.322-0.322","<span style= ""font-size:30px; font-family: monospace"">+</span>","null","fixation","","","","",""
"","2610","html-keyboard-response","393","2117521","0.0-3.0-1.322","<span style=""font-size:30px; font-family: monospace"">Os</span>"," ","","exp-sent","Os","","",""
"","5109","html-keyboard-response","394","2122881","0.0-3.0-1.323","<span style=""font-size:30px; font-family: monospace"">hábitos</span>"," ","","exp-sent","hábitos","","",""
"","1812","html-keyboard-response","395","2124945","0.0-3.0-1.324","<span style=""font-size:30px; font-family: monospace"">de</span>"," ","","exp-sent","de","","",""
"","2965","html-keyboard-response","396","2128161","0.0-3.0-1.325","<span style=""font-size:30px; font-family: monospace"">lugares</span>"," ","","exp-sent","lugares","","",""
"","3189","html-keyboard-response","397","2131601","0.0-3.0-1.326","<span style=""font-size:30px; font-family: monospace"">diferentes</span>"," ","","exp-sent","diferentes","","",""
"","2294","html-keyboard-response","398","2134145","0.0-3.0-1.327","<span style=""font-size:30px; font-family: monospace"">são</span>"," ","","exp-sent","são","","",""
"","1893","html-keyboard-response","399","2136289","0.0-3.0-1.328","<span style=""font-size:30px; font-family: monospace"">muito</span>"," ","","exp-sent","muito","","",""
"","10789","html-keyboard-response","400","2147329","0.0-3.0-1.329","<span style=""font-size:30px; font-family: monospace"">lindos.</span>"," ","","exp-sent","lindos.","","",""
"","null","html-keyboard-response","401","2148580","0.0-3.0-0.330-0.330","<span style= ""font-size:30px; font-family: monospace"">+</span>","null","fixation","","","","",""
"","1553","html-keyboard-response","402","2150385","0.0-3.0-1.330","<span style=""font-size:30px; font-family: monospace"">O</span>"," ","","exp-sent","O","","",""
"","1909","html-keyboard-response","403","2152545","0.0-3.0-1.331","<span style=""font-size:30px; font-family: monospace"">médico</span>"," ","","exp-sent","médico","","",""
"","3445","html-keyboard-response","404","2156241","0.0-3.0-1.332","<span style=""font-size:30px; font-family: monospace"">corrigiu</span>"," ","","exp-sent","corrigiu","","",""
"","2101","html-keyboard-response","405","2158593","0.0-3.0-1.333","<span style=""font-size:30px; font-family: monospace"">a</span>"," ","","exp-sent","a","","",""
"","3237","html-keyboard-response","406","2162081","0.0-3.0-1.334","<span style=""font-size:30px; font-family: monospace"">postura</span>"," ","","exp-sent","postura","","",""
"","2198","html-keyboard-response","407","2164529","0.0-3.0-1.335","<span style=""font-size:30px; font-family: monospace"">das</span>"," ","","exp-sent","das","","",""
"","2245","html-keyboard-response","408","2167025","0.0-3.0-1.336","<span style=""font-size:30px; font-family: monospace"">costas</span>"," ","","exp-sent","costas","","",""
"","3411","html-keyboard-response","409","2170689","0.0-3.0-1.337","<span style=""font-size:30px; font-family: monospace"">da</span>"," ","","exp-sent","da","","",""
"","9557","html-keyboard-response","410","2180497","0.0-3.0-1.338","<span style=""font-size:30px; font-family: monospace"">pessoa.</span>"," ","","exp-sent","pessoa.","","",""
"","null","html-keyboard-response","411","2181749","0.0-3.0-0.339-0.339","<span style= ""font-size:30px; font-family: monospace"">+</span>","null","fixation","","","","",""
"","2352","html-keyboard-response","412","2184353","0.0-3.0-1.339","<span style=""font-size:30px; font-family: monospace"">Aquele</span>"," ","","exp-sent","Aquele","","",""
"","2036","html-keyboard-response","413","2186641","0.0-3.0-1.340","<span style=""font-size:30px; font-family: monospace"">era</span>"," ","","exp-sent","era","","",""
"","1829","html-keyboard-response","414","2188721","0.0-3.0-1.341","<span style=""font-size:30px; font-family: monospace"">um</span>"," ","","exp-sent","um","","",""
"","2309","html-keyboard-response","415","2191281","0.0-3.0-1.342","<span style=""font-size:30px; font-family: monospace"">caso</span>"," ","","exp-sent","caso","","",""
"","2229","html-keyboard-response","416","2193761","0.0-3.0-1.343","<span style=""font-size:30px; font-family: monospace"">real</span>"," ","","exp-sent","real","","",""
"","1365","html-keyboard-response","417","2195377","0.0-3.0-1.344","<span style=""font-size:30px; font-family: monospace"">de</span>"," ","","exp-sent","de","","",""
"","3237","html-keyboard-response","418","2198864","0.0-3.0-1.345","<span style=""font-size:30px; font-family: monospace"">sequestro</span>"," ","","exp-sent","sequestro","","",""
"","3510","html-keyboard-response","419","2202625","0.0-3.0-1.346","<span style=""font-size:30px; font-family: monospace"">premeditado.</span>"," ","","comp","premeditado.","","",""
"","22421","html-keyboard-response","420","2225297","0.0-3.0-2.346-0.346","<span style=""font-size:30px; font-family: monospace"">Aquele era um caso real de roubo?</span>","s","","comp","","Aquele era um caso real de roubo?","não","false"
"","null","html-keyboard-response","421","2226798","0.0-3.0-0.347-0.347","<span style= ""font-size:30px; font-family: monospace"">+</span>","null","fixation","","","","",""
"","1131","html-keyboard-response","422","2228192","0.0-3.0-1.347","<span style=""font-size:30px; font-family: monospace"">Eu</span>"," ","","exp-sent","Eu","","",""
"","1973","html-keyboard-response","423","2230416","0.0-3.0-1.348","<span style=""font-size:30px; font-family: monospace"">gosto</span>"," ","","exp-sent","gosto","","",""
"","1269","html-keyboard-response","424","2231936","0.0-3.0-1.349","<span style=""font-size:30px; font-family: monospace"">de</span>"," ","","exp-sent","de","","",""
"","2005","html-keyboard-response","425","2234192","0.0-3.0-1.350","<span style=""font-size:30px; font-family: monospace"">molho</span>"," ","","exp-sent","molho","","",""
"","1942","html-keyboard-response","426","2236385","0.0-3.0-1.351","<span style=""font-size:30px; font-family: monospace"">picante</span>"," ","","exp-sent","picante","","",""
"","1524","html-keyboard-response","427","2238160","0.0-3.0-1.352","<span style=""font-size:30px; font-family: monospace"">nas</span>"," ","","exp-sent","nas","","",""
"","7284","html-keyboard-response","428","2245696","0.0-3.0-1.353","<span style=""font-size:30px; font-family: monospace"">batatas.</span>"," ","","exp-sent","batatas.","","",""
"","null","html-keyboard-response","429","2246948","0.0-3.0-0.354-0.354","<span style= ""font-size:30px; font-family: monospace"">+</span>","null","fixation","","","","",""
"","1457","html-keyboard-response","430","2248657","0.0-3.0-1.354","<span style=""font-size:30px; font-family: monospace"">As</span>"," ","","exp-sent","As","","",""
"","2885","html-keyboard-response","431","2251793","0.0-3.0-1.355","<span style=""font-size:30px; font-family: monospace"">pessoas</span>"," ","","exp-sent","pessoas","","",""
"","2789","html-keyboard-response","432","2254832","0.0-3.0-1.356","<span style=""font-size:30px; font-family: monospace"">têm</span>"," ","","exp-sent","têm","","",""
"","2373","html-keyboard-response","433","2257456","0.0-3.0-1.357","<span style=""font-size:30px; font-family: monospace"">sua</span>"," ","","exp-sent","sua","","",""
"","2037","html-keyboard-response","434","2259744","0.0-3.0-1.358","<span style=""font-size:30px; font-family: monospace"">liberdade</span>"," ","","exp-sent","liberdade","","",""
"","8965","html-keyboard-response","435","2268960","0.0-3.0-1.359","<span style=""font-size:30px; font-family: monospace"">até</span>"," ","","exp-sent","até","","",""
"","2229","html-keyboard-response","436","2271440","0.0-3.0-1.360","<span style=""font-size:30px; font-family: monospace"">certo</span>"," ","","exp-sent","certo","","",""
"","5733","html-keyboard-response","437","2277424","0.0-3.0-1.361","<span style=""font-size:30px; font-family: monospace"">ponto.</span>"," ","","exp-sent","ponto.","","",""
"","null","html-keyboard-response","438","2278676","0.0-3.0-0.362-0.362","<span style= ""font-size:30px; font-family: monospace"">+</span>","null","fixation","","","","",""
"","1921","html-keyboard-response","439","2280848","0.0-3.0-1.362","<span style=""font-size:30px; font-family: monospace"">A</span>"," ","","exp-sent","A","","",""
"","2598","html-keyboard-response","440","2283696","0.0-3.0-1.363","<span style=""font-size:30px; font-family: monospace"">empresa</span>"," ","","exp-sent","empresa","","",""
"","2164","html-keyboard-response","441","2286112","0.0-3.0-1.364","<span style=""font-size:30px; font-family: monospace"">enviou</span>"," ","","exp-sent","enviou","","",""
"","1429","html-keyboard-response","442","2287792","0.0-3.0-1.365","<span style=""font-size:30px; font-family: monospace"">o</span>"," ","","exp-sent","o","","",""
"","2149","html-keyboard-response","443","2290192","0.0-3.0-1.366","<span style=""font-size:30px; font-family: monospace"">aviso</span>"," ","","exp-sent","aviso","","",""
"","1732","html-keyboard-response","444","2292176","0.0-3.0-1.367","<span style=""font-size:30px; font-family: monospace"">hoje</span>"," ","","exp-sent","hoje","","",""
"","1238","html-keyboard-response","445","2293664","0.0-3.0-1.368","<span style=""font-size:30px; font-family: monospace"">de</span>"," ","","exp-sent","de","","",""
"","8245","html-keyboard-response","446","2302160","0.0-3.0-1.369","<span style=""font-size:30px; font-family: monospace"">tarde.</span>"," ","","exp-sent","tarde.","","",""
"","null","html-keyboard-response","447","2303413","0.0-3.0-0.370-0.370","<span style= ""font-size:30px; font-family: monospace"">+</span>","null","fixation","","","","",""
"","673","html-keyboard-response","448","2304336","0.0-3.0-1.370","<span style=""font-size:30px; font-family: monospace"">A</span>"," ","","exp-sent","A","","",""
"","2435","html-keyboard-response","449","2307024","0.0-3.0-1.371","<span style=""font-size:30px; font-family: monospace"">loja</span>"," ","","exp-sent","loja","","",""
"","2757","html-keyboard-response","450","2310032","0.0-3.0-1.372","<span style=""font-size:30px; font-family: monospace"">vende</span>"," ","","exp-sent","vende","","",""
"","2021","html-keyboard-response","451","2312304","0.0-3.0-1.373","<span style=""font-size:30px; font-family: monospace"">tanto</span>"," ","","exp-sent","tanto","","",""
"","9654","html-keyboard-response","452","2322208","0.0-3.0-1.374","<span style=""font-size:30px; font-family: monospace"">frituras</span>"," ","","exp-sent","frituras","","",""
"","2356","html-keyboard-response","453","2324816","0.0-3.0-1.375","<span style=""font-size:30px; font-family: monospace"">quanto</span>"," ","","exp-sent","quanto","","",""
"","5237","html-keyboard-response","454","2330304","0.0-3.0-1.376","<span style=""font-size:30px; font-family: monospace"">comidas</span>"," ","","exp-sent","comidas","","",""
"","11668","html-keyboard-response","455","2342224","0.0-3.0-1.377","<span style=""font-size:30px; font-family: monospace"">leves.</span>"," ","","exp-sent","leves.","","",""
"","null","html-keyboard-response","456","2343476","0.0-3.0-0.378-0.378","<span style= ""font-size:30px; font-family: monospace"">+</span>","null","fixation","","","","",""
"","1569","html-keyboard-response","457","2345296","0.0-3.0-1.378","<span style=""font-size:30px; font-family: monospace"">As</span>"," ","","exp-sent","As","","",""
"","2133","html-keyboard-response","458","2347680","0.0-3.0-1.379","<span style=""font-size:30px; font-family: monospace"">cadeiras</span>"," ","","exp-sent","cadeiras","","",""
"","2949","html-keyboard-response","459","2350880","0.0-3.0-1.380","<span style=""font-size:30px; font-family: monospace"">azuis</span>"," ","","exp-sent","azuis","","",""
"","1958","html-keyboard-response","460","2353088","0.0-3.0-1.381","<span style=""font-size:30px; font-family: monospace"">da</span>"," ","","exp-sent","da","","",""
"","2148","html-keyboard-response","461","2355488","0.0-3.0-1.382","<span style=""font-size:30px; font-family: monospace"">sala</span>"," ","","exp-sent","sala","","",""
"","1813","html-keyboard-response","462","2357552","0.0-3.0-1.383","<span style=""font-size:30px; font-family: monospace"">eram</span>"," ","","exp-sent","eram","","",""
"","2789","html-keyboard-response","463","2360592","0.0-3.0-1.384","<span style=""font-size:30px; font-family: monospace"">da</span>"," ","","exp-sent","da","","",""
"","2278","html-keyboard-response","464","2363120","0.0-3.0-1.385","<span style=""font-size:30px; font-family: monospace"">minha</span>"," ","","exp-sent","minha","","",""
"","11668","html-keyboard-response","465","2375040","0.0-3.0-1.386","<span style=""font-size:30px; font-family: monospace"">vó.</span>"," ","","comp","vó.","","",""
"","8630","html-keyboard-response","466","2383920","0.0-3.0-2.386-0.386","<span style=""font-size:30px; font-family: monospace"">As cadeiras eram da avó?</span>","n","","comp","","As cadeiras eram da avó?","sim","false"
"","null","html-keyboard-response","467","2385422","0.0-3.0-0.387-0.387","<span style= ""font-size:30px; font-family: monospace"">+</span>","null","fixation","","","","",""
"","17750","html-keyboard-response","468","2403424","0.0-3.0-1.387","<span style=""font-size:30px; font-family: monospace"">O</span>"," ","","exp-sent","O","","",""
"","2021","html-keyboard-response","469","2405696","0.0-3.0-1.388","<span style=""font-size:30px; font-family: monospace"">texto</span>"," ","","exp-sent","texto","","",""
"","3540","html-keyboard-response","470","2409488","0.0-3.0-1.389","<span style=""font-size:30px; font-family: monospace"">trazia</span>"," ","","exp-sent","trazia","","",""
"","1669","html-keyboard-response","471","2411408","0.0-3.0-1.390","<span style=""font-size:30px; font-family: monospace"">um</span>"," ","","exp-sent","um","","",""
"","2645","html-keyboard-response","472","2414304","0.0-3.0-1.391","<span style=""font-size:30px; font-family: monospace"">argumento</span>"," ","","exp-sent","argumento","","",""
"","1877","html-keyboard-response","473","2416432","0.0-3.0-1.392","<span style=""font-size:30px; font-family: monospace"">central</span>"," ","","exp-sent","central","","",""
"","1749","html-keyboard-response","474","2418432","0.0-3.0-1.393","<span style=""font-size:30px; font-family: monospace"">para</span>"," ","","exp-sent","para","","",""
"","1749","html-keyboard-response","475","2420432","0.0-3.0-1.394","<span style=""font-size:30px; font-family: monospace"">a</span>"," ","","exp-sent","a","","",""
"","5669","html-keyboard-response","476","2426352","0.0-3.0-1.395","<span style=""font-size:30px; font-family: monospace"">conversa.</span>"," ","","exp-sent","conversa.","","",""
"","null","html-keyboard-response","477","2427613","0.0-3.0-0.396-0.396","<span style= ""font-size:30px; font-family: monospace"">+</span>","null","fixation","","","","",""
"","1704","html-keyboard-response","478","2429568","0.0-3.0-1.396","<span style=""font-size:30px; font-family: monospace"">Ontem</span>"," ","","exp-sent","Ontem","","",""
"","1797","html-keyboard-response","479","2431616","0.0-3.0-1.397","<span style=""font-size:30px; font-family: monospace"">a</span>"," ","","exp-sent","a","","",""
"","2340","html-keyboard-response","480","2434207","0.0-3.0-1.398","<span style=""font-size:30px; font-family: monospace"">temperatura</span>"," ","","exp-sent","temperatura","","",""
"","2308","html-keyboard-response","481","2436768","0.0-3.0-1.399","<span style=""font-size:30px; font-family: monospace"">estava</span>"," ","","exp-sent","estava","","",""
"","2453","html-keyboard-response","482","2439472","0.0-3.0-1.400","<span style=""font-size:30px; font-family: monospace"">amena</span>"," ","","exp-sent","amena","","",""
"","2293","html-keyboard-response","483","2442015","0.0-3.0-1.401","<span style=""font-size:30px; font-family: monospace"">durante</span>"," ","","exp-sent","durante","","",""
"","2069","html-keyboard-response","484","2444335","0.0-3.0-1.402","<span style=""font-size:30px; font-family: monospace"">o</span>"," ","","exp-sent","o","","",""
"","7205","html-keyboard-response","485","2451792","0.0-3.0-1.403","<span style=""font-size:30px; font-family: monospace"">dia.</span>"," ","","exp-sent","dia.","","",""
"","null","html-keyboard-response","486","2453045","0.0-3.0-0.404-0.404","<span style= ""font-size:30px; font-family: monospace"">+</span>","null","fixation","","","","",""
"","1232","html-keyboard-response","487","2454528","0.0-3.0-1.404","<span style=""font-size:30px; font-family: monospace"">Havia</span>"," ","","exp-sent","Havia","","",""
"","2196","html-keyboard-response","488","2456976","0.0-3.0-1.405","<span style=""font-size:30px; font-family: monospace"">um</span>"," ","","exp-sent","um","","",""
"","1910","html-keyboard-response","489","2459136","0.0-3.0-1.406","<span style=""font-size:30px; font-family: monospace"">machucado</span>"," ","","exp-sent","machucado","","",""
"","1397","html-keyboard-response","490","2460784","0.0-3.0-1.407","<span style=""font-size:30px; font-family: monospace"">no</span>"," ","","exp-sent","no","","",""
"","2005","html-keyboard-response","491","2463040","0.0-3.0-1.408","<span style=""font-size:30px; font-family: monospace"">dedo</span>"," ","","exp-sent","dedo","","",""
"","2133","html-keyboard-response","492","2465423","0.0-3.0-1.409","<span style=""font-size:30px; font-family: monospace"">da</span>"," ","","exp-sent","da","","",""
"","6182","html-keyboard-response","493","2471855","0.0-3.0-1.410","<span style=""font-size:30px; font-family: monospace"">criança.</span>"," ","","exp-sent","criança.","","",""
"","null","html-keyboard-response","494","2473107","0.0-3.0-0.411-0.411","<span style= ""font-size:30px; font-family: monospace"">+</span>","null","fixation","","","","",""
"","2144","html-keyboard-response","495","2475504","0.0-3.0-1.411","<span style=""font-size:30px; font-family: monospace"">A</span>"," ","","exp-sent","A","","",""
"","3733","html-keyboard-response","496","2479487","0.0-3.0-1.412","<span style=""font-size:30px; font-family: monospace"">borboleta</span>"," ","","exp-sent","borboleta","","",""
"","2389","html-keyboard-response","497","2482128","0.0-3.0-1.413","<span style=""font-size:30px; font-family: monospace"">pousou</span>"," ","","exp-sent","pousou","","",""
"","1925","html-keyboard-response","498","2484303","0.0-3.0-1.414","<span style=""font-size:30px; font-family: monospace"">no</span>"," ","","exp-sent","no","","",""
"","1975","html-keyboard-response","499","2486543","0.0-3.0-1.415","<span style=""font-size:30px; font-family: monospace"">ombro</span>"," ","","exp-sent","ombro","","",""
"","3124","html-keyboard-response","500","2489919","0.0-3.0-1.416","<span style=""font-size:30px; font-family: monospace"">daquela</span>"," ","","exp-sent","daquela","","",""
"","19621","html-keyboard-response","501","2509791","0.0-3.0-1.417","<span style=""font-size:30px; font-family: monospace"">moça.</span>"," ","","exp-sent","moça.","","",""
"","null","html-keyboard-response","502","2511044","0.0-3.0-0.418-0.418","<span style= ""font-size:30px; font-family: monospace"">+</span>","null","fixation","","","","",""
"","1441","html-keyboard-response","503","2512735","0.0-3.0-1.418","<span style=""font-size:30px; font-family: monospace"">Eu</span>"," ","","exp-sent","Eu","","",""
"","2405","html-keyboard-response","504","2515391","0.0-3.0-1.419","<span style=""font-size:30px; font-family: monospace"">quero</span>"," ","","exp-sent","quero","","",""
"","1237","html-keyboard-response","505","2516879","0.0-3.0-1.420","<span style=""font-size:30px; font-family: monospace"">um</span>"," ","","exp-sent","um","","",""
"","2597","html-keyboard-response","506","2519727","0.0-3.0-1.421","<span style=""font-size:30px; font-family: monospace"">namorado</span>"," ","","exp-sent","namorado","","",""
"","2469","html-keyboard-response","507","2522447","0.0-3.0-1.422","<span style=""font-size:30px; font-family: monospace"">honesto</span>"," ","","exp-sent","honesto","","",""
"","1349","html-keyboard-response","508","2524047","0.0-3.0-1.423","<span style=""font-size:30px; font-family: monospace"">e</span>"," ","","exp-sent","e","","",""
"","5653","html-keyboard-response","509","2529951","0.0-3.0-1.424","<span style=""font-size:30px; font-family: monospace"">compreensivo.</span>"," ","","comp","compreensivo.","","",""
"","3269","html-keyboard-response","510","2533471","0.0-3.0-2.424-0.424","<span style=""font-size:30px; font-family: monospace"">Eu quero um namorado honesto?</span>","s","","comp","","Eu quero um namorado honesto?","sim","false"
"","null","html-keyboard-response","511","2534973","0.0-3.0-0.425-0.425","<span style= ""font-size:30px; font-family: monospace"">+</span>","null","fixation","","","","",""
"","2744","html-keyboard-response","512","2537967","0.0-3.0-1.425","<span style=""font-size:30px; font-family: monospace"">Ursos</span>"," ","","exp-sent","Ursos","","",""
"","1301","html-keyboard-response","513","2539519","0.0-3.0-1.426","<span style=""font-size:30px; font-family: monospace"">têm</span>"," ","","exp-sent","têm","","",""
"","933","html-keyboard-response","514","2540703","0.0-3.0-1.427","<span style=""font-size:30px; font-family: monospace"">uma</span>"," ","","exp-sent","uma","","",""
"","2917","html-keyboard-response","515","2543871","0.0-3.0-1.428","<span style=""font-size:30px; font-family: monospace"">patada</span>"," ","","exp-sent","patada","","",""
"","2516","html-keyboard-response","516","2546639","0.0-3.0-1.429","<span style=""font-size:30px; font-family: monospace"">brutal</span>"," ","","exp-sent","brutal","","",""
"","1333","html-keyboard-response","517","2548223","0.0-3.0-1.430","<span style=""font-size:30px; font-family: monospace"">e</span>"," ","","exp-sent","e","","",""
"","23627","html-keyboard-response","518","2572111","0.0-3.0-1.431","<span style=""font-size:30px; font-family: monospace"">poderosa.</span>"," ","","exp-sent","poderosa.","","",""
"","null","html-keyboard-response","519","2573364","0.0-3.0-0.432-0.432","<span style= ""font-size:30px; font-family: monospace"">+</span>","null","fixation","","","","",""
"","1264","html-keyboard-response","520","2574879","0.0-3.0-1.432","<span style=""font-size:30px; font-family: monospace"">Eu</span>"," ","","exp-sent","Eu","","",""
"","2005","html-keyboard-response","521","2577135","0.0-3.0-1.433","<span style=""font-size:30px; font-family: monospace"">fiz</span>"," ","","exp-sent","fiz","","",""
"","2772","html-keyboard-response","522","2580159","0.0-3.0-1.434","<span style=""font-size:30px; font-family: monospace"">aulas</span>"," ","","exp-sent","aulas","","",""
"","1557","html-keyboard-response","523","2581967","0.0-3.0-1.435","<span style=""font-size:30px; font-family: monospace"">de</span>"," ","","exp-sent","de","","",""
"","2196","html-keyboard-response","524","2584415","0.0-3.0-1.436","<span style=""font-size:30px; font-family: monospace"">espanhol</span>"," ","","exp-sent","espanhol","","",""
"","1525","html-keyboard-response","525","2586191","0.0-3.0-1.437","<span style=""font-size:30px; font-family: monospace"">nesta</span>"," ","","exp-sent","nesta","","",""
"","4565","html-keyboard-response","526","2591007","0.0-3.0-1.438","<span style=""font-size:30px; font-family: monospace"">cidade.</span>"," ","","exp-sent","cidade.","","",""
"","null","html-keyboard-response","527","2592259","0.0-3.0-0.439-0.439","<span style= ""font-size:30px; font-family: monospace"">+</span>","null","fixation","","","","",""
"","1970","html-keyboard-response","528","2594479","0.0-3.0-1.439","<span style=""font-size:30px; font-family: monospace"">Ele</span>"," ","","exp-sent","Ele","","",""
"","2047","html-keyboard-response","529","2596783","0.0-3.0-1.440","<span style=""font-size:30px; font-family: monospace"">comprou</span>"," ","","exp-sent","comprou","","",""
"","2837","html-keyboard-response","530","2599871","0.0-3.0-1.441","<span style=""font-size:30px; font-family: monospace"">mais</span>"," ","","exp-sent","mais","","",""
"","1893","html-keyboard-response","531","2602015","0.0-3.0-1.442","<span style=""font-size:30px; font-family: monospace"">uma</span>"," ","","exp-sent","uma","","",""
"","1621","html-keyboard-response","532","2603887","0.0-3.0-1.443","<span style=""font-size:30px; font-family: monospace"">esponja</span>"," ","","exp-sent","esponja","","",""
"","1909","html-keyboard-response","533","2606047","0.0-3.0-1.444","<span style=""font-size:30px; font-family: monospace"">para</span>"," ","","exp-sent","para","","",""
"","1413","html-keyboard-response","534","2607711","0.0-3.0-1.445","<span style=""font-size:30px; font-family: monospace"">a</span>"," ","","exp-sent","a","","",""
"","4725","html-keyboard-response","535","2612687","0.0-3.0-1.446","<span style=""font-size:30px; font-family: monospace"">cozinha.</span>"," ","","exp-sent","cozinha.","","",""
"","null","html-keyboard-response","536","2613939","0.0-3.0-0.447-0.447","<span style= ""font-size:30px; font-family: monospace"">+</span>","null","fixation","","","","",""
"","1185","html-keyboard-response","537","2615375","0.0-3.0-1.447","<span style=""font-size:30px; font-family: monospace"">Ele</span>"," ","","exp-sent","Ele","","",""
"","2486","html-keyboard-response","538","2618111","0.0-3.0-1.448","<span style=""font-size:30px; font-family: monospace"">teve</span>"," ","","exp-sent","teve","","",""
"","1701","html-keyboard-response","539","2620063","0.0-3.0-1.449","<span style=""font-size:30px; font-family: monospace"">um</span>"," ","","exp-sent","um","","",""
"","1701","html-keyboard-response","540","2622015","0.0-3.0-1.450","<span style=""font-size:30px; font-family: monospace"">sono</span>"," ","","exp-sent","sono","","",""
"","2036","html-keyboard-response","541","2624303","0.0-3.0-1.451","<span style=""font-size:30px; font-family: monospace"">bizarro</span>"," ","","exp-sent","bizarro","","",""
"","2421","html-keyboard-response","542","2626975","0.0-3.0-1.452","<span style=""font-size:30px; font-family: monospace"">sem</span>"," ","","exp-sent","sem","","",""
"","4165","html-keyboard-response","543","2631391","0.0-3.0-1.453","<span style=""font-size:30px; font-family: monospace"">nenhum</span>"," ","","exp-sent","nenhum","","",""
"","36469","html-keyboard-response","544","2668111","0.0-3.0-1.454","<span style=""font-size:30px; font-family: monospace"">motivo.</span>"," ","","exp-sent","motivo.","","",""
"","null","html-keyboard-response","545","2669362","0.0-3.0-0.455-0.455","<span style= ""font-size:30px; font-family: monospace"">+</span>","null","fixation","","","","",""
"","1282","html-keyboard-response","546","2670895","0.0-3.0-1.455","<span style=""font-size:30px; font-family: monospace"">A</span>"," ","","exp-sent","A","","",""
"","1636","html-keyboard-response","547","2672783","0.0-3.0-1.456","<span style=""font-size:30px; font-family: monospace"">moça</span>"," ","","exp-sent","moça","","",""
"","1493","html-keyboard-response","548","2674527","0.0-3.0-1.457","<span style=""font-size:30px; font-family: monospace"">comprou</span>"," ","","exp-sent","comprou","","",""
"","933","html-keyboard-response","549","2675711","0.0-3.0-1.458","<span style=""font-size:30px; font-family: monospace"">um</span>"," ","","exp-sent","um","","",""
"","1429","html-keyboard-response","550","2677391","0.0-3.0-1.459","<span style=""font-size:30px; font-family: monospace"">diamante</span>"," ","","exp-sent","diamante","","",""
"","1460","html-keyboard-response","551","2679102","0.0-3.0-1.460","<span style=""font-size:30px; font-family: monospace"">para</span>"," ","","exp-sent","para","","",""
"","981","html-keyboard-response","552","2680335","0.0-3.0-1.461","<span style=""font-size:30px; font-family: monospace"">sua</span>"," ","","exp-sent","sua","","",""
"","4389","html-keyboard-response","553","2684974","0.0-3.0-1.462","<span style=""font-size:30px; font-family: monospace"">prima.</span>"," ","","comp","prima.","","",""
"","3925","html-keyboard-response","554","2689151","0.0-3.0-2.462-0.462","<span style=""font-size:30px; font-family: monospace"">A moça comprou um diamante?</span>","s","","comp","","A moça comprou um diamante?","sim","false"
"","null","html-keyboard-response","555","2690653","0.0-3.0-0.463-0.463","<span style= ""font-size:30px; font-family: monospace"">+</span>","null","fixation","","","","",""
"","359","html-keyboard-response","556","2691263","0.0-3.0-1.463","<span style=""font-size:30px; font-family: monospace"">Ele</span>"," ","","exp-sent","Ele","","",""
"","3493","html-keyboard-response","557","2695006","0.0-3.0-1.464","<span style=""font-size:30px; font-family: monospace"">é</span>"," ","","exp-sent","é","","",""
"","1093","html-keyboard-response","558","2696350","0.0-3.0-1.465","<span style=""font-size:30px; font-family: monospace"">um</span>"," ","","exp-sent","um","","",""
"","1414","html-keyboard-response","559","2698015","0.0-3.0-1.466","<span style=""font-size:30px; font-family: monospace"">pai</span>"," ","","exp-sent","pai","","",""
"","1873","html-keyboard-response","560","2700143","0.0-3.0-1.467","<span style=""font-size:30px; font-family: monospace"">ausente</span>"," ","","exp-sent","ausente","","",""
"","1173","html-keyboard-response","561","2701567","0.0-3.0-1.468","<span style=""font-size:30px; font-family: monospace"">e</span>"," ","","exp-sent","e","","",""
"","1060","html-keyboard-response","562","2702878","0.0-3.0-1.469","<span style=""font-size:30px; font-family: monospace"">muito</span>"," ","","exp-sent","muito","","",""
"","12790","html-keyboard-response","563","2715918","0.0-3.0-1.470","<span style=""font-size:30px; font-family: monospace"">fofoqueiro.</span>"," ","","exp-sent","fofoqueiro.","","",""
"","null","html-keyboard-response","564","2717170","0.0-3.0-0.471-0.471","<span style= ""font-size:30px; font-family: monospace"">+</span>","null","fixation","","","","",""
"","1057","html-keyboard-response","565","2718479","0.0-3.0-1.471","<span style=""font-size:30px; font-family: monospace"">O</span>"," ","","exp-sent","O","","",""
"","1717","html-keyboard-response","566","2720447","0.0-3.0-1.472","<span style=""font-size:30px; font-family: monospace"">filho</span>"," ","","exp-sent","filho","","",""
"","1285","html-keyboard-response","567","2721983","0.0-3.0-1.473","<span style=""font-size:30px; font-family: monospace"">lavou</span>"," ","","exp-sent","lavou","","",""
"","997","html-keyboard-response","568","2723230","0.0-3.0-1.474","<span style=""font-size:30px; font-family: monospace"">a</span>"," ","","exp-sent","a","","",""
"","1397","html-keyboard-response","569","2724879","0.0-3.0-1.475","<span style=""font-size:30px; font-family: monospace"">roupa</span>"," ","","exp-sent","roupa","","",""
"","1348","html-keyboard-response","570","2726478","0.0-3.0-1.476","<span style=""font-size:30px; font-family: monospace"">sem</span>"," ","","exp-sent","sem","","",""
"","1349","html-keyboard-response","571","2728078","0.0-3.0-1.477","<span style=""font-size:30px; font-family: monospace"">nenhuma</span>"," ","","exp-sent","nenhuma","","",""
"","6917","html-keyboard-response","572","2735246","0.0-3.0-1.478","<span style=""font-size:30px; font-family: monospace"">ajuda.</span>"," ","","exp-sent","ajuda.","","",""
"","null","html-keyboard-response","573","2736498","0.0-3.0-0.479-0.479","<span style= ""font-size:30px; font-family: monospace"">+</span>","null","fixation","","","","",""
"","1185","html-keyboard-response","574","2737934","0.0-3.0-1.479","<span style=""font-size:30px; font-family: monospace"">O</span>"," ","","exp-sent","O","","",""
"","1444","html-keyboard-response","575","2739630","0.0-3.0-1.480","<span style=""font-size:30px; font-family: monospace"">menino</span>"," ","","exp-sent","menino","","",""
"","1397","html-keyboard-response","576","2741278","0.0-3.0-1.481","<span style=""font-size:30px; font-family: monospace"">quebrou</span>"," ","","exp-sent","quebrou","","",""
"","1253","html-keyboard-response","577","2742782","0.0-3.0-1.482","<span style=""font-size:30px; font-family: monospace"">a</span>"," ","","exp-sent","a","","",""
"","1285","html-keyboard-response","578","2744319","0.0-3.0-1.483","<span style=""font-size:30px; font-family: monospace"">perna</span>"," ","","exp-sent","perna","","",""
"","1494","html-keyboard-response","579","2746063","0.0-3.0-1.484","<span style=""font-size:30px; font-family: monospace"">nos</span>"," ","","exp-sent","nos","","",""
