"view_history","rt","trial_type","trial_index","time_elapsed","internal_node_id","stimulus","response","trial_part","word","question","answer","trial","accuracy"
"[{""page_index"":0,""viewing_time"":2857},{""page_index"":1,""viewing_time"":3433}]","6290","instructions","0","6291","0.0-0.0","","","","","","","",""
"","null","html-keyboard-response","1","7415","0.0-1.0-0.0-0.0","<span style= ""font-size:30px; font-family: monospace"">+</span>","null","fixation","","","","",""
"","9320","audio-keyboard-response","2","17243","0.0-1.0-1.0","../audio/prac-question-1-1.mp3"," ","","O","","","",""
"","8501","audio-keyboard-response","3","26010","0.0-1.0-1.1","../audio/prac-question-1-2.mp3"," ","","dia","","","",""
"","11720","audio-keyboard-response","4","37994","0.0-1.0-1.2","../audio/prac-question-1-3.mp3"," ","","estará","","","",""
"","3960","audio-keyboard-response","5","42234","0.0-1.0-1.3","../audio/prac-question-1-4.mp3"," ","","cheio","","","",""
"","2560","audio-keyboard-response","6","45066","0.0-1.0-1.4","../audio/prac-question-1-5.mp3"," ","","de","","","",""
"","3152","audio-keyboard-response","7","48491","0.0-1.0-1.5","../audio/prac-question-1-6.mp3"," ","","nuvens","","","",""
"","5179","audio-keyboard-response","8","53946","0.0-1.0-1.6","../audio/prac-question-1-7.mp3"," ","","hoje.","","","",""
"","null","html-keyboard-response","9","55215","0.0-1.0-0.7-0.7","<span style= ""font-size:30px; font-family: monospace"">+</span>","null","fixation","","","","",""
"","3109","audio-keyboard-response","10","58586","0.0-1.0-1.7","../audio/prac-question-2-1.mp3"," ","","A","","","",""
"","4291","audio-keyboard-response","11","63162","0.0-1.0-1.8","../audio/prac-question-2-2.mp3"," ","","caneca","","","",""
"","3600","audio-keyboard-response","12","67034","0.0-1.0-1.9","../audio/prac-question-2-3.mp3"," ","","colorida","","","",""
"","2931","audio-keyboard-response","13","70250","0.0-1.0-1.10","../audio/prac-question-2-4.mp3"," ","","caiu","","","",""
"","2840","audio-keyboard-response","14","73370","0.0-1.0-1.11","../audio/prac-question-2-5.mp3"," ","","da","","","",""
"","3989","audio-keyboard-response","15","77642","0.0-1.0-1.12","../audio/prac-question-2-6.mp3"," ","","mesa","","","",""
"","5800","audio-keyboard-response","16","83722","0.0-1.0-1.13","../audio/prac-question-2-7.mp3"," ","","de","","","",""
"","2960","audio-keyboard-response","17","86954","0.0-1.0-1.14","../audio/prac-question-2-8.mp3"," ","","jantar.","","","",""
"","37093","html-keyboard-response","18","124299","0.0-1.0-2.14-0.14","<span style=""font-size:25px; font-family: monospace"">A caneca era colorida?</span>","n","","","A caneca era colorida?","null","prac-sent","false"
"[{""page_index"":0,""viewing_time"":4755}]","4755","instructions","19","129555","0.0-2.0","","","","","","","",""
"","null","html-keyboard-response","20","130657","0.0-3.0-0.0-0.0","<span style= ""font-size:30px; font-family: monospace"">+</span>","null","fixation","","","","",""
"","4032","audio-keyboard-response","21","135002","0.0-3.0-1.0","../audio/64-1-masc.mp3"," ","","O","","","",""
"","3880","audio-keyboard-response","22","139162","0.0-3.0-1.1","../audio/64-2-masc.mp3"," ","","dia","","","",""
"","2651","audio-keyboard-response","23","142090","0.0-3.0-1.2","../audio/64-3-masc.mp3"," ","","começou","","","",""
"","2131","audio-keyboard-response","24","144506","0.0-3.0-1.3","../audio/64-4-masc.mp3"," ","","com","","","",""
"","2051","audio-keyboard-response","25","146826","0.0-3.0-1.4","../audio/64-5-masc.mp3"," ","","garoa","","","",""
"","2291","audio-keyboard-response","26","149386","0.0-3.0-1.5","../audio/64-6-masc.mp3"," ","","gelada","","","",""
"","2141","audio-keyboard-response","27","151802","0.0-3.0-1.6","../audio/64-7-masc.mp3"," ","","e","","","",""
"","3360","audio-keyboard-response","28","155435","0.0-3.0-1.7","../audio/64-8-masc.mp3"," ","","leve.","","","",""
"","null","html-keyboard-response","29","156715","0.0-3.0-0.8-0.8","<span style= ""font-size:30px; font-family: monospace"">+</span>","null","fixation","","","","",""
"","3819","audio-keyboard-response","30","160811","0.0-3.0-1.8","../audio/61-1-fem.mp3"," ","","Aquele","","","",""
"","3608","audio-keyboard-response","31","164699","0.0-3.0-1.9","../audio/61-2-fem.mp3"," ","","senhor","","","",""
"","3240","audio-keyboard-response","32","168202","0.0-3.0-1.10","../audio/61-3-fem.mp3"," ","","é","","","",""
"","2459","audio-keyboard-response","33","170938","0.0-3.0-1.11","../audio/61-4-fem.mp3"," ","","muito","","","",""
"","2440","audio-keyboard-response","34","173658","0.0-3.0-1.12","../audio/61-5-fem.mp3"," ","","sovina","","","",""
"","1829","audio-keyboard-response","35","175754","0.0-3.0-1.13","../audio/61-6-fem.mp3"," ","","e","","","",""
"","2520","audio-keyboard-response","36","178554","0.0-3.0-1.14","../audio/61-7-fem.mp3"," ","","inflexível.","","","",""
"","null","html-keyboard-response","37","179830","0.0-3.0-0.15-0.15","<span style= ""font-size:30px; font-family: monospace"">+</span>","null","fixation","","","","",""
"","1669","audio-keyboard-response","38","181786","0.0-3.0-1.15","../audio/62-1-fem.mp3"," ","","As","","","",""
"","2291","audio-keyboard-response","39","184346","0.0-3.0-1.16","../audio/62-2-fem.mp3"," ","","artesãs","","","",""
"","2691","audio-keyboard-response","40","187306","0.0-3.0-1.17","../audio/62-3-fem.mp3"," ","","gostam","","","",""
"","1512","audio-keyboard-response","41","189082","0.0-3.0-1.18","../audio/62-4-fem.mp3"," ","","de","","","",""
"","2059","audio-keyboard-response","42","191418","0.0-3.0-1.19","../audio/62-5-fem.mp3"," ","","maquiagem","","","",""
"","2221","audio-keyboard-response","43","193914","0.0-3.0-1.20","../audio/62-6-fem.mp3"," ","","e","","","",""
"","2629","audio-keyboard-response","44","196826","0.0-3.0-1.21","../audio/62-7-fem.mp3"," ","","de","","","",""
"","3091","audio-keyboard-response","45","200186","0.0-3.0-1.22","../audio/62-8-fem.mp3"," ","","crochê.","","","",""
"","null","html-keyboard-response","46","201442","0.0-3.0-0.23-0.23","<span style= ""font-size:30px; font-family: monospace"">+</span>","null","fixation","","","","",""
"","2549","audio-keyboard-response","47","204266","0.0-3.0-1.23","../audio/63-1-fem.mp3"," ","","A","","","",""
"","2360","audio-keyboard-response","48","206906","0.0-3.0-1.24","../audio/63-2-fem.mp3"," ","","chuva","","","",""
"","2392","audio-keyboard-response","49","209562","0.0-3.0-1.25","../audio/63-3-fem.mp3"," ","","entrou","","","",""
"","1920","audio-keyboard-response","50","211754","0.0-3.0-1.26","../audio/63-4-fem.mp3"," ","","pela","","","",""
"","1781","audio-keyboard-response","51","213802","0.0-3.0-1.27","../audio/63-5-fem.mp3"," ","","abertura","","","",""
"","2691","audio-keyboard-response","52","216762","0.0-3.0-1.28","../audio/63-6-fem.mp3"," ","","na","","","",""
"","3259","audio-keyboard-response","53","220298","0.0-3.0-1.29","../audio/63-7-fem.mp3"," ","","janela.","","","",""
"","null","html-keyboard-response","54","221563","0.0-3.0-0.30-0.30","<span style= ""font-size:30px; font-family: monospace"">+</span>","null","fixation","","","","",""
"","1819","audio-keyboard-response","55","223658","0.0-3.0-1.30","../audio/65-1-fem.mp3"," ","","O","","","",""
"","2811","audio-keyboard-response","56","226746","0.0-3.0-1.31","../audio/65-2-fem.mp3"," ","","fantasma","","","",""
"","2581","audio-keyboard-response","57","229610","0.0-3.0-1.32","../audio/65-3-fem.mp3"," ","","veio","","","",""
"","2968","audio-keyboard-response","58","232858","0.0-3.0-1.33","../audio/65-4-fem.mp3"," ","","da","","","",""
"","2259","audio-keyboard-response","59","235386","0.0-3.0-1.34","../audio/65-5-fem.mp3"," ","","escuridão","","","",""
"","2011","audio-keyboard-response","60","237674","0.0-3.0-1.35","../audio/65-6-fem.mp3"," ","","do","","","",""
"","3469","audio-keyboard-response","61","241417","0.0-3.0-1.36","../audio/65-7-fem.mp3"," ","","armário.","","","",""
"","12706","html-keyboard-response","62","254377","0.0-3.0-2.36-0.36","<span style=""font-size:25px; font-family: monospace"">O fantasma veio da escuridão do armário?</span>","s","","","O fantasma veio da escuridão do armário?","null","exp-sent","false"
"","null","html-keyboard-response","63","255886","0.0-3.0-0.37-0.37","<span style= ""font-size:30px; font-family: monospace"">+</span>","null","fixation","","","","",""
"","3648","audio-keyboard-response","64","259817","0.0-3.0-1.37","../audio/57-1-masc.mp3"," ","","O","","","",""
"","1941","audio-keyboard-response","65","262041","0.0-3.0-1.38","../audio/57-2-masc.mp3"," ","","capitão","","","",""
"","1408","audio-keyboard-response","66","263737","0.0-3.0-1.39","../audio/57-3-masc.mp3"," ","","deu","","","",""
"","1680","audio-keyboard-response","67","265690","0.0-3.0-1.40","../audio/57-4-masc.mp3"," ","","uma","","","",""
"","1688","audio-keyboard-response","68","267657","0.0-3.0-1.41","../audio/57-5-masc.mp3"," ","","instrução","","","",""
"","1600","audio-keyboard-response","69","269529","0.0-3.0-1.42","../audio/57-6-masc.mp3"," ","","para","","","",""
"","1469","audio-keyboard-response","70","271273","0.0-3.0-1.43","../audio/57-7-masc.mp3"," ","","as","","","",""
"","1789","audio-keyboard-response","71","273337","0.0-3.0-1.44","../audio/57-8-masc.mp3"," ","","pessoas.","","","",""
"","null","html-keyboard-response","72","274611","0.0-3.0-0.45-0.45","<span style= ""font-size:30px; font-family: monospace"">+</span>","null","fixation","","","","",""
"","3611","audio-keyboard-response","73","278505","0.0-3.0-1.45","../audio/59-1-fem.mp3"," ","","O","","","",""
"","2120","audio-keyboard-response","74","280905","0.0-3.0-1.46","../audio/59-2-fem.mp3"," ","","carteiro","","","",""
"","1541","audio-keyboard-response","75","282713","0.0-3.0-1.47","../audio/59-3-fem.mp3"," ","","fez","","","",""
"","1789","audio-keyboard-response","76","284777","0.0-3.0-1.48","../audio/59-4-fem.mp3"," ","","uma","","","",""
"","1771","audio-keyboard-response","77","286825","0.0-3.0-1.49","../audio/59-5-fem.mp3"," ","","tentativa","","","",""
"","1701","audio-keyboard-response","78","288809","0.0-3.0-1.50","../audio/59-6-fem.mp3"," ","","de","","","",""
"","1720","audio-keyboard-response","79","290793","0.0-3.0-1.51","../audio/59-7-fem.mp3"," ","","entrega.","","","",""
"","null","html-keyboard-response","80","292059","0.0-3.0-0.52-0.52","<span style= ""font-size:30px; font-family: monospace"">+</span>","null","fixation","","","","",""
"","1451","audio-keyboard-response","81","293785","0.0-3.0-1.52","../audio/56-1-fem.mp3"," ","","A","","","",""
"","1701","audio-keyboard-response","82","295753","0.0-3.0-1.53","../audio/56-2-fem.mp3"," ","","moça","","","",""
"","1600","audio-keyboard-response","83","297625","0.0-3.0-1.54","../audio/56-3-fem.mp3"," ","","foi","","","",""
"","1472","audio-keyboard-response","84","299369","0.0-3.0-1.55","../audio/56-4-fem.mp3"," ","","à","","","",""
"","1499","audio-keyboard-response","85","301145","0.0-3.0-1.56","../audio/56-5-fem.mp3"," ","","agência","","","",""
"","1691","audio-keyboard-response","86","303113","0.0-3.0-1.57","../audio/56-6-fem.mp3"," ","","bancária","","","",""
"","3120","audio-keyboard-response","87","306506","0.0-3.0-1.58","../audio/56-7-fem.mp3"," ","","ontem","","","",""
"","2021","audio-keyboard-response","88","308809","0.0-3.0-1.59","../audio/56-8-fem.mp3"," ","","de","","","",""
"","2859","audio-keyboard-response","89","311945","0.0-3.0-1.60","../audio/56-9-fem.mp3"," ","","tarde.","","","",""
"","null","html-keyboard-response","90","313224","0.0-3.0-0.61-0.61","<span style= ""font-size:30px; font-family: monospace"">+</span>","null","fixation","","","","",""
"","2712","audio-keyboard-response","91","316201","0.0-3.0-1.61","../audio/58-1-fem.mp3"," ","","Havia","","","",""
"","2059","audio-keyboard-response","92","318537","0.0-3.0-1.62","../audio/58-2-fem.mp3"," ","","apenas","","","",""
"","1691","audio-keyboard-response","93","320505","0.0-3.0-1.63","../audio/58-3-fem.mp3"," ","","um","","","",""
"","2640","audio-keyboard-response","94","323418","0.0-3.0-1.64","../audio/58-4-fem.mp3"," ","","último","","","",""
"","1392","audio-keyboard-response","95","325081","0.0-3.0-1.65","../audio/58-5-fem.mp3"," ","","herdeiro","","","",""
"","1981","audio-keyboard-response","96","327321","0.0-3.0-1.66","../audio/58-6-fem.mp3"," ","","do","","","",""
"","1800","audio-keyboard-response","97","329401","0.0-3.0-1.67","../audio/58-7-fem.mp3"," ","","dinheiro.","","","",""
"","null","html-keyboard-response","98","330660","0.0-3.0-0.68-0.68","<span style= ""font-size:30px; font-family: monospace"">+</span>","null","fixation","","","","",""
"","1691","audio-keyboard-response","99","332633","0.0-3.0-1.68","../audio/60-1-fem.mp3"," ","","Ondas","","","",""
"","1981","audio-keyboard-response","100","334890","0.0-3.0-1.69","../audio/60-2-fem.mp3"," ","","têm","","","",""
"","1979","audio-keyboard-response","101","337145","0.0-3.0-1.70","../audio/60-3-fem.mp3"," ","","um","","","",""
"","1891","audio-keyboard-response","102","339305","0.0-3.0-1.71","../audio/60-4-fem.mp3"," ","","impacto","","","",""
"","2032","audio-keyboard-response","103","341609","0.0-3.0-1.72","../audio/60-5-fem.mp3"," ","","destrutivo","","","",""
"","1928","audio-keyboard-response","104","343817","0.0-3.0-1.73","../audio/60-6-fem.mp3"," ","","no","","","",""
"","2760","audio-keyboard-response","105","346857","0.0-3.0-1.74","../audio/60-7-fem.mp3"," ","","litoral.","","","",""
"","36161","html-keyboard-response","106","383273","0.0-3.0-2.74-0.74","<span style=""font-size:25px; font-family: monospace"">Ondas têm um impacto destrutivo?</span>","n","","","Ondas têm um impacto destrutivo?","null","exp-sent","false"
"","null","html-keyboard-response","107","384775","0.0-3.0-0.75-0.75","<span style= ""font-size:30px; font-family: monospace"">+</span>","null","fixation","","","","",""
"","2021","audio-keyboard-response","108","387113","0.0-3.0-1.75","../audio/01-1-fem.mp3"," ","","O","","","",""
"","1931","audio-keyboard-response","109","389321","0.0-3.0-1.76","../audio/01-2-fem.mp3"," ","","menino","","","",""
"","1869","audio-keyboard-response","110","391465","0.0-3.0-1.77","../audio/01-3-fem.mp3"," ","","derrubou","","","",""
"","2571","audio-keyboard-response","111","394313","0.0-3.0-1.78","../audio/01-4-fem.mp3"," ","","a","","","",""
"","2029","audio-keyboard-response","112","396633","0.0-3.0-1.79","../audio/01-5-fem.mp3"," ","","guitarra","","","",""
"","1731","audio-keyboard-response","113","398633","0.0-3.0-1.80","../audio/01-6-fem.mp3"," ","","no","","","",""
"","1941","audio-keyboard-response","114","400841","0.0-3.0-1.81","../audio/01-7-fem.mp3"," ","","chão.","","","",""
"","null","html-keyboard-response","115","402105","0.0-3.0-0.82-0.82","<span style= ""font-size:30px; font-family: monospace"">+</span>","null","fixation","","","","",""
"","3931","audio-keyboard-response","116","406313","0.0-3.0-1.82","../audio/04-1-masc.mp3"," ","","Duzentos","","","",""
"","2069","audio-keyboard-response","117","408649","0.0-3.0-1.83","../audio/04-2-masc.mp3"," ","","carros","","","",""
"","1899","audio-keyboard-response","118","410825","0.0-3.0-1.84","../audio/04-3-masc.mp3"," ","","passaram","","","",""
"","1880","audio-keyboard-response","119","412985","0.0-3.0-1.85","../audio/04-4-masc.mp3"," ","","pela","","","",""
"","1560","audio-keyboard-response","120","414809","0.0-3.0-1.86","../audio/04-5-masc.mp3"," ","","ponte","","","",""
"","1299","audio-keyboard-response","121","416377","0.0-3.0-1.87","../audio/04-6-masc.mp3"," ","","hoje","","","",""
"","1480","audio-keyboard-response","122","418137","0.0-3.0-1.88","../audio/04-7-masc.mp3"," ","","de","","","",""
"","2960","audio-keyboard-response","123","421385","0.0-3.0-1.89","../audio/04-8-masc.mp3"," ","","tarde.","","","",""
"","null","html-keyboard-response","124","422638","0.0-3.0-0.90-0.90","<span style= ""font-size:30px; font-family: monospace"">+</span>","null","fixation","","","","",""
"","1520","audio-keyboard-response","125","424441","0.0-3.0-1.90","../audio/03-1-masc.mp3"," ","","O","","","",""
"","1939","audio-keyboard-response","126","426649","0.0-3.0-1.91","../audio/03-2-masc.mp3"," ","","coelho","","","",""
"","1912","audio-keyboard-response","127","428841","0.0-3.0-1.92","../audio/03-3-masc.mp3"," ","","foi","","","",""
"","1661","audio-keyboard-response","128","430761","0.0-3.0-1.93","../audio/03-4-masc.mp3"," ","","bastante","","","",""
"","1720","audio-keyboard-response","129","432761","0.0-3.0-1.94","../audio/03-5-masc.mp3"," ","","dócil","","","",""
"","1469","audio-keyboard-response","130","434505","0.0-3.0-1.95","../audio/03-6-masc.mp3"," ","","com","","","",""
"","1432","audio-keyboard-response","131","436201","0.0-3.0-1.96","../audio/03-7-masc.mp3"," ","","as","","","",""
"","2179","audio-keyboard-response","132","438648","0.0-3.0-1.97","../audio/03-8-masc.mp3"," ","","crianças.","","","",""
"","null","html-keyboard-response","133","439918","0.0-3.0-0.98-0.98","<span style= ""font-size:30px; font-family: monospace"">+</span>","null","fixation","","","","",""
"","1251","audio-keyboard-response","134","441432","0.0-3.0-1.98","../audio/02-2-masc.mp3"," ","","Havia","","","",""
"","1981","audio-keyboard-response","135","443672","0.0-3.0-1.99","../audio/02-2-masc.mp3"," ","","um","","","",""
"","2341","audio-keyboard-response","136","446281","0.0-3.0-1.100","../audio/02-3-masc.mp3"," ","","cheiro","","","",""
"","2629","audio-keyboard-response","137","449193","0.0-3.0-1.101","../audio/02-4-masc.mp3"," ","","de","","","",""
"","2989","audio-keyboard-response","138","452456","0.0-3.0-1.102","../audio/02-5-masc.mp3"," ","","gasolina","","","",""
"","2432","audio-keyboard-response","139","455160","0.0-3.0-1.103","../audio/02-6-masc.mp3"," ","","na","","","",""
"","2480","audio-keyboard-response","140","457912","0.0-3.0-1.104","../audio/02-7-masc.mp3"," ","","garagem.","","","",""
"","null","html-keyboard-response","141","459171","0.0-3.0-0.105-0.105","<span style= ""font-size:30px; font-family: monospace"">+</span>","null","fixation","","","","",""
"","2221","audio-keyboard-response","142","461672","0.0-3.0-1.105","../audio/05-1-masc.mp3"," ","","A","","","",""
"","2499","audio-keyboard-response","143","464457","0.0-3.0-1.106","../audio/05-2-masc.mp3"," ","","vendedora","","","",""
"","1821","audio-keyboard-response","144","466552","0.0-3.0-1.107","../audio/05-3-masc.mp3"," ","","ajudou","","","",""
"","1792","audio-keyboard-response","145","468600","0.0-3.0-1.108","../audio/05-4-masc.mp3"," ","","um","","","",""
"","1888","audio-keyboard-response","146","470776","0.0-3.0-1.109","../audio/05-5-masc.mp3"," ","","turista","","","",""
"","2240","audio-keyboard-response","147","473289","0.0-3.0-1.110","../audio/05-6-masc.mp3"," ","","na","","","",""
"","1920","audio-keyboard-response","148","475480","0.0-3.0-1.111","../audio/05-7-masc.mp3"," ","","loja.","","","",""
"","20121","html-keyboard-response","149","495865","0.0-3.0-2.111-0.111","<span style=""font-size:25px; font-family: monospace"">A vendedora ajudou um turista?</span>","s","","","A vendedora ajudou um turista?","null","exp-sent","false"
"","null","html-keyboard-response","150","497377","0.0-3.0-0.112-0.112","<span style= ""font-size:30px; font-family: monospace"">+</span>","null","fixation","","","","",""
"","3309","audio-keyboard-response","151","500969","0.0-3.0-1.112","../audio/16-1-fem.mp3"," ","","Eu","","","",""
"","1899","audio-keyboard-response","152","503129","0.0-3.0-1.113","../audio/16-2-fem.mp3"," ","","nunca","","","",""
"","1840","audio-keyboard-response","153","505241","0.0-3.0-1.114","../audio/16-3-fem.mp3"," ","","conheci","","","",""
"","2429","audio-keyboard-response","154","507929","0.0-3.0-1.115","../audio/16-4-fem.mp3"," ","","um","","","",""
"","2269","audio-keyboard-response","155","510489","0.0-3.0-1.116","../audio/16-5-fem.mp3"," ","","general","","","",""
"","1928","audio-keyboard-response","156","512697","0.0-3.0-1.117","../audio/16-6-fem.mp3"," ","","do","","","",""
"","2341","audio-keyboard-response","157","515321","0.0-3.0-1.118","../audio/16-7-fem.mp3"," ","","exército.","","","",""
"","null","html-keyboard-response","158","516591","0.0-3.0-0.119-0.119","<span style= ""font-size:30px; font-family: monospace"">+</span>","null","fixation","","","","",""
"","2699","audio-keyboard-response","159","519577","0.0-3.0-1.119","../audio/17-1-masc.mp3"," ","","Falaram","","","",""
"","2411","audio-keyboard-response","160","522265","0.0-3.0-1.120","../audio/17-2-masc.mp3"," ","","da","","","",""
"","2491","audio-keyboard-response","161","525033","0.0-3.0-1.121","../audio/17-3-masc.mp3"," ","","lei","","","",""
"","2720","audio-keyboard-response","162","528025","0.0-3.0-1.122","../audio/17-4-masc.mp3"," ","","no","","","",""
"","2360","audio-keyboard-response","163","530649","0.0-3.0-1.123","../audio/17-5-masc.mp3"," ","","ministério","","","",""
"","2699","audio-keyboard-response","164","533625","0.0-3.0-1.124","../audio/17-6-masc.mp3"," ","","diversas","","","",""
"","2491","audio-keyboard-response","165","536393","0.0-3.0-1.125","../audio/17-7-masc.mp3"," ","","vezes.","","","",""
"","null","html-keyboard-response","166","537651","0.0-3.0-0.126-0.126","<span style= ""font-size:30px; font-family: monospace"">+</span>","null","fixation","","","","",""
"","1392","audio-keyboard-response","167","539321","0.0-3.0-1.126","../audio/19-1-fem.mp3"," ","","O","","","",""
"","1771","audio-keyboard-response","168","541353","0.0-3.0-1.127","../audio/19-2-fem.mp3"," ","","menino","","","",""
"","1949","audio-keyboard-response","169","543577","0.0-3.0-1.128","../audio/19-3-fem.mp3"," ","","ganhou","","","",""
"","1741","audio-keyboard-response","170","545593","0.0-3.0-1.129","../audio/19-4-fem.mp3"," ","","uma","","","",""
"","1840","audio-keyboard-response","171","547705","0.0-3.0-1.130","../audio/19-5-fem.mp3"," ","","bala","","","",""
"","1789","audio-keyboard-response","172","549769","0.0-3.0-1.131","../audio/19-6-fem.mp3"," ","","depois","","","",""
"","1560","audio-keyboard-response","173","551594","0.0-3.0-1.132","../audio/19-7-fem.mp3"," ","","do","","","",""
"","3029","audio-keyboard-response","174","554905","0.0-3.0-1.133","../audio/19-8-fem.mp3"," ","","almoço.","","","",""
"","null","html-keyboard-response","175","556167","0.0-3.0-0.134-0.134","<span style= ""font-size:30px; font-family: monospace"">+</span>","null","fixation","","","","",""
"","1549","audio-keyboard-response","176","557993","0.0-3.0-1.134","../audio/18-1-fem.mp3"," ","","O","","","",""
"","1789","audio-keyboard-response","177","560057","0.0-3.0-1.135","../audio/18-2-fem.mp3"," ","","enredo","","","",""
"","2608","audio-keyboard-response","178","562937","0.0-3.0-1.136","../audio/18-3-fem.mp3"," ","","traz","","","",""
"","2960","audio-keyboard-response","179","566168","0.0-3.0-1.137","../audio/18-4-fem.mp3"," ","","um","","","",""
"","3528","audio-keyboard-response","180","569976","0.0-3.0-1.138","../audio/18-5-fem.mp3"," ","","dragão","","","",""
"","2229","audio-keyboard-response","181","572472","0.0-3.0-1.139","../audio/18-6-fem.mp3"," ","","forte","","","",""
"","1829","audio-keyboard-response","182","574585","0.0-3.0-1.140","../audio/18-7-fem.mp3"," ","","e","","","",""
"","2741","audio-keyboard-response","183","577592","0.0-3.0-1.141","../audio/18-8-fem.mp3"," ","","solitário.","","","",""
"","null","html-keyboard-response","184","578864","0.0-3.0-0.142-0.142","<span style= ""font-size:30px; font-family: monospace"">+</span>","null","fixation","","","","",""
"","2981","audio-keyboard-response","185","582120","0.0-3.0-1.142","../audio/20-1-fem.mp3"," ","","O","","","",""
"","4179","audio-keyboard-response","186","586585","0.0-3.0-1.143","../audio/20-2-fem.mp3"," ","","colega","","","",""
"","3960","audio-keyboard-response","187","590824","0.0-3.0-1.144","../audio/20-3-fem.mp3"," ","","parecia","","","",""
"","2789","audio-keyboard-response","188","593896","0.0-3.0-1.145","../audio/20-4-fem.mp3"," ","","muito","","","",""
"","2899","audio-keyboard-response","189","597065","0.0-3.0-1.146","../audio/20-5-fem.mp3"," ","","gripado","","","",""
"","3021","audio-keyboard-response","190","600360","0.0-3.0-1.147","../audio/20-6-fem.mp3"," ","","no","","","",""
"","2339","audio-keyboard-response","191","602984","0.0-3.0-1.148","../audio/20-7-fem.mp3"," ","","dia","","","",""
"","2421","audio-keyboard-response","192","605672","0.0-3.0-1.149","../audio/20-8-fem.mp3"," ","","anterior.","","","",""
"","5049","html-keyboard-response","193","610985","0.0-3.0-2.149-0.149","<span style=""font-size:25px; font-family: monospace"">O colega parecia muito gripado?</span>","s","","","O colega parecia muito gripado?","null","exp-sent","false"
"","null","html-keyboard-response","194","612505","0.0-3.0-0.150-0.150","<span style= ""font-size:30px; font-family: monospace"">+</span>","null","fixation","","","","",""
"","7640","audio-keyboard-response","195","620408","0.0-3.0-1.150","../audio/74-1-fem.mp3"," ","","Este","","","",""
"","1819","audio-keyboard-response","196","622504","0.0-3.0-1.151","../audio/74-2-fem.mp3"," ","","emprego","","","",""
"","1731","audio-keyboard-response","197","624504","0.0-3.0-1.152","../audio/74-3-fem.mp3"," ","","é","","","",""
"","2400","audio-keyboard-response","198","627191","0.0-3.0-1.153","../audio/74-4-fem.mp3"," ","","muito","","","",""
"","1749","audio-keyboard-response","199","629224","0.0-3.0-1.154","../audio/74-5-fem.mp3"," ","","cansativo","","","",""
"","2061","audio-keyboard-response","200","631560","0.0-3.0-1.155","../audio/74-6-fem.mp3"," ","","a","","","",""
"","1579","audio-keyboard-response","201","633416","0.0-3.0-1.156","../audio/74-7-fem.mp3"," ","","longo","","","",""
"","1560","audio-keyboard-response","202","635239","0.0-3.0-1.157","../audio/74-8-fem.mp3"," ","","prazo.","","","",""
"","null","html-keyboard-response","203","636508","0.0-3.0-0.158-0.158","<span style= ""font-size:30px; font-family: monospace"">+</span>","null","fixation","","","","",""
"","4771","audio-keyboard-response","204","641544","0.0-3.0-1.158","../audio/71-1-masc.mp3"," ","","Minhas","","","",""
"","3371","audio-keyboard-response","205","645192","0.0-3.0-1.159","../audio/71-2-masc.mp3"," ","","comidas","","","",""
"","2251","audio-keyboard-response","206","647720","0.0-3.0-1.160","../audio/71-3-masc.mp3"," ","","favoritas","","","",""
"","1949","audio-keyboard-response","207","649944","0.0-3.0-1.161","../audio/71-4-masc.mp3"," ","","são","","","",""
"","1960","audio-keyboard-response","208","652168","0.0-3.0-1.162","../audio/71-5-masc.mp3"," ","","morango","","","",""
"","1680","audio-keyboard-response","209","654119","0.0-3.0-1.163","../audio/71-6-masc.mp3"," ","","e","","","",""
"","1651","audio-keyboard-response","210","656040","0.0-3.0-1.164","../audio/71-7-masc.mp3"," ","","uva.","","","",""
"","null","html-keyboard-response","211","657309","0.0-3.0-0.165-0.165","<span style= ""font-size:30px; font-family: monospace"">+</span>","null","fixation","","","","",""
"","1531","audio-keyboard-response","212","659112","0.0-3.0-1.165","../audio/73-1-fem.mp3"," ","","O","","","",""
"","1829","audio-keyboard-response","213","661208","0.0-3.0-1.166","../audio/73-2-fem.mp3"," ","","cliente","","","",""
"","1920","audio-keyboard-response","214","663400","0.0-3.0-1.167","../audio/73-3-fem.mp3"," ","","era","","","",""
"","1651","audio-keyboard-response","215","665320","0.0-3.0-1.168","../audio/73-4-fem.mp3"," ","","um","","","",""
"","1840","audio-keyboard-response","216","667432","0.0-3.0-1.169","../audio/73-5-fem.mp3"," ","","homem","","","",""
"","2200","audio-keyboard-response","217","669912","0.0-3.0-1.170","../audio/73-6-fem.mp3"," ","","muito","","","",""
"","2269","audio-keyboard-response","218","672456","0.0-3.0-1.171","../audio/73-7-fem.mp3"," ","","educado.","","","",""
"","null","html-keyboard-response","219","673726","0.0-3.0-0.172-0.172","<span style= ""font-size:30px; font-family: monospace"">+</span>","null","fixation","","","","",""
"","1400","audio-keyboard-response","220","675400","0.0-3.0-1.172","../audio/72-1-fem.mp3"," ","","A","","","",""
"","2728","audio-keyboard-response","221","678408","0.0-3.0-1.173","../audio/72-2-fem.mp3"," ","","vencedora","","","",""
"","2208","audio-keyboard-response","222","680888","0.0-3.0-1.174","../audio/72-3-fem.mp3"," ","","recebeu","","","",""
"","1789","audio-keyboard-response","223","682952","0.0-3.0-1.175","../audio/72-4-fem.mp3"," ","","um","","","",""
"","1829","audio-keyboard-response","224","685064","0.0-3.0-1.176","../audio/72-5-fem.mp3"," ","","prêmio","","","",""
"","2200","audio-keyboard-response","225","687528","0.0-3.0-1.177","../audio/72-6-fem.mp3"," ","","em","","","",""
"","2059","audio-keyboard-response","226","689864","0.0-3.0-1.178","../audio/72-7-fem.mp3"," ","","dinheiro.","","","",""
"","null","html-keyboard-response","227","691130","0.0-3.0-0.179-0.179","<span style= ""font-size:30px; font-family: monospace"">+</span>","null","fixation","","","","",""
"","1901","audio-keyboard-response","228","693319","0.0-3.0-1.179","../audio/75-1-fem.mp3"," ","","Só","","","",""
"","3048","audio-keyboard-response","229","696648","0.0-3.0-1.180","../audio/75-2-fem.mp3"," ","","existe","","","",""
"","2208","audio-keyboard-response","230","699127","0.0-3.0-1.181","../audio/75-3-fem.mp3"," ","","uma","","","",""
"","2312","audio-keyboard-response","231","701720","0.0-3.0-1.182","../audio/75-4-fem.mp3"," ","","pessoa","","","",""
"","2149","audio-keyboard-response","232","704151","0.0-3.0-1.183","../audio/75-5-fem.mp3"," ","","canhota","","","",""
"","2192","audio-keyboard-response","233","706599","0.0-3.0-1.184","../audio/75-6-fem.mp3"," ","","nesta","","","",""
"","2739","audio-keyboard-response","234","709607","0.0-3.0-1.185","../audio/75-7-fem.mp3"," ","","cidade.","","","",""
"","13672","html-keyboard-response","235","723544","0.0-3.0-2.185-0.185","<span style=""font-size:25px; font-family: monospace"">Só existe uma pessoa canhota na cidade?</span>","n","","","Só existe uma pessoa canhota na cidade?","null","exp-sent","false"
"","null","html-keyboard-response","236","725062","0.0-3.0-0.186-0.186","<span style= ""font-size:30px; font-family: monospace"">+</span>","null","fixation","","","","",""
"","1600","audio-keyboard-response","237","726935","0.0-3.0-1.186","../audio/76-1-fem.mp3"," ","","O","","","",""
"","2781","audio-keyboard-response","238","729991","0.0-3.0-1.187","../audio/76-2-fem.mp3"," ","","bisavô","","","",""
"","1920","audio-keyboard-response","239","732183","0.0-3.0-1.188","../audio/76-3-fem.mp3"," ","","comprou","","","",""
"","1429","audio-keyboard-response","240","733896","0.0-3.0-1.189","../audio/76-4-fem.mp3"," ","","um","","","",""
"","1611","audio-keyboard-response","241","735783","0.0-3.0-1.190","../audio/76-5-fem.mp3"," ","","ralador","","","",""
"","1949","audio-keyboard-response","242","738007","0.0-3.0-1.191","../audio/76-6-fem.mp3"," ","","de","","","",""
"","2008","audio-keyboard-response","243","740295","0.0-3.0-1.192","../audio/76-7-fem.mp3"," ","","queijo.","","","",""
"","null","html-keyboard-response","244","741571","0.0-3.0-0.193-0.193","<span style= ""font-size:30px; font-family: monospace"">+</span>","null","fixation","","","","",""
"","1768","audio-keyboard-response","245","743608","0.0-3.0-1.193","../audio/78-1-masc.mp3"," ","","Eles","","","",""
"","2029","audio-keyboard-response","246","745912","0.0-3.0-1.194","../audio/78-2-masc.mp3"," ","","trazem","","","",""
"","2160","audio-keyboard-response","247","748344","0.0-3.0-1.195","../audio/78-3-masc.mp3"," ","","um","","","",""
"","2261","audio-keyboard-response","248","750872","0.0-3.0-1.196","../audio/78-4-masc.mp3"," ","","fato","","","",""
"","2491","audio-keyboard-response","249","753640","0.0-3.0-1.197","../audio/78-5-masc.mp3"," ","","urgente","","","",""
"","2499","audio-keyboard-response","250","756408","0.0-3.0-1.198","../audio/78-6-masc.mp3"," ","","todos","","","",""
"","2400","audio-keyboard-response","251","759080","0.0-3.0-1.199","../audio/78-7-masc.mp3"," ","","os","","","",""
"","3139","audio-keyboard-response","252","762504","0.0-3.0-1.200","../audio/78-8-masc.mp3"," ","","dias.","","","",""
"","null","html-keyboard-response","253","763761","0.0-3.0-0.201-0.201","<span style= ""font-size:30px; font-family: monospace"">+</span>","null","fixation","","","","",""
"","1648","audio-keyboard-response","254","765688","0.0-3.0-1.201","../audio/79-1-masc.mp3"," ","","A","","","",""
"","2208","audio-keyboard-response","255","768168","0.0-3.0-1.202","../audio/79-2-masc.mp3"," ","","médica","","","",""
"","2440","audio-keyboard-response","256","770888","0.0-3.0-1.203","../audio/79-3-masc.mp3"," ","","verificou","","","",""
"","2360","audio-keyboard-response","257","773512","0.0-3.0-1.204","../audio/79-4-masc.mp3"," ","","a","","","",""
"","2069","audio-keyboard-response","258","775864","0.0-3.0-1.205","../audio/79-5-masc.mp3"," ","","gengiva","","","",""
"","1811","audio-keyboard-response","259","777944","0.0-3.0-1.206","../audio/79-6-masc.mp3"," ","","por","","","",""
"","2541","audio-keyboard-response","260","780760","0.0-3.0-1.207","../audio/79-7-masc.mp3"," ","","último.","","","",""
"","null","html-keyboard-response","261","782036","0.0-3.0-0.208-0.208","<span style= ""font-size:30px; font-family: monospace"">+</span>","null","fixation","","","","",""
"","3029","audio-keyboard-response","262","785352","0.0-3.0-1.208","../audio/77-1-fem.mp3"," ","","A","","","",""
"","2179","audio-keyboard-response","263","787816","0.0-3.0-1.209","../audio/77-2-fem.mp3"," ","","criança","","","",""
"","2141","audio-keyboard-response","264","790232","0.0-3.0-1.210","../audio/77-3-fem.mp3"," ","","ficou","","","",""
"","1709","audio-keyboard-response","265","792216","0.0-3.0-1.211","../audio/77-4-fem.mp3"," ","","muito","","","",""
"","1952","audio-keyboard-response","266","794440","0.0-3.0-1.212","../audio/77-5-fem.mp3"," ","","feliz","","","",""
"","1360","audio-keyboard-response","267","796088","0.0-3.0-1.213","../audio/77-6-fem.mp3"," ","","com","","","",""
"","1219","audio-keyboard-response","268","797576","0.0-3.0-1.214","../audio/77-7-fem.mp3"," ","","o","","","",""
"","2680","audio-keyboard-response","269","800520","0.0-3.0-1.215","../audio/77-8-fem.mp3"," ","","brinquedo.","","","",""
"","null","html-keyboard-response","270","801785","0.0-3.0-0.216-0.216","<span style= ""font-size:30px; font-family: monospace"">+</span>","null","fixation","","","","",""
"","1920","audio-keyboard-response","271","803992","0.0-3.0-1.216","../audio/80-1-fem.mp3"," ","","Meu","","","",""
"","1571","audio-keyboard-response","272","805832","0.0-3.0-1.217","../audio/80-2-fem.mp3"," ","","primo","","","",""
"","2421","audio-keyboard-response","273","808520","0.0-3.0-1.218","../audio/80-3-fem.mp3"," ","","conheceu","","","",""
"","2059","audio-keyboard-response","274","810856","0.0-3.0-1.219","../audio/80-4-fem.mp3"," ","","um","","","",""
"","2691","audio-keyboard-response","275","813832","0.0-3.0-1.220","../audio/80-5-fem.mp3"," ","","jovem","","","",""
"","2459","audio-keyboard-response","276","816568","0.0-3.0-1.221","../audio/80-6-fem.mp3"," ","","amável","","","",""
"","2168","audio-keyboard-response","277","819016","0.0-3.0-1.222","../audio/80-7-fem.mp3"," ","","e","","","",""
"","2691","audio-keyboard-response","278","821992","0.0-3.0-1.223","../audio/80-8-fem.mp3"," ","","confiante.","","","",""
"","13282","html-keyboard-response","279","835528","0.0-3.0-2.223-0.223","<span style=""font-size:25px; font-family: monospace"">O primo conheceu um jovem irritante?</span>","n","","","O primo conheceu um jovem irritante?","null","exp-sent","false"
"","null","html-keyboard-response","280","837053","0.0-3.0-0.224-0.224","<span style= ""font-size:30px; font-family: monospace"">+</span>","null","fixation","","","","",""
"","3272","audio-keyboard-response","281","840600","0.0-3.0-1.224","../audio/69-1-fem.mp3"," ","","A","","","",""
"","1779","audio-keyboard-response","282","842648","0.0-3.0-1.225","../audio/69-2-fem.mp3"," ","","loja","","","",""
"","1971","audio-keyboard-response","283","844904","0.0-3.0-1.226","../audio/69-3-fem.mp3"," ","","recebeu","","","",""
"","1672","audio-keyboard-response","284","846840","0.0-3.0-1.227","../audio/69-4-fem.mp3"," ","","uma","","","",""
"","2019","audio-keyboard-response","285","849128","0.0-3.0-1.228","../audio/69-5-fem.mp3"," ","","poltrona","","","",""
"","2139","audio-keyboard-response","286","851544","0.0-3.0-1.229","../audio/69-6-fem.mp3"," ","","de","","","",""
"","2440","audio-keyboard-response","287","854264","0.0-3.0-1.230","../audio/69-7-fem.mp3"," ","","couro","","","",""
"","3789","audio-keyboard-response","288","858344","0.0-3.0-1.231","../audio/69-8-fem.mp3"," ","","preto.","","","",""
"","null","html-keyboard-response","289","859612","0.0-3.0-0.232-0.232","<span style= ""font-size:30px; font-family: monospace"">+</span>","null","fixation","","","","",""
"","1819","audio-keyboard-response","290","861704","0.0-3.0-1.232","../audio/66-1-masc.mp3"," ","","Não","","","",""
"","2360","audio-keyboard-response","291","864344","0.0-3.0-1.233","../audio/66-2-masc.mp3"," ","","gosto","","","",""
"","2251","audio-keyboard-response","292","866871","0.0-3.0-1.234","../audio/66-3-masc.mp3"," ","","de","","","",""
"","2069","audio-keyboard-response","293","869208","0.0-3.0-1.235","../audio/66-4-masc.mp3"," ","","gente","","","",""
"","2528","audio-keyboard-response","294","872007","0.0-3.0-1.236","../audio/66-5-masc.mp3"," ","","egoísta","","","",""
"","1752","audio-keyboard-response","295","874039","0.0-3.0-1.237","../audio/66-6-masc.mp3"," ","","nem","","","",""
"","2629","audio-keyboard-response","296","876951","0.0-3.0-1.238","../audio/66-7-masc.mp3"," ","","chata.","","","",""
"","null","html-keyboard-response","297","878218","0.0-3.0-0.239-0.239","<span style= ""font-size:30px; font-family: monospace"">+</span>","null","fixation","","","","",""
"","1480","audio-keyboard-response","298","879976","0.0-3.0-1.239","../audio/67-1-masc.mp3"," ","","Minha","","","",""
"","1712","audio-keyboard-response","299","881959","0.0-3.0-1.240","../audio/67-2-masc.mp3"," ","","tia","","","",""
"","1931","audio-keyboard-response","300","884151","0.0-3.0-1.241","../audio/67-3-masc.mp3"," ","","comprou","","","",""
"","2469","audio-keyboard-response","301","886887","0.0-3.0-1.242","../audio/67-4-masc.mp3"," ","","um","","","",""
"","2560","audio-keyboard-response","302","889735","0.0-3.0-1.243","../audio/67-5-masc.mp3"," ","","cordão","","","",""
"","2381","audio-keyboard-response","303","892392","0.0-3.0-1.244","../audio/67-6-masc.mp3"," ","","para","","","",""
"","2101","audio-keyboard-response","304","894759","0.0-3.0-1.245","../audio/67-7-masc.mp3"," ","","o","","","",""
"","3608","audio-keyboard-response","305","898647","0.0-3.0-1.246","../audio/67-8-masc.mp3"," ","","varal.","","","",""
"","null","html-keyboard-response","306","899915","0.0-3.0-0.247-0.247","<span style= ""font-size:30px; font-family: monospace"">+</span>","null","fixation","","","","",""
"","1520","audio-keyboard-response","307","901703","0.0-3.0-1.247","../audio/68-1-fem.mp3"," ","","Meu","","","",""
"","2760","audio-keyboard-response","308","904744","0.0-3.0-1.248","../audio/68-2-fem.mp3"," ","","irmão","","","",""
"","2749","audio-keyboard-response","309","907767","0.0-3.0-1.249","../audio/68-3-fem.mp3"," ","","teve","","","",""
"","2888","audio-keyboard-response","310","910935","0.0-3.0-1.250","../audio/68-4-fem.mp3"," ","","um","","","",""
"","2381","audio-keyboard-response","311","913591","0.0-3.0-1.251","../audio/68-5-fem.mp3"," ","","noivado","","","",""
"","2389","audio-keyboard-response","312","916263","0.0-3.0-1.252","../audio/68-6-fem.mp3"," ","","longo","","","",""
"","2349","audio-keyboard-response","313","918887","0.0-3.0-1.253","../audio/68-7-fem.mp3"," ","","e","","","",""
"","2901","audio-keyboard-response","314","922072","0.0-3.0-1.254","../audio/68-8-fem.mp3"," ","","maravilhoso.","","","",""
"","null","html-keyboard-response","315","923347","0.0-3.0-0.255-0.255","<span style= ""font-size:30px; font-family: monospace"">+</span>","null","fixation","","","","",""
"","3760","audio-keyboard-response","316","927415","0.0-3.0-1.255","../audio/70-1-masc.mp3"," ","","O","","","",""
"","1821","audio-keyboard-response","317","929511","0.0-3.0-1.256","../audio/70-2-masc.mp3"," ","","meu","","","",""
"","1749","audio-keyboard-response","318","931543","0.0-3.0-1.257","../audio/70-3-masc.mp3"," ","","filho","","","",""
"","1672","audio-keyboard-response","319","933479","0.0-3.0-1.258","../audio/70-4-masc.mp3"," ","","tem","","","",""
"","1960","audio-keyboard-response","320","935703","0.0-3.0-1.259","../audio/70-5-masc.mp3"," ","","medo","","","",""
"","2760","audio-keyboard-response","321","938743","0.0-3.0-1.260","../audio/70-6-masc.mp3"," ","","de","","","",""
"","2611","audio-keyboard-response","322","941639","0.0-3.0-1.261","../audio/70-7-masc.mp3"," ","","enguia","","","",""
"","2051","audio-keyboard-response","323","943959","0.0-3.0-1.262","../audio/70-8-masc.mp3"," ","","e","","","",""
"","4800","audio-keyboard-response","324","949031","0.0-3.0-1.263","../audio/70-9-masc.mp3"," ","","beija-flor.","","","",""
"","34875","html-keyboard-response","325","984168","0.0-3.0-2.263-0.263","<span style=""font-size:25px; font-family: monospace"">O filho tem medo de tigre?</span>","n","","","O filho tem medo de tigre?","null","exp-sent","false"
"","null","html-keyboard-response","326","985669","0.0-3.0-0.264-0.264","<span style= ""font-size:30px; font-family: monospace"">+</span>","null","fixation","","","","",""
"","221","audio-keyboard-response","327","986199","0.0-3.0-1.264","../audio/42-1-masc.mp3"," ","","Eu","","","",""
"","3069","audio-keyboard-response","328","989527","0.0-3.0-1.265","../audio/42-2-masc.mp3"," ","","fui","","","",""
"","1368","audio-keyboard-response","329","991175","0.0-3.0-1.266","../audio/42-3-masc.mp3"," ","","a","","","",""
"","1840","audio-keyboard-response","330","993287","0.0-3.0-1.267","../audio/42-4-masc.mp3"," ","","uma","","","",""
"","2080","audio-keyboard-response","331","995640","0.0-3.0-1.268","../audio/42-5-masc.mp3"," ","","loja","","","",""
"","2299","audio-keyboard-response","332","998215","0.0-3.0-1.269","../audio/42-6-masc.mp3"," ","","de","","","",""
"","2008","audio-keyboard-response","333","1000487","0.0-3.0-1.270","../audio/42-7-masc.mp3"," ","","móveis","","","",""
"","1339","audio-keyboard-response","334","1002103","0.0-3.0-1.271","../audio/42-8-masc.mp3"," ","","no","","","",""
"","1509","audio-keyboard-response","335","1003895","0.0-3.0-1.272","../audio/42-9-masc.mp3"," ","","bairro.","","","",""
"","null","html-keyboard-response","336","1005173","0.0-3.0-0.273-0.273","<span style= ""font-size:30px; font-family: monospace"">+</span>","null","fixation","","","","",""
"","1909","audio-keyboard-response","337","1007351","0.0-3.0-1.273","../audio/43-1-fem.mp3"," ","","Eu","","","",""
"","2451","audio-keyboard-response","338","1010071","0.0-3.0-1.274","../audio/43-2-fem.mp3"," ","","achei","","","",""
"","1941","audio-keyboard-response","339","1012279","0.0-3.0-1.275","../audio/43-3-fem.mp3"," ","","um","","","",""
"","3208","audio-keyboard-response","340","1015767","0.0-3.0-1.276","../audio/43-4-fem.mp3"," ","","colchão","","","",""
"","1869","audio-keyboard-response","341","1017911","0.0-3.0-1.277","../audio/43-5-fem.mp3"," ","","velho","","","",""
"","2611","audio-keyboard-response","342","1020791","0.0-3.0-1.278","../audio/43-6-fem.mp3"," ","","e","","","",""
"","2800","audio-keyboard-response","343","1023863","0.0-3.0-1.279","../audio/43-7-fem.mp3"," ","","imundo","","","",""
"","2869","audio-keyboard-response","344","1027015","0.0-3.0-1.280","../audio/43-8-fem.mp3"," ","","na","","","",""
"","2128","audio-keyboard-response","345","1029415","0.0-3.0-1.281","../audio/43-9-fem.mp3"," ","","casa.","","","",""
"","null","html-keyboard-response","346","1030680","0.0-3.0-0.282-0.282","<span style= ""font-size:30px; font-family: monospace"">+</span>","null","fixation","","","","",""
"","1549","audio-keyboard-response","347","1032503","0.0-3.0-1.282","../audio/41-1-masc.mp3"," ","","A","","","",""
"","2571","audio-keyboard-response","348","1035351","0.0-3.0-1.283","../audio/41-2-masc.mp3"," ","","novela","","","",""
"","1840","audio-keyboard-response","349","1037463","0.0-3.0-1.284","../audio/41-3-masc.mp3"," ","","falava","","","",""
"","1659","audio-keyboard-response","350","1039415","0.0-3.0-1.285","../audio/41-4-masc.mp3"," ","","de","","","",""
"","1989","audio-keyboard-response","351","1041672","0.0-3.0-1.286","../audio/41-5-masc.mp3"," ","","paixão","","","",""
"","2099","audio-keyboard-response","352","1044055","0.0-3.0-1.287","../audio/41-6-masc.mp3"," ","","e","","","",""
"","1680","audio-keyboard-response","353","1046007","0.0-3.0-1.288","../audio/41-7-masc.mp3"," ","","comédia.","","","",""
"","null","html-keyboard-response","354","1047278","0.0-3.0-0.289-0.289","<span style= ""font-size:30px; font-family: monospace"">+</span>","null","fixation","","","","",""
"","1861","audio-keyboard-response","355","1049431","0.0-3.0-1.289","../audio/44-1-fem.mp3"," ","","Meus","","","",""
"","1941","audio-keyboard-response","356","1051639","0.0-3.0-1.290","../audio/44-2-fem.mp3"," ","","irmãos","","","",""
"","1619","audio-keyboard-response","357","1053527","0.0-3.0-1.291","../audio/44-3-fem.mp3"," ","","brigam","","","",""
"","2048","audio-keyboard-response","358","1055847","0.0-3.0-1.292","../audio/44-4-fem.mp3"," ","","por","","","",""
"","2291","audio-keyboard-response","359","1058423","0.0-3.0-1.293","../audio/44-5-fem.mp3"," ","","bobagem","","","",""
"","1661","audio-keyboard-response","360","1060359","0.0-3.0-1.294","../audio/44-6-fem.mp3"," ","","todos","","","",""
"","1219","audio-keyboard-response","361","1061847","0.0-3.0-1.295","../audio/44-7-fem.mp3"," ","","os","","","",""
"","2499","audio-keyboard-response","362","1064615","0.0-3.0-1.296","../audio/44-8-fem.mp3"," ","","dias.","","","",""
"","null","html-keyboard-response","363","1065891","0.0-3.0-0.297-0.297","<span style= ""font-size:30px; font-family: monospace"">+</span>","null","fixation","","","","",""
"","949","audio-keyboard-response","364","1067111","0.0-3.0-1.297","../audio/45-1-fem.mp3"," ","","O","","","",""
"","1499","audio-keyboard-response","365","1068887","0.0-3.0-1.298","../audio/45-2-fem.mp3"," ","","homem","","","",""
"","2741","audio-keyboard-response","366","1071911","0.0-3.0-1.299","../audio/45-3-fem.mp3"," ","","pagou","","","",""
"","1819","audio-keyboard-response","367","1074007","0.0-3.0-1.300","../audio/45-4-fem.mp3"," ","","o","","","",""
"","2328","audio-keyboard-response","368","1076615","0.0-3.0-1.301","../audio/45-5-fem.mp3"," ","","aluguel","","","",""
"","2309","audio-keyboard-response","369","1079191","0.0-3.0-1.302","../audio/45-6-fem.mp3"," ","","com","","","",""
"","2309","audio-keyboard-response","370","1081767","0.0-3.0-1.303","../audio/45-7-fem.mp3"," ","","atraso.","","","",""
"","12813","html-keyboard-response","371","1094839","0.0-3.0-2.303-0.303","<span style=""font-size:25px; font-family: monospace"">O homem pagou o aluguel em dia?</span>","n","","","O homem pagou o aluguel em dia?","null","exp-sent","false"
"","null","html-keyboard-response","372","1096352","0.0-3.0-0.304-0.304","<span style= ""font-size:30px; font-family: monospace"">+</span>","null","fixation","","","","",""
"","1629","audio-keyboard-response","373","1098247","0.0-3.0-1.304","../audio/14-1-fem.mp3"," ","","O","","","",""
"","2168","audio-keyboard-response","374","1100695","0.0-3.0-1.305","../audio/14-2-fem.mp3"," ","","cachorro","","","",""
"","1501","audio-keyboard-response","375","1102471","0.0-3.0-1.306","../audio/14-3-fem.mp3"," ","","é","","","",""
"","1461","audio-keyboard-response","376","1104199","0.0-3.0-1.307","../audio/14-4-fem.mp3"," ","","muito","","","",""
"","1680","audio-keyboard-response","377","1106151","0.0-3.0-1.308","../audio/14-5-fem.mp3"," ","","fiel","","","",""
"","1141","audio-keyboard-response","378","1107558","0.0-3.0-1.309","../audio/14-6-fem.mp3"," ","","a","","","",""
"","1840","audio-keyboard-response","379","1109671","0.0-3.0-1.310","../audio/14-7-fem.mp3"," ","","seus","","","",""
"","1691","audio-keyboard-response","380","1111639","0.0-3.0-1.311","../audio/14-8-fem.mp3"," ","","donos.","","","",""
"","null","html-keyboard-response","381","1112917","0.0-3.0-0.312-0.312","<span style= ""font-size:30px; font-family: monospace"">+</span>","null","fixation","","","","",""
"","1800","audio-keyboard-response","382","1114982","0.0-3.0-1.312","../audio/12-1-masc.mp3"," ","","O","","","",""
"","2669","audio-keyboard-response","383","1117927","0.0-3.0-1.313","../audio/12-2-masc.mp3"," ","","dia","","","",""
"","2568","audio-keyboard-response","384","1120775","0.0-3.0-1.314","../audio/12-3-masc.mp3"," ","","estava","","","",""
"","2091","audio-keyboard-response","385","1123143","0.0-3.0-1.315","../audio/12-4-masc.mp3"," ","","quente,","","","",""
"","2589","audio-keyboard-response","386","1126006","0.0-3.0-1.316","../audio/12-5-masc.mp3"," ","","tranquilo","","","",""
"","4269","audio-keyboard-response","387","1130551","0.0-3.0-1.317","../audio/12-6-masc.mp3"," ","","e","","","",""
"","3099","audio-keyboard-response","388","1133943","0.0-3.0-1.318","../audio/12-7-masc.mp3"," ","","ensolarado.","","","",""
"","null","html-keyboard-response","389","1135213","0.0-3.0-0.319-0.319","<span style= ""font-size:30px; font-family: monospace"">+</span>","null","fixation","","","","",""
"","2680","audio-keyboard-response","390","1138167","0.0-3.0-1.319","../audio/11-1-fem.mp3"," ","","Elas","","","",""
"","2400","audio-keyboard-response","391","1140839","0.0-3.0-1.320","../audio/11-2-fem.mp3"," ","","gostam","","","",""
"","2579","audio-keyboard-response","392","1143686","0.0-3.0-1.321","../audio/11-3-fem.mp3"," ","","muito","","","",""
"","2059","audio-keyboard-response","393","1146023","0.0-3.0-1.322","../audio/11-4-fem.mp3"," ","","de","","","",""
"","2840","audio-keyboard-response","394","1149143","0.0-3.0-1.323","../audio/11-5-fem.mp3"," ","","aritmética","","","",""
"","2309","audio-keyboard-response","395","1151751","0.0-3.0-1.324","../audio/11-6-fem.mp3"," ","","e","","","",""
"","2101","audio-keyboard-response","396","1154119","0.0-3.0-1.325","../audio/11-7-fem.mp3"," ","","de","","","",""
"","1629","audio-keyboard-response","397","1156023","0.0-3.0-1.326","../audio/11-8-fem.mp3"," ","","leitura.","","","",""
"","null","html-keyboard-response","398","1157298","0.0-3.0-0.327-0.327","<span style= ""font-size:30px; font-family: monospace"">+</span>","null","fixation","","","","",""
"","1581","audio-keyboard-response","399","1159159","0.0-3.0-1.327","../audio/13-1-masc.mp3"," ","","Para","","","",""
"","2099","audio-keyboard-response","400","1161526","0.0-3.0-1.328","../audio/13-2-masc.mp3"," ","","mim","","","",""
"","1781","audio-keyboard-response","401","1163591","0.0-3.0-1.329","../audio/13-3-masc.mp3"," ","","é","","","",""
"","1859","audio-keyboard-response","402","1165734","0.0-3.0-1.330","../audio/13-4-masc.mp3"," ","","muito","","","",""
"","1501","audio-keyboard-response","403","1167510","0.0-3.0-1.331","../audio/13-5-masc.mp3"," ","","difícil","","","",""
"","1621","audio-keyboard-response","404","1169398","0.0-3.0-1.332","../audio/13-6-masc.mp3"," ","","acordar","","","",""
"","3008","audio-keyboard-response","405","1172694","0.0-3.0-1.333","../audio/13-7-masc.mp3"," ","","cedo.","","","",""
"","null","html-keyboard-response","406","1173968","0.0-3.0-0.334-0.334","<span style= ""font-size:30px; font-family: monospace"">+</span>","null","fixation","","","","",""
"","1232","audio-keyboard-response","407","1175478","0.0-3.0-1.334","../audio/15-1-masc.mp3"," ","","Meu","","","",""
"","1419","audio-keyboard-response","408","1177174","0.0-3.0-1.335","../audio/15-2-masc.mp3"," ","","primo","","","",""
"","1120","audio-keyboard-response","409","1178566","0.0-3.0-1.336","../audio/15-3-masc.mp3"," ","","é","","","",""
"","1339","audio-keyboard-response","410","1180182","0.0-3.0-1.337","../audio/15-4-masc.mp3"," ","","um","","","",""
"","1800","audio-keyboard-response","411","1182262","0.0-3.0-1.338","../audio/15-5-masc.mp3"," ","","grande","","","",""
"","2280","audio-keyboard-response","412","1184822","0.0-3.0-1.339","../audio/15-6-masc.mp3"," ","","vendedor","","","",""
"","1691","audio-keyboard-response","413","1186790","0.0-3.0-1.340","../audio/15-7-masc.mp3"," ","","de","","","",""
"","1869","audio-keyboard-response","414","1188934","0.0-3.0-1.341","../audio/15-8-masc.mp3"," ","","carros.","","","",""
"","16353","html-keyboard-response","415","1205542","0.0-3.0-2.341-0.341","<span style=""font-size:25px; font-family: monospace"">O primo é um vendedor de carros?</span>","n","","","O primo é um vendedor de carros?","null","exp-sent","false"
"","null","html-keyboard-response","416","1207073","0.0-3.0-0.342-0.342","<span style= ""font-size:30px; font-family: monospace"">+</span>","null","fixation","","","","",""
"","1488","audio-keyboard-response","417","1208854","0.0-3.0-1.342","../audio/08-1-masc.mp3"," ","","A","","","",""
"","1779","audio-keyboard-response","418","1210902","0.0-3.0-1.343","../audio/08-2-masc.mp3"," ","","receita","","","",""
"","1549","audio-keyboard-response","419","1212726","0.0-3.0-1.344","../audio/08-3-masc.mp3"," ","","pede","","","",""
"","1688","audio-keyboard-response","420","1214694","0.0-3.0-1.345","../audio/08-4-masc.mp3"," ","","um","","","",""
"","1931","audio-keyboard-response","421","1216902","0.0-3.0-1.346","../audio/08-5-masc.mp3"," ","","litro","","","",""
"","1581","audio-keyboard-response","422","1218758","0.0-3.0-1.347","../audio/08-6-masc.mp3"," ","","de","","","",""
"","1699","audio-keyboard-response","423","1220726","0.0-3.0-1.348","../audio/08-7-masc.mp3"," ","","leite","","","",""
"","3149","audio-keyboard-response","424","1224150","0.0-3.0-1.349","../audio/08-8-masc.mp3"," ","","integral.","","","",""
"","null","html-keyboard-response","425","1225417","0.0-3.0-0.350-0.350","<span style= ""font-size:30px; font-family: monospace"">+</span>","null","fixation","","","","",""
"","2429","audio-keyboard-response","426","1228134","0.0-3.0-1.350","../audio/06-1-masc.mp3"," ","","Ouvimos","","","",""
"","2432","audio-keyboard-response","427","1230838","0.0-3.0-1.351","../audio/06-2-masc.mp3"," ","","a","","","",""
"","2539","audio-keyboard-response","428","1233654","0.0-3.0-1.352","../audio/06-3-masc.mp3"," ","","fala","","","",""
"","2091","audio-keyboard-response","429","1236022","0.0-3.0-1.353","../audio/06-4-masc.mp3"," ","","do","","","",""
"","1829","audio-keyboard-response","430","1238134","0.0-3.0-1.354","../audio/06-5-masc.mp3"," ","","profeta","","","",""
"","1792","audio-keyboard-response","431","1240198","0.0-3.0-1.355","../audio/06-6-masc.mp3"," ","","no","","","",""
"","2211","audio-keyboard-response","432","1242678","0.0-3.0-1.356","../audio/06-7-masc.mp3"," ","","púlpito","","","",""
"","1491","audio-keyboard-response","433","1244438","0.0-3.0-1.357","../audio/06-8-masc.mp3"," ","","da","","","",""
"","2219","audio-keyboard-response","434","1246934","0.0-3.0-1.358","../audio/06-9-masc.mp3"," ","","igreja.","","","",""
"","null","html-keyboard-response","435","1248206","0.0-3.0-0.359-0.359","<span style= ""font-size:30px; font-family: monospace"">+</span>","null","fixation","","","","",""
"","5371","audio-keyboard-response","436","1253862","0.0-3.0-1.359","../audio/09-1-fem.mp3"," ","","O","","","",""
"","2381","audio-keyboard-response","437","1256517","0.0-3.0-1.360","../audio/09-2-fem.mp3"," ","","rapaz","","","",""
"","2589","audio-keyboard-response","438","1259382","0.0-3.0-1.361","../audio/09-3-fem.mp3"," ","","limpou","","","",""
"","1701","audio-keyboard-response","439","1261350","0.0-3.0-1.362","../audio/09-4-fem.mp3"," ","","o","","","",""
"","1389","audio-keyboard-response","440","1263014","0.0-3.0-1.363","../audio/09-5-fem.mp3"," ","","terreno","","","",""
"","1451","audio-keyboard-response","441","1264742","0.0-3.0-1.364","../audio/09-6-fem.mp3"," ","","com","","","",""
"","1509","audio-keyboard-response","442","1266534","0.0-3.0-1.365","../audio/09-7-fem.mp3"," ","","uma","","","",""
"","1552","audio-keyboard-response","443","1268358","0.0-3.0-1.366","../audio/09-8-fem.mp3"," ","","pá.","","","",""
"","null","html-keyboard-response","444","1269629","0.0-3.0-0.367-0.367","<span style= ""font-size:30px; font-family: monospace"">+</span>","null","fixation","","","","",""
"","1400","audio-keyboard-response","445","1271302","0.0-3.0-1.367","../audio/07-1-masc.mp3"," ","","Meu","","","",""
"","2011","audio-keyboard-response","446","1273590","0.0-3.0-1.368","../audio/07-2-masc.mp3"," ","","filho","","","",""
"","1640","audio-keyboard-response","447","1275510","0.0-3.0-1.369","../audio/07-3-masc.mp3"," ","","é","","","",""
"","1472","audio-keyboard-response","448","1277238","0.0-3.0-1.370","../audio/07-4-masc.mp3"," ","","muito","","","",""
"","1629","audio-keyboard-response","449","1279141","0.0-3.0-1.371","../audio/07-5-masc.mp3"," ","","responsável","","","",""
"","1200","audio-keyboard-response","450","1280614","0.0-3.0-1.372","../audio/07-6-masc.mp3"," ","","nos","","","",""
"","1552","audio-keyboard-response","451","1282438","0.0-3.0-1.373","../audio/07-7-masc.mp3"," ","","estudos.","","","",""
"","null","html-keyboard-response","452","1283703","0.0-3.0-0.374-0.374","<span style= ""font-size:30px; font-family: monospace"">+</span>","null","fixation","","","","",""
"","3269","audio-keyboard-response","453","1287254","0.0-3.0-1.374","../audio/10-1-masc.mp3"," ","","O","","","",""
"","2061","audio-keyboard-response","454","1289589","0.0-3.0-1.375","../audio/10-2-masc.mp3"," ","","pássaro","","","",""
"","2149","audio-keyboard-response","455","1292021","0.0-3.0-1.376","../audio/10-3-masc.mp3"," ","","azul","","","",""
"","2280","audio-keyboard-response","456","1294581","0.0-3.0-1.377","../audio/10-4-masc.mp3"," ","","estava","","","",""
"","2051","audio-keyboard-response","457","1296902","0.0-3.0-1.378","../audio/10-5-masc.mp3"," ","","vivo","","","",""
"","1800","audio-keyboard-response","458","1298982","0.0-3.0-1.379","../audio/10-6-masc.mp3"," ","","e","","","",""
"","2200","audio-keyboard-response","459","1301445","0.0-3.0-1.380","../audio/10-7-masc.mp3"," ","","em","","","",""
"","2960","audio-keyboard-response","460","1304678","0.0-3.0-1.381","../audio/10-8-masc.mp3"," ","","segurança.","","","",""
"","11045","html-keyboard-response","461","1315974","0.0-3.0-2.381-0.381","<span style=""font-size:25px; font-family: monospace"">O pássaro vermelho estava em segurança?</span>","n","","","O pássaro vermelho estava em segurança?","null","exp-sent","false"
"","null","html-keyboard-response","462","1317499","0.0-3.0-0.382-0.382","<span style= ""font-size:30px; font-family: monospace"">+</span>","null","fixation","","","","",""
"","2091","audio-keyboard-response","463","1319877","0.0-3.0-1.382","../audio/38-1-fem.mp3"," ","","A","","","",""
"","2309","audio-keyboard-response","464","1322470","0.0-3.0-1.383","../audio/38-2-fem.mp3"," ","","empresa","","","",""
"","1309","audio-keyboard-response","465","1324053","0.0-3.0-1.384","../audio/38-3-fem.mp3"," ","","criou","","","",""
"","1152","audio-keyboard-response","466","1325478","0.0-3.0-1.385","../audio/38-4-fem.mp3"," ","","a","","","",""
"","1579","audio-keyboard-response","467","1327334","0.0-3.0-1.386","../audio/38-5-fem.mp3"," ","","patente","","","",""
"","1728","audio-keyboard-response","468","1329334","0.0-3.0-1.387","../audio/38-6-fem.mp3"," ","","da","","","",""
"","1808","audio-keyboard-response","469","1331414","0.0-3.0-1.388","../audio/38-7-fem.mp3"," ","","frigideira.","","","",""
"","null","html-keyboard-response","470","1332686","0.0-3.0-0.389-0.389","<span style= ""font-size:30px; font-family: monospace"">+</span>","null","fixation","","","","",""
"","1611","audio-keyboard-response","471","1334582","0.0-3.0-1.389","../audio/39-1-fem.mp3"," ","","O","","","",""
"","1880","audio-keyboard-response","472","1336725","0.0-3.0-1.390","../audio/39-2-fem.mp3"," ","","conselho","","","",""
"","1899","audio-keyboard-response","473","1338886","0.0-3.0-1.391","../audio/39-3-fem.mp3"," ","","foi","","","",""
"","2189","audio-keyboard-response","474","1341349","0.0-3.0-1.392","../audio/39-4-fem.mp3"," ","","muito","","","",""
"","1829","audio-keyboard-response","475","1343462","0.0-3.0-1.393","../audio/39-5-fem.mp3"," ","","útil","","","",""
"","1411","audio-keyboard-response","476","1345142","0.0-3.0-1.394","../audio/39-6-fem.mp3"," ","","para","","","",""
"","1509","audio-keyboard-response","477","1346934","0.0-3.0-1.395","../audio/39-7-fem.mp3"," ","","minha","","","",""
"","1371","audio-keyboard-response","478","1348581","0.0-3.0-1.396","../audio/39-8-fem.mp3"," ","","tia.","","","",""
"","null","html-keyboard-response","479","1349859","0.0-3.0-0.397-0.397","<span style= ""font-size:30px; font-family: monospace"">+</span>","null","fixation","","","","",""
"","1749","audio-keyboard-response","480","1351894","0.0-3.0-1.397","../audio/36-1-fem.mp3"," ","","Meu","","","",""
"","2091","audio-keyboard-response","481","1354262","0.0-3.0-1.398","../audio/36-2-fem.mp3"," ","","tio","","","",""
"","1709","audio-keyboard-response","482","1356246","0.0-3.0-1.399","../audio/36-3-fem.mp3"," ","","comprou","","","",""
"","1829","audio-keyboard-response","483","1358342","0.0-3.0-1.400","../audio/36-4-fem.mp3"," ","","um","","","",""
"","1789","audio-keyboard-response","484","1360406","0.0-3.0-1.401","../audio/36-5-fem.mp3"," ","","filtro","","","",""
"","1429","audio-keyboard-response","485","1362102","0.0-3.0-1.402","../audio/36-6-fem.mp3"," ","","de","","","",""
"","1720","audio-keyboard-response","486","1364086","0.0-3.0-1.403","../audio/36-7-fem.mp3"," ","","água","","","",""
"","1328","audio-keyboard-response","487","1365686","0.0-3.0-1.404","../audio/36-8-fem.mp3"," ","","hoje","","","",""
"","2040","audio-keyboard-response","488","1367990","0.0-3.0-1.405","../audio/36-9-fem.mp3"," ","","cedo.","","","",""
"","null","html-keyboard-response","489","1369255","0.0-3.0-0.406-0.406","<span style= ""font-size:30px; font-family: monospace"">+</span>","null","fixation","","","","",""
"","1629","audio-keyboard-response","490","1371174","0.0-3.0-1.406","../audio/37-1-fem.mp3"," ","","Eu","","","",""
"","1448","audio-keyboard-response","491","1372886","0.0-3.0-1.407","../audio/37-2-fem.mp3"," ","","adoro","","","",""
"","1608","audio-keyboard-response","492","1374774","0.0-3.0-1.408","../audio/37-3-fem.mp3"," ","","suco","","","",""
"","1589","audio-keyboard-response","493","1376630","0.0-3.0-1.409","../audio/37-4-fem.mp3"," ","","de","","","",""
"","1651","audio-keyboard-response","494","1378550","0.0-3.0-1.410","../audio/37-5-fem.mp3"," ","","manga","","","",""
"","1301","audio-keyboard-response","495","1380118","0.0-3.0-1.411","../audio/37-6-fem.mp3"," ","","com","","","",""
"","1840","audio-keyboard-response","496","1382230","0.0-3.0-1.412","../audio/37-7-fem.mp3"," ","","hortelã.","","","",""
"","null","html-keyboard-response","497","1383499","0.0-3.0-0.413-0.413","<span style= ""font-size:30px; font-family: monospace"">+</span>","null","fixation","","","","",""
"","1179","audio-keyboard-response","498","1384966","0.0-3.0-1.413","../audio/40-1-fem.mp3"," ","","O","","","",""
"","1672","audio-keyboard-response","499","1386917","0.0-3.0-1.414","../audio/40-2-fem.mp3"," ","","jogo","","","",""
"","1629","audio-keyboard-response","500","1388822","0.0-3.0-1.415","../audio/40-3-fem.mp3"," ","","falava","","","",""
"","1672","audio-keyboard-response","501","1390758","0.0-3.0-1.416","../audio/40-4-fem.mp3"," ","","de","","","",""
"","1520","audio-keyboard-response","502","1392550","0.0-3.0-1.417","../audio/40-5-fem.mp3"," ","","fantasia","","","",""
"","1560","audio-keyboard-response","503","1394390","0.0-3.0-1.418","../audio/40-6-fem.mp3"," ","","e","","","",""
"","1731","audio-keyboard-response","504","1396390","0.0-3.0-1.419","../audio/40-7-fem.mp3"," ","","de","","","",""
"","2051","audio-keyboard-response","505","1398710","0.0-3.0-1.420","../audio/40-8-fem.mp3"," ","","aventura.","","","",""
"","11161","html-keyboard-response","506","1410134","0.0-3.0-2.420-0.420","<span style=""font-size:25px; font-family: monospace"">O jogo tinha fantasia e aventura?</span>","s","","","O jogo tinha fantasia e aventura?","null","exp-sent","false"
"","null","html-keyboard-response","507","1411650","0.0-3.0-0.421-0.421","<span style= ""font-size:30px; font-family: monospace"">+</span>","null","fixation","","","","",""
"","1648","audio-keyboard-response","508","1413574","0.0-3.0-1.421","../audio/49-1-masc.mp3"," ","","Eu","","","",""
"","1341","audio-keyboard-response","509","1415190","0.0-3.0-1.422","../audio/49-2-masc.mp3"," ","","quero","","","",""
"","1360","audio-keyboard-response","510","1416822","0.0-3.0-1.423","../audio/49-3-masc.mp3"," ","","um","","","",""
"","1309","audio-keyboard-response","511","1418405","0.0-3.0-1.424","../audio/49-4-masc.mp3"," ","","lanche","","","",""
"","1509","audio-keyboard-response","512","1420182","0.0-3.0-1.425","../audio/49-5-masc.mp3"," ","","duplo","","","",""
"","1131","audio-keyboard-response","513","1421590","0.0-3.0-1.426","../audio/49-6-masc.mp3"," ","","e","","","",""
"","1360","audio-keyboard-response","514","1423223","0.0-3.0-1.427","../audio/49-7-masc.mp3"," ","","um","","","",""
"","1859","audio-keyboard-response","515","1425365","0.0-3.0-1.428","../audio/49-8-masc.mp3"," ","","suco.","","","",""
"","null","html-keyboard-response","516","1426630","0.0-3.0-0.429-0.429","<span style= ""font-size:30px; font-family: monospace"">+</span>","null","fixation","","","","",""
"","1139","audio-keyboard-response","517","1428054","0.0-3.0-1.429","../audio/47-1-masc.mp3"," ","","O","","","",""
"","1501","audio-keyboard-response","518","1429830","0.0-3.0-1.430","../audio/47-2-masc.mp3"," ","","tio","","","",""
"","2360","audio-keyboard-response","519","1432470","0.0-3.0-1.431","../audio/47-3-masc.mp3"," ","","recusou","","","",""
"","1731","audio-keyboard-response","520","1434470","0.0-3.0-1.432","../audio/47-4-masc.mp3"," ","","a","","","",""
"","1971","audio-keyboard-response","521","1436710","0.0-3.0-1.433","../audio/47-5-masc.mp3"," ","","sobremesa","","","",""
"","2021","audio-keyboard-response","522","1438998","0.0-3.0-1.434","../audio/47-6-masc.mp3"," ","","no","","","",""
"","2299","audio-keyboard-response","523","1441574","0.0-3.0-1.435","../audio/47-7-masc.mp3"," ","","almoço.","","","",""
"","null","html-keyboard-response","524","1442841","0.0-3.0-0.436-0.436","<span style= ""font-size:30px; font-family: monospace"">+</span>","null","fixation","","","","",""
"","1269","audio-keyboard-response","525","1444390","0.0-3.0-1.436","../audio/48-1-masc.mp3"," ","","Ela","","","",""
"","1891","audio-keyboard-response","526","1446550","0.0-3.0-1.437","../audio/48-2-masc.mp3"," ","","come","","","",""
"","1611","audio-keyboard-response","527","1448438","0.0-3.0-1.438","../audio/48-3-masc.mp3"," ","","feijão","","","",""
"","1571","audio-keyboard-response","528","1450278","0.0-3.0-1.439","../audio/48-4-masc.mp3"," ","","com","","","",""
"","1939","audio-keyboard-response","529","1452486","0.0-3.0-1.440","../audio/48-5-masc.mp3"," ","","arroz","","","",""
"","1909","audio-keyboard-response","530","1454662","0.0-3.0-1.441","../audio/48-6-masc.mp3"," ","","todos","","","",""
"","1869","audio-keyboard-response","531","1456806","0.0-3.0-1.442","../audio/48-7-masc.mp3"," ","","os","","","",""
"","2349","audio-keyboard-response","532","1459430","0.0-3.0-1.443","../audio/48-8-masc.mp3"," ","","dias.","","","",""
"","null","html-keyboard-response","533","1460700","0.0-3.0-0.444-0.444","<span style= ""font-size:30px; font-family: monospace"">+</span>","null","fixation","","","","",""
"","1472","audio-keyboard-response","534","1462438","0.0-3.0-1.444","../audio/46-1-fem.mp3"," ","","Meu","","","",""
"","1819","audio-keyboard-response","535","1464534","0.0-3.0-1.445","../audio/46-2-fem.mp3"," ","","primo","","","",""
"","1928","audio-keyboard-response","536","1466726","0.0-3.0-1.446","../audio/46-3-fem.mp3"," ","","estava","","","",""
"","1579","audio-keyboard-response","537","1468582","0.0-3.0-1.447","../audio/46-4-fem.mp3"," ","","muito","","","",""
"","1800","audio-keyboard-response","538","1470661","0.0-3.0-1.448","../audio/46-5-fem.mp3"," ","","deprimido","","","",""
"","1429","audio-keyboard-response","539","1472373","0.0-3.0-1.449","../audio/46-6-fem.mp3"," ","","no","","","",""
"","1640","audio-keyboard-response","540","1474277","0.0-3.0-1.450","../audio/46-7-fem.mp3"," ","","inverno.","","","",""
"","null","html-keyboard-response","541","1475545","0.0-3.0-0.451-0.451","<span style= ""font-size:30px; font-family: monospace"">+</span>","null","fixation","","","","",""
"","1611","audio-keyboard-response","542","1477429","0.0-3.0-1.451","../audio/50-1-fem.mp3"," ","","O","","","",""
"","2219","audio-keyboard-response","543","1479925","0.0-3.0-1.452","../audio/50-2-fem.mp3"," ","","pássaro","","","",""
"","1659","audio-keyboard-response","544","1481861","0.0-3.0-1.453","../audio/50-3-fem.mp3"," ","","fugiu","","","",""
"","1421","audio-keyboard-response","545","1483557","0.0-3.0-1.454","../audio/50-4-fem.mp3"," ","","da","","","",""
"","1379","audio-keyboard-response","546","1485205","0.0-3.0-1.455","../audio/50-5-fem.mp3"," ","","gaiola","","","",""
"","1469","audio-keyboard-response","547","1486949","0.0-3.0-1.456","../audio/50-6-fem.mp3"," ","","pela","","","",""
"","2219","audio-keyboard-response","548","1489445","0.0-3.0-1.457","../audio/50-7-fem.mp3"," ","","portinhola.","","","",""
"","14827","html-keyboard-response","549","1504533","0.0-3.0-2.457-0.457","<span style=""font-size:25px; font-family: monospace"">O pássaro fugiu da gaiola?</span>","s","","","O pássaro fugiu da gaiola?","null","exp-sent","false"
"","null","html-keyboard-response","550","1506054","0.0-3.0-0.458-0.458","<span style= ""font-size:30px; font-family: monospace"">+</span>","null","fixation","","","","",""
"","1040","audio-keyboard-response","551","1507365","0.0-3.0-1.458","../audio/53-1-masc.mp3"," ","","O","","","",""
"","1949","audio-keyboard-response","552","1509589","0.0-3.0-1.459","../audio/53-2-masc.mp3"," ","","médico","","","",""
"","1779","audio-keyboard-response","553","1511653","0.0-3.0-1.460","../audio/53-3-masc.mp3"," ","","foi","","","",""
"","1872","audio-keyboard-response","554","1513797","0.0-3.0-1.461","../audio/53-4-masc.mp3"," ","","bastante","","","",""
"","1539","audio-keyboard-response","555","1515605","0.0-3.0-1.462","../audio/53-5-masc.mp3"," ","","preciso","","","",""
"","1899","audio-keyboard-response","556","1517765","0.0-3.0-1.463","../audio/53-6-masc.mp3"," ","","durante","","","",""
"","1440","audio-keyboard-response","557","1519477","0.0-3.0-1.464","../audio/53-7-masc.mp3"," ","","a","","","",""
"","1640","audio-keyboard-response","558","1521397","0.0-3.0-1.465","../audio/53-8-masc.mp3"," ","","cirurgia.","","","",""
"","null","html-keyboard-response","559","1522669","0.0-3.0-0.466-0.466","<span style= ""font-size:30px; font-family: monospace"">+</span>","null","fixation","","","","",""
"","1800","audio-keyboard-response","560","1524757","0.0-3.0-1.466","../audio/54-1-fem.mp3"," ","","Estou","","","",""
"","2099","audio-keyboard-response","561","1527141","0.0-3.0-1.467","../audio/54-2-fem.mp3"," ","","com","","","",""
"","2989","audio-keyboard-response","562","1530405","0.0-3.0-1.468","../audio/54-3-fem.mp3"," ","","medo","","","",""
"","1419","audio-keyboard-response","563","1532101","0.0-3.0-1.469","../audio/54-4-fem.mp3"," ","","da","","","",""
"","1699","audio-keyboard-response","564","1534085","0.0-3.0-1.470","../audio/54-5-fem.mp3"," ","","atual","","","",""
"","1760","audio-keyboard-response","565","1536117","0.0-3.0-1.471","../audio/54-6-fem.mp3"," ","","organização","","","",""
"","1349","audio-keyboard-response","566","1537733","0.0-3.0-1.472","../audio/54-7-fem.mp3"," ","","do","","","",""
"","1872","audio-keyboard-response","567","1539877","0.0-3.0-1.473","../audio/54-8-fem.mp3"," ","","país.","","","",""
"","null","html-keyboard-response","568","1541155","0.0-3.0-0.474-0.474","<span style= ""font-size:30px; font-family: monospace"">+</span>","null","fixation","","","","",""
"","2328","audio-keyboard-response","569","1543765","0.0-3.0-1.474","../audio/52-1-masc.mp3"," ","","Às","","","",""
"","2280","audio-keyboard-response","570","1546325","0.0-3.0-1.475","../audio/52-2-masc.mp3"," ","","vezes","","","",""
"","1648","audio-keyboard-response","571","1548245","0.0-3.0-1.476","../audio/52-3-masc.mp3"," ","","eu","","","",""
"","1659","audio-keyboard-response","572","1550181","0.0-3.0-1.477","../audio/52-4-masc.mp3"," ","","tenho","","","",""
"","1709","audio-keyboard-response","573","1552165","0.0-3.0-1.478","../audio/52-5-masc.mp3"," ","","azia","","","",""
"","2088","audio-keyboard-response","574","1554533","0.0-3.0-1.479","../audio/52-6-masc.mp3"," ","","depois","","","",""
"","1901","audio-keyboard-response","575","1556709","0.0-3.0-1.480","../audio/52-7-masc.mp3"," ","","da","","","",""
"","2099","audio-keyboard-response","576","1559093","0.0-3.0-1.481","../audio/52-8-masc.mp3"," ","","janta.","","","",""
"","null","html-keyboard-response","577","1560371","0.0-3.0-0.482-0.482","<span style= ""font-size:30px; font-family: monospace"">+</span>","null","fixation","","","","",""
"","1859","audio-keyboard-response","578","1562501","0.0-3.0-1.482","../audio/51-1-masc.mp3"," ","","Suco","","","",""
"","2171","audio-keyboard-response","579","1564949","0.0-3.0-1.483","../audio/51-2-masc.mp3"," ","","de","","","",""
"","2699","audio-keyboard-response","580","1567925","0.0-3.0-1.484","../audio/51-3-masc.mp3"," ","","acerola","","","",""
"","1768","audio-keyboard-response","581","1569973","0.0-3.0-1.485","../audio/51-4-masc.mp3"," ","","é","","","",""
"","1861","audio-keyboard-response","582","1572117","0.0-3.0-1.486","../audio/51-5-masc.mp3"," ","","azedo","","","",""
"","1808","audio-keyboard-response","583","1574213","0.0-3.0-1.487","../audio/51-6-masc.mp3"," ","","e","","","",""
"","2011","audio-keyboard-response","584","1576501","0.0-3.0-1.488","../audio/51-7-masc.mp3"," ","","até","","","",""
"","3211","audio-keyboard-response","585","1579974","0.0-3.0-1.489","../audio/51-8-masc.mp3"," ","","barato.","","","",""
"","null","html-keyboard-response","586","1581236","0.0-3.0-0.490-0.490","<span style= ""font-size:30px; font-family: monospace"">+</span>","null","fixation","","","","",""
"","1859","audio-keyboard-response","587","1583381","0.0-3.0-1.490","../audio/55-1-masc.mp3"," ","","O","","","",""
"","2461","audio-keyboard-response","588","1586117","0.0-3.0-1.491","../audio/55-2-masc.mp3"," ","","insulto","","","",""
"","2629","audio-keyboard-response","589","1589029","0.0-3.0-1.492","../audio/55-3-masc.mp3"," ","","recente","","","",""
"","2539","audio-keyboard-response","590","1591845","0.0-3.0-1.493","../audio/55-4-masc.mp3"," ","","causou","","","",""
"","2189","audio-keyboard-response","591","1594309","0.0-3.0-1.494","../audio/55-5-masc.mp3"," ","","indignação","","","",""
"","1920","audio-keyboard-response","592","1596501","0.0-3.0-1.495","../audio/55-6-masc.mp3"," ","","em","","","",""
"","1901","audio-keyboard-response","593","1598677","0.0-3.0-1.496","../audio/55-7-masc.mp3"," ","","todos.","","","",""
"","4299","html-keyboard-response","594","1603237","0.0-3.0-2.496-0.496","<span style=""font-size:25px; font-family: monospace"">O insulto causou calmaria?</span>","n","","","O insulto causou calmaria?","null","exp-sent","false"
"","null","html-keyboard-response","595","1604756","0.0-3.0-0.497-0.497","<span style= ""font-size:30px; font-family: monospace"">+</span>","null","fixation","","","","",""
"","1720","audio-keyboard-response","596","1606757","0.0-3.0-1.497","../audio/29-1-fem.mp3"," ","","Hoje","","","",""
"","2520","audio-keyboard-response","597","1609557","0.0-3.0-1.498","../audio/29-2-fem.mp3"," ","","vamos","","","",""
"","2219","audio-keyboard-response","598","1612053","0.0-3.0-1.499","../audio/29-3-fem.mp3"," ","","fazer","","","",""
"","2371","audio-keyboard-response","599","1614709","0.0-3.0-1.500","../audio/29-4-fem.mp3"," ","","uma","","","",""
"","2499","audio-keyboard-response","600","1617493","0.0-3.0-1.501","../audio/29-5-fem.mp3"," ","","atividade","","","",""
"","2128","audio-keyboard-response","601","1619893","0.0-3.0-1.502","../audio/29-6-fem.mp3"," ","","sobre","","","",""
"","2192","audio-keyboard-response","602","1622357","0.0-3.0-1.503","../audio/29-7-fem.mp3"," ","","fauna","","","",""
"","2360","audio-keyboard-response","603","1624997","0.0-3.0-1.504","../audio/29-8-fem.mp3"," ","","marinha.","","","",""
"","null","html-keyboard-response","604","1626274","0.0-3.0-0.505-0.505","<span style= ""font-size:30px; font-family: monospace"">+</span>","null","fixation","","","","",""
"","1811","audio-keyboard-response","605","1628357","0.0-3.0-1.505","../audio/26-1-fem.mp3"," ","","Amanhã","","","",""
"","1928","audio-keyboard-response","606","1630565","0.0-3.0-1.506","../audio/26-2-fem.mp3"," ","","temos","","","",""
"","1819","audio-keyboard-response","607","1632661","0.0-3.0-1.507","../audio/26-3-fem.mp3"," ","","festa","","","",""
"","1531","audio-keyboard-response","608","1634469","0.0-3.0-1.508","../audio/26-4-fem.mp3"," ","","na","","","",""
"","1459","audio-keyboard-response","609","1636213","0.0-3.0-1.509","../audio/26-5-fem.mp3"," ","","piscina","","","",""
"","1688","audio-keyboard-response","610","1638165","0.0-3.0-1.510","../audio/26-6-fem.mp3"," ","","o","","","",""
"","1539","audio-keyboard-response","611","1639973","0.0-3.0-1.511","../audio/26-7-fem.mp3"," ","","dia","","","",""
"","3368","audio-keyboard-response","612","1643605","0.0-3.0-1.512","../audio/26-8-fem.mp3"," ","","todo.","","","",""
"","null","html-keyboard-response","613","1644873","0.0-3.0-0.513-0.513","<span style= ""font-size:30px; font-family: monospace"">+</span>","null","fixation","","","","",""
"","1381","audio-keyboard-response","614","1646517","0.0-3.0-1.513","../audio/27-1-fem.mp3"," ","","O","","","",""
"","2469","audio-keyboard-response","615","1649269","0.0-3.0-1.514","../audio/27-2-fem.mp3"," ","","dinheiro","","","",""
"","2659","audio-keyboard-response","616","1652213","0.0-3.0-1.515","../audio/27-3-fem.mp3"," ","","chegou","","","",""
"","1931","audio-keyboard-response","617","1654421","0.0-3.0-1.516","../audio/27-4-fem.mp3"," ","","à","","","",""
"","2200","audio-keyboard-response","618","1656901","0.0-3.0-1.517","../audio/27-5-fem.mp3"," ","","elite","","","",""
"","2021","audio-keyboard-response","619","1659189","0.0-3.0-1.518","../audio/27-6-fem.mp3"," ","","deste","","","",""
"","3539","audio-keyboard-response","620","1663013","0.0-3.0-1.519","../audio/27-7-fem.mp3"," ","","país.","","","",""
"","null","html-keyboard-response","621","1664281","0.0-3.0-0.520-0.520","<span style= ""font-size:30px; font-family: monospace"">+</span>","null","fixation","","","","",""
"","1968","audio-keyboard-response","622","1666533","0.0-3.0-1.520","../audio/28-1-masc.mp3"," ","","O","","","",""
"","1608","audio-keyboard-response","623","1668405","0.0-3.0-1.521","../audio/28-2-masc.mp3"," ","","time","","","",""
"","1909","audio-keyboard-response","624","1670581","0.0-3.0-1.522","../audio/28-3-masc.mp3"," ","","quer","","","",""
"","1581","audio-keyboard-response","625","1672437","0.0-3.0-1.523","../audio/28-4-masc.mp3"," ","","a","","","",""
"","1829","audio-keyboard-response","626","1674549","0.0-3.0-1.524","../audio/28-5-masc.mp3"," ","","vitória","","","",""
"","1440","audio-keyboard-response","627","1676261","0.0-3.0-1.525","../audio/28-6-masc.mp3"," ","","no","","","",""
"","1629","audio-keyboard-response","628","1678165","0.0-3.0-1.526","../audio/28-7-masc.mp3"," ","","jogo","","","",""
"","1579","audio-keyboard-response","629","1680005","0.0-3.0-1.527","../audio/28-8-masc.mp3"," ","","de","","","",""
"","3979","audio-keyboard-response","630","1684245","0.0-3.0-1.528","../audio/28-9-masc.mp3"," ","","vôlei.","","","",""
"","null","html-keyboard-response","631","1685507","0.0-3.0-0.529-0.529","<span style= ""font-size:30px; font-family: monospace"">+</span>","null","fixation","","","","",""
"","1189","audio-keyboard-response","632","1686981","0.0-3.0-1.529","../audio/30-1-fem.mp3"," ","","O","","","",""
"","2189","audio-keyboard-response","633","1689445","0.0-3.0-1.530","../audio/30-2-fem.mp3"," ","","funcionário","","","",""
"","2160","audio-keyboard-response","634","1691893","0.0-3.0-1.531","../audio/30-3-fem.mp3"," ","","entregou","","","",""
"","1760","audio-keyboard-response","635","1693941","0.0-3.0-1.532","../audio/30-4-fem.mp3"," ","","o","","","",""
"","2069","audio-keyboard-response","636","1696293","0.0-3.0-1.533","../audio/30-5-fem.mp3"," ","","restante","","","",""
"","1560","audio-keyboard-response","637","1698133","0.0-3.0-1.534","../audio/30-6-fem.mp3"," ","","do","","","",""
"","3581","audio-keyboard-response","638","1701989","0.0-3.0-1.535","../audio/30-7-fem.mp3"," ","","dinheiro.","","","",""
"","5603","html-keyboard-response","639","1707845","0.0-3.0-2.535-0.535","<span style=""font-size:25px; font-family: monospace"">O funcionário entregou o contrato?</span>","n","","","O funcionário entregou o contrato?","null","exp-sent","false"
"","null","html-keyboard-response","640","1709369","0.0-3.0-0.536-0.536","<span style= ""font-size:30px; font-family: monospace"">+</span>","null","fixation","","","","",""
"","2560","audio-keyboard-response","641","1712212","0.0-3.0-1.536","../audio/34-1-fem.mp3"," ","","Cobrança","","","",""
"","2272","audio-keyboard-response","642","1714756","0.0-3.0-1.537","../audio/34-2-fem.mp3"," ","","excessiva","","","",""
"","1720","audio-keyboard-response","643","1716756","0.0-3.0-1.538","../audio/34-3-fem.mp3"," ","","é","","","",""
"","1520","audio-keyboard-response","644","1718548","0.0-3.0-1.539","../audio/34-4-fem.mp3"," ","","um","","","",""
"","1629","audio-keyboard-response","645","1720452","0.0-3.0-1.540","../audio/34-5-fem.mp3"," ","","fardo","","","",""
"","1581","audio-keyboard-response","646","1722308","0.0-3.0-1.541","../audio/34-6-fem.mp3"," ","","para","","","",""
"","1669","audio-keyboard-response","647","1724260","0.0-3.0-1.542","../audio/34-7-fem.mp3"," ","","a","","","",""
"","1851","audio-keyboard-response","648","1726388","0.0-3.0-1.543","../audio/34-8-fem.mp3"," ","","cabeça.","","","",""
"","null","html-keyboard-response","649","1727653","0.0-3.0-0.544-0.544","<span style= ""font-size:30px; font-family: monospace"">+</span>","null","fixation","","","","",""
"","2360","audio-keyboard-response","650","1730276","0.0-3.0-1.544","../audio/32-1-masc.mp3"," ","","A","","","",""
"","2288","audio-keyboard-response","651","1732852","0.0-3.0-1.545","../audio/32-2-masc.mp3"," ","","tia","","","",""
"","2360","audio-keyboard-response","652","1735492","0.0-3.0-1.546","../audio/32-3-masc.mp3"," ","","comprou","","","",""
"","1880","audio-keyboard-response","653","1737652","0.0-3.0-1.547","../audio/32-4-masc.mp3"," ","","um","","","",""
"","2168","audio-keyboard-response","654","1740084","0.0-3.0-1.548","../audio/32-5-masc.mp3"," ","","pilão","","","",""
"","2139","audio-keyboard-response","655","1742500","0.0-3.0-1.549","../audio/32-6-masc.mp3"," ","","para","","","",""
"","1869","audio-keyboard-response","656","1744644","0.0-3.0-1.550","../audio/32-7-masc.mp3"," ","","a","","","",""
"","4509","audio-keyboard-response","657","1749428","0.0-3.0-1.551","../audio/32-8-masc.mp3"," ","","cozinha.","","","",""
"","null","html-keyboard-response","658","1750693","0.0-3.0-0.552-0.552","<span style= ""font-size:30px; font-family: monospace"">+</span>","null","fixation","","","","",""
"","2640","audio-keyboard-response","659","1753620","0.0-3.0-1.552","../audio/31-1-fem.mp3"," ","","O","","","",""
"","2171","audio-keyboard-response","660","1756068","0.0-3.0-1.553","../audio/31-2-fem.mp3"," ","","padeiro","","","",""
"","2869","audio-keyboard-response","661","1759220","0.0-3.0-1.554","../audio/31-3-fem.mp3"," ","","usou","","","",""
"","1960","audio-keyboard-response","662","1761460","0.0-3.0-1.555","../audio/31-4-fem.mp3"," ","","a","","","",""
"","2219","audio-keyboard-response","663","1763972","0.0-3.0-1.556","../audio/31-5-fem.mp3"," ","","balança","","","",""
"","2040","audio-keyboard-response","664","1766292","0.0-3.0-1.557","../audio/31-6-fem.mp3"," ","","o","","","",""
"","2112","audio-keyboard-response","665","1768676","0.0-3.0-1.558","../audio/31-7-fem.mp3"," ","","dia","","","",""
"","3539","audio-keyboard-response","666","1772500","0.0-3.0-1.559","../audio/31-8-fem.mp3"," ","","inteiro.","","","",""
"","null","html-keyboard-response","667","1773765","0.0-3.0-0.560-0.560","<span style= ""font-size:30px; font-family: monospace"">+</span>","null","fixation","","","","",""
"","1811","audio-keyboard-response","668","1775860","0.0-3.0-1.560","../audio/33-1-fem.mp3"," ","","Eles","","","",""
"","2392","audio-keyboard-response","669","1778516","0.0-3.0-1.561","../audio/33-2-fem.mp3"," ","","sabem","","","",""
"","2339","audio-keyboard-response","670","1781140","0.0-3.0-1.562","../audio/33-3-fem.mp3"," ","","do","","","",""
"","3832","audio-keyboard-response","671","1785236","0.0-3.0-1.563","../audio/33-4-fem.mp3"," ","","seu","","","",""
"","3768","audio-keyboard-response","672","1789284","0.0-3.0-1.564","../audio/33-5-fem.mp3"," ","","privilégio","","","",""
"","2749","audio-keyboard-response","673","1792308","0.0-3.0-1.565","../audio/33-6-fem.mp3"," ","","nessa","","","",""
"","2611","audio-keyboard-response","674","1795188","0.0-3.0-1.566","../audio/33-7-fem.mp3"," ","","confusão.","","","",""
"","null","html-keyboard-response","675","1796463","0.0-3.0-0.567-0.567","<span style= ""font-size:30px; font-family: monospace"">+</span>","null","fixation","","","","",""
"","1989","audio-keyboard-response","676","1798740","0.0-3.0-1.567","../audio/35-1-fem.mp3"," ","","A","","","",""
"","2040","audio-keyboard-response","677","1801060","0.0-3.0-1.568","../audio/35-2-fem.mp3"," ","","receita","","","",""
"","1691","audio-keyboard-response","678","1803028","0.0-3.0-1.569","../audio/35-3-fem.mp3"," ","","para","","","",""
"","1589","audio-keyboard-response","679","1804884","0.0-3.0-1.570","../audio/35-4-fem.mp3"," ","","a","","","",""
"","2080","audio-keyboard-response","680","1807236","0.0-3.0-1.571","../audio/35-5-fem.mp3"," ","","preparação","","","",""
"","2019","audio-keyboard-response","681","1809540","0.0-3.0-1.572","../audio/35-6-fem.mp3"," ","","do","","","",""
"","2000","audio-keyboard-response","682","1811812","0.0-3.0-1.573","../audio/35-7-fem.mp3"," ","","bolo","","","",""
"","2339","audio-keyboard-response","683","1814420","0.0-3.0-1.574","../audio/35-8-fem.mp3"," ","","é","","","",""
"","2389","audio-keyboard-response","684","1817092","0.0-3.0-1.575","../audio/35-9-fem.mp3"," ","","leve.","","","",""
"","4532","html-keyboard-response","685","1821876","0.0-3.0-2.575-0.575","<span style=""font-size:25px; font-family: monospace"">A receita do bolo é pesada?</span>","n","","","A receita do bolo é pesada?","null","exp-sent","false"
"","null","html-keyboard-response","686","1823384","0.0-3.0-0.576-0.576","<span style= ""font-size:30px; font-family: monospace"">+</span>","null","fixation","","","","",""
"","2771","audio-keyboard-response","687","1826436","0.0-3.0-1.576","../audio/21-1-masc.mp3"," ","","Precisamos","","","",""
"","2928","audio-keyboard-response","688","1829652","0.0-3.0-1.577","../audio/21-2-masc.mp3"," ","","de","","","",""
"","2160","audio-keyboard-response","689","1832084","0.0-3.0-1.578","../audio/21-3-masc.mp3"," ","","paciência","","","",""
"","1888","audio-keyboard-response","690","1834244","0.0-3.0-1.579","../audio/21-4-masc.mp3"," ","","e","","","",""
"","2040","audio-keyboard-response","691","1836564","0.0-3.0-1.580","../audio/21-5-masc.mp3"," ","","bondade","","","",""
"","1640","audio-keyboard-response","692","1838484","0.0-3.0-1.581","../audio/21-6-masc.mp3"," ","","para","","","",""
"","1288","audio-keyboard-response","693","1840052","0.0-3.0-1.582","../audio/21-7-masc.mp3"," ","","um","","","",""
"","1608","audio-keyboard-response","694","1841924","0.0-3.0-1.583","../audio/21-8-masc.mp3"," ","","mundo","","","",""
"","1888","audio-keyboard-response","695","1844084","0.0-3.0-1.584","../audio/21-9-masc.mp3"," ","","melhor.","","","",""
"","null","html-keyboard-response","696","1845362","0.0-3.0-0.585-0.585","<span style= ""font-size:30px; font-family: monospace"">+</span>","null","fixation","","","","",""
"","1912","audio-keyboard-response","697","1847556","0.0-3.0-1.585","../audio/22-1-fem.mp3"," ","","Eu","","","",""
"","2240","audio-keyboard-response","698","1850068","0.0-3.0-1.586","../audio/22-2-fem.mp3"," ","","detesto","","","",""
"","2101","audio-keyboard-response","699","1852436","0.0-3.0-1.587","../audio/22-3-fem.mp3"," ","","fumaça","","","",""
"","1680","audio-keyboard-response","700","1854388","0.0-3.0-1.588","../audio/22-4-fem.mp3"," ","","de","","","",""
"","1939","audio-keyboard-response","701","1856612","0.0-3.0-1.589","../audio/22-5-fem.mp3"," ","","cachimbo","","","",""
"","1291","audio-keyboard-response","702","1858180","0.0-3.0-1.590","../audio/22-6-fem.mp3"," ","","e","","","",""
"","1461","audio-keyboard-response","703","1859908","0.0-3.0-1.591","../audio/22-7-fem.mp3"," ","","de","","","",""
"","2320","audio-keyboard-response","704","1862500","0.0-3.0-1.592","../audio/22-8-fem.mp3"," ","","cigarro.","","","",""
"","null","html-keyboard-response","705","1863768","0.0-3.0-0.593-0.593","<span style= ""font-size:30px; font-family: monospace"">+</span>","null","fixation","","","","",""
"","1240","audio-keyboard-response","706","1865300","0.0-3.0-1.593","../audio/24-1-fem.mp3"," ","","As","","","",""
"","1909","audio-keyboard-response","707","1867492","0.0-3.0-1.594","../audio/24-2-fem.mp3"," ","","crianças","","","",""
"","1619","audio-keyboard-response","708","1869380","0.0-3.0-1.595","../audio/24-3-fem.mp3"," ","","vão","","","",""
"","1491","audio-keyboard-response","709","1871140","0.0-3.0-1.596","../audio/24-4-fem.mp3"," ","","ao","","","",""
"","1680","audio-keyboard-response","710","1873108","0.0-3.0-1.597","../audio/24-5-fem.mp3"," ","","cinema","","","",""
"","1840","audio-keyboard-response","711","1875220","0.0-3.0-1.598","../audio/24-6-fem.mp3"," ","","mais","","","",""
"","2029","audio-keyboard-response","712","1877524","0.0-3.0-1.599","../audio/24-7-fem.mp3"," ","","tarde.","","","",""
"","null","html-keyboard-response","713","1878789","0.0-3.0-0.600-0.600","<span style= ""font-size:30px; font-family: monospace"">+</span>","null","fixation","","","","",""
"","1760","audio-keyboard-response","714","1880836","0.0-3.0-1.600","../audio/23-1-fem.mp3"," ","","Português","","","",""
"","1408","audio-keyboard-response","715","1882532","0.0-3.0-1.601","../audio/23-2-fem.mp3"," ","","é","","","",""
"","1640","audio-keyboard-response","716","1884452","0.0-3.0-1.602","../audio/23-3-fem.mp3"," ","","um","","","",""
"","1701","audio-keyboard-response","717","1886436","0.0-3.0-1.603","../audio/23-4-fem.mp3"," ","","assunto","","","",""
"","2040","audio-keyboard-response","718","1888772","0.0-3.0-1.604","../audio/23-5-fem.mp3"," ","","elementar","","","",""
"","1880","audio-keyboard-response","719","1890916","0.0-3.0-1.605","../audio/23-6-fem.mp3"," ","","para","","","",""
"","1688","audio-keyboard-response","720","1892884","0.0-3.0-1.606","../audio/23-7-fem.mp3"," ","","os","","","",""
"","2059","audio-keyboard-response","721","1895220","0.0-3.0-1.607","../audio/23-8-fem.mp3"," ","","alunos.","","","",""
"","null","html-keyboard-response","722","1896499","0.0-3.0-0.608-0.608","<span style= ""font-size:30px; font-family: monospace"">+</span>","null","fixation","","","","",""
"","1379","audio-keyboard-response","723","1898163","0.0-3.0-1.608","../audio/25-1-fem.mp3"," ","","Ela","","","",""
"","1699","audio-keyboard-response","724","1900132","0.0-3.0-1.609","../audio/25-2-fem.mp3"," ","","faz","","","",""
"","2040","audio-keyboard-response","725","1902435","0.0-3.0-1.610","../audio/25-3-fem.mp3"," ","","tanto","","","",""
"","2099","audio-keyboard-response","726","1904819","0.0-3.0-1.611","../audio/25-4-fem.mp3"," ","","cabelo","","","",""
"","1629","audio-keyboard-response","727","1906739","0.0-3.0-1.612","../audio/25-5-fem.mp3"," ","","liso","","","",""
"","1899","audio-keyboard-response","728","1908931","0.0-3.0-1.613","../audio/25-6-fem.mp3"," ","","quanto","","","",""
"","2440","audio-keyboard-response","729","1911636","0.0-3.0-1.614","../audio/25-7-fem.mp3"," ","","cacheado.","","","",""
"","13357","html-keyboard-response","730","1925251","0.0-3.0-2.614-0.614","<span style=""font-size:25px; font-family: monospace"">Ela só faz cabelo cacheado?</span>","n","","","Ela só faz cabelo cacheado?","null","exp-sent","false"
"[{""page_index"":0,""viewing_time"":6350}]","6350","instructions","731","1932109","0.0-4.0","","","","","","","",""
