"view_history","rt","trial_type","trial_index","time_elapsed","internal_node_id","stimulus","response","class","status","answer","correct","trial","letters"
"[{""page_index"":0,""viewing_time"":86733}]","86733","instructions","0","86738","0.0-0.0","","","","","","","",""
"","null","html-keyboard-response","1","87350","0.0-1.0-0.0","+","null","","","","","",""
"","8566","html-keyboard-response","2","95919","0.0-1.0-1.0","calmaria","n","null","noncog","word","S","prac","null"
"","null","html-keyboard-response","3","96420","0.0-1.0-0.1","+","null","","","","","",""
"","4192","html-keyboard-response","4","100614","0.0-1.0-1.1","órgão","s","null","noncog","word","S","prac","null"
"","null","html-keyboard-response","5","101115","0.0-1.0-0.2","+","null","","","","","",""
"","2276","html-keyboard-response","6","103392","0.0-1.0-1.2","chassi","n","null","cog","word","S","prac","null"
"","null","html-keyboard-response","7","103898","0.0-1.0-0.3","+","null","","","","","",""
"","2724","html-keyboard-response","8","106623","0.0-1.0-1.3","plibar","n","null","noncog","pseudo","N","prac","null"
"","null","html-keyboard-response","9","107133","0.0-1.0-0.4","+","null","","","","","",""
"","2705","html-keyboard-response","10","109839","0.0-1.0-1.4","crante","n","null","noncog","pseudo","N","prac","null"
"","null","html-keyboard-response","11","110352","0.0-1.0-0.5","+","null","","","","","",""
"","2428","html-keyboard-response","12","112780","0.0-1.0-1.5","oliva","s","null","cog","word","S","prac","null"
"","null","html-keyboard-response","13","113288","0.0-1.0-0.6","+","null","","","","","",""
"","2145","html-keyboard-response","14","115435","0.0-1.0-1.6","daja","n","null","noncog","pseudo","N","prac","null"
"[{""page_index"":0,""viewing_time"":56163}]","56164","instructions","15","171600","0.0-2.0","","","","","","","",""
"","null","html-keyboard-response","16","172212","0.0-3.0-0.0","+","null","","","","","",""
"","3413","html-keyboard-response","17","175627","0.0-3.0-1.0","prever","s","v","cog","word","S","exp","6"
"","null","html-keyboard-response","18","176128","0.0-3.0-0.1","+","null","","","","","",""
"","2044","html-keyboard-response","19","178173","0.0-3.0-1.1","bancada","s","n","noncog","word","S","exp","7"
"","null","html-keyboard-response","20","178684","0.0-3.0-0.2","+","null","","","","","",""
"","2089","html-keyboard-response","21","180775","0.0-3.0-1.2","tatear","n","v","cog","word","S","exp","6"
"","null","html-keyboard-response","22","181281","0.0-3.0-0.3","+","null","","","","","",""
"","869","html-keyboard-response","23","182152","0.0-3.0-1.3","grave","s","a","cog","word","S","exp","5"
"","null","html-keyboard-response","24","182666","0.0-3.0-0.4","+","null","","","","","",""
"","2916","html-keyboard-response","25","185584","0.0-3.0-1.4","hipócrita","s","a","noncog","word","S","exp","9"
"","null","html-keyboard-response","26","186095","0.0-3.0-0.5","+","null","","","","","",""
"","950","html-keyboard-response","27","187047","0.0-3.0-1.5","alpica","n","null","noncog","pseudo","N","exp","null"
"","null","html-keyboard-response","28","187550","0.0-3.0-0.6","+","null","","","","","",""
"","1113","html-keyboard-response","29","188664","0.0-3.0-1.6","ensuas","n","null","noncog","pseudo","N","exp","null"
"","null","html-keyboard-response","30","189175","0.0-3.0-0.7","+","null","","","","","",""
"","981","html-keyboard-response","31","190156","0.0-3.0-1.7","lorfaz","n","null","noncog","pseudo","N","exp","null"
"","null","html-keyboard-response","32","190658","0.0-3.0-0.8","+","null","","","","","",""
"","986","html-keyboard-response","33","191645","0.0-3.0-1.8","prantal","n","null","noncog","pseudo","N","exp","null"
"","null","html-keyboard-response","34","192147","0.0-3.0-0.9","+","null","","","","","",""
"","685","html-keyboard-response","35","192833","0.0-3.0-1.9","grátis","s","a","cog","word","S","exp","6"
"","null","html-keyboard-response","36","193349","0.0-3.0-0.10","+","null","","","","","",""
"","965","html-keyboard-response","37","194316","0.0-3.0-1.10","bambu","s","n","cog","word","S","exp","5"
"","null","html-keyboard-response","38","194823","0.0-3.0-0.11","+","null","","","","","",""
"","2828","html-keyboard-response","39","197653","0.0-3.0-1.11","comércio","s","n","noncog","word","S","exp","8"
"","null","html-keyboard-response","40","198155","0.0-3.0-0.12","+","null","","","","","",""
"","2606","html-keyboard-response","41","200762","0.0-3.0-1.12","esperar","s","v","cog","word","S","exp","7"
"","null","html-keyboard-response","42","201264","0.0-3.0-0.13","+","null","","","","","",""
"","1485","html-keyboard-response","43","202750","0.0-3.0-1.13","motros","n","null","noncog","pseudo","N","exp","null"
"","null","html-keyboard-response","44","203262","0.0-3.0-0.14","+","null","","","","","",""
"","1132","html-keyboard-response","45","204394","0.0-3.0-1.14","orupas","n","null","noncog","pseudo","N","exp","null"
"","null","html-keyboard-response","46","204909","0.0-3.0-0.15","+","null","","","","","",""
"","2897","html-keyboard-response","47","207807","0.0-3.0-1.15","gilha","s","null","noncog","pseudo","N","exp","null"
"","null","html-keyboard-response","48","208322","0.0-3.0-0.16","+","null","","","","","",""
"","2279","html-keyboard-response","49","210602","0.0-3.0-1.16","delomir","n","null","noncog","pseudo","N","exp","null"
"","null","html-keyboard-response","50","211108","0.0-3.0-0.17","+","null","","","","","",""
"","1771","html-keyboard-response","51","212879","0.0-3.0-1.17","beima","n","null","noncog","pseudo","N","exp","null"
"","null","html-keyboard-response","52","213392","0.0-3.0-0.18","+","null","","","","","",""
"","1529","html-keyboard-response","53","214922","0.0-3.0-1.18","candifência","n","null","noncog","pseudo","N","exp","null"
"","null","html-keyboard-response","54","215435","0.0-3.0-0.19","+","null","","","","","",""
"","739","html-keyboard-response","55","216175","0.0-3.0-1.19","dia","s","n","noncog","word","S","exp","3"
"","null","html-keyboard-response","56","216686","0.0-3.0-0.20","+","null","","","","","",""
"","2568","html-keyboard-response","57","219253","0.0-3.0-1.20","telefone","s","n","cog","word","S","exp","8"
"","null","html-keyboard-response","58","219768","0.0-3.0-0.21","+","null","","","","","",""
"","815","html-keyboard-response","59","220584","0.0-3.0-1.21","oper","n","null","noncog","pseudo","N","exp","null"
"","null","html-keyboard-response","60","221100","0.0-3.0-0.22","+","null","","","","","",""
"","1137","html-keyboard-response","61","222238","0.0-3.0-1.22","adoçar","s","v","noncog","word","S","exp","6"
"","null","html-keyboard-response","62","222747","0.0-3.0-0.23","+","null","","","","","",""
"","779","html-keyboard-response","63","223527","0.0-3.0-1.23","mudança","s","n","noncog","word","S","exp","7"
"","null","html-keyboard-response","64","224040","0.0-3.0-0.24","+","null","","","","","",""
"","1306","html-keyboard-response","65","225347","0.0-3.0-1.24","conjerto","n","null","noncog","pseudo","N","exp","null"
"","null","html-keyboard-response","66","225854","0.0-3.0-0.25","+","null","","","","","",""
"","2080","html-keyboard-response","67","227934","0.0-3.0-1.25","vitrive","n","null","noncog","pseudo","N","exp","null"
"","null","html-keyboard-response","68","228445","0.0-3.0-0.26","+","null","","","","","",""
"","921","html-keyboard-response","69","229366","0.0-3.0-1.26","hébies","n","null","noncog","pseudo","N","exp","null"
"","null","html-keyboard-response","70","229870","0.0-3.0-0.27","+","null","","","","","",""
"","1158","html-keyboard-response","71","231027","0.0-3.0-1.27","temperar","s","v","noncog","word","S","exp","8"
"","null","html-keyboard-response","72","231534","0.0-3.0-0.28","+","null","","","","","",""
"","1793","html-keyboard-response","73","233328","0.0-3.0-1.28","agravar","s","v","cog","word","S","exp","7"
"","null","html-keyboard-response","74","233832","0.0-3.0-0.29","+","null","","","","","",""
"","691","html-keyboard-response","75","234524","0.0-3.0-1.29","apontar","s","v","noncog","word","S","exp","7"
"","null","html-keyboard-response","76","235028","0.0-3.0-0.30","+","null","","","","","",""
"","2326","html-keyboard-response","77","237355","0.0-3.0-1.30","especial","s","a","cog","word","S","exp","8"
"","null","html-keyboard-response","78","237871","0.0-3.0-0.31","+","null","","","","","",""
"","689","html-keyboard-response","79","238562","0.0-3.0-1.31","ejerro","n","null","noncog","pseudo","N","exp","null"
"","null","html-keyboard-response","80","239075","0.0-3.0-0.32","+","null","","","","","",""
"","1806","html-keyboard-response","81","240881","0.0-3.0-1.32","cenada","s","null","noncog","pseudo","N","exp","null"
"","null","html-keyboard-response","82","241385","0.0-3.0-0.33","+","null","","","","","",""
"","1952","html-keyboard-response","83","243340","0.0-3.0-1.33","irratinte","n","null","noncog","pseudo","N","exp","null"
"","null","html-keyboard-response","84","243845","0.0-3.0-0.34","+","null","","","","","",""
"","1793","html-keyboard-response","85","245639","0.0-3.0-1.34","dencosto","n","null","noncog","pseudo","N","exp","null"
"","null","html-keyboard-response","86","246146","0.0-3.0-0.35","+","null","","","","","",""
"","1356","html-keyboard-response","87","247503","0.0-3.0-1.35","morar","n","v","noncog","word","S","exp","5"
"","null","html-keyboard-response","88","248005","0.0-3.0-0.36","+","null","","","","","",""
"","1870","html-keyboard-response","89","249876","0.0-3.0-1.36","espinho","s","n","noncog","word","S","exp","7"
"","null","html-keyboard-response","90","250379","0.0-3.0-0.37","+","null","","","","","",""
"","3255","html-keyboard-response","91","253635","0.0-3.0-1.37","farcas","n","null","noncog","pseudo","N","exp","null"
"","null","html-keyboard-response","92","254147","0.0-3.0-0.38","+","null","","","","","",""
"","1420","html-keyboard-response","93","255567","0.0-3.0-1.38","protas","s","null","noncog","pseudo","N","exp","null"
"","null","html-keyboard-response","94","256069","0.0-3.0-0.39","+","null","","","","","",""
"","1154","html-keyboard-response","95","257224","0.0-3.0-1.39","preferir","s","v","cog","word","S","exp","8"
"","null","html-keyboard-response","96","257728","0.0-3.0-0.40","+","null","","","","","",""
"","1198","html-keyboard-response","97","258926","0.0-3.0-1.40","gruja","n","null","noncog","pseudo","N","exp","null"
"","null","html-keyboard-response","98","259441","0.0-3.0-0.41","+","null","","","","","",""
"","1560","html-keyboard-response","99","261003","0.0-3.0-1.41","delirar","s","v","noncog","word","S","exp","7"
"","null","html-keyboard-response","100","261508","0.0-3.0-0.42","+","null","","","","","",""
"","2838","html-keyboard-response","101","264346","0.0-3.0-1.42","nacional","s","a","cog","word","S","exp","8"
"","null","html-keyboard-response","102","264864","0.0-3.0-0.43","+","null","","","","","",""
"","791","html-keyboard-response","103","265656","0.0-3.0-1.43","manais","n","null","noncog","pseudo","N","exp","null"
"","null","html-keyboard-response","104","266162","0.0-3.0-0.44","+","null","","","","","",""
"","930","html-keyboard-response","105","267092","0.0-3.0-1.44","perbas","n","null","noncog","pseudo","N","exp","null"
"","null","html-keyboard-response","106","267602","0.0-3.0-0.45","+","null","","","","","",""
"","1287","html-keyboard-response","107","268889","0.0-3.0-1.45","glória","s","n","cog","word","S","exp","6"
"","null","html-keyboard-response","108","269391","0.0-3.0-0.46","+","null","","","","","",""
"","1805","html-keyboard-response","109","271197","0.0-3.0-1.46","euorpa","n","null","noncog","pseudo","N","exp","null"
"","null","html-keyboard-response","110","271706","0.0-3.0-0.47","+","null","","","","","",""
"","662","html-keyboard-response","111","272369","0.0-3.0-1.47","brincar","s","v","noncog","word","S","exp","7"
"","null","html-keyboard-response","112","272879","0.0-3.0-0.48","+","null","","","","","",""
"","609","html-keyboard-response","113","273490","0.0-3.0-1.48","anjo","s","n","cog","word","S","exp","4"
"","null","html-keyboard-response","114","273994","0.0-3.0-0.49","+","null","","","","","",""
"","1176","html-keyboard-response","115","275172","0.0-3.0-1.49","esprotiar","n","null","noncog","pseudo","N","exp","null"
"","null","html-keyboard-response","116","275682","0.0-3.0-0.50","+","null","","","","","",""
"","606","html-keyboard-response","117","276290","0.0-3.0-1.50","francês","s","a","cog","word","S","exp","7"
"","null","html-keyboard-response","118","276804","0.0-3.0-0.51","+","null","","","","","",""
"","1165","html-keyboard-response","119","277971","0.0-3.0-1.51","independente","s","a","noncog","word","S","exp","12"
"","null","html-keyboard-response","120","278486","0.0-3.0-0.52","+","null","","","","","",""
"","1463","html-keyboard-response","121","279950","0.0-3.0-1.52","crolatário","n","null","noncog","pseudo","N","exp","null"
"","null","html-keyboard-response","122","280454","0.0-3.0-0.53","+","null","","","","","",""
"","1119","html-keyboard-response","123","281575","0.0-3.0-1.53","ronronar","n","v","cog","word","S","exp","8"
"","null","html-keyboard-response","124","282087","0.0-3.0-0.54","+","null","","","","","",""
"","920","html-keyboard-response","125","283008","0.0-3.0-1.54","franda","s","null","noncog","pseudo","N","exp","null"
"","null","html-keyboard-response","126","283512","0.0-3.0-0.55","+","null","","","","","",""
"","710","html-keyboard-response","127","284224","0.0-3.0-1.55","tio","s","n","noncog","word","S","exp","3"
"","null","html-keyboard-response","128","284739","0.0-3.0-0.56","+","null","","","","","",""
"","980","html-keyboard-response","129","285719","0.0-3.0-1.56","mua","n","null","noncog","pseudo","N","exp","null"
"","null","html-keyboard-response","130","286234","0.0-3.0-0.57","+","null","","","","","",""
"","2425","html-keyboard-response","131","288660","0.0-3.0-1.57","âgnulo","n","null","noncog","pseudo","N","exp","null"
"","null","html-keyboard-response","132","289175","0.0-3.0-0.58","+","null","","","","","",""
"","1190","html-keyboard-response","133","290365","0.0-3.0-1.58","árovre","n","null","noncog","pseudo","N","exp","null"
"","null","html-keyboard-response","134","290866","0.0-3.0-0.59","+","null","","","","","",""
"","683","html-keyboard-response","135","291549","0.0-3.0-1.59","pulmão","s","n","noncog","word","S","exp","6"
"","null","html-keyboard-response","136","292051","0.0-3.0-0.60","+","null","","","","","",""
"","1261","html-keyboard-response","137","293313","0.0-3.0-1.60","sanque","n","null","noncog","pseudo","N","exp","null"
"","null","html-keyboard-response","138","293825","0.0-3.0-0.61","+","null","","","","","",""
"","1766","html-keyboard-response","139","295592","0.0-3.0-1.61","afual","s","null","noncog","pseudo","N","exp","null"
"","null","html-keyboard-response","140","296102","0.0-3.0-0.62","+","null","","","","","",""
"","673","html-keyboard-response","141","296776","0.0-3.0-1.62","gordo","s","a","noncog","word","S","exp","5"
"","null","html-keyboard-response","142","297286","0.0-3.0-0.63","+","null","","","","","",""
"","1132","html-keyboard-response","143","298419","0.0-3.0-1.63","tronca","s","null","noncog","pseudo","N","exp","null"
"","null","html-keyboard-response","144","298930","0.0-3.0-0.64","+","null","","","","","",""
"","792","html-keyboard-response","145","299725","0.0-3.0-1.64","aparme","n","null","noncog","pseudo","N","exp","null"
"","null","html-keyboard-response","146","300230","0.0-3.0-0.65","+","null","","","","","",""
"","794","html-keyboard-response","147","301024","0.0-3.0-1.65","ênclio","n","null","noncog","pseudo","N","exp","null"
"","null","html-keyboard-response","148","301527","0.0-3.0-0.66","+","null","","","","","",""
"","1010","html-keyboard-response","149","302538","0.0-3.0-1.66","encelhor","n","null","noncog","pseudo","N","exp","null"
"","null","html-keyboard-response","150","303040","0.0-3.0-0.67","+","null","","","","","",""
"","1097","html-keyboard-response","151","304138","0.0-3.0-1.67","usfiga","n","null","noncog","pseudo","N","exp","null"
"","null","html-keyboard-response","152","304654","0.0-3.0-0.68","+","null","","","","","",""
"","1081","html-keyboard-response","153","305736","0.0-3.0-1.68","faínas","n","null","noncog","pseudo","N","exp","null"
"","null","html-keyboard-response","154","306249","0.0-3.0-0.69","+","null","","","","","",""
"","765","html-keyboard-response","155","307015","0.0-3.0-1.69","arranjar","s","v","cog","word","S","exp","8"
"","null","html-keyboard-response","156","307530","0.0-3.0-0.70","+","null","","","","","",""
"","614","html-keyboard-response","157","308145","0.0-3.0-1.70","lagoa","s","n","cog","word","S","exp","5"
"","null","html-keyboard-response","158","308651","0.0-3.0-0.71","+","null","","","","","",""
"","715","html-keyboard-response","159","309368","0.0-3.0-1.71","sábio","s","n","noncog","word","S","exp","5"
"","null","html-keyboard-response","160","309884","0.0-3.0-0.72","+","null","","","","","",""
"","948","html-keyboard-response","161","310833","0.0-3.0-1.72","afonher","n","null","noncog","pseudo","N","exp","null"
"","null","html-keyboard-response","162","311349","0.0-3.0-0.73","+","null","","","","","",""
"","2236","html-keyboard-response","163","313585","0.0-3.0-1.73","atitro","s","null","noncog","pseudo","N","exp","null"
"","null","html-keyboard-response","164","314098","0.0-3.0-0.74","+","null","","","","","",""
"","807","html-keyboard-response","165","314905","0.0-3.0-1.74","enedro","n","null","noncog","pseudo","N","exp","null"
"","null","html-keyboard-response","166","315411","0.0-3.0-0.75","+","null","","","","","",""
"","1618","html-keyboard-response","167","317029","0.0-3.0-1.75","bracos","n","null","noncog","pseudo","N","exp","null"
"","null","html-keyboard-response","168","317532","0.0-3.0-0.76","+","null","","","","","",""
"","877","html-keyboard-response","169","318410","0.0-3.0-1.76","jastor","n","null","noncog","pseudo","N","exp","null"
"","null","html-keyboard-response","170","318918","0.0-3.0-0.77","+","null","","","","","",""
"","786","html-keyboard-response","171","319705","0.0-3.0-1.77","pangos","n","null","noncog","pseudo","N","exp","null"
"","null","html-keyboard-response","172","320217","0.0-3.0-0.78","+","null","","","","","",""
"","962","html-keyboard-response","173","321181","0.0-3.0-1.78","taberia","n","null","noncog","pseudo","N","exp","null"
"","null","html-keyboard-response","174","321693","0.0-3.0-0.79","+","null","","","","","",""
"","911","html-keyboard-response","175","322604","0.0-3.0-1.79","parceter","n","null","noncog","pseudo","N","exp","null"
"","null","html-keyboard-response","176","323119","0.0-3.0-0.80","+","null","","","","","",""
"","1051","html-keyboard-response","177","324172","0.0-3.0-1.80","cirado","n","null","noncog","pseudo","N","exp","null"
"","null","html-keyboard-response","178","324682","0.0-3.0-0.81","+","null","","","","","",""
"","710","html-keyboard-response","179","325393","0.0-3.0-1.81","socorro","s","n","noncog","word","S","exp","7"
"","null","html-keyboard-response","180","325900","0.0-3.0-0.82","+","null","","","","","",""
"","1350","html-keyboard-response","181","327252","0.0-3.0-1.82","dilheira","n","null","noncog","pseudo","N","exp","null"
"","null","html-keyboard-response","182","327754","0.0-3.0-0.83","+","null","","","","","",""
"","645","html-keyboard-response","183","328400","0.0-3.0-1.83","fogão","s","n","noncog","word","S","exp","5"
"","null","html-keyboard-response","184","328915","0.0-3.0-0.84","+","null","","","","","",""
"","1273","html-keyboard-response","185","330189","0.0-3.0-1.84","verceja","n","null","noncog","pseudo","N","exp","null"
"","null","html-keyboard-response","186","330697","0.0-3.0-0.85","+","null","","","","","",""
"","1168","html-keyboard-response","187","331867","0.0-3.0-1.85","terdia","n","null","noncog","pseudo","N","exp","null"
"","null","html-keyboard-response","188","332379","0.0-3.0-0.86","+","null","","","","","",""
"","1272","html-keyboard-response","189","333653","0.0-3.0-1.86","tímido","s","a","cog","word","S","exp","6"
"","null","html-keyboard-response","190","334171","0.0-3.0-0.87","+","null","","","","","",""
"","2077","html-keyboard-response","191","336251","0.0-3.0-1.87","deselegante","s","a","noncog","word","S","exp","11"
"","null","html-keyboard-response","192","336763","0.0-3.0-0.88","+","null","","","","","",""
"","1908","html-keyboard-response","193","338671","0.0-3.0-1.88","bibarconato","n","null","noncog","pseudo","N","exp","null"
"","null","html-keyboard-response","194","339176","0.0-3.0-0.89","+","null","","","","","",""
"","884","html-keyboard-response","195","340060","0.0-3.0-1.89","revear","n","null","noncog","pseudo","N","exp","null"
"","null","html-keyboard-response","196","340569","0.0-3.0-0.90","+","null","","","","","",""
"","1256","html-keyboard-response","197","341825","0.0-3.0-1.90","enxarto","n","null","noncog","pseudo","N","exp","null"
"","null","html-keyboard-response","198","342329","0.0-3.0-0.91","+","null","","","","","",""
"","1189","html-keyboard-response","199","343520","0.0-3.0-1.91","aemaça","n","null","noncog","pseudo","N","exp","null"
"","null","html-keyboard-response","200","344036","0.0-3.0-0.92","+","null","","","","","",""
"","1003","html-keyboard-response","201","345040","0.0-3.0-1.92","casuas","n","null","noncog","pseudo","N","exp","null"
"","null","html-keyboard-response","202","345550","0.0-3.0-0.93","+","null","","","","","",""
"","1987","html-keyboard-response","203","347539","0.0-3.0-1.93","lapestra","n","null","noncog","pseudo","N","exp","null"
"","null","html-keyboard-response","204","348041","0.0-3.0-0.94","+","null","","","","","",""
"","775","html-keyboard-response","205","348817","0.0-3.0-1.94","grótis","n","null","noncog","pseudo","N","exp","null"
"","null","html-keyboard-response","206","349321","0.0-3.0-0.95","+","null","","","","","",""
"","681","html-keyboard-response","207","350003","0.0-3.0-1.95","cravo","s","n","noncog","word","S","exp","5"
"","null","html-keyboard-response","208","350512","0.0-3.0-0.96","+","null","","","","","",""
"","675","html-keyboard-response","209","351187","0.0-3.0-1.96","agressivo","s","a","cog","word","S","exp","9"
"","null","html-keyboard-response","210","351689","0.0-3.0-0.97","+","null","","","","","",""
"","864","html-keyboard-response","211","352553","0.0-3.0-1.97","rovaz","n","null","noncog","pseudo","N","exp","null"
"","null","html-keyboard-response","212","353060","0.0-3.0-0.98","+","null","","","","","",""
"","605","html-keyboard-response","213","353666","0.0-3.0-1.98","macras","s","null","noncog","pseudo","N","exp","null"
"","null","html-keyboard-response","214","354169","0.0-3.0-0.99","+","null","","","","","",""
"","1031","html-keyboard-response","215","355202","0.0-3.0-1.99","aperor","n","null","noncog","pseudo","N","exp","null"
"","null","html-keyboard-response","216","355717","0.0-3.0-0.100","+","null","","","","","",""
"","856","html-keyboard-response","217","356575","0.0-3.0-1.100","uçar","n","null","noncog","pseudo","N","exp","null"
"","null","html-keyboard-response","218","357084","0.0-3.0-0.101","+","null","","","","","",""
"","580","html-keyboard-response","219","357664","0.0-3.0-1.101","tinta","s","n","cog","word","S","exp","5"
"","null","html-keyboard-response","220","358178","0.0-3.0-0.102","+","null","","","","","",""
"","906","html-keyboard-response","221","359084","0.0-3.0-1.102","berquesa","n","null","noncog","pseudo","N","exp","null"
"","null","html-keyboard-response","222","359595","0.0-3.0-0.103","+","null","","","","","",""
"","647","html-keyboard-response","223","360243","0.0-3.0-1.103","pedaço","s","n","noncog","word","S","exp","6"
"","null","html-keyboard-response","224","360754","0.0-3.0-0.104","+","null","","","","","",""
"","1904","html-keyboard-response","225","362659","0.0-3.0-1.104","refletir","s","v","cog","word","S","exp","8"
"","null","html-keyboard-response","226","363167","0.0-3.0-0.105","+","null","","","","","",""
"","978","html-keyboard-response","227","364145","0.0-3.0-1.105","salpicado","n","a","noncog","word","S","exp","9"
"","null","html-keyboard-response","228","364646","0.0-3.0-0.106","+","null","","","","","",""
"","812","html-keyboard-response","229","365460","0.0-3.0-1.106","reduzir","s","v","cog","word","S","exp","7"
"","null","html-keyboard-response","230","365972","0.0-3.0-0.107","+","null","","","","","",""
"","691","html-keyboard-response","231","366663","0.0-3.0-1.107","pneucania","n","null","noncog","pseudo","N","exp","null"
"","null","html-keyboard-response","232","367172","0.0-3.0-0.108","+","null","","","","","",""
"","1012","html-keyboard-response","233","368186","0.0-3.0-1.108","atapdar","s","null","noncog","pseudo","N","exp","null"
"","null","html-keyboard-response","234","368695","0.0-3.0-0.109","+","null","","","","","",""
"","749","html-keyboard-response","235","369446","0.0-3.0-1.109","fino","s","a","cog","word","S","exp","4"
"","null","html-keyboard-response","236","369954","0.0-3.0-0.110","+","null","","","","","",""
"","1092","html-keyboard-response","237","371047","0.0-3.0-1.110","liberal","s","a","cog","word","S","exp","7"
"","null","html-keyboard-response","238","371554","0.0-3.0-0.111","+","null","","","","","",""
"","993","html-keyboard-response","239","372549","0.0-3.0-1.111","garastia","n","null","noncog","pseudo","N","exp","null"
"","null","html-keyboard-response","240","373058","0.0-3.0-0.112","+","null","","","","","",""
"","814","html-keyboard-response","241","373874","0.0-3.0-1.112","mabras","n","null","noncog","pseudo","N","exp","null"
"","null","html-keyboard-response","242","374376","0.0-3.0-0.113","+","null","","","","","",""
"","582","html-keyboard-response","243","374959","0.0-3.0-1.113","mal","s","a","cog","word","S","exp","3"
"","null","html-keyboard-response","244","375467","0.0-3.0-0.114","+","null","","","","","",""
"","832","html-keyboard-response","245","376299","0.0-3.0-1.114","loaco","n","null","noncog","pseudo","N","exp","null"
"","null","html-keyboard-response","246","376810","0.0-3.0-0.115","+","null","","","","","",""
"","605","html-keyboard-response","247","377416","0.0-3.0-1.115","uchães","n","null","noncog","pseudo","N","exp","null"
"","null","html-keyboard-response","248","377925","0.0-3.0-0.116","+","null","","","","","",""
"","1001","html-keyboard-response","249","378927","0.0-3.0-1.116","avenas","s","null","noncog","pseudo","N","exp","null"
"","null","html-keyboard-response","250","379442","0.0-3.0-0.117","+","null","","","","","",""
"","2145","html-keyboard-response","251","381589","0.0-3.0-1.117","pimada","n","null","noncog","pseudo","N","exp","null"
"","null","html-keyboard-response","252","382097","0.0-3.0-0.118","+","null","","","","","",""
"","858","html-keyboard-response","253","382955","0.0-3.0-1.118","crutas","n","null","noncog","pseudo","N","exp","null"
"","null","html-keyboard-response","254","383459","0.0-3.0-0.119","+","null","","","","","",""
"","536","html-keyboard-response","255","383996","0.0-3.0-1.119","tênis","s","n","cog","word","S","exp","5"
"","null","html-keyboard-response","256","384507","0.0-3.0-0.120","+","null","","","","","",""
"","673","html-keyboard-response","257","385182","0.0-3.0-1.120","animado","n","a","noncog","word","S","exp","7"
"","null","html-keyboard-response","258","385692","0.0-3.0-0.121","+","null","","","","","",""
"","1344","html-keyboard-response","259","387037","0.0-3.0-1.121","frotes","n","null","noncog","pseudo","N","exp","null"
"","null","html-keyboard-response","260","387540","0.0-3.0-0.122","+","null","","","","","",""
"","675","html-keyboard-response","261","388216","0.0-3.0-1.122","trabalhar","s","v","noncog","word","S","exp","9"
"","null","html-keyboard-response","262","388726","0.0-3.0-0.123","+","null","","","","","",""
"","991","html-keyboard-response","263","389718","0.0-3.0-1.123","bachir","n","null","noncog","pseudo","N","exp","null"
"","null","html-keyboard-response","264","390231","0.0-3.0-0.124","+","null","","","","","",""
"","550","html-keyboard-response","265","390783","0.0-3.0-1.124","cinema","s","n","cog","word","S","exp","6"
"","null","html-keyboard-response","266","391285","0.0-3.0-0.125","+","null","","","","","",""
"","817","html-keyboard-response","267","392103","0.0-3.0-1.125","dobradiça","n","n","noncog","word","S","exp","9"
"","null","html-keyboard-response","268","392617","0.0-3.0-0.126","+","null","","","","","",""
"","1257","html-keyboard-response","269","393874","0.0-3.0-1.126","braras","n","null","noncog","pseudo","N","exp","null"
"","null","html-keyboard-response","270","394385","0.0-3.0-0.127","+","null","","","","","",""
"","573","html-keyboard-response","271","394958","0.0-3.0-1.127","açúcar","s","n","noncog","word","S","exp","6"
"","null","html-keyboard-response","272","395470","0.0-3.0-0.128","+","null","","","","","",""
"","736","html-keyboard-response","273","396207","0.0-3.0-1.128","memória","s","n","cog","word","S","exp","7"
"","null","html-keyboard-response","274","396719","0.0-3.0-0.129","+","null","","","","","",""
"","672","html-keyboard-response","275","397395","0.0-3.0-1.129","destino","s","n","cog","word","S","exp","7"
"","null","html-keyboard-response","276","397901","0.0-3.0-0.130","+","null","","","","","",""
"","1494","html-keyboard-response","277","399397","0.0-3.0-1.130","lagras","n","null","noncog","pseudo","N","exp","null"
"","null","html-keyboard-response","278","399909","0.0-3.0-0.131","+","null","","","","","",""
"","656","html-keyboard-response","279","400566","0.0-3.0-1.131","atrasar","s","v","noncog","word","S","exp","7"
"","null","html-keyboard-response","280","401081","0.0-3.0-0.132","+","null","","","","","",""
"","578","html-keyboard-response","281","401660","0.0-3.0-1.132","filme","n","n","cog","word","S","exp","5"
"","null","html-keyboard-response","282","402172","0.0-3.0-0.133","+","null","","","","","",""
"","1567","html-keyboard-response","283","403739","0.0-3.0-1.133","burtos","n","null","noncog","pseudo","N","exp","null"
"","null","html-keyboard-response","284","404241","0.0-3.0-0.134","+","null","","","","","",""
"","908","html-keyboard-response","285","405148","0.0-3.0-1.134","prenas","n","null","noncog","pseudo","N","exp","null"
"","null","html-keyboard-response","286","405652","0.0-3.0-0.135","+","null","","","","","",""
"","771","html-keyboard-response","287","406422","0.0-3.0-1.135","espaço","s","n","cog","word","S","exp","6"
"","null","html-keyboard-response","288","406936","0.0-3.0-0.136","+","null","","","","","",""
"","661","html-keyboard-response","289","407599","0.0-3.0-1.136","plinta","n","null","noncog","pseudo","N","exp","null"
"","null","html-keyboard-response","290","408102","0.0-3.0-0.137","+","null","","","","","",""
"","1942","html-keyboard-response","291","410044","0.0-3.0-1.137","propaganda","s","n","cog","word","S","exp","10"
"","null","html-keyboard-response","292","410546","0.0-3.0-0.138","+","null","","","","","",""
"","573","html-keyboard-response","293","411119","0.0-3.0-1.138","tela","s","n","noncog","word","S","exp","4"
"","null","html-keyboard-response","294","411622","0.0-3.0-0.139","+","null","","","","","",""
"","529","html-keyboard-response","295","412152","0.0-3.0-1.139","ótimo","s","a","noncog","word","S","exp","5"
"","null","html-keyboard-response","296","412660","0.0-3.0-0.140","+","null","","","","","",""
"","903","html-keyboard-response","297","413564","0.0-3.0-1.140","cascata","n","n","noncog","word","S","exp","7"
"","null","html-keyboard-response","298","414077","0.0-3.0-0.141","+","null","","","","","",""
"","641","html-keyboard-response","299","414719","0.0-3.0-1.141","nervoso","s","a","noncog","word","S","exp","7"
"","null","html-keyboard-response","300","415232","0.0-3.0-0.142","+","null","","","","","",""
"","703","html-keyboard-response","301","415936","0.0-3.0-1.142","morija","n","null","noncog","pseudo","N","exp","null"
"","null","html-keyboard-response","302","416450","0.0-3.0-0.143","+","null","","","","","",""
"","859","html-keyboard-response","303","417311","0.0-3.0-1.143","telafonir","n","null","noncog","pseudo","N","exp","null"
"","null","html-keyboard-response","304","417827","0.0-3.0-0.144","+","null","","","","","",""
"","1036","html-keyboard-response","305","418864","0.0-3.0-1.144","sustentar","s","v","noncog","word","S","exp","9"
"","null","html-keyboard-response","306","419376","0.0-3.0-0.145","+","null","","","","","",""
"","641","html-keyboard-response","307","420018","0.0-3.0-1.145","aletiê","n","null","noncog","pseudo","N","exp","null"
"","null","html-keyboard-response","308","420521","0.0-3.0-0.146","+","null","","","","","",""
"","918","html-keyboard-response","309","421439","0.0-3.0-1.146","motre","n","null","noncog","pseudo","N","exp","null"
"","null","html-keyboard-response","310","421951","0.0-3.0-0.147","+","null","","","","","",""
"","706","html-keyboard-response","311","422658","0.0-3.0-1.147","carona","s","n","noncog","word","S","exp","6"
"","null","html-keyboard-response","312","423166","0.0-3.0-0.148","+","null","","","","","",""
"","668","html-keyboard-response","313","423835","0.0-3.0-1.148","país","s","n","noncog","word","S","exp","4"
"","null","html-keyboard-response","314","424351","0.0-3.0-0.149","+","null","","","","","",""
"","2169","html-keyboard-response","315","426520","0.0-3.0-1.149","resmungar","s","v","noncog","word","S","exp","9"
"","null","html-keyboard-response","316","427024","0.0-3.0-0.150","+","null","","","","","",""
"","1207","html-keyboard-response","317","428233","0.0-3.0-1.150","enxerido","s","a","noncog","word","S","exp","8"
"","null","html-keyboard-response","318","428741","0.0-3.0-0.151","+","null","","","","","",""
"","1178","html-keyboard-response","319","429920","0.0-3.0-1.151","multiplicar","s","v","cog","word","S","exp","11"
"","null","html-keyboard-response","320","430432","0.0-3.0-0.152","+","null","","","","","",""
"","660","html-keyboard-response","321","431093","0.0-3.0-1.152","raspar","s","v","noncog","word","S","exp","6"
"","null","html-keyboard-response","322","431597","0.0-3.0-0.153","+","null","","","","","",""
"","570","html-keyboard-response","323","432169","0.0-3.0-1.153","hedoru","n","null","noncog","pseudo","N","exp","null"
"","null","html-keyboard-response","324","432684","0.0-3.0-0.154","+","null","","","","","",""
"","537","html-keyboard-response","325","433220","0.0-3.0-1.154","jantar","s","v","noncog","word","S","exp","6"
"","null","html-keyboard-response","326","433729","0.0-3.0-0.155","+","null","","","","","",""
"","1162","html-keyboard-response","327","434892","0.0-3.0-1.155","trenos","s","null","noncog","pseudo","N","exp","null"
"","null","html-keyboard-response","328","435402","0.0-3.0-0.156","+","null","","","","","",""
"","1850","html-keyboard-response","329","437252","0.0-3.0-1.156","cápsula","s","n","noncog","word","S","exp","7"
"","null","html-keyboard-response","330","437760","0.0-3.0-0.157","+","null","","","","","",""
"","701","html-keyboard-response","331","438461","0.0-3.0-1.157","nome","s","n","cog","word","S","exp","4"
"","null","html-keyboard-response","332","438972","0.0-3.0-0.158","+","null","","","","","",""
"","788","html-keyboard-response","333","439760","0.0-3.0-1.158","papai","s","n","cog","word","S","exp","5"
"","null","html-keyboard-response","334","440267","0.0-3.0-0.159","+","null","","","","","",""
"","632","html-keyboard-response","335","440900","0.0-3.0-1.159","mania","s","n","cog","word","S","exp","5"
"","null","html-keyboard-response","336","441407","0.0-3.0-0.160","+","null","","","","","",""
"","1208","html-keyboard-response","337","442616","0.0-3.0-1.160","vervas","n","null","noncog","pseudo","N","exp","null"
"","null","html-keyboard-response","338","443128","0.0-3.0-0.161","+","null","","","","","",""
"","2511","html-keyboard-response","339","445640","0.0-3.0-1.161","aivões","n","null","noncog","pseudo","N","exp","null"
"","null","html-keyboard-response","340","446152","0.0-3.0-0.162","+","null","","","","","",""
"","1576","html-keyboard-response","341","447728","0.0-3.0-1.162","promessa","s","n","noncog","word","S","exp","8"
"","null","html-keyboard-response","342","448232","0.0-3.0-0.163","+","null","","","","","",""
"","598","html-keyboard-response","343","448830","0.0-3.0-1.163","viver","s","v","cog","word","S","exp","5"
"","null","html-keyboard-response","344","449334","0.0-3.0-0.164","+","null","","","","","",""
"","846","html-keyboard-response","345","450181","0.0-3.0-1.164","convidado","s","n","noncog","word","S","exp","9"
"","null","html-keyboard-response","346","450683","0.0-3.0-0.165","+","null","","","","","",""
"","514","html-keyboard-response","347","451198","0.0-3.0-1.165","chato","s","n","noncog","word","S","exp","5"
"","null","html-keyboard-response","348","451710","0.0-3.0-0.166","+","null","","","","","",""
"","1028","html-keyboard-response","349","452738","0.0-3.0-1.166","nivelado","n","a","cog","word","S","exp","8"
"","null","html-keyboard-response","350","453250","0.0-3.0-0.167","+","null","","","","","",""
"","1422","html-keyboard-response","351","454674","0.0-3.0-1.167","filosofia","s","n","cog","word","S","exp","9"
"","null","html-keyboard-response","352","455176","0.0-3.0-0.168","+","null","","","","","",""
"","1131","html-keyboard-response","353","456308","0.0-3.0-1.168","senareta","n","null","noncog","pseudo","N","exp","null"
"","null","html-keyboard-response","354","456813","0.0-3.0-0.169","+","null","","","","","",""
"","787","html-keyboard-response","355","457603","0.0-3.0-1.169","usnado","n","null","noncog","pseudo","N","exp","null"
"","null","html-keyboard-response","356","458112","0.0-3.0-0.170","+","null","","","","","",""
"","1080","html-keyboard-response","357","459191","0.0-3.0-1.170","planalto","n","n","cog","word","S","exp","8"
"","null","html-keyboard-response","358","459693","0.0-3.0-0.171","+","null","","","","","",""
"","680","html-keyboard-response","359","460374","0.0-3.0-1.171","alfabeto","s","n","cog","word","S","exp","8"
"","null","html-keyboard-response","360","460880","0.0-3.0-0.172","+","null","","","","","",""
"","737","html-keyboard-response","361","461618","0.0-3.0-1.172","melão","s","n","cog","word","S","exp","5"
"","null","html-keyboard-response","362","462133","0.0-3.0-0.173","+","null","","","","","",""
"","716","html-keyboard-response","363","462850","0.0-3.0-1.173","abieso","n","null","noncog","pseudo","N","exp","null"
"","null","html-keyboard-response","364","463354","0.0-3.0-0.174","+","null","","","","","",""
"","675","html-keyboard-response","365","464030","0.0-3.0-1.174","ocinto","s","null","noncog","pseudo","N","exp","null"
"","null","html-keyboard-response","366","464536","0.0-3.0-0.175","+","null","","","","","",""
"","2497","html-keyboard-response","367","467034","0.0-3.0-1.175","disbrituir","n","null","noncog","pseudo","N","exp","null"
"","null","html-keyboard-response","368","467545","0.0-3.0-0.176","+","null","","","","","",""
"","1168","html-keyboard-response","369","468715","0.0-3.0-1.176","fusbão","n","null","noncog","pseudo","N","exp","null"
"","null","html-keyboard-response","370","469221","0.0-3.0-0.177","+","null","","","","","",""
"","743","html-keyboard-response","371","469965","0.0-3.0-1.177","oricia","n","null","noncog","pseudo","N","exp","null"
"","null","html-keyboard-response","372","470470","0.0-3.0-0.178","+","null","","","","","",""
"","721","html-keyboard-response","373","471193","0.0-3.0-1.178","azul","s","n","noncog","word","S","exp","4"
"","null","html-keyboard-response","374","471704","0.0-3.0-0.179","+","null","","","","","",""
"","694","html-keyboard-response","375","472399","0.0-3.0-1.179","bandido","s","n","cog","word","S","exp","7"
"","null","html-keyboard-response","376","472910","0.0-3.0-0.180","+","null","","","","","",""
"","618","html-keyboard-response","377","473528","0.0-3.0-1.180","verde","s","a","noncog","word","S","exp","5"
"","null","html-keyboard-response","378","474032","0.0-3.0-0.181","+","null","","","","","",""
"","1811","html-keyboard-response","379","475845","0.0-3.0-1.181","instruído","s","a","noncog","word","S","exp","9"
"","null","html-keyboard-response","380","476347","0.0-3.0-0.182","+","null","","","","","",""
"","842","html-keyboard-response","381","477190","0.0-3.0-1.182","distraído","s","a","cog","word","S","exp","9"
"","null","html-keyboard-response","382","477708","0.0-3.0-0.183","+","null","","","","","",""
"","903","html-keyboard-response","383","478611","0.0-3.0-1.183","quenzina","n","null","noncog","pseudo","N","exp","null"
"","null","html-keyboard-response","384","479119","0.0-3.0-0.184","+","null","","","","","",""
"","1153","html-keyboard-response","385","480274","0.0-3.0-1.184","gertas","n","null","noncog","pseudo","N","exp","null"
"","null","html-keyboard-response","386","480785","0.0-3.0-0.185","+","null","","","","","",""
"","613","html-keyboard-response","387","481399","0.0-3.0-1.185","civil","s","a","cog","word","S","exp","5"
"","null","html-keyboard-response","388","481902","0.0-3.0-0.186","+","null","","","","","",""
"","906","html-keyboard-response","389","482811","0.0-3.0-1.186","esfoce","n","null","noncog","pseudo","N","exp","null"
"","null","html-keyboard-response","390","483326","0.0-3.0-0.187","+","null","","","","","",""
"","1090","html-keyboard-response","391","484418","0.0-3.0-1.187","montanha","s","n","cog","word","S","exp","8"
"","null","html-keyboard-response","392","484921","0.0-3.0-0.188","+","null","","","","","",""
"","1173","html-keyboard-response","393","486096","0.0-3.0-1.188","fasdas","n","null","noncog","pseudo","N","exp","null"
"","null","html-keyboard-response","394","486605","0.0-3.0-0.189","+","null","","","","","",""
"","889","html-keyboard-response","395","487496","0.0-3.0-1.189","pantufa","n","n","cog","word","S","exp","7"
"","null","html-keyboard-response","396","488006","0.0-3.0-0.190","+","null","","","","","",""
"","2337","html-keyboard-response","397","490345","0.0-3.0-1.190","imitar","s","v","cog","word","S","exp","6"
"","null","html-keyboard-response","398","490848","0.0-3.0-0.191","+","null","","","","","",""
"","794","html-keyboard-response","399","491643","0.0-3.0-1.191","morno","s","a","noncog","word","S","exp","5"
"","null","html-keyboard-response","400","492156","0.0-3.0-0.192","+","null","","","","","",""
"","1113","html-keyboard-response","401","493271","0.0-3.0-1.192","detative","n","null","noncog","pseudo","N","exp","null"
"","null","html-keyboard-response","402","493785","0.0-3.0-0.193","+","null","","","","","",""
"","1036","html-keyboard-response","403","494823","0.0-3.0-1.193","fratos","n","null","noncog","pseudo","N","exp","null"
"","null","html-keyboard-response","404","495327","0.0-3.0-0.194","+","null","","","","","",""
"","1222","html-keyboard-response","405","496550","0.0-3.0-1.194","manfa","n","null","noncog","pseudo","N","exp","null"
"","null","html-keyboard-response","406","497059","0.0-3.0-0.195","+","null","","","","","",""
"","821","html-keyboard-response","407","497882","0.0-3.0-1.195","rédesa","n","null","noncog","pseudo","N","exp","null"
"","null","html-keyboard-response","408","498386","0.0-3.0-0.196","+","null","","","","","",""
"","663","html-keyboard-response","409","499051","0.0-3.0-1.196","traduzir","s","v","cog","word","S","exp","8"
"","null","html-keyboard-response","410","499558","0.0-3.0-0.197","+","null","","","","","",""
"","1045","html-keyboard-response","411","500603","0.0-3.0-1.197","oecano","n","null","noncog","pseudo","N","exp","null"
"","null","html-keyboard-response","412","501119","0.0-3.0-0.198","+","null","","","","","",""
"","3384","html-keyboard-response","413","504504","0.0-3.0-1.198","extravagante","n","a","cog","word","S","exp","12"
"","null","html-keyboard-response","414","505009","0.0-3.0-0.199","+","null","","","","","",""
"","1145","html-keyboard-response","415","506155","0.0-3.0-1.199","nevela","n","null","noncog","pseudo","N","exp","null"
"","null","html-keyboard-response","416","506657","0.0-3.0-0.200","+","null","","","","","",""
"","870","html-keyboard-response","417","507527","0.0-3.0-1.200","undivídio","n","null","noncog","pseudo","N","exp","null"
"","null","html-keyboard-response","418","508042","0.0-3.0-0.201","+","null","","","","","",""
"","752","html-keyboard-response","419","508796","0.0-3.0-1.201","dipata","n","null","noncog","pseudo","N","exp","null"
"","null","html-keyboard-response","420","509298","0.0-3.0-0.202","+","null","","","","","",""
"","606","html-keyboard-response","421","509906","0.0-3.0-1.202","trair","s","v","cog","word","S","exp","5"
"","null","html-keyboard-response","422","510416","0.0-3.0-0.203","+","null","","","","","",""
"","896","html-keyboard-response","423","511313","0.0-3.0-1.203","aitrou","n","null","noncog","pseudo","N","exp","null"
"","null","html-keyboard-response","424","511827","0.0-3.0-0.204","+","null","","","","","",""
"","624","html-keyboard-response","425","512451","0.0-3.0-1.204","perdão","s","n","noncog","word","S","exp","6"
"","null","html-keyboard-response","426","512955","0.0-3.0-0.205","+","null","","","","","",""
"","533","html-keyboard-response","427","513488","0.0-3.0-1.205","verdade","s","n","cog","word","S","exp","7"
"","null","html-keyboard-response","428","513989","0.0-3.0-0.206","+","null","","","","","",""
"","978","html-keyboard-response","429","514969","0.0-3.0-1.206","ideisa","n","null","noncog","pseudo","N","exp","null"
"","null","html-keyboard-response","430","515486","0.0-3.0-0.207","+","null","","","","","",""
"","518","html-keyboard-response","431","516005","0.0-3.0-1.207","fofo","s","a","noncog","word","S","exp","4"
"","null","html-keyboard-response","432","516510","0.0-3.0-0.208","+","null","","","","","",""
"","766","html-keyboard-response","433","517277","0.0-3.0-1.208","pritas","n","null","noncog","pseudo","N","exp","null"
"","null","html-keyboard-response","434","517782","0.0-3.0-0.209","+","null","","","","","",""
"","1535","html-keyboard-response","435","519319","0.0-3.0-1.209","costra","n","null","noncog","pseudo","N","exp","null"
"","null","html-keyboard-response","436","519826","0.0-3.0-0.210","+","null","","","","","",""
"","1580","html-keyboard-response","437","521407","0.0-3.0-1.210","carregar","s","v","noncog","word","S","exp","8"
"","null","html-keyboard-response","438","521914","0.0-3.0-0.211","+","null","","","","","",""
"","605","html-keyboard-response","439","522520","0.0-3.0-1.211","areia","s","n","noncog","word","S","exp","5"
"","null","html-keyboard-response","440","523034","0.0-3.0-0.212","+","null","","","","","",""
"","802","html-keyboard-response","441","523837","0.0-3.0-1.212","boreta","n","null","noncog","pseudo","N","exp","null"
"","null","html-keyboard-response","442","524345","0.0-3.0-0.213","+","null","","","","","",""
"","711","html-keyboard-response","443","525058","0.0-3.0-1.213","podilo","n","null","noncog","pseudo","N","exp","null"
"","null","html-keyboard-response","444","525564","0.0-3.0-0.214","+","null","","","","","",""
"","579","html-keyboard-response","445","526144","0.0-3.0-1.214","ilhure","n","null","noncog","pseudo","N","exp","null"
"","null","html-keyboard-response","446","526652","0.0-3.0-0.215","+","null","","","","","",""
"","814","html-keyboard-response","447","527468","0.0-3.0-1.215","cristal","s","n","cog","word","S","exp","7"
"","null","html-keyboard-response","448","527974","0.0-3.0-0.216","+","null","","","","","",""
"","996","html-keyboard-response","449","528972","0.0-3.0-1.216","pega-pega","s","n","noncog","word","S","exp","8"
"","null","html-keyboard-response","450","529479","0.0-3.0-0.217","+","null","","","","","",""
"","788","html-keyboard-response","451","530268","0.0-3.0-1.217","risbos","n","null","noncog","pseudo","N","exp","null"
"","null","html-keyboard-response","452","530780","0.0-3.0-0.218","+","null","","","","","",""
"","1237","html-keyboard-response","453","532017","0.0-3.0-1.218","espionar","s","v","cog","word","S","exp","8"
"","null","html-keyboard-response","454","532524","0.0-3.0-0.219","+","null","","","","","",""
"","668","html-keyboard-response","455","533193","0.0-3.0-1.219","drama","s","n","cog","word","S","exp","5"
"","null","html-keyboard-response","456","533700","0.0-3.0-0.220","+","null","","","","","",""
"","1003","html-keyboard-response","457","534704","0.0-3.0-1.220","medalha","s","n","cog","word","S","exp","7"
"","null","html-keyboard-response","458","535218","0.0-3.0-0.221","+","null","","","","","",""
"","2914","html-keyboard-response","459","538132","0.0-3.0-1.221","bagunceira","s","a","noncog","word","S","exp","10"
"","null","html-keyboard-response","460","538638","0.0-3.0-0.222","+","null","","","","","",""
"","845","html-keyboard-response","461","539485","0.0-3.0-1.222","suipestar","n","null","noncog","pseudo","N","exp","null"
"","null","html-keyboard-response","462","539998","0.0-3.0-0.223","+","null","","","","","",""
"","870","html-keyboard-response","463","540869","0.0-3.0-1.223","pitada","s","n","noncog","word","S","exp","6"
"","null","html-keyboard-response","464","541371","0.0-3.0-0.224","+","null","","","","","",""
"","798","html-keyboard-response","465","542170","0.0-3.0-1.224","promeção","s","null","noncog","pseudo","N","exp","null"
"","null","html-keyboard-response","466","542685","0.0-3.0-0.225","+","null","","","","","",""
"","975","html-keyboard-response","467","543661","0.0-3.0-1.225","chorão","s","a","noncog","word","S","exp","6"
"","null","html-keyboard-response","468","544174","0.0-3.0-0.226","+","null","","","","","",""
"","811","html-keyboard-response","469","544986","0.0-3.0-1.226","liso","s","n","noncog","word","S","exp","4"
"","null","html-keyboard-response","470","545488","0.0-3.0-0.227","+","null","","","","","",""
"","624","html-keyboard-response","471","546112","0.0-3.0-1.227","matinal","n","a","cog","word","S","exp","7"
"","null","html-keyboard-response","472","546620","0.0-3.0-0.228","+","null","","","","","",""
"","724","html-keyboard-response","473","547345","0.0-3.0-1.228","tartos","n","null","noncog","pseudo","N","exp","null"
"","null","html-keyboard-response","474","547853","0.0-3.0-0.229","+","null","","","","","",""
"","617","html-keyboard-response","475","548473","0.0-3.0-1.229","escumo","n","null","noncog","pseudo","N","exp","null"
"","null","html-keyboard-response","476","548979","0.0-3.0-0.230","+","null","","","","","",""
"","637","html-keyboard-response","477","549616","0.0-3.0-1.230","cerca","s","n","noncog","word","S","exp","5"
"","null","html-keyboard-response","478","550121","0.0-3.0-0.231","+","null","","","","","",""
"","1038","html-keyboard-response","479","551159","0.0-3.0-1.231","ofreta","s","null","noncog","pseudo","N","exp","null"
"","null","html-keyboard-response","480","551671","0.0-3.0-0.232","+","null","","","","","",""
"","620","html-keyboard-response","481","552293","0.0-3.0-1.232","livro","s","n","cog","word","S","exp","5"
"","null","html-keyboard-response","482","552795","0.0-3.0-0.233","+","null","","","","","",""
"","1060","html-keyboard-response","483","553856","0.0-3.0-1.233","dacada","n","null","noncog","pseudo","N","exp","null"
"","null","html-keyboard-response","484","554364","0.0-3.0-0.234","+","null","","","","","",""
"","784","html-keyboard-response","485","555147","0.0-3.0-1.234","revista","s","n","cog","word","S","exp","7"
"","null","html-keyboard-response","486","555659","0.0-3.0-0.235","+","null","","","","","",""
"","1301","html-keyboard-response","487","556961","0.0-3.0-1.235","sintonizar","s","v","noncog","word","S","exp","10"
"","null","html-keyboard-response","488","557477","0.0-3.0-0.236","+","null","","","","","",""
"","611","html-keyboard-response","489","558088","0.0-3.0-1.236","carro","s","n","noncog","word","S","exp","5"
"","null","html-keyboard-response","490","558599","0.0-3.0-0.237","+","null","","","","","",""
"","2155","html-keyboard-response","491","560756","0.0-3.0-1.237","incomodar","s","v","noncog","word","S","exp","9"
"","null","html-keyboard-response","492","561265","0.0-3.0-0.238","+","null","","","","","",""
"","694","html-keyboard-response","493","561960","0.0-3.0-1.238","barco","s","n","cog","word","S","exp","5"
"","null","html-keyboard-response","494","562462","0.0-3.0-0.239","+","null","","","","","",""
"","962","html-keyboard-response","495","563426","0.0-3.0-1.239","selir","n","null","noncog","pseudo","N","exp","null"
