[
	{
		"view_history": [
			{
				"page_index": 0,
				"viewing_time": 1545
			}
		],
		"rt": 1545,
		"trial_type": "instructions",
		"trial_index": 0,
		"time_elapsed": 1551,
		"internal_node_id": "0.0-0.0"
	},
	{
		"rt": 4210,
		"response": {
			"tcle": "Concordo voluntariamente em participar da pesquisa conforme texto acima."
		},
		"question_order": [
			0
		],
		"trial_type": "survey-multi-choice",
		"trial_index": 1,
		"time_elapsed": 5980,
		"internal_node_id": "0.0-1.0"
	},
	{
		"rt": 64495,
		"response": {
			"email": "6XQ0M"
		},
		"trial_type": "survey-text",
		"trial_index": 2,
		"time_elapsed": 71518,
		"internal_node_id": "0.0-2.0"
	}
]