[
	{
		"view_history": [
			{
				"page_index": 0,
				"viewing_time": 86733
			}
		],
		"rt": 86733,
		"trial_type": "instructions",
		"trial_index": 0,
		"time_elapsed": 86738,
		"internal_node_id": "0.0-0.0"
	},
	{
		"rt": null,
		"stimulus": "+",
		"response": null,
		"trial_type": "html-keyboard-response",
		"trial_index": 1,
		"time_elapsed": 87350,
		"internal_node_id": "0.0-1.0-0.0"
	},
	{
		"rt": 8566,
		"stimulus": "calmaria",
		"response": "n",
		"class": "null",
		"status": "noncog",
		"answer": "word",
		"correct": "S",
		"trial": "prac",
		"letters": "null",
		"trial_type": "html-keyboard-response",
		"trial_index": 2,
		"time_elapsed": 95919,
		"internal_node_id": "0.0-1.0-1.0"
	},
	{
		"rt": null,
		"stimulus": "+",
		"response": null,
		"trial_type": "html-keyboard-response",
		"trial_index": 3,
		"time_elapsed": 96420,
		"internal_node_id": "0.0-1.0-0.1"
	},
	{
		"rt": 4192,
		"stimulus": "órgão",
		"response": "s",
		"class": "null",
		"status": "noncog",
		"answer": "word",
		"correct": "S",
		"trial": "prac",
		"letters": "null",
		"trial_type": "html-keyboard-response",
		"trial_index": 4,
		"time_elapsed": 100614,
		"internal_node_id": "0.0-1.0-1.1"
	},
	{
		"rt": null,
		"stimulus": "+",
		"response": null,
		"trial_type": "html-keyboard-response",
		"trial_index": 5,
		"time_elapsed": 101115,
		"internal_node_id": "0.0-1.0-0.2"
	},
	{
		"rt": 2276,
		"stimulus": "chassi",
		"response": "n",
		"class": "null",
		"status": "cog",
		"answer": "word",
		"correct": "S",
		"trial": "prac",
		"letters": "null",
		"trial_type": "html-keyboard-response",
		"trial_index": 6,
		"time_elapsed": 103392,
		"internal_node_id": "0.0-1.0-1.2"
	},
	{
		"rt": null,
		"stimulus": "+",
		"response": null,
		"trial_type": "html-keyboard-response",
		"trial_index": 7,
		"time_elapsed": 103898,
		"internal_node_id": "0.0-1.0-0.3"
	},
	{
		"rt": 2724,
		"stimulus": "plibar",
		"response": "n",
		"class": "null",
		"status": "noncog",
		"answer": "pseudo",
		"correct": "N",
		"trial": "prac",
		"letters": "null",
		"trial_type": "html-keyboard-response",
		"trial_index": 8,
		"time_elapsed": 106623,
		"internal_node_id": "0.0-1.0-1.3"
	},
	{
		"rt": null,
		"stimulus": "+",
		"response": null,
		"trial_type": "html-keyboard-response",
		"trial_index": 9,
		"time_elapsed": 107133,
		"internal_node_id": "0.0-1.0-0.4"
	},
	{
		"rt": 2705,
		"stimulus": "crante",
		"response": "n",
		"class": "null",
		"status": "noncog",
		"answer": "pseudo",
		"correct": "N",
		"trial": "prac",
		"letters": "null",
		"trial_type": "html-keyboard-response",
		"trial_index": 10,
		"time_elapsed": 109839,
		"internal_node_id": "0.0-1.0-1.4"
	},
	{
		"rt": null,
		"stimulus": "+",
		"response": null,
		"trial_type": "html-keyboard-response",
		"trial_index": 11,
		"time_elapsed": 110352,
		"internal_node_id": "0.0-1.0-0.5"
	},
	{
		"rt": 2428,
		"stimulus": "oliva",
		"response": "s",
		"class": "null",
		"status": "cog",
		"answer": "word",
		"correct": "S",
		"trial": "prac",
		"letters": "null",
		"trial_type": "html-keyboard-response",
		"trial_index": 12,
		"time_elapsed": 112780,
		"internal_node_id": "0.0-1.0-1.5"
	},
	{
		"rt": null,
		"stimulus": "+",
		"response": null,
		"trial_type": "html-keyboard-response",
		"trial_index": 13,
		"time_elapsed": 113288,
		"internal_node_id": "0.0-1.0-0.6"
	},
	{
		"rt": 2145,
		"stimulus": "daja",
		"response": "n",
		"class": "null",
		"status": "noncog",
		"answer": "pseudo",
		"correct": "N",
		"trial": "prac",
		"letters": "null",
		"trial_type": "html-keyboard-response",
		"trial_index": 14,
		"time_elapsed": 115435,
		"internal_node_id": "0.0-1.0-1.6"
	},
	{
		"view_history": [
			{
				"page_index": 0,
				"viewing_time": 56163
			}
		],
		"rt": 56164,
		"trial_type": "instructions",
		"trial_index": 15,
		"time_elapsed": 171600,
		"internal_node_id": "0.0-2.0"
	},
	{
		"rt": null,
		"stimulus": "+",
		"response": null,
		"trial_type": "html-keyboard-response",
		"trial_index": 16,
		"time_elapsed": 172212,
		"internal_node_id": "0.0-3.0-0.0"
	},
	{
		"rt": 3413,
		"stimulus": "prever",
		"response": "s",
		"class": "v",
		"status": "cog",
		"answer": "word",
		"correct": "S",
		"trial": "exp",
		"letters": "6",
		"trial_type": "html-keyboard-response",
		"trial_index": 17,
		"time_elapsed": 175627,
		"internal_node_id": "0.0-3.0-1.0"
	},
	{
		"rt": null,
		"stimulus": "+",
		"response": null,
		"trial_type": "html-keyboard-response",
		"trial_index": 18,
		"time_elapsed": 176128,
		"internal_node_id": "0.0-3.0-0.1"
	},
	{
		"rt": 2044,
		"stimulus": "bancada",
		"response": "s",
		"class": "n",
		"status": "noncog",
		"answer": "word",
		"correct": "S",
		"trial": "exp",
		"letters": "7",
		"trial_type": "html-keyboard-response",
		"trial_index": 19,
		"time_elapsed": 178173,
		"internal_node_id": "0.0-3.0-1.1"
	},
	{
		"rt": null,
		"stimulus": "+",
		"response": null,
		"trial_type": "html-keyboard-response",
		"trial_index": 20,
		"time_elapsed": 178684,
		"internal_node_id": "0.0-3.0-0.2"
	},
	{
		"rt": 2089,
		"stimulus": "tatear",
		"response": "n",
		"class": "v",
		"status": "cog",
		"answer": "word",
		"correct": "S",
		"trial": "exp",
		"letters": "6",
		"trial_type": "html-keyboard-response",
		"trial_index": 21,
		"time_elapsed": 180775,
		"internal_node_id": "0.0-3.0-1.2"
	},
	{
		"rt": null,
		"stimulus": "+",
		"response": null,
		"trial_type": "html-keyboard-response",
		"trial_index": 22,
		"time_elapsed": 181281,
		"internal_node_id": "0.0-3.0-0.3"
	},
	{
		"rt": 869,
		"stimulus": "grave",
		"response": "s",
		"class": "a",
		"status": "cog",
		"answer": "word",
		"correct": "S",
		"trial": "exp",
		"letters": "5",
		"trial_type": "html-keyboard-response",
		"trial_index": 23,
		"time_elapsed": 182152,
		"internal_node_id": "0.0-3.0-1.3"
	},
	{
		"rt": null,
		"stimulus": "+",
		"response": null,
		"trial_type": "html-keyboard-response",
		"trial_index": 24,
		"time_elapsed": 182666,
		"internal_node_id": "0.0-3.0-0.4"
	},
	{
		"rt": 2916,
		"stimulus": "hipócrita",
		"response": "s",
		"class": "a",
		"status": "noncog",
		"answer": "word",
		"correct": "S",
		"trial": "exp",
		"letters": "9",
		"trial_type": "html-keyboard-response",
		"trial_index": 25,
		"time_elapsed": 185584,
		"internal_node_id": "0.0-3.0-1.4"
	},
	{
		"rt": null,
		"stimulus": "+",
		"response": null,
		"trial_type": "html-keyboard-response",
		"trial_index": 26,
		"time_elapsed": 186095,
		"internal_node_id": "0.0-3.0-0.5"
	},
	{
		"rt": 950,
		"stimulus": "alpica",
		"response": "n",
		"class": "null",
		"status": "noncog",
		"answer": "pseudo",
		"correct": "N",
		"trial": "exp",
		"letters": "null",
		"trial_type": "html-keyboard-response",
		"trial_index": 27,
		"time_elapsed": 187047,
		"internal_node_id": "0.0-3.0-1.5"
	},
	{
		"rt": null,
		"stimulus": "+",
		"response": null,
		"trial_type": "html-keyboard-response",
		"trial_index": 28,
		"time_elapsed": 187550,
		"internal_node_id": "0.0-3.0-0.6"
	},
	{
		"rt": 1113,
		"stimulus": "ensuas",
		"response": "n",
		"class": "null",
		"status": "noncog",
		"answer": "pseudo",
		"correct": "N",
		"trial": "exp",
		"letters": "null",
		"trial_type": "html-keyboard-response",
		"trial_index": 29,
		"time_elapsed": 188664,
		"internal_node_id": "0.0-3.0-1.6"
	},
	{
		"rt": null,
		"stimulus": "+",
		"response": null,
		"trial_type": "html-keyboard-response",
		"trial_index": 30,
		"time_elapsed": 189175,
		"internal_node_id": "0.0-3.0-0.7"
	},
	{
		"rt": 981,
		"stimulus": "lorfaz",
		"response": "n",
		"class": "null",
		"status": "noncog",
		"answer": "pseudo",
		"correct": "N",
		"trial": "exp",
		"letters": "null",
		"trial_type": "html-keyboard-response",
		"trial_index": 31,
		"time_elapsed": 190156,
		"internal_node_id": "0.0-3.0-1.7"
	},
	{
		"rt": null,
		"stimulus": "+",
		"response": null,
		"trial_type": "html-keyboard-response",
		"trial_index": 32,
		"time_elapsed": 190658,
		"internal_node_id": "0.0-3.0-0.8"
	},
	{
		"rt": 986,
		"stimulus": "prantal",
		"response": "n",
		"class": "null",
		"status": "noncog",
		"answer": "pseudo",
		"correct": "N",
		"trial": "exp",
		"letters": "null",
		"trial_type": "html-keyboard-response",
		"trial_index": 33,
		"time_elapsed": 191645,
		"internal_node_id": "0.0-3.0-1.8"
	},
	{
		"rt": null,
		"stimulus": "+",
		"response": null,
		"trial_type": "html-keyboard-response",
		"trial_index": 34,
		"time_elapsed": 192147,
		"internal_node_id": "0.0-3.0-0.9"
	},
	{
		"rt": 685,
		"stimulus": "grátis",
		"response": "s",
		"class": "a",
		"status": "cog",
		"answer": "word",
		"correct": "S",
		"trial": "exp",
		"letters": "6",
		"trial_type": "html-keyboard-response",
		"trial_index": 35,
		"time_elapsed": 192833,
		"internal_node_id": "0.0-3.0-1.9"
	},
	{
		"rt": null,
		"stimulus": "+",
		"response": null,
		"trial_type": "html-keyboard-response",
		"trial_index": 36,
		"time_elapsed": 193349,
		"internal_node_id": "0.0-3.0-0.10"
	},
	{
		"rt": 965,
		"stimulus": "bambu",
		"response": "s",
		"class": "n",
		"status": "cog",
		"answer": "word",
		"correct": "S",
		"trial": "exp",
		"letters": "5",
		"trial_type": "html-keyboard-response",
		"trial_index": 37,
		"time_elapsed": 194316,
		"internal_node_id": "0.0-3.0-1.10"
	},
	{
		"rt": null,
		"stimulus": "+",
		"response": null,
		"trial_type": "html-keyboard-response",
		"trial_index": 38,
		"time_elapsed": 194823,
		"internal_node_id": "0.0-3.0-0.11"
	},
	{
		"rt": 2828,
		"stimulus": "comércio",
		"response": "s",
		"class": "n",
		"status": "noncog",
		"answer": "word",
		"correct": "S",
		"trial": "exp",
		"letters": "8",
		"trial_type": "html-keyboard-response",
		"trial_index": 39,
		"time_elapsed": 197653,
		"internal_node_id": "0.0-3.0-1.11"
	},
	{
		"rt": null,
		"stimulus": "+",
		"response": null,
		"trial_type": "html-keyboard-response",
		"trial_index": 40,
		"time_elapsed": 198155,
		"internal_node_id": "0.0-3.0-0.12"
	},
	{
		"rt": 2606,
		"stimulus": "esperar",
		"response": "s",
		"class": "v",
		"status": "cog",
		"answer": "word",
		"correct": "S",
		"trial": "exp",
		"letters": "7",
		"trial_type": "html-keyboard-response",
		"trial_index": 41,
		"time_elapsed": 200762,
		"internal_node_id": "0.0-3.0-1.12"
	},
	{
		"rt": null,
		"stimulus": "+",
		"response": null,
		"trial_type": "html-keyboard-response",
		"trial_index": 42,
		"time_elapsed": 201264,
		"internal_node_id": "0.0-3.0-0.13"
	},
	{
		"rt": 1485,
		"stimulus": "motros",
		"response": "n",
		"class": "null",
		"status": "noncog",
		"answer": "pseudo",
		"correct": "N",
		"trial": "exp",
		"letters": "null",
		"trial_type": "html-keyboard-response",
		"trial_index": 43,
		"time_elapsed": 202750,
		"internal_node_id": "0.0-3.0-1.13"
	},
	{
		"rt": null,
		"stimulus": "+",
		"response": null,
		"trial_type": "html-keyboard-response",
		"trial_index": 44,
		"time_elapsed": 203262,
		"internal_node_id": "0.0-3.0-0.14"
	},
	{
		"rt": 1132,
		"stimulus": "orupas",
		"response": "n",
		"class": "null",
		"status": "noncog",
		"answer": "pseudo",
		"correct": "N",
		"trial": "exp",
		"letters": "null",
		"trial_type": "html-keyboard-response",
		"trial_index": 45,
		"time_elapsed": 204394,
		"internal_node_id": "0.0-3.0-1.14"
	},
	{
		"rt": null,
		"stimulus": "+",
		"response": null,
		"trial_type": "html-keyboard-response",
		"trial_index": 46,
		"time_elapsed": 204909,
		"internal_node_id": "0.0-3.0-0.15"
	},
	{
		"rt": 2897,
		"stimulus": "gilha",
		"response": "s",
		"class": "null",
		"status": "noncog",
		"answer": "pseudo",
		"correct": "N",
		"trial": "exp",
		"letters": "null",
		"trial_type": "html-keyboard-response",
		"trial_index": 47,
		"time_elapsed": 207807,
		"internal_node_id": "0.0-3.0-1.15"
	},
	{
		"rt": null,
		"stimulus": "+",
		"response": null,
		"trial_type": "html-keyboard-response",
		"trial_index": 48,
		"time_elapsed": 208322,
		"internal_node_id": "0.0-3.0-0.16"
	},
	{
		"rt": 2279,
		"stimulus": "delomir",
		"response": "n",
		"class": "null",
		"status": "noncog",
		"answer": "pseudo",
		"correct": "N",
		"trial": "exp",
		"letters": "null",
		"trial_type": "html-keyboard-response",
		"trial_index": 49,
		"time_elapsed": 210602,
		"internal_node_id": "0.0-3.0-1.16"
	},
	{
		"rt": null,
		"stimulus": "+",
		"response": null,
		"trial_type": "html-keyboard-response",
		"trial_index": 50,
		"time_elapsed": 211108,
		"internal_node_id": "0.0-3.0-0.17"
	},
	{
		"rt": 1771,
		"stimulus": "beima",
		"response": "n",
		"class": "null",
		"status": "noncog",
		"answer": "pseudo",
		"correct": "N",
		"trial": "exp",
		"letters": "null",
		"trial_type": "html-keyboard-response",
		"trial_index": 51,
		"time_elapsed": 212879,
		"internal_node_id": "0.0-3.0-1.17"
	},
	{
		"rt": null,
		"stimulus": "+",
		"response": null,
		"trial_type": "html-keyboard-response",
		"trial_index": 52,
		"time_elapsed": 213392,
		"internal_node_id": "0.0-3.0-0.18"
	},
	{
		"rt": 1529,
		"stimulus": "candifência",
		"response": "n",
		"class": "null",
		"status": "noncog",
		"answer": "pseudo",
		"correct": "N",
		"trial": "exp",
		"letters": "null",
		"trial_type": "html-keyboard-response",
		"trial_index": 53,
		"time_elapsed": 214922,
		"internal_node_id": "0.0-3.0-1.18"
	},
	{
		"rt": null,
		"stimulus": "+",
		"response": null,
		"trial_type": "html-keyboard-response",
		"trial_index": 54,
		"time_elapsed": 215435,
		"internal_node_id": "0.0-3.0-0.19"
	},
	{
		"rt": 739,
		"stimulus": "dia",
		"response": "s",
		"class": "n",
		"status": "noncog",
		"answer": "word",
		"correct": "S",
		"trial": "exp",
		"letters": "3",
		"trial_type": "html-keyboard-response",
		"trial_index": 55,
		"time_elapsed": 216175,
		"internal_node_id": "0.0-3.0-1.19"
	},
	{
		"rt": null,
		"stimulus": "+",
		"response": null,
		"trial_type": "html-keyboard-response",
		"trial_index": 56,
		"time_elapsed": 216686,
		"internal_node_id": "0.0-3.0-0.20"
	},
	{
		"rt": 2568,
		"stimulus": "telefone",
		"response": "s",
		"class": "n",
		"status": "cog",
		"answer": "word",
		"correct": "S",
		"trial": "exp",
		"letters": "8",
		"trial_type": "html-keyboard-response",
		"trial_index": 57,
		"time_elapsed": 219253,
		"internal_node_id": "0.0-3.0-1.20"
	},
	{
		"rt": null,
		"stimulus": "+",
		"response": null,
		"trial_type": "html-keyboard-response",
		"trial_index": 58,
		"time_elapsed": 219768,
		"internal_node_id": "0.0-3.0-0.21"
	},
	{
		"rt": 815,
		"stimulus": "oper",
		"response": "n",
		"class": "null",
		"status": "noncog",
		"answer": "pseudo",
		"correct": "N",
		"trial": "exp",
		"letters": "null",
		"trial_type": "html-keyboard-response",
		"trial_index": 59,
		"time_elapsed": 220584,
		"internal_node_id": "0.0-3.0-1.21"
	},
	{
		"rt": null,
		"stimulus": "+",
		"response": null,
		"trial_type": "html-keyboard-response",
		"trial_index": 60,
		"time_elapsed": 221100,
		"internal_node_id": "0.0-3.0-0.22"
	},
	{
		"rt": 1137,
		"stimulus": "adoçar",
		"response": "s",
		"class": "v",
		"status": "noncog",
		"answer": "word",
		"correct": "S",
		"trial": "exp",
		"letters": "6",
		"trial_type": "html-keyboard-response",
		"trial_index": 61,
		"time_elapsed": 222238,
		"internal_node_id": "0.0-3.0-1.22"
	},
	{
		"rt": null,
		"stimulus": "+",
		"response": null,
		"trial_type": "html-keyboard-response",
		"trial_index": 62,
		"time_elapsed": 222747,
		"internal_node_id": "0.0-3.0-0.23"
	},
	{
		"rt": 779,
		"stimulus": "mudança",
		"response": "s",
		"class": "n",
		"status": "noncog",
		"answer": "word",
		"correct": "S",
		"trial": "exp",
		"letters": "7",
		"trial_type": "html-keyboard-response",
		"trial_index": 63,
		"time_elapsed": 223527,
		"internal_node_id": "0.0-3.0-1.23"
	},
	{
		"rt": null,
		"stimulus": "+",
		"response": null,
		"trial_type": "html-keyboard-response",
		"trial_index": 64,
		"time_elapsed": 224040,
		"internal_node_id": "0.0-3.0-0.24"
	},
	{
		"rt": 1306,
		"stimulus": "conjerto",
		"response": "n",
		"class": "null",
		"status": "noncog",
		"answer": "pseudo",
		"correct": "N",
		"trial": "exp",
		"letters": "null",
		"trial_type": "html-keyboard-response",
		"trial_index": 65,
		"time_elapsed": 225347,
		"internal_node_id": "0.0-3.0-1.24"
	},
	{
		"rt": null,
		"stimulus": "+",
		"response": null,
		"trial_type": "html-keyboard-response",
		"trial_index": 66,
		"time_elapsed": 225854,
		"internal_node_id": "0.0-3.0-0.25"
	},
	{
		"rt": 2080,
		"stimulus": "vitrive",
		"response": "n",
		"class": "null",
		"status": "noncog",
		"answer": "pseudo",
		"correct": "N",
		"trial": "exp",
		"letters": "null",
		"trial_type": "html-keyboard-response",
		"trial_index": 67,
		"time_elapsed": 227934,
		"internal_node_id": "0.0-3.0-1.25"
	},
	{
		"rt": null,
		"stimulus": "+",
		"response": null,
		"trial_type": "html-keyboard-response",
		"trial_index": 68,
		"time_elapsed": 228445,
		"internal_node_id": "0.0-3.0-0.26"
	},
	{
		"rt": 921,
		"stimulus": "hébies",
		"response": "n",
		"class": "null",
		"status": "noncog",
		"answer": "pseudo",
		"correct": "N",
		"trial": "exp",
		"letters": "null",
		"trial_type": "html-keyboard-response",
		"trial_index": 69,
		"time_elapsed": 229366,
		"internal_node_id": "0.0-3.0-1.26"
	},
	{
		"rt": null,
		"stimulus": "+",
		"response": null,
		"trial_type": "html-keyboard-response",
		"trial_index": 70,
		"time_elapsed": 229870,
		"internal_node_id": "0.0-3.0-0.27"
	},
	{
		"rt": 1158,
		"stimulus": "temperar",
		"response": "s",
		"class": "v",
		"status": "noncog",
		"answer": "word",
		"correct": "S",
		"trial": "exp",
		"letters": "8",
		"trial_type": "html-keyboard-response",
		"trial_index": 71,
		"time_elapsed": 231027,
		"internal_node_id": "0.0-3.0-1.27"
	},
	{
		"rt": null,
		"stimulus": "+",
		"response": null,
		"trial_type": "html-keyboard-response",
		"trial_index": 72,
		"time_elapsed": 231534,
		"internal_node_id": "0.0-3.0-0.28"
	},
	{
		"rt": 1793,
		"stimulus": "agravar",
		"response": "s",
		"class": "v",
		"status": "cog",
		"answer": "word",
		"correct": "S",
		"trial": "exp",
		"letters": "7",
		"trial_type": "html-keyboard-response",
		"trial_index": 73,
		"time_elapsed": 233328,
		"internal_node_id": "0.0-3.0-1.28"
	},
	{
		"rt": null,
		"stimulus": "+",
		"response": null,
		"trial_type": "html-keyboard-response",
		"trial_index": 74,
		"time_elapsed": 233832,
		"internal_node_id": "0.0-3.0-0.29"
	},
	{
		"rt": 691,
		"stimulus": "apontar",
		"response": "s",
		"class": "v",
		"status": "noncog",
		"answer": "word",
		"correct": "S",
		"trial": "exp",
		"letters": "7",
		"trial_type": "html-keyboard-response",
		"trial_index": 75,
		"time_elapsed": 234524,
		"internal_node_id": "0.0-3.0-1.29"
	},
	{
		"rt": null,
		"stimulus": "+",
		"response": null,
		"trial_type": "html-keyboard-response",
		"trial_index": 76,
		"time_elapsed": 235028,
		"internal_node_id": "0.0-3.0-0.30"
	},
	{
		"rt": 2326,
		"stimulus": "especial",
		"response": "s",
		"class": "a",
		"status": "cog",
		"answer": "word",
		"correct": "S",
		"trial": "exp",
		"letters": "8",
		"trial_type": "html-keyboard-response",
		"trial_index": 77,
		"time_elapsed": 237355,
		"internal_node_id": "0.0-3.0-1.30"
	},
	{
		"rt": null,
		"stimulus": "+",
		"response": null,
		"trial_type": "html-keyboard-response",
		"trial_index": 78,
		"time_elapsed": 237871,
		"internal_node_id": "0.0-3.0-0.31"
	},
	{
		"rt": 689,
		"stimulus": "ejerro",
		"response": "n",
		"class": "null",
		"status": "noncog",
		"answer": "pseudo",
		"correct": "N",
		"trial": "exp",
		"letters": "null",
		"trial_type": "html-keyboard-response",
		"trial_index": 79,
		"time_elapsed": 238562,
		"internal_node_id": "0.0-3.0-1.31"
	},
	{
		"rt": null,
		"stimulus": "+",
		"response": null,
		"trial_type": "html-keyboard-response",
		"trial_index": 80,
		"time_elapsed": 239075,
		"internal_node_id": "0.0-3.0-0.32"
	},
	{
		"rt": 1806,
		"stimulus": "cenada",
		"response": "s",
		"class": "null",
		"status": "noncog",
		"answer": "pseudo",
		"correct": "N",
		"trial": "exp",
		"letters": "null",
		"trial_type": "html-keyboard-response",
		"trial_index": 81,
		"time_elapsed": 240881,
		"internal_node_id": "0.0-3.0-1.32"
	},
	{
		"rt": null,
		"stimulus": "+",
		"response": null,
		"trial_type": "html-keyboard-response",
		"trial_index": 82,
		"time_elapsed": 241385,
		"internal_node_id": "0.0-3.0-0.33"
	},
	{
		"rt": 1952,
		"stimulus": "irratinte",
		"response": "n",
		"class": "null",
		"status": "noncog",
		"answer": "pseudo",
		"correct": "N",
		"trial": "exp",
		"letters": "null",
		"trial_type": "html-keyboard-response",
		"trial_index": 83,
		"time_elapsed": 243340,
		"internal_node_id": "0.0-3.0-1.33"
	},
	{
		"rt": null,
		"stimulus": "+",
		"response": null,
		"trial_type": "html-keyboard-response",
		"trial_index": 84,
		"time_elapsed": 243845,
		"internal_node_id": "0.0-3.0-0.34"
	},
	{
		"rt": 1793,
		"stimulus": "dencosto",
		"response": "n",
		"class": "null",
		"status": "noncog",
		"answer": "pseudo",
		"correct": "N",
		"trial": "exp",
		"letters": "null",
		"trial_type": "html-keyboard-response",
		"trial_index": 85,
		"time_elapsed": 245639,
		"internal_node_id": "0.0-3.0-1.34"
	},
	{
		"rt": null,
		"stimulus": "+",
		"response": null,
		"trial_type": "html-keyboard-response",
		"trial_index": 86,
		"time_elapsed": 246146,
		"internal_node_id": "0.0-3.0-0.35"
	},
	{
		"rt": 1356,
		"stimulus": "morar",
		"response": "n",
		"class": "v",
		"status": "noncog",
		"answer": "word",
		"correct": "S",
		"trial": "exp",
		"letters": "5",
		"trial_type": "html-keyboard-response",
		"trial_index": 87,
		"time_elapsed": 247503,
		"internal_node_id": "0.0-3.0-1.35"
	},
	{
		"rt": null,
		"stimulus": "+",
		"response": null,
		"trial_type": "html-keyboard-response",
		"trial_index": 88,
		"time_elapsed": 248005,
		"internal_node_id": "0.0-3.0-0.36"
	},
	{
		"rt": 1870,
		"stimulus": "espinho",
		"response": "s",
		"class": "n",
		"status": "noncog",
		"answer": "word",
		"correct": "S",
		"trial": "exp",
		"letters": "7",
		"trial_type": "html-keyboard-response",
		"trial_index": 89,
		"time_elapsed": 249876,
		"internal_node_id": "0.0-3.0-1.36"
	},
	{
		"rt": null,
		"stimulus": "+",
		"response": null,
		"trial_type": "html-keyboard-response",
		"trial_index": 90,
		"time_elapsed": 250379,
		"internal_node_id": "0.0-3.0-0.37"
	},
	{
		"rt": 3255,
		"stimulus": "farcas",
		"response": "n",
		"class": "null",
		"status": "noncog",
		"answer": "pseudo",
		"correct": "N",
		"trial": "exp",
		"letters": "null",
		"trial_type": "html-keyboard-response",
		"trial_index": 91,
		"time_elapsed": 253635,
		"internal_node_id": "0.0-3.0-1.37"
	},
	{
		"rt": null,
		"stimulus": "+",
		"response": null,
		"trial_type": "html-keyboard-response",
		"trial_index": 92,
		"time_elapsed": 254147,
		"internal_node_id": "0.0-3.0-0.38"
	},
	{
		"rt": 1420,
		"stimulus": "protas",
		"response": "s",
		"class": "null",
		"status": "noncog",
		"answer": "pseudo",
		"correct": "N",
		"trial": "exp",
		"letters": "null",
		"trial_type": "html-keyboard-response",
		"trial_index": 93,
		"time_elapsed": 255567,
		"internal_node_id": "0.0-3.0-1.38"
	},
	{
		"rt": null,
		"stimulus": "+",
		"response": null,
		"trial_type": "html-keyboard-response",
		"trial_index": 94,
		"time_elapsed": 256069,
		"internal_node_id": "0.0-3.0-0.39"
	},
	{
		"rt": 1154,
		"stimulus": "preferir",
		"response": "s",
		"class": "v",
		"status": "cog",
		"answer": "word",
		"correct": "S",
		"trial": "exp",
		"letters": "8",
		"trial_type": "html-keyboard-response",
		"trial_index": 95,
		"time_elapsed": 257224,
		"internal_node_id": "0.0-3.0-1.39"
	},
	{
		"rt": null,
		"stimulus": "+",
		"response": null,
		"trial_type": "html-keyboard-response",
		"trial_index": 96,
		"time_elapsed": 257728,
		"internal_node_id": "0.0-3.0-0.40"
	},
	{
		"rt": 1198,
		"stimulus": "gruja",
		"response": "n",
		"class": "null",
		"status": "noncog",
		"answer": "pseudo",
		"correct": "N",
		"trial": "exp",
		"letters": "null",
		"trial_type": "html-keyboard-response",
		"trial_index": 97,
		"time_elapsed": 258926,
		"internal_node_id": "0.0-3.0-1.40"
	},
	{
		"rt": null,
		"stimulus": "+",
		"response": null,
		"trial_type": "html-keyboard-response",
		"trial_index": 98,
		"time_elapsed": 259441,
		"internal_node_id": "0.0-3.0-0.41"
	},
	{
		"rt": 1560,
		"stimulus": "delirar",
		"response": "s",
		"class": "v",
		"status": "noncog",
		"answer": "word",
		"correct": "S",
		"trial": "exp",
		"letters": "7",
		"trial_type": "html-keyboard-response",
		"trial_index": 99,
		"time_elapsed": 261003,
		"internal_node_id": "0.0-3.0-1.41"
	},
	{
		"rt": null,
		"stimulus": "+",
		"response": null,
		"trial_type": "html-keyboard-response",
		"trial_index": 100,
		"time_elapsed": 261508,
		"internal_node_id": "0.0-3.0-0.42"
	},
	{
		"rt": 2838,
		"stimulus": "nacional",
		"response": "s",
		"class": "a",
		"status": "cog",
		"answer": "word",
		"correct": "S",
		"trial": "exp",
		"letters": "8",
		"trial_type": "html-keyboard-response",
		"trial_index": 101,
		"time_elapsed": 264346,
		"internal_node_id": "0.0-3.0-1.42"
	},
	{
		"rt": null,
		"stimulus": "+",
		"response": null,
		"trial_type": "html-keyboard-response",
		"trial_index": 102,
		"time_elapsed": 264864,
		"internal_node_id": "0.0-3.0-0.43"
	},
	{
		"rt": 791,
		"stimulus": "manais",
		"response": "n",
		"class": "null",
		"status": "noncog",
		"answer": "pseudo",
		"correct": "N",
		"trial": "exp",
		"letters": "null",
		"trial_type": "html-keyboard-response",
		"trial_index": 103,
		"time_elapsed": 265656,
		"internal_node_id": "0.0-3.0-1.43"
	},
	{
		"rt": null,
		"stimulus": "+",
		"response": null,
		"trial_type": "html-keyboard-response",
		"trial_index": 104,
		"time_elapsed": 266162,
		"internal_node_id": "0.0-3.0-0.44"
	},
	{
		"rt": 930,
		"stimulus": "perbas",
		"response": "n",
		"class": "null",
		"status": "noncog",
		"answer": "pseudo",
		"correct": "N",
		"trial": "exp",
		"letters": "null",
		"trial_type": "html-keyboard-response",
		"trial_index": 105,
		"time_elapsed": 267092,
		"internal_node_id": "0.0-3.0-1.44"
	},
	{
		"rt": null,
		"stimulus": "+",
		"response": null,
		"trial_type": "html-keyboard-response",
		"trial_index": 106,
		"time_elapsed": 267602,
		"internal_node_id": "0.0-3.0-0.45"
	},
	{
		"rt": 1287,
		"stimulus": "glória",
		"response": "s",
		"class": "n",
		"status": "cog",
		"answer": "word",
		"correct": "S",
		"trial": "exp",
		"letters": "6",
		"trial_type": "html-keyboard-response",
		"trial_index": 107,
		"time_elapsed": 268889,
		"internal_node_id": "0.0-3.0-1.45"
	},
	{
		"rt": null,
		"stimulus": "+",
		"response": null,
		"trial_type": "html-keyboard-response",
		"trial_index": 108,
		"time_elapsed": 269391,
		"internal_node_id": "0.0-3.0-0.46"
	},
	{
		"rt": 1805,
		"stimulus": "euorpa",
		"response": "n",
		"class": "null",
		"status": "noncog",
		"answer": "pseudo",
		"correct": "N",
		"trial": "exp",
		"letters": "null",
		"trial_type": "html-keyboard-response",
		"trial_index": 109,
		"time_elapsed": 271197,
		"internal_node_id": "0.0-3.0-1.46"
	},
	{
		"rt": null,
		"stimulus": "+",
		"response": null,
		"trial_type": "html-keyboard-response",
		"trial_index": 110,
		"time_elapsed": 271706,
		"internal_node_id": "0.0-3.0-0.47"
	},
	{
		"rt": 662,
		"stimulus": "brincar",
		"response": "s",
		"class": "v",
		"status": "noncog",
		"answer": "word",
		"correct": "S",
		"trial": "exp",
		"letters": "7",
		"trial_type": "html-keyboard-response",
		"trial_index": 111,
		"time_elapsed": 272369,
		"internal_node_id": "0.0-3.0-1.47"
	},
	{
		"rt": null,
		"stimulus": "+",
		"response": null,
		"trial_type": "html-keyboard-response",
		"trial_index": 112,
		"time_elapsed": 272879,
		"internal_node_id": "0.0-3.0-0.48"
	},
	{
		"rt": 609,
		"stimulus": "anjo",
		"response": "s",
		"class": "n",
		"status": "cog",
		"answer": "word",
		"correct": "S",
		"trial": "exp",
		"letters": "4",
		"trial_type": "html-keyboard-response",
		"trial_index": 113,
		"time_elapsed": 273490,
		"internal_node_id": "0.0-3.0-1.48"
	},
	{
		"rt": null,
		"stimulus": "+",
		"response": null,
		"trial_type": "html-keyboard-response",
		"trial_index": 114,
		"time_elapsed": 273994,
		"internal_node_id": "0.0-3.0-0.49"
	},
	{
		"rt": 1176,
		"stimulus": "esprotiar",
		"response": "n",
		"class": "null",
		"status": "noncog",
		"answer": "pseudo",
		"correct": "N",
		"trial": "exp",
		"letters": "null",
		"trial_type": "html-keyboard-response",
		"trial_index": 115,
		"time_elapsed": 275172,
		"internal_node_id": "0.0-3.0-1.49"
	},
	{
		"rt": null,
		"stimulus": "+",
		"response": null,
		"trial_type": "html-keyboard-response",
		"trial_index": 116,
		"time_elapsed": 275682,
		"internal_node_id": "0.0-3.0-0.50"
	},
	{
		"rt": 606,
		"stimulus": "francês",
		"response": "s",
		"class": "a",
		"status": "cog",
		"answer": "word",
		"correct": "S",
		"trial": "exp",
		"letters": "7",
		"trial_type": "html-keyboard-response",
		"trial_index": 117,
		"time_elapsed": 276290,
		"internal_node_id": "0.0-3.0-1.50"
	},
	{
		"rt": null,
		"stimulus": "+",
		"response": null,
		"trial_type": "html-keyboard-response",
		"trial_index": 118,
		"time_elapsed": 276804,
		"internal_node_id": "0.0-3.0-0.51"
	},
	{
		"rt": 1165,
		"stimulus": "independente",
		"response": "s",
		"class": "a",
		"status": "noncog",
		"answer": "word",
		"correct": "S",
		"trial": "exp",
		"letters": "12",
		"trial_type": "html-keyboard-response",
		"trial_index": 119,
		"time_elapsed": 277971,
		"internal_node_id": "0.0-3.0-1.51"
	},
	{
		"rt": null,
		"stimulus": "+",
		"response": null,
		"trial_type": "html-keyboard-response",
		"trial_index": 120,
		"time_elapsed": 278486,
		"internal_node_id": "0.0-3.0-0.52"
	},
	{
		"rt": 1463,
		"stimulus": "crolatário",
		"response": "n",
		"class": "null",
		"status": "noncog",
		"answer": "pseudo",
		"correct": "N",
		"trial": "exp",
		"letters": "null",
		"trial_type": "html-keyboard-response",
		"trial_index": 121,
		"time_elapsed": 279950,
		"internal_node_id": "0.0-3.0-1.52"
	},
	{
		"rt": null,
		"stimulus": "+",
		"response": null,
		"trial_type": "html-keyboard-response",
		"trial_index": 122,
		"time_elapsed": 280454,
		"internal_node_id": "0.0-3.0-0.53"
	},
	{
		"rt": 1119,
		"stimulus": "ronronar",
		"response": "n",
		"class": "v",
		"status": "cog",
		"answer": "word",
		"correct": "S",
		"trial": "exp",
		"letters": "8",
		"trial_type": "html-keyboard-response",
		"trial_index": 123,
		"time_elapsed": 281575,
		"internal_node_id": "0.0-3.0-1.53"
	},
	{
		"rt": null,
		"stimulus": "+",
		"response": null,
		"trial_type": "html-keyboard-response",
		"trial_index": 124,
		"time_elapsed": 282087,
		"internal_node_id": "0.0-3.0-0.54"
	},
	{
		"rt": 920,
		"stimulus": "franda",
		"response": "s",
		"class": "null",
		"status": "noncog",
		"answer": "pseudo",
		"correct": "N",
		"trial": "exp",
		"letters": "null",
		"trial_type": "html-keyboard-response",
		"trial_index": 125,
		"time_elapsed": 283008,
		"internal_node_id": "0.0-3.0-1.54"
	},
	{
		"rt": null,
		"stimulus": "+",
		"response": null,
		"trial_type": "html-keyboard-response",
		"trial_index": 126,
		"time_elapsed": 283512,
		"internal_node_id": "0.0-3.0-0.55"
	},
	{
		"rt": 710,
		"stimulus": "tio",
		"response": "s",
		"class": "n",
		"status": "noncog",
		"answer": "word",
		"correct": "S",
		"trial": "exp",
		"letters": "3",
		"trial_type": "html-keyboard-response",
		"trial_index": 127,
		"time_elapsed": 284224,
		"internal_node_id": "0.0-3.0-1.55"
	},
	{
		"rt": null,
		"stimulus": "+",
		"response": null,
		"trial_type": "html-keyboard-response",
		"trial_index": 128,
		"time_elapsed": 284739,
		"internal_node_id": "0.0-3.0-0.56"
	},
	{
		"rt": 980,
		"stimulus": "mua",
		"response": "n",
		"class": "null",
		"status": "noncog",
		"answer": "pseudo",
		"correct": "N",
		"trial": "exp",
		"letters": "null",
		"trial_type": "html-keyboard-response",
		"trial_index": 129,
		"time_elapsed": 285719,
		"internal_node_id": "0.0-3.0-1.56"
	},
	{
		"rt": null,
		"stimulus": "+",
		"response": null,
		"trial_type": "html-keyboard-response",
		"trial_index": 130,
		"time_elapsed": 286234,
		"internal_node_id": "0.0-3.0-0.57"
	},
	{
		"rt": 2425,
		"stimulus": "âgnulo",
		"response": "n",
		"class": "null",
		"status": "noncog",
		"answer": "pseudo",
		"correct": "N",
		"trial": "exp",
		"letters": "null",
		"trial_type": "html-keyboard-response",
		"trial_index": 131,
		"time_elapsed": 288660,
		"internal_node_id": "0.0-3.0-1.57"
	},
	{
		"rt": null,
		"stimulus": "+",
		"response": null,
		"trial_type": "html-keyboard-response",
		"trial_index": 132,
		"time_elapsed": 289175,
		"internal_node_id": "0.0-3.0-0.58"
	},
	{
		"rt": 1190,
		"stimulus": "árovre",
		"response": "n",
		"class": "null",
		"status": "noncog",
		"answer": "pseudo",
		"correct": "N",
		"trial": "exp",
		"letters": "null",
		"trial_type": "html-keyboard-response",
		"trial_index": 133,
		"time_elapsed": 290365,
		"internal_node_id": "0.0-3.0-1.58"
	},
	{
		"rt": null,
		"stimulus": "+",
		"response": null,
		"trial_type": "html-keyboard-response",
		"trial_index": 134,
		"time_elapsed": 290866,
		"internal_node_id": "0.0-3.0-0.59"
	},
	{
		"rt": 683,
		"stimulus": "pulmão",
		"response": "s",
		"class": "n",
		"status": "noncog",
		"answer": "word",
		"correct": "S",
		"trial": "exp",
		"letters": "6",
		"trial_type": "html-keyboard-response",
		"trial_index": 135,
		"time_elapsed": 291549,
		"internal_node_id": "0.0-3.0-1.59"
	},
	{
		"rt": null,
		"stimulus": "+",
		"response": null,
		"trial_type": "html-keyboard-response",
		"trial_index": 136,
		"time_elapsed": 292051,
		"internal_node_id": "0.0-3.0-0.60"
	},
	{
		"rt": 1261,
		"stimulus": "sanque",
		"response": "n",
		"class": "null",
		"status": "noncog",
		"answer": "pseudo",
		"correct": "N",
		"trial": "exp",
		"letters": "null",
		"trial_type": "html-keyboard-response",
		"trial_index": 137,
		"time_elapsed": 293313,
		"internal_node_id": "0.0-3.0-1.60"
	},
	{
		"rt": null,
		"stimulus": "+",
		"response": null,
		"trial_type": "html-keyboard-response",
		"trial_index": 138,
		"time_elapsed": 293825,
		"internal_node_id": "0.0-3.0-0.61"
	},
	{
		"rt": 1766,
		"stimulus": "afual",
		"response": "s",
		"class": "null",
		"status": "noncog",
		"answer": "pseudo",
		"correct": "N",
		"trial": "exp",
		"letters": "null",
		"trial_type": "html-keyboard-response",
		"trial_index": 139,
		"time_elapsed": 295592,
		"internal_node_id": "0.0-3.0-1.61"
	},
	{
		"rt": null,
		"stimulus": "+",
		"response": null,
		"trial_type": "html-keyboard-response",
		"trial_index": 140,
		"time_elapsed": 296102,
		"internal_node_id": "0.0-3.0-0.62"
	},
	{
		"rt": 673,
		"stimulus": "gordo",
		"response": "s",
		"class": "a",
		"status": "noncog",
		"answer": "word",
		"correct": "S",
		"trial": "exp",
		"letters": "5",
		"trial_type": "html-keyboard-response",
		"trial_index": 141,
		"time_elapsed": 296776,
		"internal_node_id": "0.0-3.0-1.62"
	},
	{
		"rt": null,
		"stimulus": "+",
		"response": null,
		"trial_type": "html-keyboard-response",
		"trial_index": 142,
		"time_elapsed": 297286,
		"internal_node_id": "0.0-3.0-0.63"
	},
	{
		"rt": 1132,
		"stimulus": "tronca",
		"response": "s",
		"class": "null",
		"status": "noncog",
		"answer": "pseudo",
		"correct": "N",
		"trial": "exp",
		"letters": "null",
		"trial_type": "html-keyboard-response",
		"trial_index": 143,
		"time_elapsed": 298419,
		"internal_node_id": "0.0-3.0-1.63"
	},
	{
		"rt": null,
		"stimulus": "+",
		"response": null,
		"trial_type": "html-keyboard-response",
		"trial_index": 144,
		"time_elapsed": 298930,
		"internal_node_id": "0.0-3.0-0.64"
	},
	{
		"rt": 792,
		"stimulus": "aparme",
		"response": "n",
		"class": "null",
		"status": "noncog",
		"answer": "pseudo",
		"correct": "N",
		"trial": "exp",
		"letters": "null",
		"trial_type": "html-keyboard-response",
		"trial_index": 145,
		"time_elapsed": 299725,
		"internal_node_id": "0.0-3.0-1.64"
	},
	{
		"rt": null,
		"stimulus": "+",
		"response": null,
		"trial_type": "html-keyboard-response",
		"trial_index": 146,
		"time_elapsed": 300230,
		"internal_node_id": "0.0-3.0-0.65"
	},
	{
		"rt": 794,
		"stimulus": "ênclio",
		"response": "n",
		"class": "null",
		"status": "noncog",
		"answer": "pseudo",
		"correct": "N",
		"trial": "exp",
		"letters": "null",
		"trial_type": "html-keyboard-response",
		"trial_index": 147,
		"time_elapsed": 301024,
		"internal_node_id": "0.0-3.0-1.65"
	},
	{
		"rt": null,
		"stimulus": "+",
		"response": null,
		"trial_type": "html-keyboard-response",
		"trial_index": 148,
		"time_elapsed": 301527,
		"internal_node_id": "0.0-3.0-0.66"
	},
	{
		"rt": 1010,
		"stimulus": "encelhor",
		"response": "n",
		"class": "null",
		"status": "noncog",
		"answer": "pseudo",
		"correct": "N",
		"trial": "exp",
		"letters": "null",
		"trial_type": "html-keyboard-response",
		"trial_index": 149,
		"time_elapsed": 302538,
		"internal_node_id": "0.0-3.0-1.66"
	},
	{
		"rt": null,
		"stimulus": "+",
		"response": null,
		"trial_type": "html-keyboard-response",
		"trial_index": 150,
		"time_elapsed": 303040,
		"internal_node_id": "0.0-3.0-0.67"
	},
	{
		"rt": 1097,
		"stimulus": "usfiga",
		"response": "n",
		"class": "null",
		"status": "noncog",
		"answer": "pseudo",
		"correct": "N",
		"trial": "exp",
		"letters": "null",
		"trial_type": "html-keyboard-response",
		"trial_index": 151,
		"time_elapsed": 304138,
		"internal_node_id": "0.0-3.0-1.67"
	},
	{
		"rt": null,
		"stimulus": "+",
		"response": null,
		"trial_type": "html-keyboard-response",
		"trial_index": 152,
		"time_elapsed": 304654,
		"internal_node_id": "0.0-3.0-0.68"
	},
	{
		"rt": 1081,
		"stimulus": "faínas",
		"response": "n",
		"class": "null",
		"status": "noncog",
		"answer": "pseudo",
		"correct": "N",
		"trial": "exp",
		"letters": "null",
		"trial_type": "html-keyboard-response",
		"trial_index": 153,
		"time_elapsed": 305736,
		"internal_node_id": "0.0-3.0-1.68"
	},
	{
		"rt": null,
		"stimulus": "+",
		"response": null,
		"trial_type": "html-keyboard-response",
		"trial_index": 154,
		"time_elapsed": 306249,
		"internal_node_id": "0.0-3.0-0.69"
	},
	{
		"rt": 765,
		"stimulus": "arranjar",
		"response": "s",
		"class": "v",
		"status": "cog",
		"answer": "word",
		"correct": "S",
		"trial": "exp",
		"letters": "8",
		"trial_type": "html-keyboard-response",
		"trial_index": 155,
		"time_elapsed": 307015,
		"internal_node_id": "0.0-3.0-1.69"
	},
	{
		"rt": null,
		"stimulus": "+",
		"response": null,
		"trial_type": "html-keyboard-response",
		"trial_index": 156,
		"time_elapsed": 307530,
		"internal_node_id": "0.0-3.0-0.70"
	},
	{
		"rt": 614,
		"stimulus": "lagoa",
		"response": "s",
		"class": "n",
		"status": "cog",
		"answer": "word",
		"correct": "S",
		"trial": "exp",
		"letters": "5",
		"trial_type": "html-keyboard-response",
		"trial_index": 157,
		"time_elapsed": 308145,
		"internal_node_id": "0.0-3.0-1.70"
	},
	{
		"rt": null,
		"stimulus": "+",
		"response": null,
		"trial_type": "html-keyboard-response",
		"trial_index": 158,
		"time_elapsed": 308651,
		"internal_node_id": "0.0-3.0-0.71"
	},
	{
		"rt": 715,
		"stimulus": "sábio",
		"response": "s",
		"class": "n",
		"status": "noncog",
		"answer": "word",
		"correct": "S",
		"trial": "exp",
		"letters": "5",
		"trial_type": "html-keyboard-response",
		"trial_index": 159,
		"time_elapsed": 309368,
		"internal_node_id": "0.0-3.0-1.71"
	},
	{
		"rt": null,
		"stimulus": "+",
		"response": null,
		"trial_type": "html-keyboard-response",
		"trial_index": 160,
		"time_elapsed": 309884,
		"internal_node_id": "0.0-3.0-0.72"
	},
	{
		"rt": 948,
		"stimulus": "afonher",
		"response": "n",
		"class": "null",
		"status": "noncog",
		"answer": "pseudo",
		"correct": "N",
		"trial": "exp",
		"letters": "null",
		"trial_type": "html-keyboard-response",
		"trial_index": 161,
		"time_elapsed": 310833,
		"internal_node_id": "0.0-3.0-1.72"
	},
	{
		"rt": null,
		"stimulus": "+",
		"response": null,
		"trial_type": "html-keyboard-response",
		"trial_index": 162,
		"time_elapsed": 311349,
		"internal_node_id": "0.0-3.0-0.73"
	},
	{
		"rt": 2236,
		"stimulus": "atitro",
		"response": "s",
		"class": "null",
		"status": "noncog",
		"answer": "pseudo",
		"correct": "N",
		"trial": "exp",
		"letters": "null",
		"trial_type": "html-keyboard-response",
		"trial_index": 163,
		"time_elapsed": 313585,
		"internal_node_id": "0.0-3.0-1.73"
	},
	{
		"rt": null,
		"stimulus": "+",
		"response": null,
		"trial_type": "html-keyboard-response",
		"trial_index": 164,
		"time_elapsed": 314098,
		"internal_node_id": "0.0-3.0-0.74"
	},
	{
		"rt": 807,
		"stimulus": "enedro",
		"response": "n",
		"class": "null",
		"status": "noncog",
		"answer": "pseudo",
		"correct": "N",
		"trial": "exp",
		"letters": "null",
		"trial_type": "html-keyboard-response",
		"trial_index": 165,
		"time_elapsed": 314905,
		"internal_node_id": "0.0-3.0-1.74"
	},
	{
		"rt": null,
		"stimulus": "+",
		"response": null,
		"trial_type": "html-keyboard-response",
		"trial_index": 166,
		"time_elapsed": 315411,
		"internal_node_id": "0.0-3.0-0.75"
	},
	{
		"rt": 1618,
		"stimulus": "bracos",
		"response": "n",
		"class": "null",
		"status": "noncog",
		"answer": "pseudo",
		"correct": "N",
		"trial": "exp",
		"letters": "null",
		"trial_type": "html-keyboard-response",
		"trial_index": 167,
		"time_elapsed": 317029,
		"internal_node_id": "0.0-3.0-1.75"
	},
	{
		"rt": null,
		"stimulus": "+",
		"response": null,
		"trial_type": "html-keyboard-response",
		"trial_index": 168,
		"time_elapsed": 317532,
		"internal_node_id": "0.0-3.0-0.76"
	},
	{
		"rt": 877,
		"stimulus": "jastor",
		"response": "n",
		"class": "null",
		"status": "noncog",
		"answer": "pseudo",
		"correct": "N",
		"trial": "exp",
		"letters": "null",
		"trial_type": "html-keyboard-response",
		"trial_index": 169,
		"time_elapsed": 318410,
		"internal_node_id": "0.0-3.0-1.76"
	},
	{
		"rt": null,
		"stimulus": "+",
		"response": null,
		"trial_type": "html-keyboard-response",
		"trial_index": 170,
		"time_elapsed": 318918,
		"internal_node_id": "0.0-3.0-0.77"
	},
	{
		"rt": 786,
		"stimulus": "pangos",
		"response": "n",
		"class": "null",
		"status": "noncog",
		"answer": "pseudo",
		"correct": "N",
		"trial": "exp",
		"letters": "null",
		"trial_type": "html-keyboard-response",
		"trial_index": 171,
		"time_elapsed": 319705,
		"internal_node_id": "0.0-3.0-1.77"
	},
	{
		"rt": null,
		"stimulus": "+",
		"response": null,
		"trial_type": "html-keyboard-response",
		"trial_index": 172,
		"time_elapsed": 320217,
		"internal_node_id": "0.0-3.0-0.78"
	},
	{
		"rt": 962,
		"stimulus": "taberia",
		"response": "n",
		"class": "null",
		"status": "noncog",
		"answer": "pseudo",
		"correct": "N",
		"trial": "exp",
		"letters": "null",
		"trial_type": "html-keyboard-response",
		"trial_index": 173,
		"time_elapsed": 321181,
		"internal_node_id": "0.0-3.0-1.78"
	},
	{
		"rt": null,
		"stimulus": "+",
		"response": null,
		"trial_type": "html-keyboard-response",
		"trial_index": 174,
		"time_elapsed": 321693,
		"internal_node_id": "0.0-3.0-0.79"
	},
	{
		"rt": 911,
		"stimulus": "parceter",
		"response": "n",
		"class": "null",
		"status": "noncog",
		"answer": "pseudo",
		"correct": "N",
		"trial": "exp",
		"letters": "null",
		"trial_type": "html-keyboard-response",
		"trial_index": 175,
		"time_elapsed": 322604,
		"internal_node_id": "0.0-3.0-1.79"
	},
	{
		"rt": null,
		"stimulus": "+",
		"response": null,
		"trial_type": "html-keyboard-response",
		"trial_index": 176,
		"time_elapsed": 323119,
		"internal_node_id": "0.0-3.0-0.80"
	},
	{
		"rt": 1051,
		"stimulus": "cirado",
		"response": "n",
		"class": "null",
		"status": "noncog",
		"answer": "pseudo",
		"correct": "N",
		"trial": "exp",
		"letters": "null",
		"trial_type": "html-keyboard-response",
		"trial_index": 177,
		"time_elapsed": 324172,
		"internal_node_id": "0.0-3.0-1.80"
	},
	{
		"rt": null,
		"stimulus": "+",
		"response": null,
		"trial_type": "html-keyboard-response",
		"trial_index": 178,
		"time_elapsed": 324682,
		"internal_node_id": "0.0-3.0-0.81"
	},
	{
		"rt": 710,
		"stimulus": "socorro",
		"response": "s",
		"class": "n",
		"status": "noncog",
		"answer": "word",
		"correct": "S",
		"trial": "exp",
		"letters": "7",
		"trial_type": "html-keyboard-response",
		"trial_index": 179,
		"time_elapsed": 325393,
		"internal_node_id": "0.0-3.0-1.81"
	},
	{
		"rt": null,
		"stimulus": "+",
		"response": null,
		"trial_type": "html-keyboard-response",
		"trial_index": 180,
		"time_elapsed": 325900,
		"internal_node_id": "0.0-3.0-0.82"
	},
	{
		"rt": 1350,
		"stimulus": "dilheira",
		"response": "n",
		"class": "null",
		"status": "noncog",
		"answer": "pseudo",
		"correct": "N",
		"trial": "exp",
		"letters": "null",
		"trial_type": "html-keyboard-response",
		"trial_index": 181,
		"time_elapsed": 327252,
		"internal_node_id": "0.0-3.0-1.82"
	},
	{
		"rt": null,
		"stimulus": "+",
		"response": null,
		"trial_type": "html-keyboard-response",
		"trial_index": 182,
		"time_elapsed": 327754,
		"internal_node_id": "0.0-3.0-0.83"
	},
	{
		"rt": 645,
		"stimulus": "fogão",
		"response": "s",
		"class": "n",
		"status": "noncog",
		"answer": "word",
		"correct": "S",
		"trial": "exp",
		"letters": "5",
		"trial_type": "html-keyboard-response",
		"trial_index": 183,
		"time_elapsed": 328400,
		"internal_node_id": "0.0-3.0-1.83"
	},
	{
		"rt": null,
		"stimulus": "+",
		"response": null,
		"trial_type": "html-keyboard-response",
		"trial_index": 184,
		"time_elapsed": 328915,
		"internal_node_id": "0.0-3.0-0.84"
	},
	{
		"rt": 1273,
		"stimulus": "verceja",
		"response": "n",
		"class": "null",
		"status": "noncog",
		"answer": "pseudo",
		"correct": "N",
		"trial": "exp",
		"letters": "null",
		"trial_type": "html-keyboard-response",
		"trial_index": 185,
		"time_elapsed": 330189,
		"internal_node_id": "0.0-3.0-1.84"
	},
	{
		"rt": null,
		"stimulus": "+",
		"response": null,
		"trial_type": "html-keyboard-response",
		"trial_index": 186,
		"time_elapsed": 330697,
		"internal_node_id": "0.0-3.0-0.85"
	},
	{
		"rt": 1168,
		"stimulus": "terdia",
		"response": "n",
		"class": "null",
		"status": "noncog",
		"answer": "pseudo",
		"correct": "N",
		"trial": "exp",
		"letters": "null",
		"trial_type": "html-keyboard-response",
		"trial_index": 187,
		"time_elapsed": 331867,
		"internal_node_id": "0.0-3.0-1.85"
	},
	{
		"rt": null,
		"stimulus": "+",
		"response": null,
		"trial_type": "html-keyboard-response",
		"trial_index": 188,
		"time_elapsed": 332379,
		"internal_node_id": "0.0-3.0-0.86"
	},
	{
		"rt": 1272,
		"stimulus": "tímido",
		"response": "s",
		"class": "a",
		"status": "cog",
		"answer": "word",
		"correct": "S",
		"trial": "exp",
		"letters": "6",
		"trial_type": "html-keyboard-response",
		"trial_index": 189,
		"time_elapsed": 333653,
		"internal_node_id": "0.0-3.0-1.86"
	},
	{
		"rt": null,
		"stimulus": "+",
		"response": null,
		"trial_type": "html-keyboard-response",
		"trial_index": 190,
		"time_elapsed": 334171,
		"internal_node_id": "0.0-3.0-0.87"
	},
	{
		"rt": 2077,
		"stimulus": "deselegante",
		"response": "s",
		"class": "a",
		"status": "noncog",
		"answer": "word",
		"correct": "S",
		"trial": "exp",
		"letters": "11",
		"trial_type": "html-keyboard-response",
		"trial_index": 191,
		"time_elapsed": 336251,
		"internal_node_id": "0.0-3.0-1.87"
	},
	{
		"rt": null,
		"stimulus": "+",
		"response": null,
		"trial_type": "html-keyboard-response",
		"trial_index": 192,
		"time_elapsed": 336763,
		"internal_node_id": "0.0-3.0-0.88"
	},
	{
		"rt": 1908,
		"stimulus": "bibarconato",
		"response": "n",
		"class": "null",
		"status": "noncog",
		"answer": "pseudo",
		"correct": "N",
		"trial": "exp",
		"letters": "null",
		"trial_type": "html-keyboard-response",
		"trial_index": 193,
		"time_elapsed": 338671,
		"internal_node_id": "0.0-3.0-1.88"
	},
	{
		"rt": null,
		"stimulus": "+",
		"response": null,
		"trial_type": "html-keyboard-response",
		"trial_index": 194,
		"time_elapsed": 339176,
		"internal_node_id": "0.0-3.0-0.89"
	},
	{
		"rt": 884,
		"stimulus": "revear",
		"response": "n",
		"class": "null",
		"status": "noncog",
		"answer": "pseudo",
		"correct": "N",
		"trial": "exp",
		"letters": "null",
		"trial_type": "html-keyboard-response",
		"trial_index": 195,
		"time_elapsed": 340060,
		"internal_node_id": "0.0-3.0-1.89"
	},
	{
		"rt": null,
		"stimulus": "+",
		"response": null,
		"trial_type": "html-keyboard-response",
		"trial_index": 196,
		"time_elapsed": 340569,
		"internal_node_id": "0.0-3.0-0.90"
	},
	{
		"rt": 1256,
		"stimulus": "enxarto",
		"response": "n",
		"class": "null",
		"status": "noncog",
		"answer": "pseudo",
		"correct": "N",
		"trial": "exp",
		"letters": "null",
		"trial_type": "html-keyboard-response",
		"trial_index": 197,
		"time_elapsed": 341825,
		"internal_node_id": "0.0-3.0-1.90"
	},
	{
		"rt": null,
		"stimulus": "+",
		"response": null,
		"trial_type": "html-keyboard-response",
		"trial_index": 198,
		"time_elapsed": 342329,
		"internal_node_id": "0.0-3.0-0.91"
	},
	{
		"rt": 1189,
		"stimulus": "aemaça",
		"response": "n",
		"class": "null",
		"status": "noncog",
		"answer": "pseudo",
		"correct": "N",
		"trial": "exp",
		"letters": "null",
		"trial_type": "html-keyboard-response",
		"trial_index": 199,
		"time_elapsed": 343520,
		"internal_node_id": "0.0-3.0-1.91"
	},
	{
		"rt": null,
		"stimulus": "+",
		"response": null,
		"trial_type": "html-keyboard-response",
		"trial_index": 200,
		"time_elapsed": 344036,
		"internal_node_id": "0.0-3.0-0.92"
	},
	{
		"rt": 1003,
		"stimulus": "casuas",
		"response": "n",
		"class": "null",
		"status": "noncog",
		"answer": "pseudo",
		"correct": "N",
		"trial": "exp",
		"letters": "null",
		"trial_type": "html-keyboard-response",
		"trial_index": 201,
		"time_elapsed": 345040,
		"internal_node_id": "0.0-3.0-1.92"
	},
	{
		"rt": null,
		"stimulus": "+",
		"response": null,
		"trial_type": "html-keyboard-response",
		"trial_index": 202,
		"time_elapsed": 345550,
		"internal_node_id": "0.0-3.0-0.93"
	},
	{
		"rt": 1987,
		"stimulus": "lapestra",
		"response": "n",
		"class": "null",
		"status": "noncog",
		"answer": "pseudo",
		"correct": "N",
		"trial": "exp",
		"letters": "null",
		"trial_type": "html-keyboard-response",
		"trial_index": 203,
		"time_elapsed": 347539,
		"internal_node_id": "0.0-3.0-1.93"
	},
	{
		"rt": null,
		"stimulus": "+",
		"response": null,
		"trial_type": "html-keyboard-response",
		"trial_index": 204,
		"time_elapsed": 348041,
		"internal_node_id": "0.0-3.0-0.94"
	},
	{
		"rt": 775,
		"stimulus": "grótis",
		"response": "n",
		"class": "null",
		"status": "noncog",
		"answer": "pseudo",
		"correct": "N",
		"trial": "exp",
		"letters": "null",
		"trial_type": "html-keyboard-response",
		"trial_index": 205,
		"time_elapsed": 348817,
		"internal_node_id": "0.0-3.0-1.94"
	},
	{
		"rt": null,
		"stimulus": "+",
		"response": null,
		"trial_type": "html-keyboard-response",
		"trial_index": 206,
		"time_elapsed": 349321,
		"internal_node_id": "0.0-3.0-0.95"
	},
	{
		"rt": 681,
		"stimulus": "cravo",
		"response": "s",
		"class": "n",
		"status": "noncog",
		"answer": "word",
		"correct": "S",
		"trial": "exp",
		"letters": "5",
		"trial_type": "html-keyboard-response",
		"trial_index": 207,
		"time_elapsed": 350003,
		"internal_node_id": "0.0-3.0-1.95"
	},
	{
		"rt": null,
		"stimulus": "+",
		"response": null,
		"trial_type": "html-keyboard-response",
		"trial_index": 208,
		"time_elapsed": 350512,
		"internal_node_id": "0.0-3.0-0.96"
	},
	{
		"rt": 675,
		"stimulus": "agressivo",
		"response": "s",
		"class": "a",
		"status": "cog",
		"answer": "word",
		"correct": "S",
		"trial": "exp",
		"letters": "9",
		"trial_type": "html-keyboard-response",
		"trial_index": 209,
		"time_elapsed": 351187,
		"internal_node_id": "0.0-3.0-1.96"
	},
	{
		"rt": null,
		"stimulus": "+",
		"response": null,
		"trial_type": "html-keyboard-response",
		"trial_index": 210,
		"time_elapsed": 351689,
		"internal_node_id": "0.0-3.0-0.97"
	},
	{
		"rt": 864,
		"stimulus": "rovaz",
		"response": "n",
		"class": "null",
		"status": "noncog",
		"answer": "pseudo",
		"correct": "N",
		"trial": "exp",
		"letters": "null",
		"trial_type": "html-keyboard-response",
		"trial_index": 211,
		"time_elapsed": 352553,
		"internal_node_id": "0.0-3.0-1.97"
	},
	{
		"rt": null,
		"stimulus": "+",
		"response": null,
		"trial_type": "html-keyboard-response",
		"trial_index": 212,
		"time_elapsed": 353060,
		"internal_node_id": "0.0-3.0-0.98"
	},
	{
		"rt": 605,
		"stimulus": "macras",
		"response": "s",
		"class": "null",
		"status": "noncog",
		"answer": "pseudo",
		"correct": "N",
		"trial": "exp",
		"letters": "null",
		"trial_type": "html-keyboard-response",
		"trial_index": 213,
		"time_elapsed": 353666,
		"internal_node_id": "0.0-3.0-1.98"
	},
	{
		"rt": null,
		"stimulus": "+",
		"response": null,
		"trial_type": "html-keyboard-response",
		"trial_index": 214,
		"time_elapsed": 354169,
		"internal_node_id": "0.0-3.0-0.99"
	},
	{
		"rt": 1031,
		"stimulus": "aperor",
		"response": "n",
		"class": "null",
		"status": "noncog",
		"answer": "pseudo",
		"correct": "N",
		"trial": "exp",
		"letters": "null",
		"trial_type": "html-keyboard-response",
		"trial_index": 215,
		"time_elapsed": 355202,
		"internal_node_id": "0.0-3.0-1.99"
	},
	{
		"rt": null,
		"stimulus": "+",
		"response": null,
		"trial_type": "html-keyboard-response",
		"trial_index": 216,
		"time_elapsed": 355717,
		"internal_node_id": "0.0-3.0-0.100"
	},
	{
		"rt": 856,
		"stimulus": "uçar",
		"response": "n",
		"class": "null",
		"status": "noncog",
		"answer": "pseudo",
		"correct": "N",
		"trial": "exp",
		"letters": "null",
		"trial_type": "html-keyboard-response",
		"trial_index": 217,
		"time_elapsed": 356575,
		"internal_node_id": "0.0-3.0-1.100"
	},
	{
		"rt": null,
		"stimulus": "+",
		"response": null,
		"trial_type": "html-keyboard-response",
		"trial_index": 218,
		"time_elapsed": 357084,
		"internal_node_id": "0.0-3.0-0.101"
	},
	{
		"rt": 580,
		"stimulus": "tinta",
		"response": "s",
		"class": "n",
		"status": "cog",
		"answer": "word",
		"correct": "S",
		"trial": "exp",
		"letters": "5",
		"trial_type": "html-keyboard-response",
		"trial_index": 219,
		"time_elapsed": 357664,
		"internal_node_id": "0.0-3.0-1.101"
	},
	{
		"rt": null,
		"stimulus": "+",
		"response": null,
		"trial_type": "html-keyboard-response",
		"trial_index": 220,
		"time_elapsed": 358178,
		"internal_node_id": "0.0-3.0-0.102"
	},
	{
		"rt": 906,
		"stimulus": "berquesa",
		"response": "n",
		"class": "null",
		"status": "noncog",
		"answer": "pseudo",
		"correct": "N",
		"trial": "exp",
		"letters": "null",
		"trial_type": "html-keyboard-response",
		"trial_index": 221,
		"time_elapsed": 359084,
		"internal_node_id": "0.0-3.0-1.102"
	},
	{
		"rt": null,
		"stimulus": "+",
		"response": null,
		"trial_type": "html-keyboard-response",
		"trial_index": 222,
		"time_elapsed": 359595,
		"internal_node_id": "0.0-3.0-0.103"
	},
	{
		"rt": 647,
		"stimulus": "pedaço",
		"response": "s",
		"class": "n",
		"status": "noncog",
		"answer": "word",
		"correct": "S",
		"trial": "exp",
		"letters": "6",
		"trial_type": "html-keyboard-response",
		"trial_index": 223,
		"time_elapsed": 360243,
		"internal_node_id": "0.0-3.0-1.103"
	},
	{
		"rt": null,
		"stimulus": "+",
		"response": null,
		"trial_type": "html-keyboard-response",
		"trial_index": 224,
		"time_elapsed": 360754,
		"internal_node_id": "0.0-3.0-0.104"
	},
	{
		"rt": 1904,
		"stimulus": "refletir",
		"response": "s",
		"class": "v",
		"status": "cog",
		"answer": "word",
		"correct": "S",
		"trial": "exp",
		"letters": "8",
		"trial_type": "html-keyboard-response",
		"trial_index": 225,
		"time_elapsed": 362659,
		"internal_node_id": "0.0-3.0-1.104"
	},
	{
		"rt": null,
		"stimulus": "+",
		"response": null,
		"trial_type": "html-keyboard-response",
		"trial_index": 226,
		"time_elapsed": 363167,
		"internal_node_id": "0.0-3.0-0.105"
	},
	{
		"rt": 978,
		"stimulus": "salpicado",
		"response": "n",
		"class": "a",
		"status": "noncog",
		"answer": "word",
		"correct": "S",
		"trial": "exp",
		"letters": "9",
		"trial_type": "html-keyboard-response",
		"trial_index": 227,
		"time_elapsed": 364145,
		"internal_node_id": "0.0-3.0-1.105"
	},
	{
		"rt": null,
		"stimulus": "+",
		"response": null,
		"trial_type": "html-keyboard-response",
		"trial_index": 228,
		"time_elapsed": 364646,
		"internal_node_id": "0.0-3.0-0.106"
	},
	{
		"rt": 812,
		"stimulus": "reduzir",
		"response": "s",
		"class": "v",
		"status": "cog",
		"answer": "word",
		"correct": "S",
		"trial": "exp",
		"letters": "7",
		"trial_type": "html-keyboard-response",
		"trial_index": 229,
		"time_elapsed": 365460,
		"internal_node_id": "0.0-3.0-1.106"
	},
	{
		"rt": null,
		"stimulus": "+",
		"response": null,
		"trial_type": "html-keyboard-response",
		"trial_index": 230,
		"time_elapsed": 365972,
		"internal_node_id": "0.0-3.0-0.107"
	},
	{
		"rt": 691,
		"stimulus": "pneucania",
		"response": "n",
		"class": "null",
		"status": "noncog",
		"answer": "pseudo",
		"correct": "N",
		"trial": "exp",
		"letters": "null",
		"trial_type": "html-keyboard-response",
		"trial_index": 231,
		"time_elapsed": 366663,
		"internal_node_id": "0.0-3.0-1.107"
	},
	{
		"rt": null,
		"stimulus": "+",
		"response": null,
		"trial_type": "html-keyboard-response",
		"trial_index": 232,
		"time_elapsed": 367172,
		"internal_node_id": "0.0-3.0-0.108"
	},
	{
		"rt": 1012,
		"stimulus": "atapdar",
		"response": "s",
		"class": "null",
		"status": "noncog",
		"answer": "pseudo",
		"correct": "N",
		"trial": "exp",
		"letters": "null",
		"trial_type": "html-keyboard-response",
		"trial_index": 233,
		"time_elapsed": 368186,
		"internal_node_id": "0.0-3.0-1.108"
	},
	{
		"rt": null,
		"stimulus": "+",
		"response": null,
		"trial_type": "html-keyboard-response",
		"trial_index": 234,
		"time_elapsed": 368695,
		"internal_node_id": "0.0-3.0-0.109"
	},
	{
		"rt": 749,
		"stimulus": "fino",
		"response": "s",
		"class": "a",
		"status": "cog",
		"answer": "word",
		"correct": "S",
		"trial": "exp",
		"letters": "4",
		"trial_type": "html-keyboard-response",
		"trial_index": 235,
		"time_elapsed": 369446,
		"internal_node_id": "0.0-3.0-1.109"
	},
	{
		"rt": null,
		"stimulus": "+",
		"response": null,
		"trial_type": "html-keyboard-response",
		"trial_index": 236,
		"time_elapsed": 369954,
		"internal_node_id": "0.0-3.0-0.110"
	},
	{
		"rt": 1092,
		"stimulus": "liberal",
		"response": "s",
		"class": "a",
		"status": "cog",
		"answer": "word",
		"correct": "S",
		"trial": "exp",
		"letters": "7",
		"trial_type": "html-keyboard-response",
		"trial_index": 237,
		"time_elapsed": 371047,
		"internal_node_id": "0.0-3.0-1.110"
	},
	{
		"rt": null,
		"stimulus": "+",
		"response": null,
		"trial_type": "html-keyboard-response",
		"trial_index": 238,
		"time_elapsed": 371554,
		"internal_node_id": "0.0-3.0-0.111"
	},
	{
		"rt": 993,
		"stimulus": "garastia",
		"response": "n",
		"class": "null",
		"status": "noncog",
		"answer": "pseudo",
		"correct": "N",
		"trial": "exp",
		"letters": "null",
		"trial_type": "html-keyboard-response",
		"trial_index": 239,
		"time_elapsed": 372549,
		"internal_node_id": "0.0-3.0-1.111"
	},
	{
		"rt": null,
		"stimulus": "+",
		"response": null,
		"trial_type": "html-keyboard-response",
		"trial_index": 240,
		"time_elapsed": 373058,
		"internal_node_id": "0.0-3.0-0.112"
	},
	{
		"rt": 814,
		"stimulus": "mabras",
		"response": "n",
		"class": "null",
		"status": "noncog",
		"answer": "pseudo",
		"correct": "N",
		"trial": "exp",
		"letters": "null",
		"trial_type": "html-keyboard-response",
		"trial_index": 241,
		"time_elapsed": 373874,
		"internal_node_id": "0.0-3.0-1.112"
	},
	{
		"rt": null,
		"stimulus": "+",
		"response": null,
		"trial_type": "html-keyboard-response",
		"trial_index": 242,
		"time_elapsed": 374376,
		"internal_node_id": "0.0-3.0-0.113"
	},
	{
		"rt": 582,
		"stimulus": "mal",
		"response": "s",
		"class": "a",
		"status": "cog",
		"answer": "word",
		"correct": "S",
		"trial": "exp",
		"letters": "3",
		"trial_type": "html-keyboard-response",
		"trial_index": 243,
		"time_elapsed": 374959,
		"internal_node_id": "0.0-3.0-1.113"
	},
	{
		"rt": null,
		"stimulus": "+",
		"response": null,
		"trial_type": "html-keyboard-response",
		"trial_index": 244,
		"time_elapsed": 375467,
		"internal_node_id": "0.0-3.0-0.114"
	},
	{
		"rt": 832,
		"stimulus": "loaco",
		"response": "n",
		"class": "null",
		"status": "noncog",
		"answer": "pseudo",
		"correct": "N",
		"trial": "exp",
		"letters": "null",
		"trial_type": "html-keyboard-response",
		"trial_index": 245,
		"time_elapsed": 376299,
		"internal_node_id": "0.0-3.0-1.114"
	},
	{
		"rt": null,
		"stimulus": "+",
		"response": null,
		"trial_type": "html-keyboard-response",
		"trial_index": 246,
		"time_elapsed": 376810,
		"internal_node_id": "0.0-3.0-0.115"
	},
	{
		"rt": 605,
		"stimulus": "uchães",
		"response": "n",
		"class": "null",
		"status": "noncog",
		"answer": "pseudo",
		"correct": "N",
		"trial": "exp",
		"letters": "null",
		"trial_type": "html-keyboard-response",
		"trial_index": 247,
		"time_elapsed": 377416,
		"internal_node_id": "0.0-3.0-1.115"
	},
	{
		"rt": null,
		"stimulus": "+",
		"response": null,
		"trial_type": "html-keyboard-response",
		"trial_index": 248,
		"time_elapsed": 377925,
		"internal_node_id": "0.0-3.0-0.116"
	},
	{
		"rt": 1001,
		"stimulus": "avenas",
		"response": "s",
		"class": "null",
		"status": "noncog",
		"answer": "pseudo",
		"correct": "N",
		"trial": "exp",
		"letters": "null",
		"trial_type": "html-keyboard-response",
		"trial_index": 249,
		"time_elapsed": 378927,
		"internal_node_id": "0.0-3.0-1.116"
	},
	{
		"rt": null,
		"stimulus": "+",
		"response": null,
		"trial_type": "html-keyboard-response",
		"trial_index": 250,
		"time_elapsed": 379442,
		"internal_node_id": "0.0-3.0-0.117"
	},
	{
		"rt": 2145,
		"stimulus": "pimada",
		"response": "n",
		"class": "null",
		"status": "noncog",
		"answer": "pseudo",
		"correct": "N",
		"trial": "exp",
		"letters": "null",
		"trial_type": "html-keyboard-response",
		"trial_index": 251,
		"time_elapsed": 381589,
		"internal_node_id": "0.0-3.0-1.117"
	},
	{
		"rt": null,
		"stimulus": "+",
		"response": null,
		"trial_type": "html-keyboard-response",
		"trial_index": 252,
		"time_elapsed": 382097,
		"internal_node_id": "0.0-3.0-0.118"
	},
	{
		"rt": 858,
		"stimulus": "crutas",
		"response": "n",
		"class": "null",
		"status": "noncog",
		"answer": "pseudo",
		"correct": "N",
		"trial": "exp",
		"letters": "null",
		"trial_type": "html-keyboard-response",
		"trial_index": 253,
		"time_elapsed": 382955,
		"internal_node_id": "0.0-3.0-1.118"
	},
	{
		"rt": null,
		"stimulus": "+",
		"response": null,
		"trial_type": "html-keyboard-response",
		"trial_index": 254,
		"time_elapsed": 383459,
		"internal_node_id": "0.0-3.0-0.119"
	},
	{
		"rt": 536,
		"stimulus": "tênis",
		"response": "s",
		"class": "n",
		"status": "cog",
		"answer": "word",
		"correct": "S",
		"trial": "exp",
		"letters": "5",
		"trial_type": "html-keyboard-response",
		"trial_index": 255,
		"time_elapsed": 383996,
		"internal_node_id": "0.0-3.0-1.119"
	},
	{
		"rt": null,
		"stimulus": "+",
		"response": null,
		"trial_type": "html-keyboard-response",
		"trial_index": 256,
		"time_elapsed": 384507,
		"internal_node_id": "0.0-3.0-0.120"
	},
	{
		"rt": 673,
		"stimulus": "animado",
		"response": "n",
		"class": "a",
		"status": "noncog",
		"answer": "word",
		"correct": "S",
		"trial": "exp",
		"letters": "7",
		"trial_type": "html-keyboard-response",
		"trial_index": 257,
		"time_elapsed": 385182,
		"internal_node_id": "0.0-3.0-1.120"
	},
	{
		"rt": null,
		"stimulus": "+",
		"response": null,
		"trial_type": "html-keyboard-response",
		"trial_index": 258,
		"time_elapsed": 385692,
		"internal_node_id": "0.0-3.0-0.121"
	},
	{
		"rt": 1344,
		"stimulus": "frotes",
		"response": "n",
		"class": "null",
		"status": "noncog",
		"answer": "pseudo",
		"correct": "N",
		"trial": "exp",
		"letters": "null",
		"trial_type": "html-keyboard-response",
		"trial_index": 259,
		"time_elapsed": 387037,
		"internal_node_id": "0.0-3.0-1.121"
	},
	{
		"rt": null,
		"stimulus": "+",
		"response": null,
		"trial_type": "html-keyboard-response",
		"trial_index": 260,
		"time_elapsed": 387540,
		"internal_node_id": "0.0-3.0-0.122"
	},
	{
		"rt": 675,
		"stimulus": "trabalhar",
		"response": "s",
		"class": "v",
		"status": "noncog",
		"answer": "word",
		"correct": "S",
		"trial": "exp",
		"letters": "9",
		"trial_type": "html-keyboard-response",
		"trial_index": 261,
		"time_elapsed": 388216,
		"internal_node_id": "0.0-3.0-1.122"
	},
	{
		"rt": null,
		"stimulus": "+",
		"response": null,
		"trial_type": "html-keyboard-response",
		"trial_index": 262,
		"time_elapsed": 388726,
		"internal_node_id": "0.0-3.0-0.123"
	},
	{
		"rt": 991,
		"stimulus": "bachir",
		"response": "n",
		"class": "null",
		"status": "noncog",
		"answer": "pseudo",
		"correct": "N",
		"trial": "exp",
		"letters": "null",
		"trial_type": "html-keyboard-response",
		"trial_index": 263,
		"time_elapsed": 389718,
		"internal_node_id": "0.0-3.0-1.123"
	},
	{
		"rt": null,
		"stimulus": "+",
		"response": null,
		"trial_type": "html-keyboard-response",
		"trial_index": 264,
		"time_elapsed": 390231,
		"internal_node_id": "0.0-3.0-0.124"
	},
	{
		"rt": 550,
		"stimulus": "cinema",
		"response": "s",
		"class": "n",
		"status": "cog",
		"answer": "word",
		"correct": "S",
		"trial": "exp",
		"letters": "6",
		"trial_type": "html-keyboard-response",
		"trial_index": 265,
		"time_elapsed": 390783,
		"internal_node_id": "0.0-3.0-1.124"
	},
	{
		"rt": null,
		"stimulus": "+",
		"response": null,
		"trial_type": "html-keyboard-response",
		"trial_index": 266,
		"time_elapsed": 391285,
		"internal_node_id": "0.0-3.0-0.125"
	},
	{
		"rt": 817,
		"stimulus": "dobradiça",
		"response": "n",
		"class": "n",
		"status": "noncog",
		"answer": "word",
		"correct": "S",
		"trial": "exp",
		"letters": "9",
		"trial_type": "html-keyboard-response",
		"trial_index": 267,
		"time_elapsed": 392103,
		"internal_node_id": "0.0-3.0-1.125"
	},
	{
		"rt": null,
		"stimulus": "+",
		"response": null,
		"trial_type": "html-keyboard-response",
		"trial_index": 268,
		"time_elapsed": 392617,
		"internal_node_id": "0.0-3.0-0.126"
	},
	{
		"rt": 1257,
		"stimulus": "braras",
		"response": "n",
		"class": "null",
		"status": "noncog",
		"answer": "pseudo",
		"correct": "N",
		"trial": "exp",
		"letters": "null",
		"trial_type": "html-keyboard-response",
		"trial_index": 269,
		"time_elapsed": 393874,
		"internal_node_id": "0.0-3.0-1.126"
	},
	{
		"rt": null,
		"stimulus": "+",
		"response": null,
		"trial_type": "html-keyboard-response",
		"trial_index": 270,
		"time_elapsed": 394385,
		"internal_node_id": "0.0-3.0-0.127"
	},
	{
		"rt": 573,
		"stimulus": "açúcar",
		"response": "s",
		"class": "n",
		"status": "noncog",
		"answer": "word",
		"correct": "S",
		"trial": "exp",
		"letters": "6",
		"trial_type": "html-keyboard-response",
		"trial_index": 271,
		"time_elapsed": 394958,
		"internal_node_id": "0.0-3.0-1.127"
	},
	{
		"rt": null,
		"stimulus": "+",
		"response": null,
		"trial_type": "html-keyboard-response",
		"trial_index": 272,
		"time_elapsed": 395470,
		"internal_node_id": "0.0-3.0-0.128"
	},
	{
		"rt": 736,
		"stimulus": "memória",
		"response": "s",
		"class": "n",
		"status": "cog",
		"answer": "word",
		"correct": "S",
		"trial": "exp",
		"letters": "7",
		"trial_type": "html-keyboard-response",
		"trial_index": 273,
		"time_elapsed": 396207,
		"internal_node_id": "0.0-3.0-1.128"
	},
	{
		"rt": null,
		"stimulus": "+",
		"response": null,
		"trial_type": "html-keyboard-response",
		"trial_index": 274,
		"time_elapsed": 396719,
		"internal_node_id": "0.0-3.0-0.129"
	},
	{
		"rt": 672,
		"stimulus": "destino",
		"response": "s",
		"class": "n",
		"status": "cog",
		"answer": "word",
		"correct": "S",
		"trial": "exp",
		"letters": "7",
		"trial_type": "html-keyboard-response",
		"trial_index": 275,
		"time_elapsed": 397395,
		"internal_node_id": "0.0-3.0-1.129"
	},
	{
		"rt": null,
		"stimulus": "+",
		"response": null,
		"trial_type": "html-keyboard-response",
		"trial_index": 276,
		"time_elapsed": 397901,
		"internal_node_id": "0.0-3.0-0.130"
	},
	{
		"rt": 1494,
		"stimulus": "lagras",
		"response": "n",
		"class": "null",
		"status": "noncog",
		"answer": "pseudo",
		"correct": "N",
		"trial": "exp",
		"letters": "null",
		"trial_type": "html-keyboard-response",
		"trial_index": 277,
		"time_elapsed": 399397,
		"internal_node_id": "0.0-3.0-1.130"
	},
	{
		"rt": null,
		"stimulus": "+",
		"response": null,
		"trial_type": "html-keyboard-response",
		"trial_index": 278,
		"time_elapsed": 399909,
		"internal_node_id": "0.0-3.0-0.131"
	},
	{
		"rt": 656,
		"stimulus": "atrasar",
		"response": "s",
		"class": "v",
		"status": "noncog",
		"answer": "word",
		"correct": "S",
		"trial": "exp",
		"letters": "7",
		"trial_type": "html-keyboard-response",
		"trial_index": 279,
		"time_elapsed": 400566,
		"internal_node_id": "0.0-3.0-1.131"
	},
	{
		"rt": null,
		"stimulus": "+",
		"response": null,
		"trial_type": "html-keyboard-response",
		"trial_index": 280,
		"time_elapsed": 401081,
		"internal_node_id": "0.0-3.0-0.132"
	},
	{
		"rt": 578,
		"stimulus": "filme",
		"response": "n",
		"class": "n",
		"status": "cog",
		"answer": "word",
		"correct": "S",
		"trial": "exp",
		"letters": "5",
		"trial_type": "html-keyboard-response",
		"trial_index": 281,
		"time_elapsed": 401660,
		"internal_node_id": "0.0-3.0-1.132"
	},
	{
		"rt": null,
		"stimulus": "+",
		"response": null,
		"trial_type": "html-keyboard-response",
		"trial_index": 282,
		"time_elapsed": 402172,
		"internal_node_id": "0.0-3.0-0.133"
	},
	{
		"rt": 1567,
		"stimulus": "burtos",
		"response": "n",
		"class": "null",
		"status": "noncog",
		"answer": "pseudo",
		"correct": "N",
		"trial": "exp",
		"letters": "null",
		"trial_type": "html-keyboard-response",
		"trial_index": 283,
		"time_elapsed": 403739,
		"internal_node_id": "0.0-3.0-1.133"
	},
	{
		"rt": null,
		"stimulus": "+",
		"response": null,
		"trial_type": "html-keyboard-response",
		"trial_index": 284,
		"time_elapsed": 404241,
		"internal_node_id": "0.0-3.0-0.134"
	},
	{
		"rt": 908,
		"stimulus": "prenas",
		"response": "n",
		"class": "null",
		"status": "noncog",
		"answer": "pseudo",
		"correct": "N",
		"trial": "exp",
		"letters": "null",
		"trial_type": "html-keyboard-response",
		"trial_index": 285,
		"time_elapsed": 405148,
		"internal_node_id": "0.0-3.0-1.134"
	},
	{
		"rt": null,
		"stimulus": "+",
		"response": null,
		"trial_type": "html-keyboard-response",
		"trial_index": 286,
		"time_elapsed": 405652,
		"internal_node_id": "0.0-3.0-0.135"
	},
	{
		"rt": 771,
		"stimulus": "espaço",
		"response": "s",
		"class": "n",
		"status": "cog",
		"answer": "word",
		"correct": "S",
		"trial": "exp",
		"letters": "6",
		"trial_type": "html-keyboard-response",
		"trial_index": 287,
		"time_elapsed": 406422,
		"internal_node_id": "0.0-3.0-1.135"
	},
	{
		"rt": null,
		"stimulus": "+",
		"response": null,
		"trial_type": "html-keyboard-response",
		"trial_index": 288,
		"time_elapsed": 406936,
		"internal_node_id": "0.0-3.0-0.136"
	},
	{
		"rt": 661,
		"stimulus": "plinta",
		"response": "n",
		"class": "null",
		"status": "noncog",
		"answer": "pseudo",
		"correct": "N",
		"trial": "exp",
		"letters": "null",
		"trial_type": "html-keyboard-response",
		"trial_index": 289,
		"time_elapsed": 407599,
		"internal_node_id": "0.0-3.0-1.136"
	},
	{
		"rt": null,
		"stimulus": "+",
		"response": null,
		"trial_type": "html-keyboard-response",
		"trial_index": 290,
		"time_elapsed": 408102,
		"internal_node_id": "0.0-3.0-0.137"
	},
	{
		"rt": 1942,
		"stimulus": "propaganda",
		"response": "s",
		"class": "n",
		"status": "cog",
		"answer": "word",
		"correct": "S",
		"trial": "exp",
		"letters": "10",
		"trial_type": "html-keyboard-response",
		"trial_index": 291,
		"time_elapsed": 410044,
		"internal_node_id": "0.0-3.0-1.137"
	},
	{
		"rt": null,
		"stimulus": "+",
		"response": null,
		"trial_type": "html-keyboard-response",
		"trial_index": 292,
		"time_elapsed": 410546,
		"internal_node_id": "0.0-3.0-0.138"
	},
	{
		"rt": 573,
		"stimulus": "tela",
		"response": "s",
		"class": "n",
		"status": "noncog",
		"answer": "word",
		"correct": "S",
		"trial": "exp",
		"letters": "4",
		"trial_type": "html-keyboard-response",
		"trial_index": 293,
		"time_elapsed": 411119,
		"internal_node_id": "0.0-3.0-1.138"
	},
	{
		"rt": null,
		"stimulus": "+",
		"response": null,
		"trial_type": "html-keyboard-response",
		"trial_index": 294,
		"time_elapsed": 411622,
		"internal_node_id": "0.0-3.0-0.139"
	},
	{
		"rt": 529,
		"stimulus": "ótimo",
		"response": "s",
		"class": "a",
		"status": "noncog",
		"answer": "word",
		"correct": "S",
		"trial": "exp",
		"letters": "5",
		"trial_type": "html-keyboard-response",
		"trial_index": 295,
		"time_elapsed": 412152,
		"internal_node_id": "0.0-3.0-1.139"
	},
	{
		"rt": null,
		"stimulus": "+",
		"response": null,
		"trial_type": "html-keyboard-response",
		"trial_index": 296,
		"time_elapsed": 412660,
		"internal_node_id": "0.0-3.0-0.140"
	},
	{
		"rt": 903,
		"stimulus": "cascata",
		"response": "n",
		"class": "n",
		"status": "noncog",
		"answer": "word",
		"correct": "S",
		"trial": "exp",
		"letters": "7",
		"trial_type": "html-keyboard-response",
		"trial_index": 297,
		"time_elapsed": 413564,
		"internal_node_id": "0.0-3.0-1.140"
	},
	{
		"rt": null,
		"stimulus": "+",
		"response": null,
		"trial_type": "html-keyboard-response",
		"trial_index": 298,
		"time_elapsed": 414077,
		"internal_node_id": "0.0-3.0-0.141"
	},
	{
		"rt": 641,
		"stimulus": "nervoso",
		"response": "s",
		"class": "a",
		"status": "noncog",
		"answer": "word",
		"correct": "S",
		"trial": "exp",
		"letters": "7",
		"trial_type": "html-keyboard-response",
		"trial_index": 299,
		"time_elapsed": 414719,
		"internal_node_id": "0.0-3.0-1.141"
	},
	{
		"rt": null,
		"stimulus": "+",
		"response": null,
		"trial_type": "html-keyboard-response",
		"trial_index": 300,
		"time_elapsed": 415232,
		"internal_node_id": "0.0-3.0-0.142"
	},
	{
		"rt": 703,
		"stimulus": "morija",
		"response": "n",
		"class": "null",
		"status": "noncog",
		"answer": "pseudo",
		"correct": "N",
		"trial": "exp",
		"letters": "null",
		"trial_type": "html-keyboard-response",
		"trial_index": 301,
		"time_elapsed": 415936,
		"internal_node_id": "0.0-3.0-1.142"
	},
	{
		"rt": null,
		"stimulus": "+",
		"response": null,
		"trial_type": "html-keyboard-response",
		"trial_index": 302,
		"time_elapsed": 416450,
		"internal_node_id": "0.0-3.0-0.143"
	},
	{
		"rt": 859,
		"stimulus": "telafonir",
		"response": "n",
		"class": "null",
		"status": "noncog",
		"answer": "pseudo",
		"correct": "N",
		"trial": "exp",
		"letters": "null",
		"trial_type": "html-keyboard-response",
		"trial_index": 303,
		"time_elapsed": 417311,
		"internal_node_id": "0.0-3.0-1.143"
	},
	{
		"rt": null,
		"stimulus": "+",
		"response": null,
		"trial_type": "html-keyboard-response",
		"trial_index": 304,
		"time_elapsed": 417827,
		"internal_node_id": "0.0-3.0-0.144"
	},
	{
		"rt": 1036,
		"stimulus": "sustentar",
		"response": "s",
		"class": "v",
		"status": "noncog",
		"answer": "word",
		"correct": "S",
		"trial": "exp",
		"letters": "9",
		"trial_type": "html-keyboard-response",
		"trial_index": 305,
		"time_elapsed": 418864,
		"internal_node_id": "0.0-3.0-1.144"
	},
	{
		"rt": null,
		"stimulus": "+",
		"response": null,
		"trial_type": "html-keyboard-response",
		"trial_index": 306,
		"time_elapsed": 419376,
		"internal_node_id": "0.0-3.0-0.145"
	},
	{
		"rt": 641,
		"stimulus": "aletiê",
		"response": "n",
		"class": "null",
		"status": "noncog",
		"answer": "pseudo",
		"correct": "N",
		"trial": "exp",
		"letters": "null",
		"trial_type": "html-keyboard-response",
		"trial_index": 307,
		"time_elapsed": 420018,
		"internal_node_id": "0.0-3.0-1.145"
	},
	{
		"rt": null,
		"stimulus": "+",
		"response": null,
		"trial_type": "html-keyboard-response",
		"trial_index": 308,
		"time_elapsed": 420521,
		"internal_node_id": "0.0-3.0-0.146"
	},
	{
		"rt": 918,
		"stimulus": "motre",
		"response": "n",
		"class": "null",
		"status": "noncog",
		"answer": "pseudo",
		"correct": "N",
		"trial": "exp",
		"letters": "null",
		"trial_type": "html-keyboard-response",
		"trial_index": 309,
		"time_elapsed": 421439,
		"internal_node_id": "0.0-3.0-1.146"
	},
	{
		"rt": null,
		"stimulus": "+",
		"response": null,
		"trial_type": "html-keyboard-response",
		"trial_index": 310,
		"time_elapsed": 421951,
		"internal_node_id": "0.0-3.0-0.147"
	},
	{
		"rt": 706,
		"stimulus": "carona",
		"response": "s",
		"class": "n",
		"status": "noncog",
		"answer": "word",
		"correct": "S",
		"trial": "exp",
		"letters": "6",
		"trial_type": "html-keyboard-response",
		"trial_index": 311,
		"time_elapsed": 422658,
		"internal_node_id": "0.0-3.0-1.147"
	},
	{
		"rt": null,
		"stimulus": "+",
		"response": null,
		"trial_type": "html-keyboard-response",
		"trial_index": 312,
		"time_elapsed": 423166,
		"internal_node_id": "0.0-3.0-0.148"
	},
	{
		"rt": 668,
		"stimulus": "país",
		"response": "s",
		"class": "n",
		"status": "noncog",
		"answer": "word",
		"correct": "S",
		"trial": "exp",
		"letters": "4",
		"trial_type": "html-keyboard-response",
		"trial_index": 313,
		"time_elapsed": 423835,
		"internal_node_id": "0.0-3.0-1.148"
	},
	{
		"rt": null,
		"stimulus": "+",
		"response": null,
		"trial_type": "html-keyboard-response",
		"trial_index": 314,
		"time_elapsed": 424351,
		"internal_node_id": "0.0-3.0-0.149"
	},
	{
		"rt": 2169,
		"stimulus": "resmungar",
		"response": "s",
		"class": "v",
		"status": "noncog",
		"answer": "word",
		"correct": "S",
		"trial": "exp",
		"letters": "9",
		"trial_type": "html-keyboard-response",
		"trial_index": 315,
		"time_elapsed": 426520,
		"internal_node_id": "0.0-3.0-1.149"
	},
	{
		"rt": null,
		"stimulus": "+",
		"response": null,
		"trial_type": "html-keyboard-response",
		"trial_index": 316,
		"time_elapsed": 427024,
		"internal_node_id": "0.0-3.0-0.150"
	},
	{
		"rt": 1207,
		"stimulus": "enxerido",
		"response": "s",
		"class": "a",
		"status": "noncog",
		"answer": "word",
		"correct": "S",
		"trial": "exp",
		"letters": "8",
		"trial_type": "html-keyboard-response",
		"trial_index": 317,
		"time_elapsed": 428233,
		"internal_node_id": "0.0-3.0-1.150"
	},
	{
		"rt": null,
		"stimulus": "+",
		"response": null,
		"trial_type": "html-keyboard-response",
		"trial_index": 318,
		"time_elapsed": 428741,
		"internal_node_id": "0.0-3.0-0.151"
	},
	{
		"rt": 1178,
		"stimulus": "multiplicar",
		"response": "s",
		"class": "v",
		"status": "cog",
		"answer": "word",
		"correct": "S",
		"trial": "exp",
		"letters": "11",
		"trial_type": "html-keyboard-response",
		"trial_index": 319,
		"time_elapsed": 429920,
		"internal_node_id": "0.0-3.0-1.151"
	},
	{
		"rt": null,
		"stimulus": "+",
		"response": null,
		"trial_type": "html-keyboard-response",
		"trial_index": 320,
		"time_elapsed": 430432,
		"internal_node_id": "0.0-3.0-0.152"
	},
	{
		"rt": 660,
		"stimulus": "raspar",
		"response": "s",
		"class": "v",
		"status": "noncog",
		"answer": "word",
		"correct": "S",
		"trial": "exp",
		"letters": "6",
		"trial_type": "html-keyboard-response",
		"trial_index": 321,
		"time_elapsed": 431093,
		"internal_node_id": "0.0-3.0-1.152"
	},
	{
		"rt": null,
		"stimulus": "+",
		"response": null,
		"trial_type": "html-keyboard-response",
		"trial_index": 322,
		"time_elapsed": 431597,
		"internal_node_id": "0.0-3.0-0.153"
	},
	{
		"rt": 570,
		"stimulus": "hedoru",
		"response": "n",
		"class": "null",
		"status": "noncog",
		"answer": "pseudo",
		"correct": "N",
		"trial": "exp",
		"letters": "null",
		"trial_type": "html-keyboard-response",
		"trial_index": 323,
		"time_elapsed": 432169,
		"internal_node_id": "0.0-3.0-1.153"
	},
	{
		"rt": null,
		"stimulus": "+",
		"response": null,
		"trial_type": "html-keyboard-response",
		"trial_index": 324,
		"time_elapsed": 432684,
		"internal_node_id": "0.0-3.0-0.154"
	},
	{
		"rt": 537,
		"stimulus": "jantar",
		"response": "s",
		"class": "v",
		"status": "noncog",
		"answer": "word",
		"correct": "S",
		"trial": "exp",
		"letters": "6",
		"trial_type": "html-keyboard-response",
		"trial_index": 325,
		"time_elapsed": 433220,
		"internal_node_id": "0.0-3.0-1.154"
	},
	{
		"rt": null,
		"stimulus": "+",
		"response": null,
		"trial_type": "html-keyboard-response",
		"trial_index": 326,
		"time_elapsed": 433729,
		"internal_node_id": "0.0-3.0-0.155"
	},
	{
		"rt": 1162,
		"stimulus": "trenos",
		"response": "s",
		"class": "null",
		"status": "noncog",
		"answer": "pseudo",
		"correct": "N",
		"trial": "exp",
		"letters": "null",
		"trial_type": "html-keyboard-response",
		"trial_index": 327,
		"time_elapsed": 434892,
		"internal_node_id": "0.0-3.0-1.155"
	},
	{
		"rt": null,
		"stimulus": "+",
		"response": null,
		"trial_type": "html-keyboard-response",
		"trial_index": 328,
		"time_elapsed": 435402,
		"internal_node_id": "0.0-3.0-0.156"
	},
	{
		"rt": 1850,
		"stimulus": "cápsula",
		"response": "s",
		"class": "n",
		"status": "noncog",
		"answer": "word",
		"correct": "S",
		"trial": "exp",
		"letters": "7",
		"trial_type": "html-keyboard-response",
		"trial_index": 329,
		"time_elapsed": 437252,
		"internal_node_id": "0.0-3.0-1.156"
	},
	{
		"rt": null,
		"stimulus": "+",
		"response": null,
		"trial_type": "html-keyboard-response",
		"trial_index": 330,
		"time_elapsed": 437760,
		"internal_node_id": "0.0-3.0-0.157"
	},
	{
		"rt": 701,
		"stimulus": "nome",
		"response": "s",
		"class": "n",
		"status": "cog",
		"answer": "word",
		"correct": "S",
		"trial": "exp",
		"letters": "4",
		"trial_type": "html-keyboard-response",
		"trial_index": 331,
		"time_elapsed": 438461,
		"internal_node_id": "0.0-3.0-1.157"
	},
	{
		"rt": null,
		"stimulus": "+",
		"response": null,
		"trial_type": "html-keyboard-response",
		"trial_index": 332,
		"time_elapsed": 438972,
		"internal_node_id": "0.0-3.0-0.158"
	},
	{
		"rt": 788,
		"stimulus": "papai",
		"response": "s",
		"class": "n",
		"status": "cog",
		"answer": "word",
		"correct": "S",
		"trial": "exp",
		"letters": "5",
		"trial_type": "html-keyboard-response",
		"trial_index": 333,
		"time_elapsed": 439760,
		"internal_node_id": "0.0-3.0-1.158"
	},
	{
		"rt": null,
		"stimulus": "+",
		"response": null,
		"trial_type": "html-keyboard-response",
		"trial_index": 334,
		"time_elapsed": 440267,
		"internal_node_id": "0.0-3.0-0.159"
	},
	{
		"rt": 632,
		"stimulus": "mania",
		"response": "s",
		"class": "n",
		"status": "cog",
		"answer": "word",
		"correct": "S",
		"trial": "exp",
		"letters": "5",
		"trial_type": "html-keyboard-response",
		"trial_index": 335,
		"time_elapsed": 440900,
		"internal_node_id": "0.0-3.0-1.159"
	},
	{
		"rt": null,
		"stimulus": "+",
		"response": null,
		"trial_type": "html-keyboard-response",
		"trial_index": 336,
		"time_elapsed": 441407,
		"internal_node_id": "0.0-3.0-0.160"
	},
	{
		"rt": 1208,
		"stimulus": "vervas",
		"response": "n",
		"class": "null",
		"status": "noncog",
		"answer": "pseudo",
		"correct": "N",
		"trial": "exp",
		"letters": "null",
		"trial_type": "html-keyboard-response",
		"trial_index": 337,
		"time_elapsed": 442616,
		"internal_node_id": "0.0-3.0-1.160"
	},
	{
		"rt": null,
		"stimulus": "+",
		"response": null,
		"trial_type": "html-keyboard-response",
		"trial_index": 338,
		"time_elapsed": 443128,
		"internal_node_id": "0.0-3.0-0.161"
	},
	{
		"rt": 2511,
		"stimulus": "aivões",
		"response": "n",
		"class": "null",
		"status": "noncog",
		"answer": "pseudo",
		"correct": "N",
		"trial": "exp",
		"letters": "null",
		"trial_type": "html-keyboard-response",
		"trial_index": 339,
		"time_elapsed": 445640,
		"internal_node_id": "0.0-3.0-1.161"
	},
	{
		"rt": null,
		"stimulus": "+",
		"response": null,
		"trial_type": "html-keyboard-response",
		"trial_index": 340,
		"time_elapsed": 446152,
		"internal_node_id": "0.0-3.0-0.162"
	},
	{
		"rt": 1576,
		"stimulus": "promessa",
		"response": "s",
		"class": "n",
		"status": "noncog",
		"answer": "word",
		"correct": "S",
		"trial": "exp",
		"letters": "8",
		"trial_type": "html-keyboard-response",
		"trial_index": 341,
		"time_elapsed": 447728,
		"internal_node_id": "0.0-3.0-1.162"
	},
	{
		"rt": null,
		"stimulus": "+",
		"response": null,
		"trial_type": "html-keyboard-response",
		"trial_index": 342,
		"time_elapsed": 448232,
		"internal_node_id": "0.0-3.0-0.163"
	},
	{
		"rt": 598,
		"stimulus": "viver",
		"response": "s",
		"class": "v",
		"status": "cog",
		"answer": "word",
		"correct": "S",
		"trial": "exp",
		"letters": "5",
		"trial_type": "html-keyboard-response",
		"trial_index": 343,
		"time_elapsed": 448830,
		"internal_node_id": "0.0-3.0-1.163"
	},
	{
		"rt": null,
		"stimulus": "+",
		"response": null,
		"trial_type": "html-keyboard-response",
		"trial_index": 344,
		"time_elapsed": 449334,
		"internal_node_id": "0.0-3.0-0.164"
	},
	{
		"rt": 846,
		"stimulus": "convidado",
		"response": "s",
		"class": "n",
		"status": "noncog",
		"answer": "word",
		"correct": "S",
		"trial": "exp",
		"letters": "9",
		"trial_type": "html-keyboard-response",
		"trial_index": 345,
		"time_elapsed": 450181,
		"internal_node_id": "0.0-3.0-1.164"
	},
	{
		"rt": null,
		"stimulus": "+",
		"response": null,
		"trial_type": "html-keyboard-response",
		"trial_index": 346,
		"time_elapsed": 450683,
		"internal_node_id": "0.0-3.0-0.165"
	},
	{
		"rt": 514,
		"stimulus": "chato",
		"response": "s",
		"class": "n",
		"status": "noncog",
		"answer": "word",
		"correct": "S",
		"trial": "exp",
		"letters": "5",
		"trial_type": "html-keyboard-response",
		"trial_index": 347,
		"time_elapsed": 451198,
		"internal_node_id": "0.0-3.0-1.165"
	},
	{
		"rt": null,
		"stimulus": "+",
		"response": null,
		"trial_type": "html-keyboard-response",
		"trial_index": 348,
		"time_elapsed": 451710,
		"internal_node_id": "0.0-3.0-0.166"
	},
	{
		"rt": 1028,
		"stimulus": "nivelado",
		"response": "n",
		"class": "a",
		"status": "cog",
		"answer": "word",
		"correct": "S",
		"trial": "exp",
		"letters": "8",
		"trial_type": "html-keyboard-response",
		"trial_index": 349,
		"time_elapsed": 452738,
		"internal_node_id": "0.0-3.0-1.166"
	},
	{
		"rt": null,
		"stimulus": "+",
		"response": null,
		"trial_type": "html-keyboard-response",
		"trial_index": 350,
		"time_elapsed": 453250,
		"internal_node_id": "0.0-3.0-0.167"
	},
	{
		"rt": 1422,
		"stimulus": "filosofia",
		"response": "s",
		"class": "n",
		"status": "cog",
		"answer": "word",
		"correct": "S",
		"trial": "exp",
		"letters": "9",
		"trial_type": "html-keyboard-response",
		"trial_index": 351,
		"time_elapsed": 454674,
		"internal_node_id": "0.0-3.0-1.167"
	},
	{
		"rt": null,
		"stimulus": "+",
		"response": null,
		"trial_type": "html-keyboard-response",
		"trial_index": 352,
		"time_elapsed": 455176,
		"internal_node_id": "0.0-3.0-0.168"
	},
	{
		"rt": 1131,
		"stimulus": "senareta",
		"response": "n",
		"class": "null",
		"status": "noncog",
		"answer": "pseudo",
		"correct": "N",
		"trial": "exp",
		"letters": "null",
		"trial_type": "html-keyboard-response",
		"trial_index": 353,
		"time_elapsed": 456308,
		"internal_node_id": "0.0-3.0-1.168"
	},
	{
		"rt": null,
		"stimulus": "+",
		"response": null,
		"trial_type": "html-keyboard-response",
		"trial_index": 354,
		"time_elapsed": 456813,
		"internal_node_id": "0.0-3.0-0.169"
	},
	{
		"rt": 787,
		"stimulus": "usnado",
		"response": "n",
		"class": "null",
		"status": "noncog",
		"answer": "pseudo",
		"correct": "N",
		"trial": "exp",
		"letters": "null",
		"trial_type": "html-keyboard-response",
		"trial_index": 355,
		"time_elapsed": 457603,
		"internal_node_id": "0.0-3.0-1.169"
	},
	{
		"rt": null,
		"stimulus": "+",
		"response": null,
		"trial_type": "html-keyboard-response",
		"trial_index": 356,
		"time_elapsed": 458112,
		"internal_node_id": "0.0-3.0-0.170"
	},
	{
		"rt": 1080,
		"stimulus": "planalto",
		"response": "n",
		"class": "n",
		"status": "cog",
		"answer": "word",
		"correct": "S",
		"trial": "exp",
		"letters": "8",
		"trial_type": "html-keyboard-response",
		"trial_index": 357,
		"time_elapsed": 459191,
		"internal_node_id": "0.0-3.0-1.170"
	},
	{
		"rt": null,
		"stimulus": "+",
		"response": null,
		"trial_type": "html-keyboard-response",
		"trial_index": 358,
		"time_elapsed": 459693,
		"internal_node_id": "0.0-3.0-0.171"
	},
	{
		"rt": 680,
		"stimulus": "alfabeto",
		"response": "s",
		"class": "n",
		"status": "cog",
		"answer": "word",
		"correct": "S",
		"trial": "exp",
		"letters": "8",
		"trial_type": "html-keyboard-response",
		"trial_index": 359,
		"time_elapsed": 460374,
		"internal_node_id": "0.0-3.0-1.171"
	},
	{
		"rt": null,
		"stimulus": "+",
		"response": null,
		"trial_type": "html-keyboard-response",
		"trial_index": 360,
		"time_elapsed": 460880,
		"internal_node_id": "0.0-3.0-0.172"
	},
	{
		"rt": 737,
		"stimulus": "melão",
		"response": "s",
		"class": "n",
		"status": "cog",
		"answer": "word",
		"correct": "S",
		"trial": "exp",
		"letters": "5",
		"trial_type": "html-keyboard-response",
		"trial_index": 361,
		"time_elapsed": 461618,
		"internal_node_id": "0.0-3.0-1.172"
	},
	{
		"rt": null,
		"stimulus": "+",
		"response": null,
		"trial_type": "html-keyboard-response",
		"trial_index": 362,
		"time_elapsed": 462133,
		"internal_node_id": "0.0-3.0-0.173"
	},
	{
		"rt": 716,
		"stimulus": "abieso",
		"response": "n",
		"class": "null",
		"status": "noncog",
		"answer": "pseudo",
		"correct": "N",
		"trial": "exp",
		"letters": "null",
		"trial_type": "html-keyboard-response",
		"trial_index": 363,
		"time_elapsed": 462850,
		"internal_node_id": "0.0-3.0-1.173"
	},
	{
		"rt": null,
		"stimulus": "+",
		"response": null,
		"trial_type": "html-keyboard-response",
		"trial_index": 364,
		"time_elapsed": 463354,
		"internal_node_id": "0.0-3.0-0.174"
	},
	{
		"rt": 675,
		"stimulus": "ocinto",
		"response": "s",
		"class": "null",
		"status": "noncog",
		"answer": "pseudo",
		"correct": "N",
		"trial": "exp",
		"letters": "null",
		"trial_type": "html-keyboard-response",
		"trial_index": 365,
		"time_elapsed": 464030,
		"internal_node_id": "0.0-3.0-1.174"
	},
	{
		"rt": null,
		"stimulus": "+",
		"response": null,
		"trial_type": "html-keyboard-response",
		"trial_index": 366,
		"time_elapsed": 464536,
		"internal_node_id": "0.0-3.0-0.175"
	},
	{
		"rt": 2497,
		"stimulus": "disbrituir",
		"response": "n",
		"class": "null",
		"status": "noncog",
		"answer": "pseudo",
		"correct": "N",
		"trial": "exp",
		"letters": "null",
		"trial_type": "html-keyboard-response",
		"trial_index": 367,
		"time_elapsed": 467034,
		"internal_node_id": "0.0-3.0-1.175"
	},
	{
		"rt": null,
		"stimulus": "+",
		"response": null,
		"trial_type": "html-keyboard-response",
		"trial_index": 368,
		"time_elapsed": 467545,
		"internal_node_id": "0.0-3.0-0.176"
	},
	{
		"rt": 1168,
		"stimulus": "fusbão",
		"response": "n",
		"class": "null",
		"status": "noncog",
		"answer": "pseudo",
		"correct": "N",
		"trial": "exp",
		"letters": "null",
		"trial_type": "html-keyboard-response",
		"trial_index": 369,
		"time_elapsed": 468715,
		"internal_node_id": "0.0-3.0-1.176"
	},
	{
		"rt": null,
		"stimulus": "+",
		"response": null,
		"trial_type": "html-keyboard-response",
		"trial_index": 370,
		"time_elapsed": 469221,
		"internal_node_id": "0.0-3.0-0.177"
	},
	{
		"rt": 743,
		"stimulus": "oricia",
		"response": "n",
		"class": "null",
		"status": "noncog",
		"answer": "pseudo",
		"correct": "N",
		"trial": "exp",
		"letters": "null",
		"trial_type": "html-keyboard-response",
		"trial_index": 371,
		"time_elapsed": 469965,
		"internal_node_id": "0.0-3.0-1.177"
	},
	{
		"rt": null,
		"stimulus": "+",
		"response": null,
		"trial_type": "html-keyboard-response",
		"trial_index": 372,
		"time_elapsed": 470470,
		"internal_node_id": "0.0-3.0-0.178"
	},
	{
		"rt": 721,
		"stimulus": "azul",
		"response": "s",
		"class": "n",
		"status": "noncog",
		"answer": "word",
		"correct": "S",
		"trial": "exp",
		"letters": "4",
		"trial_type": "html-keyboard-response",
		"trial_index": 373,
		"time_elapsed": 471193,
		"internal_node_id": "0.0-3.0-1.178"
	},
	{
		"rt": null,
		"stimulus": "+",
		"response": null,
		"trial_type": "html-keyboard-response",
		"trial_index": 374,
		"time_elapsed": 471704,
		"internal_node_id": "0.0-3.0-0.179"
	},
	{
		"rt": 694,
		"stimulus": "bandido",
		"response": "s",
		"class": "n",
		"status": "cog",
		"answer": "word",
		"correct": "S",
		"trial": "exp",
		"letters": "7",
		"trial_type": "html-keyboard-response",
		"trial_index": 375,
		"time_elapsed": 472399,
		"internal_node_id": "0.0-3.0-1.179"
	},
	{
		"rt": null,
		"stimulus": "+",
		"response": null,
		"trial_type": "html-keyboard-response",
		"trial_index": 376,
		"time_elapsed": 472910,
		"internal_node_id": "0.0-3.0-0.180"
	},
	{
		"rt": 618,
		"stimulus": "verde",
		"response": "s",
		"class": "a",
		"status": "noncog",
		"answer": "word",
		"correct": "S",
		"trial": "exp",
		"letters": "5",
		"trial_type": "html-keyboard-response",
		"trial_index": 377,
		"time_elapsed": 473528,
		"internal_node_id": "0.0-3.0-1.180"
	},
	{
		"rt": null,
		"stimulus": "+",
		"response": null,
		"trial_type": "html-keyboard-response",
		"trial_index": 378,
		"time_elapsed": 474032,
		"internal_node_id": "0.0-3.0-0.181"
	},
	{
		"rt": 1811,
		"stimulus": "instruído",
		"response": "s",
		"class": "a",
		"status": "noncog",
		"answer": "word",
		"correct": "S",
		"trial": "exp",
		"letters": "9",
		"trial_type": "html-keyboard-response",
		"trial_index": 379,
		"time_elapsed": 475845,
		"internal_node_id": "0.0-3.0-1.181"
	},
	{
		"rt": null,
		"stimulus": "+",
		"response": null,
		"trial_type": "html-keyboard-response",
		"trial_index": 380,
		"time_elapsed": 476347,
		"internal_node_id": "0.0-3.0-0.182"
	},
	{
		"rt": 842,
		"stimulus": "distraído",
		"response": "s",
		"class": "a",
		"status": "cog",
		"answer": "word",
		"correct": "S",
		"trial": "exp",
		"letters": "9",
		"trial_type": "html-keyboard-response",
		"trial_index": 381,
		"time_elapsed": 477190,
		"internal_node_id": "0.0-3.0-1.182"
	},
	{
		"rt": null,
		"stimulus": "+",
		"response": null,
		"trial_type": "html-keyboard-response",
		"trial_index": 382,
		"time_elapsed": 477708,
		"internal_node_id": "0.0-3.0-0.183"
	},
	{
		"rt": 903,
		"stimulus": "quenzina",
		"response": "n",
		"class": "null",
		"status": "noncog",
		"answer": "pseudo",
		"correct": "N",
		"trial": "exp",
		"letters": "null",
		"trial_type": "html-keyboard-response",
		"trial_index": 383,
		"time_elapsed": 478611,
		"internal_node_id": "0.0-3.0-1.183"
	},
	{
		"rt": null,
		"stimulus": "+",
		"response": null,
		"trial_type": "html-keyboard-response",
		"trial_index": 384,
		"time_elapsed": 479119,
		"internal_node_id": "0.0-3.0-0.184"
	},
	{
		"rt": 1153,
		"stimulus": "gertas",
		"response": "n",
		"class": "null",
		"status": "noncog",
		"answer": "pseudo",
		"correct": "N",
		"trial": "exp",
		"letters": "null",
		"trial_type": "html-keyboard-response",
		"trial_index": 385,
		"time_elapsed": 480274,
		"internal_node_id": "0.0-3.0-1.184"
	},
	{
		"rt": null,
		"stimulus": "+",
		"response": null,
		"trial_type": "html-keyboard-response",
		"trial_index": 386,
		"time_elapsed": 480785,
		"internal_node_id": "0.0-3.0-0.185"
	},
	{
		"rt": 613,
		"stimulus": "civil",
		"response": "s",
		"class": "a",
		"status": "cog",
		"answer": "word",
		"correct": "S",
		"trial": "exp",
		"letters": "5",
		"trial_type": "html-keyboard-response",
		"trial_index": 387,
		"time_elapsed": 481399,
		"internal_node_id": "0.0-3.0-1.185"
	},
	{
		"rt": null,
		"stimulus": "+",
		"response": null,
		"trial_type": "html-keyboard-response",
		"trial_index": 388,
		"time_elapsed": 481902,
		"internal_node_id": "0.0-3.0-0.186"
	},
	{
		"rt": 906,
		"stimulus": "esfoce",
		"response": "n",
		"class": "null",
		"status": "noncog",
		"answer": "pseudo",
		"correct": "N",
		"trial": "exp",
		"letters": "null",
		"trial_type": "html-keyboard-response",
		"trial_index": 389,
		"time_elapsed": 482811,
		"internal_node_id": "0.0-3.0-1.186"
	},
	{
		"rt": null,
		"stimulus": "+",
		"response": null,
		"trial_type": "html-keyboard-response",
		"trial_index": 390,
		"time_elapsed": 483326,
		"internal_node_id": "0.0-3.0-0.187"
	},
	{
		"rt": 1090,
		"stimulus": "montanha",
		"response": "s",
		"class": "n",
		"status": "cog",
		"answer": "word",
		"correct": "S",
		"trial": "exp",
		"letters": "8",
		"trial_type": "html-keyboard-response",
		"trial_index": 391,
		"time_elapsed": 484418,
		"internal_node_id": "0.0-3.0-1.187"
	},
	{
		"rt": null,
		"stimulus": "+",
		"response": null,
		"trial_type": "html-keyboard-response",
		"trial_index": 392,
		"time_elapsed": 484921,
		"internal_node_id": "0.0-3.0-0.188"
	},
	{
		"rt": 1173,
		"stimulus": "fasdas",
		"response": "n",
		"class": "null",
		"status": "noncog",
		"answer": "pseudo",
		"correct": "N",
		"trial": "exp",
		"letters": "null",
		"trial_type": "html-keyboard-response",
		"trial_index": 393,
		"time_elapsed": 486096,
		"internal_node_id": "0.0-3.0-1.188"
	},
	{
		"rt": null,
		"stimulus": "+",
		"response": null,
		"trial_type": "html-keyboard-response",
		"trial_index": 394,
		"time_elapsed": 486605,
		"internal_node_id": "0.0-3.0-0.189"
	},
	{
		"rt": 889,
		"stimulus": "pantufa",
		"response": "n",
		"class": "n",
		"status": "cog",
		"answer": "word",
		"correct": "S",
		"trial": "exp",
		"letters": "7",
		"trial_type": "html-keyboard-response",
		"trial_index": 395,
		"time_elapsed": 487496,
		"internal_node_id": "0.0-3.0-1.189"
	},
	{
		"rt": null,
		"stimulus": "+",
		"response": null,
		"trial_type": "html-keyboard-response",
		"trial_index": 396,
		"time_elapsed": 488006,
		"internal_node_id": "0.0-3.0-0.190"
	},
	{
		"rt": 2337,
		"stimulus": "imitar",
		"response": "s",
		"class": "v",
		"status": "cog",
		"answer": "word",
		"correct": "S",
		"trial": "exp",
		"letters": "6",
		"trial_type": "html-keyboard-response",
		"trial_index": 397,
		"time_elapsed": 490345,
		"internal_node_id": "0.0-3.0-1.190"
	},
	{
		"rt": null,
		"stimulus": "+",
		"response": null,
		"trial_type": "html-keyboard-response",
		"trial_index": 398,
		"time_elapsed": 490848,
		"internal_node_id": "0.0-3.0-0.191"
	},
	{
		"rt": 794,
		"stimulus": "morno",
		"response": "s",
		"class": "a",
		"status": "noncog",
		"answer": "word",
		"correct": "S",
		"trial": "exp",
		"letters": "5",
		"trial_type": "html-keyboard-response",
		"trial_index": 399,
		"time_elapsed": 491643,
		"internal_node_id": "0.0-3.0-1.191"
	},
	{
		"rt": null,
		"stimulus": "+",
		"response": null,
		"trial_type": "html-keyboard-response",
		"trial_index": 400,
		"time_elapsed": 492156,
		"internal_node_id": "0.0-3.0-0.192"
	},
	{
		"rt": 1113,
		"stimulus": "detative",
		"response": "n",
		"class": "null",
		"status": "noncog",
		"answer": "pseudo",
		"correct": "N",
		"trial": "exp",
		"letters": "null",
		"trial_type": "html-keyboard-response",
		"trial_index": 401,
		"time_elapsed": 493271,
		"internal_node_id": "0.0-3.0-1.192"
	},
	{
		"rt": null,
		"stimulus": "+",
		"response": null,
		"trial_type": "html-keyboard-response",
		"trial_index": 402,
		"time_elapsed": 493785,
		"internal_node_id": "0.0-3.0-0.193"
	},
	{
		"rt": 1036,
		"stimulus": "fratos",
		"response": "n",
		"class": "null",
		"status": "noncog",
		"answer": "pseudo",
		"correct": "N",
		"trial": "exp",
		"letters": "null",
		"trial_type": "html-keyboard-response",
		"trial_index": 403,
		"time_elapsed": 494823,
		"internal_node_id": "0.0-3.0-1.193"
	},
	{
		"rt": null,
		"stimulus": "+",
		"response": null,
		"trial_type": "html-keyboard-response",
		"trial_index": 404,
		"time_elapsed": 495327,
		"internal_node_id": "0.0-3.0-0.194"
	},
	{
		"rt": 1222,
		"stimulus": "manfa",
		"response": "n",
		"class": "null",
		"status": "noncog",
		"answer": "pseudo",
		"correct": "N",
