"view_history","rt","trial_type","trial_index","time_elapsed","internal_node_id","stimulus","response","portuguese","kreyol"
"[{""page_index"":0,""viewing_time"":2839}]","2839","instructions","0","2844","0.0-0.0","","","",""
"","null","html-keyboard-response","1","3463","0.0-1.0-0.0","+","null","",""
"","3800","audio-keyboard-response","2","7774","0.0-1.0-1.0","../audio/teste-vocab--37.mp3","s","músico","mizisyen"
"","null","html-keyboard-response","3","8289","0.0-1.0-0.1","+","null","",""
"","3240","audio-keyboard-response","4","11778","0.0-1.0-1.1","../audio/teste-vocab--95.mp3","s","submergir","plonje"
"","null","html-keyboard-response","5","12289","0.0-1.0-0.2","+","null","",""
"","2429","audio-keyboard-response","6","14976","0.0-1.0-1.2","../audio/teste-vocab--55.mp3","s","bosque","forè"
"","null","html-keyboard-response","7","15479","0.0-1.0-0.3","+","null","",""
"","2411","audio-keyboard-response","8","18152","0.0-1.0-1.3","../audio/teste-vocab--62.mp3","s","carretel","bobin"
"","null","html-keyboard-response","9","18664","0.0-1.0-0.4","+","null","",""
"","1781","audio-keyboard-response","10","20789","0.0-1.0-1.4","../audio/teste-vocab--16.mp3","s","pescoço","kou"
"","null","html-keyboard-response","11","21292","0.0-1.0-0.5","+","null","",""
"","1909","audio-keyboard-response","12","24656","0.0-1.0-1.5","../audio/teste-vocab--97.mp3","s","frágil","frajil"
"","null","html-keyboard-response","13","25169","0.0-1.0-0.6","+","null","",""
"","2880","audio-keyboard-response","14","28264","0.0-1.0-1.6","../audio/teste-vocab--73.mp3","n","ângulo","ang"
"","null","html-keyboard-response","15","28775","0.0-1.0-0.7","+","null","",""
"","2520","audio-keyboard-response","16","31779","0.0-1.0-1.7","../audio/teste-vocab--65.mp3","s","discussão","diskisyon"
"","null","html-keyboard-response","17","32285","0.0-1.0-0.8","+","null","",""
"","3680","audio-keyboard-response","18","36293","0.0-1.0-1.8","../audio/teste-vocab--127.mp3","n","côncavo","konkav"
"","null","html-keyboard-response","19","36804","0.0-1.0-0.9","+","null","",""
"","5389","audio-keyboard-response","20","42626","0.0-1.0-1.9","../audio/teste-vocab--67.mp3","n","corrimão","ranp"
"","null","html-keyboard-response","21","43132","0.0-1.0-0.10","+","null","",""
"","2549","audio-keyboard-response","22","45969","0.0-1.0-1.10","../audio/teste-vocab--128.mp3","s","incisivo","ensisiv"
"","null","html-keyboard-response","23","46474","0.0-1.0-0.11","+","null","",""
"","2360","audio-keyboard-response","24","49122","0.0-1.0-1.11","../audio/teste-vocab--08.mp3","s","vaca","vach"
"","null","html-keyboard-response","25","49634","0.0-1.0-0.12","+","null","",""
"","3600","audio-keyboard-response","26","53582","0.0-1.0-1.12","../audio/teste-vocab--19.mp3","n","hora","è"
"","null","html-keyboard-response","27","54086","0.0-1.0-0.13","+","null","",""
"","2269","audio-keyboard-response","28","56632","0.0-1.0-1.13","../audio/teste-vocab--01.mp3","s","boneca","pope"
"","null","html-keyboard-response","29","57149","0.0-1.0-0.14","+","null","",""
"","5101","audio-keyboard-response","30","62607","0.0-1.0-1.14","../audio/teste-vocab--94.mp3","n","paralelo","paralèl"
"","null","html-keyboard-response","31","63122","0.0-1.0-0.15","+","null","",""
"","2040","audio-keyboard-response","32","65521","0.0-1.0-1.15","../audio/teste-vocab--44.mp3","s","premiar","rekonpanse"
"","null","html-keyboard-response","33","66032","0.0-1.0-0.16","+","null","",""
"","1661","audio-keyboard-response","34","67997","0.0-1.0-1.16","../audio/teste-vocab--64.mp3","s","colher","kiyè"
"","null","html-keyboard-response","35","68510","0.0-1.0-0.17","+","null","",""
"","2128","audio-keyboard-response","36","70935","0.0-1.0-1.17","../audio/teste-vocab--122.mp3","s","transeunte","pasajè"
"","null","html-keyboard-response","37","71440","0.0-1.0-0.18","+","null","",""
"","1920","audio-keyboard-response","38","73626","0.0-1.0-1.18","../audio/teste-vocab--92.mp3","n","esférico","won"
"","null","html-keyboard-response","39","74127","0.0-1.0-0.19","+","null","",""
"","4120","audio-keyboard-response","40","78529","0.0-1.0-1.19","../audio/teste-vocab--89.mp3","n","classificar","klasifika"
"","null","html-keyboard-response","41","79040","0.0-1.0-0.20","+","null","",""
"","1909","audio-keyboard-response","42","81272","0.0-1.0-1.20","../audio/teste-vocab--13.mp3","s","ambulância","anbilans"
"","null","html-keyboard-response","43","81788","0.0-1.0-0.21","+","null","",""
"","2251","audio-keyboard-response","44","84281","0.0-1.0-1.21","../audio/teste-vocab--32.mp3","s","descascar","dekale"
"","null","html-keyboard-response","45","84785","0.0-1.0-0.22","+","null","",""
"","2579","audio-keyboard-response","46","87701","0.0-1.0-1.22","../audio/teste-vocab--04.mp3","n","roda","wonn"
"","null","html-keyboard-response","47","88213","0.0-1.0-0.23","+","null","",""
"","3672","audio-keyboard-response","48","92204","0.0-1.0-1.23","../audio/teste-vocab--117.mp3","s","córnea","kòn"
"","null","html-keyboard-response","49","92713","0.0-1.0-0.24","+","null","",""
"","2040","audio-keyboard-response","50","94997","0.0-1.0-1.24","../audio/teste-vocab--129.mp3","s","elipse","elips"
"","null","html-keyboard-response","51","95509","0.0-1.0-0.25","+","null","",""
"","2059","audio-keyboard-response","52","97891","0.0-1.0-1.25","../audio/teste-vocab--106.mp3","s","lubrificar","grese"
"","null","html-keyboard-response","53","98405","0.0-1.0-0.26","+","null","",""
"","1960","audio-keyboard-response","54","100609","0.0-1.0-1.26","../audio/teste-vocab--35.mp3","s","líquido","likid"
"","null","html-keyboard-response","55","101124","0.0-1.0-0.27","+","null","",""
"","2141","audio-keyboard-response","56","103517","0.0-1.0-1.27","../audio/teste-vocab--88.mp3","s","portátil","pòtab"
"","null","html-keyboard-response","57","104030","0.0-1.0-0.28","+","null","",""
"","2320","audio-keyboard-response","58","106628","0.0-1.0-1.28","../audio/teste-vocab--80.mp3","s","binóculo","longvi"
"","null","html-keyboard-response","59","107133","0.0-1.0-0.29","+","null","",""
"","2120","audio-keyboard-response","60","109604","0.0-1.0-1.29","../audio/teste-vocab--113.mp3","s","ascender","limen"
"","null","html-keyboard-response","61","110117","0.0-1.0-0.30","+","null","",""
"","2301","audio-keyboard-response","62","112676","0.0-1.0-1.30","../audio/teste-vocab--17.mp3","n","móvel","mobil"
"","null","html-keyboard-response","63","113184","0.0-1.0-0.31","+","null","",""
"","2579","audio-keyboard-response","64","116528","0.0-1.0-1.31","../audio/teste-vocab--101.mp3","n","incandescente","enkandesan"
"","null","html-keyboard-response","65","117041","0.0-1.0-0.32","+","null","",""
"","6341","audio-keyboard-response","66","123526","0.0-1.0-1.32","../audio/teste-vocab--82.mp3","n","roer","ronje"
"","null","html-keyboard-response","67","124046","0.0-1.0-0.33","+","null","",""
"","3251","audio-keyboard-response","68","127507","0.0-1.0-1.33","../audio/teste-vocab--74.mp3","n","desilusão","dezilizyon"
"","null","html-keyboard-response","69","128014","0.0-1.0-0.34","+","null","",""
"","2269","audio-keyboard-response","70","130528","0.0-1.0-1.34","../audio/teste-vocab--102.mp3","s","arrogante","arogan"
"","null","html-keyboard-response","71","131031","0.0-1.0-0.35","+","null","",""
"","2451","audio-keyboard-response","72","133721","0.0-1.0-1.35","../audio/teste-vocab--10.mp3","n","corneta","kòn"
"","null","html-keyboard-response","73","134223","0.0-1.0-0.36","+","null","",""
"","1749","audio-keyboard-response","74","136218","0.0-1.0-1.36","../audio/teste-vocab--02.mp3","s","homem","gason"
"","null","html-keyboard-response","75","136730","0.0-1.0-0.37","+","null","",""
"","1989","audio-keyboard-response","76","138990","0.0-1.0-1.37","../audio/teste-vocab--90.mp3","s","carniça","kanivò"
"","null","html-keyboard-response","77","139504","0.0-1.0-0.38","+","null","",""
"","3040","audio-keyboard-response","78","142872","0.0-1.0-1.38","../audio/teste-vocab--98.mp3","n","instruir","enstwi"
"","null","html-keyboard-response","79","143375","0.0-1.0-0.39","+","null","",""
"","2080","audio-keyboard-response","80","145737","0.0-1.0-1.39","../audio/teste-vocab--43.mp3","s","mecânico","mekanisyen"
"","null","html-keyboard-response","81","146245","0.0-1.0-0.40","+","null","",""
"","1909","audio-keyboard-response","82","148418","0.0-1.0-1.40","../audio/teste-vocab--107.mp3","n","elo","emay"
"","null","html-keyboard-response","83","148920","0.0-1.0-0.41","+","null","",""
"","3240","audio-keyboard-response","84","152426","0.0-1.0-1.41","../audio/teste-vocab--114.mp3","s","fragmentar","dechire"
"","null","html-keyboard-response","85","152934","0.0-1.0-0.42","+","null","",""
"","2371","audio-keyboard-response","86","155820","0.0-1.0-1.42","../audio/teste-vocab--93.mp3","n","felino","leopa"
"","null","html-keyboard-response","87","156328","0.0-1.0-0.43","+","null","",""
"","2419","audio-keyboard-response","88","159024","0.0-1.0-1.43","../audio/teste-vocab--96.mp3","n","árido","sechrès"
"","null","html-keyboard-response","89","159534","0.0-1.0-0.44","+","null","",""
"","2581","audio-keyboard-response","90","162365","0.0-1.0-1.44","../audio/teste-vocab--57.mp3","n","raiz","rasin"
"","null","html-keyboard-response","91","162880","0.0-1.0-0.45","+","null","",""
"","2469","audio-keyboard-response","92","165619","0.0-1.0-1.45","../audio/teste-vocab--70.mp3","n","funil","antónwa"
"","null","html-keyboard-response","93","166123","0.0-1.0-0.46","+","null","",""
"","3469","audio-keyboard-response","94","170019","0.0-1.0-1.46","../audio/teste-vocab--126.mp3","s","ambulante","promennen"
"","null","html-keyboard-response","95","170530","0.0-1.0-0.47","+","null","",""
"","2051","audio-keyboard-response","96","172843","0.0-1.0-1.47","../audio/teste-vocab--42.mp3","s","isolamento","izòlman"
"","null","html-keyboard-response","97","173346","0.0-1.0-0.48","+","null","",""
"","1720","audio-keyboard-response","98","175307","0.0-1.0-1.48","../audio/teste-vocab--14.mp3","s","ler","li"
"","null","html-keyboard-response","99","175823","0.0-1.0-0.49","+","null","",""
"","1771","audio-keyboard-response","100","177840","0.0-1.0-1.49","../audio/teste-vocab--79.mp3","s","moldura"," chanbranl"
"","null","html-keyboard-response","101","178354","0.0-1.0-0.50","+","null","",""
"","2120","audio-keyboard-response","102","180756","0.0-1.0-1.50","../audio/teste-vocab--50.mp3","s","artista","atis"
"","null","html-keyboard-response","103","181269","0.0-1.0-0.51","+","null","",""
"","1648","audio-keyboard-response","104","183169","0.0-1.0-1.51","../audio/teste-vocab--33.mp3","s","uniforme","inifòm"
"","null","html-keyboard-response","105","183682","0.0-1.0-0.52","+","null","",""
"","2339","audio-keyboard-response","106","186307","0.0-1.0-1.52","../audio/teste-vocab--85.mp3","n","trio","trio"
"","null","html-keyboard-response","107","186813","0.0-1.0-0.53","+","null","",""
"","2160","audio-keyboard-response","108","189286","0.0-1.0-1.53","../audio/teste-vocab--25.mp3","s","canguru","kanguwou"
"","null","html-keyboard-response","109","189788","0.0-1.0-0.54","+","null","",""
"","2611","audio-keyboard-response","110","192673","0.0-1.0-1.54","../audio/teste-vocab--51.mp3","s","recolher","kolekte"
"","null","html-keyboard-response","111","193178","0.0-1.0-0.55","+","null","",""
"","1851","audio-keyboard-response","112","195274","0.0-1.0-1.55","../audio/teste-vocab--11.mp3","s","joelho","jenou"
"","null","html-keyboard-response","113","195783","0.0-1.0-0.56","+","null","",""
"","1611","audio-keyboard-response","114","197639","0.0-1.0-1.56","../audio/teste-vocab--54.mp3","s","arbusto","raje"
"","null","html-keyboard-response","115","198150","0.0-1.0-0.57","+","null","",""
"","1269","audio-keyboard-response","116","199705","0.0-1.0-1.57","../audio/teste-vocab--59.mp3","s","par","pè"
"","null","html-keyboard-response","117","200212","0.0-1.0-0.58","+","null","",""
"","1669","audio-keyboard-response","118","202031","0.0-1.0-1.58","../audio/teste-vocab--84.mp3","s","confiar","konfye"
"","null","html-keyboard-response","119","202534","0.0-1.0-0.59","+","null","",""
"","2600","audio-keyboard-response","120","205725","0.0-1.0-1.59","../audio/teste-vocab--56.mp3","s","agricultura","agrikilti"
"","null","html-keyboard-response","121","206233","0.0-1.0-0.60","+","null","",""
"","2139","audio-keyboard-response","122","208530","0.0-1.0-1.60","../audio/teste-vocab--63.mp3","s","transparente","transparan"
"","null","html-keyboard-response","123","209032","0.0-1.0-0.61","+","null","",""
"","2299","audio-keyboard-response","124","211693","0.0-1.0-1.61","../audio/teste-vocab--123.mp3","s","emissão","emisyon"
"","null","html-keyboard-response","125","212201","0.0-1.0-0.62","+","null","",""
"","2120","audio-keyboard-response","126","214627","0.0-1.0-1.62","../audio/teste-vocab--120.mp3","s","induzir","pwovoke"
"","null","html-keyboard-response","127","215140","0.0-1.0-0.63","+","null","",""
"","1952","audio-keyboard-response","128","217401","0.0-1.0-1.63","../audio/teste-vocab--49.mp3","s","humano","moun"
"","null","html-keyboard-response","129","217902","0.0-1.0-0.64","+","null","",""
"","1992","audio-keyboard-response","130","220159","0.0-1.0-1.64","../audio/teste-vocab--119.mp3","s","numeroso","anpil"
"","null","html-keyboard-response","131","220671","0.0-1.0-0.65","+","null","",""
"","1640","audio-keyboard-response","132","222758","0.0-1.0-1.65","../audio/teste-vocab--81.mp3","s","judicial","jidisyè"
"","null","html-keyboard-response","133","223263","0.0-1.0-0.66","+","null","",""
"","2851","audio-keyboard-response","134","226559","0.0-1.0-1.66","../audio/teste-vocab--52.mp3","s","construção","konstriksyon"
"","null","html-keyboard-response","135","227063","0.0-1.0-0.67","+","null","",""
"","2581","audio-keyboard-response","136","229911","0.0-1.0-1.67","../audio/teste-vocab--09.mp3","s","vela","bouji"
"","null","html-keyboard-response","137","230427","0.0-1.0-0.68","+","null","",""
"","2331","audio-keyboard-response","138","233177","0.0-1.0-1.68","../audio/teste-vocab--125.mp3","s","lamaçal","labou"
"","null","html-keyboard-response","139","233679","0.0-1.0-0.69","+","null","",""
"","2552","audio-keyboard-response","140","236798","0.0-1.0-1.69","../audio/teste-vocab--121.mp3","s","atônito","sezi"
"","null","html-keyboard-response","141","237302","0.0-1.0-0.70","+","null","",""
"","3320","audio-keyboard-response","142","240881","0.0-1.0-1.70","../audio/teste-vocab--45.mp3","s","dentista","dantis"
"","null","html-keyboard-response","143","241391","0.0-1.0-0.71","+","null","",""
"","2341","audio-keyboard-response","144","244587","0.0-1.0-1.71","../audio/teste-vocab--38.mp3","s","cerimônia","seremoni"
"","null","html-keyboard-response","145","245097","0.0-1.0-0.72","+","null","",""
"","2501","audio-keyboard-response","146","248081","0.0-1.0-1.72","../audio/teste-vocab--103.mp3","n","utensílio","istansil"
"","null","html-keyboard-response","147","248585","0.0-1.0-0.73","+","null","",""
"","1752","audio-keyboard-response","148","250881","0.0-1.0-1.73","../audio/teste-vocab--24.mp3","s","acidente","aksidan"
"","null","html-keyboard-response","149","251398","0.0-1.0-0.74","+","null","",""
"","2560","audio-keyboard-response","150","256511","0.0-1.0-1.74","../audio/teste-vocab--112.mp3","n","aparição","aparisyon"
"","null","html-keyboard-response","151","257025","0.0-1.0-0.75","+","null","",""
"","1840","audio-keyboard-response","152","259177","0.0-1.0-1.75","../audio/teste-vocab--77.mp3","s","comércio","komès"
"","null","html-keyboard-response","153","259684","0.0-1.0-0.76","+","null","",""
"","2560","audio-keyboard-response","154","262683","0.0-1.0-1.76","../audio/teste-vocab--118.mp3","n","paralelogramo","paralelogram"
"","null","html-keyboard-response","155","263199","0.0-1.0-0.77","+","null","",""
"","1691","audio-keyboard-response","156","265143","0.0-1.0-1.77","../audio/teste-vocab--60.mp3","s","secretaria","sekretè"
"","null","html-keyboard-response","157","265647","0.0-1.0-0.78","+","null","",""
"","1432","audio-keyboard-response","158","267323","0.0-1.0-1.78","../audio/teste-vocab--26.mp3","n","cotovelo","koud"
"","null","html-keyboard-response","159","267836","0.0-1.0-0.79","+","null","",""
"","2672","audio-keyboard-response","160","270767","0.0-1.0-1.79","../audio/teste-vocab--68.mp3","s","surpreendido","sezi"
"","null","html-keyboard-response","161","271281","0.0-1.0-0.80","+","null","",""
"","1579","audio-keyboard-response","162","273615","0.0-1.0-1.80","../audio/teste-vocab--07.mp3","s","abajur","lanp"
"","null","html-keyboard-response","163","274124","0.0-1.0-0.81","+","null","",""
"","2240","audio-keyboard-response","164","276574","0.0-1.0-1.81","../audio/teste-vocab--124.mp3","n","obelisco","obelisk"
"","null","html-keyboard-response","165","277077","0.0-1.0-0.82","+","null","",""
"","1899","audio-keyboard-response","166","279294","0.0-1.0-1.82","../audio/teste-vocab--53.mp3","s","orientar","oryante"
"","null","html-keyboard-response","167","279811","0.0-1.0-0.83","+","null","",""
"","1600","audio-keyboard-response","168","281727","0.0-1.0-1.83","../audio/teste-vocab--86.mp3","s","pensar","panse"
"","null","html-keyboard-response","169","282242","0.0-1.0-0.84","+","null","",""
"","2448","audio-keyboard-response","170","285051","0.0-1.0-1.84","../audio/teste-vocab--99.mp3","n","arqueólogo","akeyológ"
"","null","html-keyboard-response","171","285560","0.0-1.0-0.85","+","null","",""
"","2349","audio-keyboard-response","172","288330","0.0-1.0-1.85","../audio/teste-vocab--110.mp3","n","prodígio","pwodij"
"","null","html-keyboard-response","173","288843","0.0-1.0-0.86","+","null","",""
"","1931","audio-keyboard-response","174","291600","0.0-1.0-1.86","../audio/teste-vocab--69.mp3","s","pingar","degoute"
"","null","html-keyboard-response","175","292109","0.0-1.0-0.87","+","null","",""
"","1739","audio-keyboard-response","176","294499","0.0-1.0-1.87","../audio/teste-vocab--20.mp3","s","medir","mezire"
"","null","html-keyboard-response","177","295006","0.0-1.0-0.88","+","null","",""
"","2019","audio-keyboard-response","178","297494","0.0-1.0-1.88","../audio/teste-vocab--100.mp3","s","consumir","konsome"
"","null","html-keyboard-response","179","298011","0.0-1.0-0.89","+","null","",""
"","1528","audio-keyboard-response","180","299856","0.0-1.0-1.89","../audio/teste-vocab--22.mp3","s","quebrado","kraze"
"","null","html-keyboard-response","181","300358","0.0-1.0-0.90","+","null","",""
"","2341","audio-keyboard-response","182","303229","0.0-1.0-1.90","../audio/teste-vocab--104.mp3","s","ira","pwal"
"","null","html-keyboard-response","183","303735","0.0-1.0-0.91","+","null","",""
"","2859","audio-keyboard-response","184","306853","0.0-1.0-1.91","../audio/teste-vocab--109.mp3","s","anfíbio","anfibyen"
"","null","html-keyboard-response","185","307359","0.0-1.0-0.92","+","null","",""
"","1891","audio-keyboard-response","186","309513","0.0-1.0-1.92","../audio/teste-vocab--23.mp3","s","acariciar","karese"
"","null","html-keyboard-response","187","310028","0.0-1.0-0.93","+","null","",""
"","1659","audio-keyboard-response","188","312011","0.0-1.0-1.93","../audio/teste-vocab--03.mp3","s","balançar","balanse"
"","null","html-keyboard-response","189","312527","0.0-1.0-0.94","+","null","",""
"","2040","audio-keyboard-response","190","314937","0.0-1.0-1.94","../audio/teste-vocab--76.mp3","s","arquivar","achive"
"","null","html-keyboard-response","191","315443","0.0-1.0-0.95","+","null","",""
"","2299","audio-keyboard-response","192","318024","0.0-1.0-1.95","../audio/teste-vocab--66.mp3","s","cooperação","koperasyon"
"","null","html-keyboard-response","193","318537","0.0-1.0-0.96","+","null","",""
"","2088","audio-keyboard-response","194","321173","0.0-1.0-1.96","../audio/teste-vocab--111.mp3","s","jubilosa","rejwisans"
"","null","html-keyboard-response","195","321680","0.0-1.0-0.97","+","null","",""
"","1611","audio-keyboard-response","196","323801","0.0-1.0-1.97","../audio/teste-vocab--30.mp3","n","pintor","pent"
"","null","html-keyboard-response","197","324309","0.0-1.0-0.98","+","null","",""
"","1949","audio-keyboard-response","198","326831","0.0-1.0-1.98","../audio/teste-vocab--18.mp3","s","abelha","myèl"
"","null","html-keyboard-response","199","327339","0.0-1.0-0.99","+","null","",""
"","2301","audio-keyboard-response","200","329763","0.0-1.0-1.99","../audio/teste-vocab--34.mp3","n","tronco","twon"
"","null","html-keyboard-response","201","330274","0.0-1.0-0.100","+","null","",""
"","1960","audio-keyboard-response","202","336132","0.0-1.0-1.100","../audio/teste-vocab--61.mp3","s","iluminação","iliminasyon"
"","null","html-keyboard-response","203","336635","0.0-1.0-0.101","+","null","",""
"","1760","audio-keyboard-response","204","338655","0.0-1.0-1.101","../audio/teste-vocab--46.mp3","s","ombro","zepòl"
"","null","html-keyboard-response","205","339171","0.0-1.0-0.102","+","null","",""
"","2408","audio-keyboard-response","206","344606","0.0-1.0-1.102","../audio/teste-vocab--75.mp3","n","carpinteiro","chapantye"
"","null","html-keyboard-response","207","345109","0.0-1.0-0.103","+","null","",""
"","1560","audio-keyboard-response","208","348486","0.0-1.0-1.103","../audio/teste-vocab--12.mp3","s","jaula","kaj"
"","null","html-keyboard-response","209","348998","0.0-1.0-0.104","+","null","",""
"","2981","audio-keyboard-response","210","352750","0.0-1.0-1.104","../audio/teste-vocab--91.mp3","s","bússola","bousòl"
"","null","html-keyboard-response","211","353260","0.0-1.0-0.105","+","null","",""
"","1659","audio-keyboard-response","212","355089","0.0-1.0-1.105","../audio/teste-vocab--27.mp3","s","rio","rivyè"
"","null","html-keyboard-response","213","355594","0.0-1.0-0.106","+","null","",""
"","1672","audio-keyboard-response","214","357558","0.0-1.0-1.106","../audio/teste-vocab--36.mp3","s","grupo","gwoup"
"","null","html-keyboard-response","215","358061","0.0-1.0-0.107","+","null","",""
"","1520","audio-keyboard-response","216","360080","0.0-1.0-1.107","../audio/teste-vocab--48.mp3","s","joia","bijou"
"","null","html-keyboard-response","217","360590","0.0-1.0-0.108","+","null","",""
"","1672","audio-keyboard-response","218","362600","0.0-1.0-1.108","../audio/teste-vocab--29.mp3","s","rasgar","chire"
"","null","html-keyboard-response","219","363106","0.0-1.0-0.109","+","null","",""
"","1760","audio-keyboard-response","220","365736","0.0-1.0-1.109","../audio/teste-vocab--47.mp3","s","envelope","anvlope"
"","null","html-keyboard-response","221","366242","0.0-1.0-0.110","+","null","",""
"","1989","audio-keyboard-response","222","369026","0.0-1.0-1.110","../audio/teste-vocab--58.mp3","s","nutritivo","nourisan"
"","null","html-keyboard-response","223","369537","0.0-1.0-0.111","+","null","",""
"","1869","audio-keyboard-response","224","378059","0.0-1.0-1.111","../audio/teste-vocab--39.mp3","s","cobra","koulèv"
"","null","html-keyboard-response","225","378566","0.0-1.0-0.112","+","null","",""
"","1891","audio-keyboard-response","226","381982","0.0-1.0-1.112","../audio/teste-vocab--116.mp3","n","vestuário","vestyè"
"","null","html-keyboard-response","227","382498","0.0-1.0-0.113","+","null","",""
"","1512","audio-keyboard-response","228","386121","0.0-1.0-1.113","../audio/teste-vocab--15.mp3","s","flecha","flèch"
"","null","html-keyboard-response","229","386632","0.0-1.0-0.114","+","null","",""
"","1800","audio-keyboard-response","230","390629","0.0-1.0-1.114","../audio/teste-vocab--108.mp3","s","moradia","kay"
"","null","html-keyboard-response","231","391135","0.0-1.0-0.115","+","null","",""
"","2149","audio-keyboard-response","232","393896","0.0-1.0-1.115","../audio/teste-vocab--72.mp3","n","ilha","zile"
"","null","html-keyboard-response","233","394413","0.0-1.0-0.116","+","null","",""
"","1872","audio-keyboard-response","234","399922","0.0-1.0-1.116","../audio/teste-vocab--78.mp3","n","quarteto","qwatèt"
"","null","html-keyboard-response","235","400438","0.0-1.0-0.117","+","null","",""
"","1789","audio-keyboard-response","236","403137","0.0-1.0-1.117","../audio/teste-vocab--06.mp3","s","barco","bato"
"","null","html-keyboard-response","237","403651","0.0-1.0-0.118","+","null","",""
"","2008","audio-keyboard-response","238","405930","0.0-1.0-1.118","../audio/teste-vocab--28.mp3","n","águia","èg"
"","null","html-keyboard-response","239","406436","0.0-1.0-0.119","+","null","",""
"","1989","audio-keyboard-response","240","409341","0.0-1.0-1.119","../audio/teste-vocab--41.mp3","s","médico","doktè,"
"","null","html-keyboard-response","241","409856","0.0-1.0-0.120","+","null","",""
"","1909","audio-keyboard-response","242","412009","0.0-1.0-1.120","../audio/teste-vocab--83.mp3","n","morsa","mòs"
"","null","html-keyboard-response","243","412512","0.0-1.0-0.121","+","null","",""
"","1699","audio-keyboard-response","244","414533","0.0-1.0-1.121","../audio/teste-vocab--21.mp3","s","baleia","balèn"
"","null","html-keyboard-response","245","415045","0.0-1.0-0.122","+","null","",""
"","1861","audio-keyboard-response","246","417269","0.0-1.0-1.122","../audio/teste-vocab--71.mp3","n","caule","tij"
"","null","html-keyboard-response","247","417783","0.0-1.0-0.123","+","null","",""
"","1640","audio-keyboard-response","248","419679","0.0-1.0-1.123","../audio/teste-vocab--40.mp3","s","bebida","bwason"
"","null","html-keyboard-response","249","420196","0.0-1.0-0.124","+","null","",""
"","2008","audio-keyboard-response","250","422489","0.0-1.0-1.124","../audio/teste-vocab--105.mp3","n","cítrico","sitrik"
"","null","html-keyboard-response","251","422994","0.0-1.0-0.125","+","null","",""
"","1741","audio-keyboard-response","252","424998","0.0-1.0-1.125","../audio/teste-vocab--05.mp3","s","limpar","netwaye"
"","null","html-keyboard-response","253","425512","0.0-1.0-0.126","+","null","",""
"","2112","audio-keyboard-response","254","428444","0.0-1.0-1.126","../audio/teste-vocab--31.mp3","s","vazio","vid"
"","null","html-keyboard-response","255","428957","0.0-1.0-0.127","+","null","",""
"","2299","audio-keyboard-response","256","431503","0.0-1.0-1.127","../audio/teste-vocab--130.mp3","s","gentil","dou"
"","null","html-keyboard-response","257","432015","0.0-1.0-0.128","+","null","",""
"","2320","audio-keyboard-response","258","435060","0.0-1.0-1.128","../audio/teste-vocab--115.mp3","n","perpendicular","pèpandikilè"
"","null","html-keyboard-response","259","435569","0.0-1.0-0.129","+","null","",""
"","2360","audio-keyboard-response","260","439675","0.0-1.0-1.129","../audio/teste-vocab--87.mp3","s","ave","zwazo"
