"view_history","rt","trial_type","trial_index","time_elapsed","internal_node_id","stimulus","response","trial_part","word","question","answer","trial","accuracy"
"[{""page_index"":0,""viewing_time"":38071},{""page_index"":1,""viewing_time"":1698}]","39769","instructions","0","39774","0.0-0.0","","","","","","","",""
"","null","html-keyboard-response","1","40891","0.0-1.0-0.0-0.0","<span style= ""font-size:30px; font-family: monospace"">+</span>","null","fixation","","","","",""
"","2261","audio-keyboard-response","2","44076","0.0-1.0-1.0","../audio/prac-question-1-1.mp3"," ","","O","","","",""
"","5549","audio-keyboard-response","3","50309","0.0-1.0-1.1","../audio/prac-question-1-2.mp3"," ","","dia","","","",""
"","1291","audio-keyboard-response","4","52100","0.0-1.0-1.2","../audio/prac-question-1-3.mp3"," ","","estará","","","",""
"","1000","audio-keyboard-response","5","53475","0.0-1.0-1.3","../audio/prac-question-1-4.mp3"," ","","cheio","","","",""
"","949","audio-keyboard-response","6","54834","0.0-1.0-1.4","../audio/prac-question-1-5.mp3"," ","","de","","","",""
"","1259","audio-keyboard-response","7","56628","0.0-1.0-1.5","../audio/prac-question-1-6.mp3"," ","","nuvens","","","",""
"","880","audio-keyboard-response","8","57900","0.0-1.0-1.6","../audio/prac-question-1-7.mp3"," ","","hoje.","","","",""
"","null","html-keyboard-response","9","59164","0.0-1.0-0.7-0.7","<span style= ""font-size:30px; font-family: monospace"">+</span>","null","fixation","","","","",""
"","349","audio-keyboard-response","10","60000","0.0-1.0-1.7","../audio/prac-question-2-1.mp3"," ","","A","","","",""
"","1040","audio-keyboard-response","11","61437","0.0-1.0-1.8","../audio/prac-question-2-2.mp3"," ","","caneca","","","",""
"","989","audio-keyboard-response","12","62813","0.0-1.0-1.9","../audio/prac-question-2-3.mp3"," ","","colorida","","","",""
"","928","audio-keyboard-response","13","64111","0.0-1.0-1.10","../audio/prac-question-2-4.mp3"," ","","caiu","","","",""
"","808","audio-keyboard-response","14","65310","0.0-1.0-1.11","../audio/prac-question-2-5.mp3"," ","","da","","","",""
"","848","audio-keyboard-response","15","66584","0.0-1.0-1.12","../audio/prac-question-2-6.mp3"," ","","mesa","","","",""
"","1051","audio-keyboard-response","16","68008","0.0-1.0-1.13","../audio/prac-question-2-7.mp3"," ","","de","","","",""
"","1051","audio-keyboard-response","17","69442","0.0-1.0-1.14","../audio/prac-question-2-8.mp3"," ","","jantar.","","","",""
"","6574","html-keyboard-response","18","76281","0.0-1.0-2.14-0.14","<span style=""font-size:25px; font-family: monospace"">A caneca era colorida?</span>","n","","","A caneca era colorida?","null","prac-sent","false"
"[{""page_index"":0,""viewing_time"":7697}]","7698","instructions","19","84484","0.0-2.0","","","","","","","",""
"","null","html-keyboard-response","20","85597","0.0-3.0-0.0-0.0","<span style= ""font-size:30px; font-family: monospace"">+</span>","null","fixation","","","","",""
"","211","audio-keyboard-response","21","86320","0.0-3.0-1.0","../audio/41-1-fem.mp3"," ","","A","","","",""
"","1232","audio-keyboard-response","22","88177","0.0-3.0-1.1","../audio/41-2-fem.mp3"," ","","novela","","","",""
"","821","audio-keyboard-response","23","89422","0.0-3.0-1.2","../audio/41-3-fem.mp3"," ","","falava","","","",""
"","869","audio-keyboard-response","24","90730","0.0-3.0-1.3","../audio/41-4-fem.mp3"," ","","de","","","",""
"","1120","audio-keyboard-response","25","92276","0.0-3.0-1.4","../audio/41-5-fem.mp3"," ","","paixão","","","",""
"","989","audio-keyboard-response","26","93665","0.0-3.0-1.5","../audio/41-6-fem.mp3"," ","","e","","","",""
"","1048","audio-keyboard-response","27","95108","0.0-3.0-1.6","../audio/41-7-fem.mp3"," ","","comédia.","","","",""
"","null","html-keyboard-response","28","96379","0.0-3.0-0.7-0.7","<span style= ""font-size:30px; font-family: monospace"">+</span>","null","fixation","","","","",""
"","59","audio-keyboard-response","29","96961","0.0-3.0-1.7","../audio/42-1-fem.mp3"," ","","Eu","","","",""
"","400","audio-keyboard-response","30","97746","0.0-3.0-1.8","../audio/42-2-fem.mp3"," ","","fui","","","",""
"","851","audio-keyboard-response","31","99105","0.0-3.0-1.9","../audio/42-3-fem.mp3"," ","","a","","","",""
"","419","audio-keyboard-response","32","99906","0.0-3.0-1.10","../audio/42-4-fem.mp3"," ","","uma","","","",""
"","1120","audio-keyboard-response","33","101421","0.0-3.0-1.11","../audio/42-5-fem.mp3"," ","","loja","","","",""
"","752","audio-keyboard-response","34","102543","0.0-3.0-1.12","../audio/42-6-fem.mp3"," ","","de","","","",""
"","1749","audio-keyboard-response","35","104673","0.0-3.0-1.13","../audio/42-7-fem.mp3"," ","","móveis","","","",""
"","1280","audio-keyboard-response","36","106617","0.0-3.0-1.14","../audio/42-8-fem.mp3"," ","","no","","","",""
"","1229","audio-keyboard-response","37","108199","0.0-3.0-1.15","../audio/42-9-fem.mp3"," ","","bairro.","","","",""
"","null","html-keyboard-response","38","109468","0.0-3.0-0.16-0.16","<span style= ""font-size:30px; font-family: monospace"">+</span>","null","fixation","","","","",""
"","819","audio-keyboard-response","39","110800","0.0-3.0-1.16","../audio/43-1-fem.mp3"," ","","Eu","","","",""
"","1080","audio-keyboard-response","40","112271","0.0-3.0-1.17","../audio/43-2-fem.mp3"," ","","achei","","","",""
"","960","audio-keyboard-response","41","113619","0.0-3.0-1.18","../audio/43-3-fem.mp3"," ","","um","","","",""
"","1181","audio-keyboard-response","42","115176","0.0-3.0-1.19","../audio/43-4-fem.mp3"," ","","colchão","","","",""
"","1120","audio-keyboard-response","43","116683","0.0-3.0-1.20","../audio/43-5-fem.mp3"," ","","velho","","","",""
"","888","audio-keyboard-response","44","118150","0.0-3.0-1.21","../audio/43-6-fem.mp3"," ","","e","","","",""
"","1691","audio-keyboard-response","45","120217","0.0-3.0-1.22","../audio/43-7-fem.mp3"," ","","imundo","","","",""
"","939","audio-keyboard-response","46","121750","0.0-3.0-1.23","../audio/43-8-fem.mp3"," ","","na","","","",""
"","688","audio-keyboard-response","47","122828","0.0-3.0-1.24","../audio/43-9-fem.mp3"," ","","casa.","","","",""
"","null","html-keyboard-response","48","124101","0.0-3.0-0.25-0.25","<span style= ""font-size:30px; font-family: monospace"">+</span>","null","fixation","","","","",""
"","1429","audio-keyboard-response","49","126044","0.0-3.0-1.25","../audio/44-1-fem.mp3"," ","","Meus","","","",""
"","1011","audio-keyboard-response","50","127450","0.0-3.0-1.26","../audio/44-2-fem.mp3"," ","","irmãos","","","",""
"","1072","audio-keyboard-response","51","128904","0.0-3.0-1.27","../audio/44-3-fem.mp3"," ","","brigam","","","",""
"","760","audio-keyboard-response","52","130036","0.0-3.0-1.28","../audio/44-4-fem.mp3"," ","","por","","","",""
"","1571","audio-keyboard-response","53","132018","0.0-3.0-1.29","../audio/44-5-fem.mp3"," ","","bobagem","","","",""
"","1301","audio-keyboard-response","54","133739","0.0-3.0-1.30","../audio/44-6-fem.mp3"," ","","todos","","","",""
"","629","audio-keyboard-response","55","134745","0.0-3.0-1.31","../audio/44-7-fem.mp3"," ","","os","","","",""
"","720","audio-keyboard-response","56","135855","0.0-3.0-1.32","../audio/44-8-fem.mp3"," ","","dias.","","","",""
"","null","html-keyboard-response","57","137131","0.0-3.0-0.33-0.33","<span style= ""font-size:30px; font-family: monospace"">+</span>","null","fixation","","","","",""
"","1152","audio-keyboard-response","58","138780","0.0-3.0-1.33","../audio/45-1-fem.mp3"," ","","O","","","",""
"","1341","audio-keyboard-response","59","140484","0.0-3.0-1.34","../audio/45-2-fem.mp3"," ","","homem","","","",""
"","1571","audio-keyboard-response","60","142442","0.0-3.0-1.35","../audio/45-3-fem.mp3"," ","","pagou","","","",""
"","840","audio-keyboard-response","61","143664","0.0-3.0-1.36","../audio/45-4-fem.mp3"," ","","o","","","",""
"","949","audio-keyboard-response","62","145002","0.0-3.0-1.37","../audio/45-5-fem.mp3"," ","","aluguel","","","",""
"","811","audio-keyboard-response","63","146183","0.0-3.0-1.38","../audio/45-6-fem.mp3"," ","","com","","","",""
"","1208","audio-keyboard-response","64","147793","0.0-3.0-1.39","../audio/45-7-fem.mp3"," ","","atraso.","","","",""
"","2988","html-keyboard-response","65","151047","0.0-3.0-2.39-0.39","<span style=""font-size:25px; font-family: monospace"">O homem pagou o aluguel em dia?</span>","n","","","O homem pagou o aluguel em dia?","null","exp-sent","false"
"","null","html-keyboard-response","66","152564","0.0-3.0-0.40-0.40","<span style= ""font-size:30px; font-family: monospace"">+</span>","null","fixation","","","","",""
"","1101","audio-keyboard-response","67","154185","0.0-3.0-1.40","../audio/73-1-fem.mp3"," ","","O","","","",""
"","2992","audio-keyboard-response","68","157614","0.0-3.0-1.41","../audio/73-2-fem.mp3"," ","","cliente","","","",""
"","960","audio-keyboard-response","69","159077","0.0-3.0-1.42","../audio/73-3-fem.mp3"," ","","era","","","",""
"","1520","audio-keyboard-response","70","160984","0.0-3.0-1.43","../audio/73-4-fem.mp3"," ","","um","","","",""
"","1960","audio-keyboard-response","71","163323","0.0-3.0-1.44","../audio/73-5-fem.mp3"," ","","homem","","","",""
"","200","audio-keyboard-response","72","164032","0.0-3.0-1.45","../audio/73-6-fem.mp3"," ","","muito","","","",""
"","1832","audio-keyboard-response","73","166220","0.0-3.0-1.46","../audio/73-7-fem.mp3"," ","","educado.","","","",""
"","null","html-keyboard-response","74","167486","0.0-3.0-0.47-0.47","<span style= ""font-size:30px; font-family: monospace"">+</span>","null","fixation","","","","",""
"","1600","audio-keyboard-response","75","171151","0.0-3.0-1.47","../audio/74-1-masc.mp3"," ","","Este","","","",""
"","1880","audio-keyboard-response","76","173411","0.0-3.0-1.48","../audio/74-2-masc.mp3"," ","","emprego","","","",""
"","2981","audio-keyboard-response","77","177210","0.0-3.0-1.49","../audio/74-3-masc.mp3"," ","","é","","","",""
"","1739","audio-keyboard-response","78","179545","0.0-3.0-1.50","../audio/74-4-masc.mp3"," ","","muito","","","",""
"","3120","audio-keyboard-response","79","183154","0.0-3.0-1.51","../audio/74-5-masc.mp3"," ","","cansativo","","","",""
"","1469","audio-keyboard-response","80","185133","0.0-3.0-1.52","../audio/74-6-masc.mp3"," ","","a","","","",""
"","1691","audio-keyboard-response","81","187196","0.0-3.0-1.53","../audio/74-7-masc.mp3"," ","","longo","","","",""
"","1379","audio-keyboard-response","82","189243","0.0-3.0-1.54","../audio/74-8-masc.mp3"," ","","prazo.","","","",""
"","null","html-keyboard-response","83","190499","0.0-3.0-0.55-0.55","<span style= ""font-size:30px; font-family: monospace"">+</span>","null","fixation","","","","",""
"","1312","audio-keyboard-response","84","192295","0.0-3.0-1.55","../audio/72-1-masc.mp3"," ","","A","","","",""
"","2240","audio-keyboard-response","85","194941","0.0-3.0-1.56","../audio/72-2-masc.mp3"," ","","vencedora","","","",""
"","1749","audio-keyboard-response","86","197254","0.0-3.0-1.57","../audio/72-3-masc.mp3"," ","","recebeu","","","",""
"","1621","audio-keyboard-response","87","199368","0.0-3.0-1.58","../audio/72-4-masc.mp3"," ","","um","","","",""
"","1861","audio-keyboard-response","88","201614","0.0-3.0-1.59","../audio/72-5-masc.mp3"," ","","prêmio","","","",""
"","1960","audio-keyboard-response","89","204068","0.0-3.0-1.60","../audio/72-6-masc.mp3"," ","","em","","","",""
"","1171","audio-keyboard-response","90","205820","0.0-3.0-1.61","../audio/72-7-masc.mp3"," ","","dinheiro.","","","",""
"","null","html-keyboard-response","91","207094","0.0-3.0-0.62-0.62","<span style= ""font-size:30px; font-family: monospace"">+</span>","null","fixation","","","","",""
"","1429","audio-keyboard-response","92","209040","0.0-3.0-1.62","../audio/71-1-masc.mp3"," ","","Minhas","","","",""
"","1520","audio-keyboard-response","93","210936","0.0-3.0-1.63","../audio/71-2-masc.mp3"," ","","comidas","","","",""
"","1840","audio-keyboard-response","94","213161","0.0-3.0-1.64","../audio/71-3-masc.mp3"," ","","favoritas","","","",""
"","1731","audio-keyboard-response","95","215374","0.0-3.0-1.65","../audio/71-4-masc.mp3"," ","","são","","","",""
"","3040","audio-keyboard-response","96","218977","0.0-3.0-1.66","../audio/71-5-masc.mp3"," ","","morango","","","",""
"","1651","audio-keyboard-response","97","221120","0.0-3.0-1.67","../audio/71-6-masc.mp3"," ","","e","","","",""
"","2120","audio-keyboard-response","98","224086","0.0-3.0-1.68","../audio/71-7-masc.mp3"," ","","uva.","","","",""
"","null","html-keyboard-response","99","225354","0.0-3.0-0.69-0.69","<span style= ""font-size:30px; font-family: monospace"">+</span>","null","fixation","","","","",""
"","1101","audio-keyboard-response","100","227098","0.0-3.0-1.69","../audio/75-1-masc.mp3"," ","","Só","","","",""
"","1851","audio-keyboard-response","101","229327","0.0-3.0-1.70","../audio/75-2-masc.mp3"," ","","existe","","","",""
"","2461","audio-keyboard-response","102","232290","0.0-3.0-1.71","../audio/75-3-masc.mp3"," ","","uma","","","",""
"","1171","audio-keyboard-response","103","233983","0.0-3.0-1.72","../audio/75-4-masc.mp3"," ","","pessoa","","","",""
"","1128","audio-keyboard-response","104","235506","0.0-3.0-1.73","../audio/75-5-masc.mp3"," ","","canhota","","","",""
"","1709","audio-keyboard-response","105","237588","0.0-3.0-1.74","../audio/75-6-masc.mp3"," ","","nesta","","","",""
"","1840","audio-keyboard-response","106","239956","0.0-3.0-1.75","../audio/75-7-masc.mp3"," ","","cidade.","","","",""
"","5304","html-keyboard-response","107","245513","0.0-3.0-2.75-0.75","<span style=""font-size:25px; font-family: monospace"">Só existe uma pessoa canhota na cidade?</span>","s","","","Só existe uma pessoa canhota na cidade?","null","exp-sent","false"
"","null","html-keyboard-response","108","247034","0.0-3.0-0.76-0.76","<span style= ""font-size:30px; font-family: monospace"">+</span>","null","fixation","","","","",""
"","1091","audio-keyboard-response","109","248638","0.0-3.0-1.76","../audio/13-1-fem.mp3"," ","","Para","","","",""
"","949","audio-keyboard-response","110","249963","0.0-3.0-1.77","../audio/13-2-fem.mp3"," ","","mim","","","",""
"","1120","audio-keyboard-response","111","251455","0.0-3.0-1.78","../audio/13-3-fem.mp3"," ","","é","","","",""
"","1501","audio-keyboard-response","112","253382","0.0-3.0-1.79","../audio/13-4-fem.mp3"," ","","muito","","","",""
"","1360","audio-keyboard-response","113","255132","0.0-3.0-1.80","../audio/13-5-fem.mp3"," ","","difícil","","","",""
"","1211","audio-keyboard-response","114","256721","0.0-3.0-1.81","../audio/13-6-fem.mp3"," ","","acordar","","","",""
"","1272","audio-keyboard-response","115","258379","0.0-3.0-1.82","../audio/13-7-fem.mp3"," ","","cedo.","","","",""
"","null","html-keyboard-response","116","259644","0.0-3.0-0.83-0.83","<span style= ""font-size:30px; font-family: monospace"">+</span>","null","fixation","","","","",""
"","909","audio-keyboard-response","117","261052","0.0-3.0-1.83","../audio/14-1-fem.mp3"," ","","O","","","",""
"","440","audio-keyboard-response","118","261878","0.0-3.0-1.84","../audio/14-2-fem.mp3"," ","","cachorro","","","",""
"","1048","audio-keyboard-response","119","263311","0.0-3.0-1.85","../audio/14-3-fem.mp3"," ","","é","","","",""
"","1211","audio-keyboard-response","120","264895","0.0-3.0-1.86","../audio/14-4-fem.mp3"," ","","muito","","","",""
"","1101","audio-keyboard-response","121","266374","0.0-3.0-1.87","../audio/14-5-fem.mp3"," ","","fiel","","","",""
"","1101","audio-keyboard-response","122","267888","0.0-3.0-1.88","../audio/14-6-fem.mp3"," ","","a","","","",""
"","2221","audio-keyboard-response","123","270497","0.0-3.0-1.89","../audio/14-7-fem.mp3"," ","","seus","","","",""
"","909","audio-keyboard-response","124","271924","0.0-3.0-1.90","../audio/14-8-fem.mp3"," ","","donos.","","","",""
"","null","html-keyboard-response","125","273198","0.0-3.0-0.91-0.91","<span style= ""font-size:30px; font-family: monospace"">+</span>","null","fixation","","","","",""
"","1368","audio-keyboard-response","126","275065","0.0-3.0-1.91","../audio/11-1-fem.mp3"," ","","Elas","","","",""
"","1211","audio-keyboard-response","127","276652","0.0-3.0-1.92","../audio/11-2-fem.mp3"," ","","gostam","","","",""
"","1299","audio-keyboard-response","128","278348","0.0-3.0-1.93","../audio/11-3-fem.mp3"," ","","muito","","","",""
"","829","audio-keyboard-response","129","279561","0.0-3.0-1.94","../audio/11-4-fem.mp3"," ","","de","","","",""
"","2269","audio-keyboard-response","130","282226","0.0-3.0-1.95","../audio/11-5-fem.mp3"," ","","aritmética","","","",""
"","880","audio-keyboard-response","131","283644","0.0-3.0-1.96","../audio/11-6-fem.mp3"," ","","e","","","",""
"","851","audio-keyboard-response","132","284855","0.0-3.0-1.97","../audio/11-7-fem.mp3"," ","","de","","","",""
"","1061","audio-keyboard-response","133","286290","0.0-3.0-1.98","../audio/11-8-fem.mp3"," ","","leitura.","","","",""
"","null","html-keyboard-response","134","287560","0.0-3.0-0.99-0.99","<span style= ""font-size:30px; font-family: monospace"">+</span>","null","fixation","","","","",""
"","440","audio-keyboard-response","135","288524","0.0-3.0-1.99","../audio/12-1-fem.mp3"," ","","O","","","",""
"","792","audio-keyboard-response","136","289703","0.0-3.0-1.100","../audio/12-2-fem.mp3"," ","","dia","","","",""
"","829","audio-keyboard-response","137","290923","0.0-3.0-1.101","../audio/12-3-fem.mp3"," ","","estava","","","",""
"","800","audio-keyboard-response","138","292114","0.0-3.0-1.102","../audio/12-4-fem.mp3"," ","","quente,","","","",""
"","1099","audio-keyboard-response","139","293600","0.0-3.0-1.103","../audio/12-5-fem.mp3"," ","","tranquilo","","","",""
"","840","audio-keyboard-response","140","294860","0.0-3.0-1.104","../audio/12-6-fem.mp3"," ","","e","","","",""
"","1899","audio-keyboard-response","141","297160","0.0-3.0-1.105","../audio/12-7-fem.mp3"," ","","ensolarado.","","","",""
"","null","html-keyboard-response","142","298425","0.0-3.0-0.106-0.106","<span style= ""font-size:30px; font-family: monospace"">+</span>","null","fixation","","","","",""
"","141","audio-keyboard-response","143","299134","0.0-3.0-1.106","../audio/15-1-fem.mp3"," ","","Meu","","","",""
"","2259","audio-keyboard-response","144","301763","0.0-3.0-1.107","../audio/15-2-fem.mp3"," ","","primo","","","",""
"","1091","audio-keyboard-response","145","303361","0.0-3.0-1.108","../audio/15-3-fem.mp3"," ","","é","","","",""
"","760","audio-keyboard-response","146","304524","0.0-3.0-1.109","../audio/15-4-fem.mp3"," ","","um","","","",""
"","989","audio-keyboard-response","147","305913","0.0-3.0-1.110","../audio/15-5-fem.mp3"," ","","grande","","","",""
"","920","audio-keyboard-response","148","307213","0.0-3.0-1.111","../audio/15-6-fem.mp3"," ","","vendedor","","","",""
"","941","audio-keyboard-response","149","308532","0.0-3.0-1.112","../audio/15-7-fem.mp3"," ","","de","","","",""
"","960","audio-keyboard-response","150","312227","0.0-3.0-1.113","../audio/15-8-fem.mp3"," ","","carros.","","","",""
"","2637","html-keyboard-response","151","315124","0.0-3.0-2.113-0.113","<span style=""font-size:25px; font-family: monospace"">O primo é um vendedor de carros?</span>","s","","","O primo é um vendedor de carros?","null","exp-sent","false"
"","null","html-keyboard-response","152","316644","0.0-3.0-0.114-0.114","<span style= ""font-size:30px; font-family: monospace"">+</span>","null","fixation","","","","",""
"","1099","audio-keyboard-response","153","318314","0.0-3.0-1.114","../audio/22-1-fem.mp3"," ","","Eu","","","",""
"","1341","audio-keyboard-response","154","320087","0.0-3.0-1.115","../audio/22-2-fem.mp3"," ","","detesto","","","",""
"","1181","audio-keyboard-response","155","321660","0.0-3.0-1.116","../audio/22-3-fem.mp3"," ","","fumaça","","","",""
"","771","audio-keyboard-response","156","322816","0.0-3.0-1.117","../audio/22-4-fem.mp3"," ","","de","","","",""
"","1499","audio-keyboard-response","157","324716","0.0-3.0-1.118","../audio/22-5-fem.mp3"," ","","cachimbo","","","",""
"","1392","audio-keyboard-response","158","326501","0.0-3.0-1.119","../audio/22-6-fem.mp3"," ","","e","","","",""
"","808","audio-keyboard-response","159","327704","0.0-3.0-1.120","../audio/22-7-fem.mp3"," ","","de","","","",""
"","1560","audio-keyboard-response","160","337818","0.0-3.0-1.121","../audio/22-8-fem.mp3"," ","","cigarro.","","","",""
"","null","html-keyboard-response","161","339086","0.0-3.0-0.122-0.122","<span style= ""font-size:30px; font-family: monospace"">+</span>","null","fixation","","","","",""
"","1709","audio-keyboard-response","162","341200","0.0-3.0-1.122","../audio/23-1-masc.mp3"," ","","Português","","","",""
"","869","audio-keyboard-response","163","342564","0.0-3.0-1.123","../audio/23-2-masc.mp3"," ","","é","","","",""
"","1568","audio-keyboard-response","164","344509","0.0-3.0-1.124","../audio/23-3-masc.mp3"," ","","um","","","",""
"","1901","audio-keyboard-response","165","346774","0.0-3.0-1.125","../audio/23-4-masc.mp3"," ","","assunto","","","",""
"","1781","audio-keyboard-response","166","349181","0.0-3.0-1.126","../audio/23-5-masc.mp3"," ","","elementar","","","",""
"","1011","audio-keyboard-response","167","350822","0.0-3.0-1.127","../audio/23-6-masc.mp3"," ","","para","","","",""
"","971","audio-keyboard-response","168","352155","0.0-3.0-1.128","../audio/23-7-masc.mp3"," ","","os","","","",""
"","1432","audio-keyboard-response","169","353975","0.0-3.0-1.129","../audio/23-8-masc.mp3"," ","","alunos.","","","",""
"","null","html-keyboard-response","170","355241","0.0-3.0-0.130-0.130","<span style= ""font-size:30px; font-family: monospace"">+</span>","null","fixation","","","","",""
"","160","audio-keyboard-response","171","355967","0.0-3.0-1.130","../audio/21-1-masc.mp3"," ","","Precisamos","","","",""
"","800","audio-keyboard-response","172","357184","0.0-3.0-1.131","../audio/21-2-masc.mp3"," ","","de","","","",""
"","941","audio-keyboard-response","173","358495","0.0-3.0-1.132","../audio/21-3-masc.mp3"," ","","paciência","","","",""
"","851","audio-keyboard-response","174","359714","0.0-3.0-1.133","../audio/21-4-masc.mp3"," ","","e","","","",""
"","1291","audio-keyboard-response","175","361380","0.0-3.0-1.134","../audio/21-5-masc.mp3"," ","","bondade","","","",""
"","880","audio-keyboard-response","176","362630","0.0-3.0-1.135","../audio/21-6-masc.mp3"," ","","para","","","",""
"","880","audio-keyboard-response","177","363875","0.0-3.0-1.136","../audio/21-7-masc.mp3"," ","","um","","","",""
"","1301","audio-keyboard-response","178","365854","0.0-3.0-1.137","../audio/21-8-masc.mp3"," ","","mundo","","","",""
"","1400","audio-keyboard-response","179","367636","0.0-3.0-1.138","../audio/21-9-masc.mp3"," ","","melhor.","","","",""
"","null","html-keyboard-response","180","368896","0.0-3.0-0.139-0.139","<span style= ""font-size:30px; font-family: monospace"">+</span>","null","fixation","","","","",""
"","160","audio-keyboard-response","181","369746","0.0-3.0-1.139","../audio/24-1-masc.mp3"," ","","As","","","",""
"","931","audio-keyboard-response","182","371064","0.0-3.0-1.140","../audio/24-2-masc.mp3"," ","","crianças","","","",""
"","848","audio-keyboard-response","183","372507","0.0-3.0-1.141","../audio/24-3-masc.mp3"," ","","vão","","","",""
"","851","audio-keyboard-response","184","373737","0.0-3.0-1.142","../audio/24-4-masc.mp3"," ","","ao","","","",""
"","3499","audio-keyboard-response","185","377624","0.0-3.0-1.143","../audio/24-5-masc.mp3"," ","","cinema","","","",""
"","1069","audio-keyboard-response","186","379225","0.0-3.0-1.144","../audio/24-6-masc.mp3"," ","","mais","","","",""
"","1821","audio-keyboard-response","187","381415","0.0-3.0-1.145","../audio/24-7-masc.mp3"," ","","tarde.","","","",""
"","null","html-keyboard-response","188","382687","0.0-3.0-0.146-0.146","<span style= ""font-size:30px; font-family: monospace"">+</span>","null","fixation","","","","",""
"","949","audio-keyboard-response","189","384131","0.0-3.0-1.146","../audio/25-1-masc.mp3"," ","","Ela","","","",""
"","939","audio-keyboard-response","190","385443","0.0-3.0-1.147","../audio/25-2-masc.mp3"," ","","faz","","","",""
"","1069","audio-keyboard-response","191","386998","0.0-3.0-1.148","../audio/25-3-masc.mp3"," ","","tanto","","","",""
"","1040","audio-keyboard-response","192","388413","0.0-3.0-1.149","../audio/25-4-masc.mp3"," ","","cabelo","","","",""
"","1251","audio-keyboard-response","193","390044","0.0-3.0-1.150","../audio/25-5-masc.mp3"," ","","liso","","","",""
"","901","audio-keyboard-response","194","391332","0.0-3.0-1.151","../audio/25-6-masc.mp3"," ","","quanto","","","",""
"","960","audio-keyboard-response","195","392934","0.0-3.0-1.152","../audio/25-7-masc.mp3"," ","","cacheado.","","","",""
"","4361","html-keyboard-response","196","397558","0.0-3.0-2.152-0.152","<span style=""font-size:25px; font-family: monospace"">Ela só faz cabelo cacheado?</span>","n","","","Ela só faz cabelo cacheado?","null","exp-sent","false"
"","null","html-keyboard-response","197","399083","0.0-3.0-0.153-0.153","<span style= ""font-size:30px; font-family: monospace"">+</span>","null","fixation","","","","",""
"","1189","audio-keyboard-response","198","400765","0.0-3.0-1.153","../audio/08-1-fem.mp3"," ","","A","","","",""
"","1011","audio-keyboard-response","199","402173","0.0-3.0-1.154","../audio/08-2-fem.mp3"," ","","receita","","","",""
"","880","audio-keyboard-response","200","403665","0.0-3.0-1.155","../audio/08-3-fem.mp3"," ","","pede","","","",""
"","920","audio-keyboard-response","201","404962","0.0-3.0-1.156","../audio/08-4-fem.mp3"," ","","um","","","",""
"","1211","audio-keyboard-response","202","406568","0.0-3.0-1.157","../audio/08-5-fem.mp3"," ","","litro","","","",""
"","781","audio-keyboard-response","203","407690","0.0-3.0-1.158","../audio/08-6-fem.mp3"," ","","de","","","",""
"","1240","audio-keyboard-response","204","409290","0.0-3.0-1.159","../audio/08-7-fem.mp3"," ","","leite","","","",""
"","1381","audio-keyboard-response","205","411056","0.0-3.0-1.160","../audio/08-8-fem.mp3"," ","","integral.","","","",""
"","null","html-keyboard-response","206","412317","0.0-3.0-0.161-0.161","<span style= ""font-size:30px; font-family: monospace"">+</span>","null","fixation","","","","",""
"","1181","audio-keyboard-response","207","413979","0.0-3.0-1.161","../audio/07-1-fem.mp3"," ","","Meu","","","",""
"","920","audio-keyboard-response","208","415272","0.0-3.0-1.162","../audio/07-2-fem.mp3"," ","","filho","","","",""
"","840","audio-keyboard-response","209","416464","0.0-3.0-1.163","../audio/07-3-fem.mp3"," ","","é","","","",""
"","920","audio-keyboard-response","210","417732","0.0-3.0-1.164","../audio/07-4-fem.mp3"," ","","muito","","","",""
"","1811","audio-keyboard-response","211","419924","0.0-3.0-1.165","../audio/07-5-fem.mp3"," ","","responsável","","","",""
"","859","audio-keyboard-response","212","421283","0.0-3.0-1.166","../audio/07-6-fem.mp3"," ","","nos","","","",""
"","2000","audio-keyboard-response","213","423685","0.0-3.0-1.167","../audio/07-7-fem.mp3"," ","","estudos.","","","",""
"","null","html-keyboard-response","214","424964","0.0-3.0-0.168-0.168","<span style= ""font-size:30px; font-family: monospace"">+</span>","null","fixation","","","","",""
"","1109","audio-keyboard-response","215","426562","0.0-3.0-1.168","../audio/09-1-fem.mp3"," ","","O","","","",""
"","1280","audio-keyboard-response","216","428259","0.0-3.0-1.169","../audio/09-2-fem.mp3"," ","","rapaz","","","",""
"","1352","audio-keyboard-response","217","430021","0.0-3.0-1.170","../audio/09-3-fem.mp3"," ","","limpou","","","",""
"","1040","audio-keyboard-response","218","431426","0.0-3.0-1.171","../audio/09-4-fem.mp3"," ","","o","","","",""
"","1131","audio-keyboard-response","219","432935","0.0-3.0-1.172","../audio/09-5-fem.mp3"," ","","terreno","","","",""
"","928","audio-keyboard-response","220","434227","0.0-3.0-1.173","../audio/09-6-fem.mp3"," ","","com","","","",""
"","1232","audio-keyboard-response","221","435864","0.0-3.0-1.174","../audio/09-7-fem.mp3"," ","","uma","","","",""
"","1360","audio-keyboard-response","222","437576","0.0-3.0-1.175","../audio/09-8-fem.mp3"," ","","pá.","","","",""
"","null","html-keyboard-response","223","438846","0.0-3.0-0.176-0.176","<span style= ""font-size:30px; font-family: monospace"">+</span>","null","fixation","","","","",""
"","2461","audio-keyboard-response","224","441846","0.0-3.0-1.176","../audio/06-1-masc.mp3"," ","","Ouvimos","","","",""
"","1040","audio-keyboard-response","225","443443","0.0-3.0-1.177","../audio/06-2-masc.mp3"," ","","a","","","",""
"","728","audio-keyboard-response","226","444593","0.0-3.0-1.178","../audio/06-3-masc.mp3"," ","","fala","","","",""
"","731","audio-keyboard-response","227","445693","0.0-3.0-1.179","../audio/06-4-masc.mp3"," ","","do","","","",""
"","1101","audio-keyboard-response","228","447171","0.0-3.0-1.180","../audio/06-5-masc.mp3"," ","","profeta","","","",""
"","648","audio-keyboard-response","229","448191","0.0-3.0-1.181","../audio/06-6-masc.mp3"," ","","no","","","",""
"","541","audio-keyboard-response","230","449098","0.0-3.0-1.182","../audio/06-7-masc.mp3"," ","","púlpito","","","",""
"","811","audio-keyboard-response","231","450276","0.0-3.0-1.183","../audio/06-8-masc.mp3"," ","","da","","","",""
"","640","audio-keyboard-response","232","451277","0.0-3.0-1.184","../audio/06-9-masc.mp3"," ","","igreja.","","","",""
"","null","html-keyboard-response","233","452548","0.0-3.0-0.185-0.185","<span style= ""font-size:30px; font-family: monospace"">+</span>","null","fixation","","","","",""
"","760","audio-keyboard-response","234","453765","0.0-3.0-1.185","../audio/10-1-fem.mp3"," ","","O","","","",""
"","920","audio-keyboard-response","235","455064","0.0-3.0-1.186","../audio/10-2-fem.mp3"," ","","pássaro","","","",""
"","651","audio-keyboard-response","236","456092","0.0-3.0-1.187","../audio/10-3-fem.mp3"," ","","azul","","","",""
"","1320","audio-keyboard-response","237","457791","0.0-3.0-1.188","../audio/10-4-fem.mp3"," ","","estava","","","",""
"","1000","audio-keyboard-response","238","459174","0.0-3.0-1.189","../audio/10-5-fem.mp3"," ","","vivo","","","",""
"","840","audio-keyboard-response","239","460493","0.0-3.0-1.190","../audio/10-6-fem.mp3"," ","","e","","","",""
"","931","audio-keyboard-response","240","461777","0.0-3.0-1.191","../audio/10-7-fem.mp3"," ","","em","","","",""
"","1269","audio-keyboard-response","241","463442","0.0-3.0-1.192","../audio/10-8-fem.mp3"," ","","segurança.","","","",""
"","3365","html-keyboard-response","242","467069","0.0-3.0-2.192-0.192","<span style=""font-size:25px; font-family: monospace"">O pássaro vermelho estava em segurança?</span>","s","","","O pássaro vermelho estava em segurança?","null","exp-sent","false"
"","null","html-keyboard-response","243","468575","0.0-3.0-0.193-0.193","<span style= ""font-size:30px; font-family: monospace"">+</span>","null","fixation","","","","",""
"","1099","audio-keyboard-response","244","470164","0.0-3.0-1.193","../audio/52-1-fem.mp3"," ","","Às","","","",""
"","1480","audio-keyboard-response","245","472152","0.0-3.0-1.194","../audio/52-2-fem.mp3"," ","","vezes","","","",""
"","1000","audio-keyboard-response","246","473531","0.0-3.0-1.195","../audio/52-3-fem.mp3"," ","","eu","","","",""
"","821","audio-keyboard-response","247","474726","0.0-3.0-1.196","../audio/52-4-fem.mp3"," ","","tenho","","","",""
"","1171","audio-keyboard-response","248","476292","0.0-3.0-1.197","../audio/52-5-fem.mp3"," ","","azia","","","",""
"","1811","audio-keyboard-response","249","478478","0.0-3.0-1.198","../audio/52-6-fem.mp3"," ","","depois","","","",""
"","1208","audio-keyboard-response","250","480231","0.0-3.0-1.199","../audio/52-7-fem.mp3"," ","","da","","","",""
"","1099","audio-keyboard-response","251","481705","0.0-3.0-1.200","../audio/52-8-fem.mp3"," ","","janta.","","","",""
"","null","html-keyboard-response","252","482971","0.0-3.0-0.201-0.201","<span style= ""font-size:30px; font-family: monospace"">+</span>","null","fixation","","","","",""
"","368","audio-keyboard-response","253","483830","0.0-3.0-1.201","../audio/51-1-fem.mp3"," ","","Suco","","","",""
"","691","audio-keyboard-response","254","484901","0.0-3.0-1.202","../audio/51-2-fem.mp3"," ","","de","","","",""
"","739","audio-keyboard-response","255","486025","0.0-3.0-1.203","../audio/51-3-fem.mp3"," ","","acerola","","","",""
"","760","audio-keyboard-response","256","487170","0.0-3.0-1.204","../audio/51-4-fem.mp3"," ","","é","","","",""
"","941","audio-keyboard-response","257","488501","0.0-3.0-1.205","../audio/51-5-fem.mp3"," ","","azedo","","","",""
"","1040","audio-keyboard-response","258","489908","0.0-3.0-1.206","../audio/51-6-fem.mp3"," ","","e","","","",""
"","1139","audio-keyboard-response","259","491431","0.0-3.0-1.207","../audio/51-7-fem.mp3"," ","","até","","","",""
"","1389","audio-keyboard-response","260","493193","0.0-3.0-1.208","../audio/51-8-fem.mp3"," ","","barato.","","","",""
"","null","html-keyboard-response","261","494459","0.0-3.0-0.209-0.209","<span style= ""font-size:30px; font-family: monospace"">+</span>","null","fixation","","","","",""
"","981","audio-keyboard-response","262","495897","0.0-3.0-1.209","../audio/53-1-masc.mp3"," ","","O","","","",""
"","1219","audio-keyboard-response","263","497479","0.0-3.0-1.210","../audio/53-2-masc.mp3"," ","","médico","","","",""
"","691","audio-keyboard-response","264","498534","0.0-3.0-1.211","../audio/53-3-masc.mp3"," ","","foi","","","",""
"","1251","audio-keyboard-response","265","500157","0.0-3.0-1.212","../audio/53-4-masc.mp3"," ","","bastante","","","",""
"","1320","audio-keyboard-response","266","501870","0.0-3.0-1.213","../audio/53-5-masc.mp3"," ","","preciso","","","",""
"","1240","audio-keyboard-response","267","503474","0.0-3.0-1.214","../audio/53-6-masc.mp3"," ","","durante","","","",""
"","1389","audio-keyboard-response","268","505270","0.0-3.0-1.215","../audio/53-7-masc.mp3"," ","","a","","","",""
"","1341","audio-keyboard-response","269","506975","0.0-3.0-1.216","../audio/53-8-masc.mp3"," ","","cirurgia.","","","",""
"","null","html-keyboard-response","270","508240","0.0-3.0-0.217-0.217","<span style= ""font-size:30px; font-family: monospace"">+</span>","null","fixation","","","","",""
"","1360","audio-keyboard-response","271","510414","0.0-3.0-1.217","../audio/54-1-masc.mp3"," ","","Estou","","","",""
"","2352","audio-keyboard-response","272","513134","0.0-3.0-1.218","../audio/54-2-masc.mp3"," ","","com","","","",""
"","1720","audio-keyboard-response","273","515345","0.0-3.0-1.219","../audio/54-3-masc.mp3"," ","","medo","","","",""
"","1352","audio-keyboard-response","274","517180","0.0-3.0-1.220","../audio/54-4-masc.mp3"," ","","da","","","",""
"","1061","audio-keyboard-response","275","518610","0.0-3.0-1.221","../audio/54-5-masc.mp3"," ","","atual","","","",""
"","781","audio-keyboard-response","276","519780","0.0-3.0-1.222","../audio/54-6-masc.mp3"," ","","organização","","","",""
"","1861","audio-keyboard-response","277","522005","0.0-3.0-1.223","../audio/54-7-masc.mp3"," ","","do","","","",""
"","1851","audio-keyboard-response","278","524333","0.0-3.0-1.224","../audio/54-8-masc.mp3"," ","","país.","","","",""
"","null","html-keyboard-response","279","525590","0.0-3.0-0.225-0.225","<span style= ""font-size:30px; font-family: monospace"">+</span>","null","fixation","","","","",""
"","1040","audio-keyboard-response","280","527118","0.0-3.0-1.225","../audio/55-1-masc.mp3"," ","","O","","","",""
"","1368","audio-keyboard-response","281","528865","0.0-3.0-1.226","../audio/55-2-masc.mp3"," ","","insulto","","","",""
"","1080","audio-keyboard-response","282","530309","0.0-3.0-1.227","../audio/55-3-masc.mp3"," ","","recente","","","",""
"","1291","audio-keyboard-response","283","531982","0.0-3.0-1.228","../audio/55-4-masc.mp3"," ","","causou","","","",""
"","1061","audio-keyboard-response","284","533420","0.0-3.0-1.229","../audio/55-5-masc.mp3"," ","","indignação","","","",""
"","1611","audio-keyboard-response","285","535399","0.0-3.0-1.230","../audio/55-6-masc.mp3"," ","","em","","","",""
"","2312","audio-keyboard-response","286","538620","0.0-3.0-1.231","../audio/55-7-masc.mp3"," ","","todos.","","","",""
"","5817","html-keyboard-response","287","544700","0.0-3.0-2.231-0.231","<span style=""font-size:25px; font-family: monospace"">O insulto causou calmaria?</span>","n","","","O insulto causou calmaria?","null","exp-sent","false"
"","null","html-keyboard-response","288","546210","0.0-3.0-0.232-0.232","<span style= ""font-size:30px; font-family: monospace"">+</span>","null","fixation","","","","",""
"","989","audio-keyboard-response","289","547689","0.0-3.0-1.232","../audio/36-1-fem.mp3"," ","","Meu","","","",""
"","971","audio-keyboard-response","290","549051","0.0-3.0-1.233","../audio/36-2-fem.mp3"," ","","tio","","","",""
"","1440","audio-keyboard-response","291","550879","0.0-3.0-1.234","../audio/36-3-fem.mp3"," ","","comprou","","","",""
"","1000","audio-keyboard-response","292","552254","0.0-3.0-1.235","../audio/36-4-fem.mp3"," ","","um","","","",""
"","901","audio-keyboard-response","293","553530","0.0-3.0-1.236","../audio/36-5-fem.mp3"," ","","filtro","","","",""
"","1080","audio-keyboard-response","294","554995","0.0-3.0-1.237","../audio/36-6-fem.mp3"," ","","de","","","",""
"","939","audio-keyboard-response","295","556308","0.0-3.0-1.238","../audio/36-7-fem.mp3"," ","","água","","","",""
"","1472","audio-keyboard-response","296","558177","0.0-3.0-1.239","../audio/36-8-fem.mp3"," ","","hoje","","","",""
"","1400","audio-keyboard-response","297","560015","0.0-3.0-1.240","../audio/36-9-fem.mp3"," ","","cedo.","","","",""
"","null","html-keyboard-response","298","561283","0.0-3.0-0.241-0.241","<span style= ""font-size:30px; font-family: monospace"">+</span>","null","fixation","","","","",""
"","1419","audio-keyboard-response","299","563878","0.0-3.0-1.241","../audio/38-1-masc.mp3"," ","","A","","","",""
"","1360","audio-keyboard-response","300","565621","0.0-3.0-1.242","../audio/38-2-masc.mp3"," ","","empresa","","","",""
"","1320","audio-keyboard-response","301","567326","0.0-3.0-1.243","../audio/38-3-masc.mp3"," ","","criou","","","",""
"","1048","audio-keyboard-response","302","568746","0.0-3.0-1.244","../audio/38-4-masc.mp3"," ","","a","","","",""
"","1400","audio-keyboard-response","303","570515","0.0-3.0-1.245","../audio/38-5-masc.mp3"," ","","patente","","","",""
"","1051","audio-keyboard-response","304","571931","0.0-3.0-1.246","../audio/38-6-masc.mp3"," ","","da","","","",""
"","1691","audio-keyboard-response","305","573996","0.0-3.0-1.247","../audio/38-7-masc.mp3"," ","","frigideira.","","","",""
"","null","html-keyboard-response","306","575262","0.0-3.0-0.248-0.248","<span style= ""font-size:30px; font-family: monospace"">+</span>","null","fixation","","","","",""
"","1080","audio-keyboard-response","307","576884","0.0-3.0-1.248","../audio/39-1-fem.mp3"," ","","O","","","",""
"","1000","audio-keyboard-response","308","578531","0.0-3.0-1.249","../audio/39-2-fem.mp3"," ","","conselho","","","",""
"","912","audio-keyboard-response","309","579819","0.0-3.0-1.250","../audio/39-3-fem.mp3"," ","","foi","","","",""
"","1011","audio-keyboard-response","310","581249","0.0-3.0-1.251","../audio/39-4-fem.mp3"," ","","muito","","","",""
"","1112","audio-keyboard-response","311","582742","0.0-3.0-1.252","../audio/39-5-fem.mp3"," ","","útil","","","",""
"","789","audio-keyboard-response","312","583906","0.0-3.0-1.253","../audio/39-6-fem.mp3"," ","","para","","","",""
"","1101","audio-keyboard-response","313","585409","0.0-3.0-1.254","../audio/39-7-fem.mp3"," ","","minha","","","",""
"","1072","audio-keyboard-response","314","586855","0.0-3.0-1.255","../audio/39-8-fem.mp3"," ","","tia.","","","",""
"","null","html-keyboard-response","315","588117","0.0-3.0-0.256-0.256","<span style= ""font-size:30px; font-family: monospace"">+</span>","null","fixation","","","","",""
"","1349","audio-keyboard-response","316","589969","0.0-3.0-1.256","../audio/37-1-fem.mp3"," ","","Eu","","","",""
"","731","audio-keyboard-response","317","591080","0.0-3.0-1.257","../audio/37-2-fem.mp3"," ","","adoro","","","",""
"","971","audio-keyboard-response","318","592444","0.0-3.0-1.258","../audio/37-3-fem.mp3"," ","","suco","","","",""
"","768","audio-keyboard-response","319","593586","0.0-3.0-1.259","../audio/37-4-fem.mp3"," ","","de","","","",""
"","931","audio-keyboard-response","320","594894","0.0-3.0-1.260","../audio/37-5-fem.mp3"," ","","manga","","","",""
"","861","audio-keyboard-response","321","596125","0.0-3.0-1.261","../audio/37-6-fem.mp3"," ","","com","","","",""
"","2501","audio-keyboard-response","322","599017","0.0-3.0-1.262","../audio/37-7-fem.mp3"," ","","hortelã.","","","",""
"","null","html-keyboard-response","323","600284","0.0-3.0-0.263-0.263","<span style= ""font-size:30px; font-family: monospace"">+</span>","null","fixation","","","","",""
"","1040","audio-keyboard-response","324","601820","0.0-3.0-1.263","../audio/40-1-fem.mp3"," ","","O","","","",""
"","2320","audio-keyboard-response","325","604522","0.0-3.0-1.264","../audio/40-2-fem.mp3"," ","","jogo","","","",""
"","1400","audio-keyboard-response","326","606419","0.0-3.0-1.265","../audio/40-3-fem.mp3"," ","","falava","","","",""
"","1061","audio-keyboard-response","327","607849","0.0-3.0-1.266","../audio/40-4-fem.mp3"," ","","de","","","",""
"","1491","audio-keyboard-response","328","609721","0.0-3.0-1.267","../audio/40-5-fem.mp3"," ","","fantasia","","","",""
"","829","audio-keyboard-response","329","610920","0.0-3.0-1.268","../audio/40-6-fem.mp3"," ","","e","","","",""
"","880","audio-keyboard-response","330","612190","0.0-3.0-1.269","../audio/40-7-fem.mp3"," ","","de","","","",""
"","1048","audio-keyboard-response","331","613629","0.0-3.0-1.270","../audio/40-8-fem.mp3"," ","","aventura.","","","",""
"","3887","html-keyboard-response","332","617781","0.0-3.0-2.270-0.270","<span style=""font-size:25px; font-family: monospace"">O jogo tinha fantasia e aventura?</span>","s","","","O jogo tinha fantasia e aventura?","null","exp-sent","false"
"","null","html-keyboard-response","333","619303","0.0-3.0-0.271-0.271","<span style= ""font-size:30px; font-family: monospace"">+</span>","null","fixation","","","","",""
"","901","audio-keyboard-response","334","620732","0.0-3.0-1.271","../audio/68-1-fem.mp3"," ","","Meu","","","",""
"","891","audio-keyboard-response","335","622004","0.0-3.0-1.272","../audio/68-2-fem.mp3"," ","","irmão","","","",""
"","1029","audio-keyboard-response","336","623413","0.0-3.0-1.273","../audio/68-3-fem.mp3"," ","","teve","","","",""
"","960","audio-keyboard-response","337","624979","0.0-3.0-1.274","../audio/68-4-fem.mp3"," ","","um","","","",""
"","1120","audio-keyboard-response","338","626467","0.0-3.0-1.275","../audio/68-5-fem.mp3"," ","","noivado","","","",""
"","941","audio-keyboard-response","339","627780","0.0-3.0-1.276","../audio/68-6-fem.mp3"," ","","longo","","","",""
"","1101","audio-keyboard-response","340","629256","0.0-3.0-1.277","../audio/68-7-fem.mp3"," ","","e","","","",""
"","2240","audio-keyboard-response","341","631919","0.0-3.0-1.278","../audio/68-8-fem.mp3"," ","","maravilhoso.","","","",""
"","null","html-keyboard-response","342","633181","0.0-3.0-0.279-0.279","<span style= ""font-size:30px; font-family: monospace"">+</span>","null","fixation","","","","",""
"","1091","audio-keyboard-response","343","634802","0.0-3.0-1.279","../audio/67-1-fem.mp3"," ","","Minha","","","",""
"","840","audio-keyboard-response","344","636007","0.0-3.0-1.280","../audio/67-2-fem.mp3"," ","","tia","","","",""
"","931","audio-keyboard-response","345","637364","0.0-3.0-1.281","../audio/67-3-fem.mp3"," ","","comprou","","","",""
"","928","audio-keyboard-response","346","638669","0.0-3.0-1.282","../audio/67-4-fem.mp3"," ","","um","","","",""
"","1011","audio-keyboard-response","347","640060","0.0-3.0-1.283","../audio/67-5-fem.mp3"," ","","cordão","","","",""
"","701","audio-keyboard-response","348","641135","0.0-3.0-1.284","../audio/67-6-fem.mp3"," ","","para","","","",""
"","861","audio-keyboard-response","349","642372","0.0-3.0-1.285","../audio/67-7-fem.mp3"," ","","o","","","",""
"","1011","audio-keyboard-response","350","644013","0.0-3.0-1.286","../audio/67-8-fem.mp3"," ","","varal.","","","",""
"","null","html-keyboard-response","351","645293","0.0-3.0-0.287-0.287","<span style= ""font-size:30px; font-family: monospace"">+</span>","null","fixation","","","","",""
"","952","audio-keyboard-response","352","646740","0.0-3.0-1.287","../audio/66-1-masc.mp3"," ","","Não","","","",""
"","1021","audio-keyboard-response","353","648142","0.0-3.0-1.288","../audio/66-2-masc.mp3"," ","","gosto","","","",""
"","640","audio-keyboard-response","354","649158","0.0-3.0-1.289","../audio/66-3-masc.mp3"," ","","de","","","",""
"","1040","audio-keyboard-response","355","650570","0.0-3.0-1.290","../audio/66-4-masc.mp3"," ","","gente","","","",""
"","768","audio-keyboard-response","356","651709","0.0-3.0-1.291","../audio/66-5-masc.mp3"," ","","egoísta","","","",""
"","811","audio-keyboard-response","357","652901","0.0-3.0-1.292","../audio/66-6-masc.mp3"," ","","nem","","","",""
"","1101","audio-keyboard-response","358","654384","0.0-3.0-1.293","../audio/66-7-masc.mp3"," ","","chata.","","","",""
"","null","html-keyboard-response","359","655647","0.0-3.0-0.294-0.294","<span style= ""font-size:30px; font-family: monospace"">+</span>","null","fixation","","","","",""
"","819","audio-keyboard-response","360","656992","0.0-3.0-1.294","../audio/69-1-fem.mp3"," ","","A","","","",""
"","819","audio-keyboard-response","361","658186","0.0-3.0-1.295","../audio/69-2-fem.mp3"," ","","loja","","","",""
"","1088","audio-keyboard-response","362","659665","0.0-3.0-1.296","../audio/69-3-fem.mp3"," ","","recebeu","","","",""
"","1120","audio-keyboard-response","363","661165","0.0-3.0-1.297","../audio/69-4-fem.mp3"," ","","uma","","","",""
"","1360","audio-keyboard-response","364","662901","0.0-3.0-1.298","../audio/69-5-fem.mp3"," ","","poltrona","","","",""
"","1069","audio-keyboard-response","365","664350","0.0-3.0-1.299","../audio/69-6-fem.mp3"," ","","de","","","",""
"","1189","audio-keyboard-response","366","665919","0.0-3.0-1.300","../audio/69-7-fem.mp3"," ","","couro","","","",""
"","760","audio-keyboard-response","367","667055","0.0-3.0-1.301","../audio/69-8-fem.mp3"," ","","preto.","","","",""
"","null","html-keyboard-response","368","668324","0.0-3.0-0.302-0.302","<span style= ""font-size:30px; font-family: monospace"">+</span>","null","fixation","","","","",""
"","731","audio-keyboard-response","369","669531","0.0-3.0-1.302","../audio/70-1-fem.mp3"," ","","O","","","",""
"","749","audio-keyboard-response","370","670886","0.0-3.0-1.303","../audio/70-2-fem.mp3"," ","","meu","","","",""
"","869","audio-keyboard-response","371","672131","0.0-3.0-1.304","../audio/70-3-fem.mp3"," ","","filho","","","",""
"","789","audio-keyboard-response","372","673291","0.0-3.0-1.305","../audio/70-4-fem.mp3"," ","","tem","","","",""
"","989","audio-keyboard-response","373","674653","0.0-3.0-1.306","../audio/70-5-fem.mp3"," ","","medo","","","",""
"","909","audio-keyboard-response","374","677473","0.0-3.0-1.307","../audio/70-6-fem.mp3"," ","","de","","","",""
"","1349","audio-keyboard-response","375","679201","0.0-3.0-1.308","../audio/70-7-fem.mp3"," ","","enguia","","","",""
"","749","audio-keyboard-response","376","680350","0.0-3.0-1.309","../audio/70-8-fem.mp3"," ","","e","","","",""
"","912","audio-keyboard-response","377","681736","0.0-3.0-1.310","../audio/70-9-fem.mp3"," ","","beija-flor.","","","",""
"","3914","html-keyboard-response","378","685902","0.0-3.0-2.310-0.310","<span style=""font-size:25px; font-family: monospace"">O filho tem medo de tigre?</span>","n","","","O filho tem medo de tigre?","null","exp-sent","false"
"","null","html-keyboard-response","379","687412","0.0-3.0-0.311-0.311","<span style= ""font-size:30px; font-family: monospace"">+</span>","null","fixation","","","","",""
"","979","audio-keyboard-response","380","688865","0.0-3.0-1.311","../audio/27-1-masc.mp3"," ","","O","","","",""
"","888","audio-keyboard-response","381","690148","0.0-3.0-1.312","../audio/27-2-masc.mp3"," ","","dinheiro","","","",""
"","2539","audio-keyboard-response","382","693069","0.0-3.0-1.313","../audio/27-3-masc.mp3"," ","","chegou","","","",""
"","891","audio-keyboard-response","383","694958","0.0-3.0-1.314","../audio/27-4-masc.mp3"," ","","à","","","",""
"","1501","audio-keyboard-response","384","696864","0.0-3.0-1.315","../audio/27-5-masc.mp3"," ","","elite","","","",""
"","1309","audio-keyboard-response","385","698650","0.0-3.0-1.316","../audio/27-6-masc.mp3"," ","","deste","","","",""
"","1781","audio-keyboard-response","386","700820","0.0-3.0-1.317","../audio/27-7-masc.mp3"," ","","país.","","","",""
"","null","html-keyboard-response","387","702090","0.0-3.0-0.318-0.318","<span style= ""font-size:30px; font-family: monospace"">+</span>","null","fixation","","","","",""
"","960","audio-keyboard-response","388","703570","0.0-3.0-1.318","../audio/28-1-masc.mp3"," ","","O","","","",""
"","1149","audio-keyboard-response","389","705111","0.0-3.0-1.319","../audio/28-2-masc.mp3"," ","","time","","","",""
"","1320","audio-keyboard-response","390","706977","0.0-3.0-1.320","../audio/28-3-masc.mp3"," ","","quer","","","",""
"","979","audio-keyboard-response","391","708319","0.0-3.0-1.321","../audio/28-4-masc.mp3"," ","","a","","","",""
"","1552","audio-keyboard-response","392","710214","0.0-3.0-1.322","../audio/28-5-masc.mp3"," ","","vitória","","","",""
"","1141","audio-keyboard-response","393","711701","0.0-3.0-1.323","../audio/28-6-masc.mp3"," ","","no","","","",""
"","1309","audio-keyboard-response","394","713354","0.0-3.0-1.324","../audio/28-7-masc.mp3"," ","","jogo","","","",""
"","1248","audio-keyboard-response","395","714984","0.0-3.0-1.325","../audio/28-8-masc.mp3"," ","","de","","","",""
"","2061","audio-keyboard-response","396","717418","0.0-3.0-1.326","../audio/28-9-masc.mp3"," ","","vôlei.","","","",""
"","null","html-keyboard-response","397","718684","0.0-3.0-0.327-0.327","<span style= ""font-size:30px; font-family: monospace"">+</span>","null","fixation","","","","",""
"","1349","audio-keyboard-response","398","720511","0.0-3.0-1.327","../audio/29-1-masc.mp3"," ","","Hoje","","","",""
"","1269","audio-keyboard-response","399","722149","0.0-3.0-1.328","../audio/29-2-masc.mp3"," ","","vamos","","","",""
"","1811","audio-keyboard-response","400","724329","0.0-3.0-1.329","../audio/29-3-masc.mp3"," ","","fazer","","","",""
"","1152","audio-keyboard-response","401","725981","0.0-3.0-1.330","../audio/29-4-masc.mp3"," ","","uma","","","",""
"","2240","audio-keyboard-response","402","728609","0.0-3.0-1.331","../audio/29-5-masc.mp3"," ","","atividade","","","",""
"","1352","audio-keyboard-response","403","730463","0.0-3.0-1.332","../audio/29-6-masc.mp3"," ","","sobre","","","",""
"","1360","audio-keyboard-response","404","732260","0.0-3.0-1.333","../audio/29-7-masc.mp3"," ","","fauna","","","",""
"","1400","audio-keyboard-response","405","734380","0.0-3.0-1.334","../audio/29-8-masc.mp3"," ","","marinha.","","","",""
"","null","html-keyboard-response","406","735654","0.0-3.0-0.335-0.335","<span style= ""font-size:30px; font-family: monospace"">+</span>","null","fixation","","","","",""
"","1080","audio-keyboard-response","407","737232","0.0-3.0-1.335","../audio/26-1-masc.mp3"," ","","Amanhã","","","",""
"","1080","audio-keyboard-response","408","738686","0.0-3.0-1.336","../audio/26-2-masc.mp3"," ","","temos","","","",""
"","848","audio-keyboard-response","409","739905","0.0-3.0-1.337","../audio/26-3-masc.mp3"," ","","festa","","","",""
"","1021","audio-keyboard-response","410","741286","0.0-3.0-1.338","../audio/26-4-masc.mp3"," ","","na","","","",""
"","1379","audio-keyboard-response","411","743042","0.0-3.0-1.339","../audio/26-5-masc.mp3"," ","","piscina","","","",""
"","789","audio-keyboard-response","412","744202","0.0-3.0-1.340","../audio/26-6-masc.mp3"," ","","o","","","",""
"","880","audio-keyboard-response","413","745448","0.0-3.0-1.341","../audio/26-7-masc.mp3"," ","","dia","","","",""
"","800","audio-keyboard-response","414","746607","0.0-3.0-1.342","../audio/26-8-masc.mp3"," ","","todo.","","","",""
"","null","html-keyboard-response","415","747873","0.0-3.0-0.343-0.343","<span style= ""font-size:30px; font-family: monospace"">+</span>","null","fixation","","","","",""
"","939","audio-keyboard-response","416","749597","0.0-3.0-1.343","../audio/30-1-masc.mp3"," ","","O","","","",""
"","1029","audio-keyboard-response","417","751052","0.0-3.0-1.344","../audio/30-2-masc.mp3"," ","","funcionário","","","",""
"","939","audio-keyboard-response","418","752385","0.0-3.0-1.345","../audio/30-3-masc.mp3"," ","","entregou","","","",""
"","691","audio-keyboard-response","419","753441","0.0-3.0-1.346","../audio/30-4-masc.mp3"," ","","o","","","",""
"","920","audio-keyboard-response","420","754750","0.0-3.0-1.347","../audio/30-5-masc.mp3"," ","","restante","","","",""
"","781","audio-keyboard-response","421","755932","0.0-3.0-1.348","../audio/30-6-masc.mp3"," ","","do","","","",""
"","880","audio-keyboard-response","422","757199","0.0-3.0-1.349","../audio/30-7-masc.mp3"," ","","dinheiro.","","","",""
"","4053","html-keyboard-response","423","761514","0.0-3.0-2.349-0.349","<span style=""font-size:25px; font-family: monospace"">O funcionário entregou o contrato?</span>","n","","","O funcionário entregou o contrato?","null","exp-sent","false"
"","null","html-keyboard-response","424","763023","0.0-3.0-0.350-0.350","<span style= ""font-size:30px; font-family: monospace"">+</span>","null","fixation","","","","",""
"","851","audio-keyboard-response","425","764380","0.0-3.0-1.350","../audio/56-1-masc.mp3"," ","","A","","","",""
"","901","audio-keyboard-response","426","765686","0.0-3.0-1.351","../audio/56-2-masc.mp3"," ","","moça","","","",""
"","680","audio-keyboard-response","427","766720","0.0-3.0-1.352","../audio/56-3-masc.mp3"," ","","foi","","","",""
"","680","audio-keyboard-response","428","767774","0.0-3.0-1.353","../audio/56-4-masc.mp3"," ","","à","","","",""
"","1600","audio-keyboard-response","429","769755","0.0-3.0-1.354","../audio/56-5-masc.mp3"," ","","agência","","","",""
"","1659","audio-keyboard-response","430","771800","0.0-3.0-1.355","../audio/56-6-masc.mp3"," ","","bancária","","","",""
"","1139","audio-keyboard-response","431","774309","0.0-3.0-1.356","../audio/56-7-masc.mp3"," ","","ontem","","","",""
"","899","audio-keyboard-response","432","775953","0.0-3.0-1.357","../audio/56-8-masc.mp3"," ","","de","","","",""
"","1120","audio-keyboard-response","433","777453","0.0-3.0-1.358","../audio/56-9-masc.mp3"," ","","tarde.","","","",""
"","null","html-keyboard-response","434","778712","0.0-3.0-0.359-0.359","<span style= ""font-size:30px; font-family: monospace"">+</span>","null","fixation","","","","",""
"","979","audio-keyboard-response","435","780195","0.0-3.0-1.359","../audio/59-1-fem.mp3"," ","","O","","","",""
"","1592","audio-keyboard-response","436","782183","0.0-3.0-1.360","../audio/59-2-fem.mp3"," ","","carteiro","","","",""
"","848","audio-keyboard-response","437","783428","0.0-3.0-1.361","../audio/59-3-fem.mp3"," ","","fez","","","",""
"","1979","audio-keyboard-response","438","785797","0.0-3.0-1.362","../audio/59-4-fem.mp3"," ","","uma","","","",""
"","1840","audio-keyboard-response","439","788232","0.0-3.0-1.363","../audio/59-5-fem.mp3"," ","","tentativa","","","",""
"","1032","audio-keyboard-response","440","789897","0.0-3.0-1.364","../audio/59-6-fem.mp3"," ","","de","","","",""
"","1640","audio-keyboard-response","441","791916","0.0-3.0-1.365","../audio/59-7-fem.mp3"," ","","entrega.","","","",""
"","null","html-keyboard-response","442","793182","0.0-3.0-0.366-0.366","<span style= ""font-size:30px; font-family: monospace"">+</span>","null","fixation","","","","",""
"","429","audio-keyboard-response","443","794246","0.0-3.0-1.366","../audio/57-1-fem.mp3"," ","","O","","","",""
"","1771","audio-keyboard-response","444","796395","0.0-3.0-1.367","../audio/57-2-fem.mp3"," ","","capitão","","","",""
"","1461","audio-keyboard-response","445","798371","0.0-3.0-1.368","../audio/57-3-fem.mp3"," ","","deu","","","",""
"","1019","audio-keyboard-response","446","799758","0.0-3.0-1.369","../audio/57-4-fem.mp3"," ","","uma","","","",""
"","1200","audio-keyboard-response","447","801342","0.0-3.0-1.370","../audio/57-5-fem.mp3"," ","","instrução","","","",""
"","960","audio-keyboard-response","448","802676","0.0-3.0-1.371","../audio/57-6-fem.mp3"," ","","para","","","",""
"","1149","audio-keyboard-response","449","804204","0.0-3.0-1.372","../audio/57-7-fem.mp3"," ","","as","","","",""
"","1600","audio-keyboard-response","450","806165","0.0-3.0-1.373","../audio/57-8-fem.mp3"," ","","pessoas.","","","",""
"","null","html-keyboard-response","451","807431","0.0-3.0-0.374-0.374","<span style= ""font-size:30px; font-family: monospace"">+</span>","null","fixation","","","","",""
"","1221","audio-keyboard-response","452","809368","0.0-3.0-1.374","../audio/58-1-masc.mp3"," ","","Havia","","","",""
"","971","audio-keyboard-response","453","810685","0.0-3.0-1.375","../audio/58-2-masc.mp3"," ","","apenas","","","",""
"","1000","audio-keyboard-response","454","812045","0.0-3.0-1.376","../audio/58-3-masc.mp3"," ","","um","","","",""
"","1829","audio-keyboard-response","455","814245","0.0-3.0-1.377","../audio/58-4-masc.mp3"," ","","último","","","",""
"","1509","audio-keyboard-response","456","816250","0.0-3.0-1.378","../audio/58-5-masc.mp3"," ","","herdeiro","","","",""
"","821","audio-keyboard-response","457","817446","0.0-3.0-1.379","../audio/58-6-masc.mp3"," ","","do","","","",""
"","1088","audio-keyboard-response","458","818908","0.0-3.0-1.380","../audio/58-7-masc.mp3"," ","","dinheiro.","","","",""
"","null","html-keyboard-response","459","820178","0.0-3.0-0.381-0.381","<span style= ""font-size:30px; font-family: monospace"">+</span>","null","fixation","","","","",""
"","1149","audio-keyboard-response","460","821831","0.0-3.0-1.381","../audio/60-1-masc.mp3"," ","","Ondas","","","",""
"","949","audio-keyboard-response","461","823151","0.0-3.0-1.382","../audio/60-2-masc.mp3"," ","","têm","","","",""
"","709","audio-keyboard-response","462","824230","0.0-3.0-1.383","../audio/60-3-masc.mp3"," ","","um","","","",""
"","1061","audio-keyboard-response","463","825649","0.0-3.0-1.384","../audio/60-4-masc.mp3"," ","","impacto","","","",""
"","829","audio-keyboard-response","464","826874","0.0-3.0-1.385","../audio/60-5-masc.mp3"," ","","destrutivo","","","",""
"","949","audio-keyboard-response","465","828206","0.0-3.0-1.386","../audio/60-6-masc.mp3"," ","","no","","","",""
"","888","audio-keyboard-response","466","829470","0.0-3.0-1.387","../audio/60-7-masc.mp3"," ","","litoral.","","","",""
"","4637","html-keyboard-response","467","834361","0.0-3.0-2.387-0.387","<span style=""font-size:25px; font-family: monospace"">Ondas têm um impacto destrutivo?</span>","s","","","Ondas têm um impacto destrutivo?","null","exp-sent","false"
"","null","html-keyboard-response","468","835871","0.0-3.0-0.388-0.388","<span style= ""font-size:30px; font-family: monospace"">+</span>","null","fixation","","","","",""
"","851","audio-keyboard-response","469","837214","0.0-3.0-1.388","../audio/48-1-masc.mp3"," ","","Ela","","","",""
"","1000","audio-keyboard-response","470","838576","0.0-3.0-1.389","../audio/48-2-masc.mp3"," ","","come","","","",""
"","1128","audio-keyboard-response","471","840071","0.0-3.0-1.390","../audio/48-3-masc.mp3"," ","","feijão","","","",""
"","931","audio-keyboard-response","472","841374","0.0-3.0-1.391","../audio/48-4-masc.mp3"," ","","com","","","",""
"","1131","audio-keyboard-response","473","842881","0.0-3.0-1.392","../audio/48-5-masc.mp3"," ","","arroz","","","",""
"","59","audio-keyboard-response","474","844149","0.0-3.0-1.393","../audio/48-6-masc.mp3"," ","","todos","","","",""
"","840","audio-keyboard-response","475","845384","0.0-3.0-1.394","../audio/48-7-masc.mp3"," ","","os","","","",""
"","669","audio-keyboard-response","476","846444","0.0-3.0-1.395","../audio/48-8-masc.mp3"," ","","dias.","","","",""
"","null","html-keyboard-response","477","847719","0.0-3.0-0.396-0.396","<span style= ""font-size:30px; font-family: monospace"">+</span>","null","fixation","","","","",""
"","891","audio-keyboard-response","478","849139","0.0-3.0-1.396","../audio/49-1-fem.mp3"," ","","Eu","","","",""
"","629","audio-keyboard-response","479","850150","0.0-3.0-1.397","../audio/49-2-fem.mp3"," ","","quero","","","",""
"","680","audio-keyboard-response","480","851196","0.0-3.0-1.398","../audio/49-3-fem.mp3"," ","","um","","","",""
"","680","audio-keyboard-response","481","852247","0.0-3.0-1.399","../audio/49-4-fem.mp3"," ","","lanche","","","",""
"","648","audio-keyboard-response","482","853268","0.0-3.0-1.400","../audio/49-5-fem.mp3"," ","","duplo","","","",""
"","811","audio-keyboard-response","483","854452","0.0-3.0-1.401","../audio/49-6-fem.mp3"," ","","e","","","",""
"","1019","audio-keyboard-response","484","855836","0.0-3.0-1.402","../audio/49-7-fem.mp3"," ","","um","","","",""
"","891","audio-keyboard-response","485","857101","0.0-3.0-1.403","../audio/49-8-fem.mp3"," ","","suco.","","","",""
"","null","html-keyboard-response","486","858367","0.0-3.0-0.404-0.404","<span style= ""font-size:30px; font-family: monospace"">+</span>","null","fixation","","","","",""
"","869","audio-keyboard-response","487","859748","0.0-3.0-1.404","../audio/46-1-fem.mp3"," ","","Meu","","","",""
"","709","audio-keyboard-response","488","860844","0.0-3.0-1.405","../audio/46-2-fem.mp3"," ","","primo","","","",""
"","1600","audio-keyboard-response","489","862841","0.0-3.0-1.406","../audio/46-3-fem.mp3"," ","","estava","","","",""
"","1328","audio-keyboard-response","490","864552","0.0-3.0-1.407","../audio/46-4-fem.mp3"," ","","muito","","","",""
"","1371","audio-keyboard-response","491","866337","0.0-3.0-1.408","../audio/46-5-fem.mp3"," ","","deprimido","","","",""
"","1640","audio-keyboard-response","492","868343","0.0-3.0-1.409","../audio/46-6-fem.mp3"," ","","no","","","",""
"","1072","audio-keyboard-response","493","870055","0.0-3.0-1.410","../audio/46-7-fem.mp3"," ","","inverno.","","","",""
"","null","html-keyboard-response","494","871318","0.0-3.0-0.411-0.411","<span style= ""font-size:30px; font-family: monospace"">+</span>","null","fixation","","","","",""
"","832","audio-keyboard-response","495","872621","0.0-3.0-1.411","../audio/47-1-fem.mp3"," ","","O","","","",""
"","989","audio-keyboard-response","496","873985","0.0-3.0-1.412","../audio/47-2-fem.mp3"," ","","tio","","","",""
"","851","audio-keyboard-response","497","875240","0.0-3.0-1.413","../audio/47-3-fem.mp3"," ","","recusou","","","",""
"","688","audio-keyboard-response","498","876308","0.0-3.0-1.414","../audio/47-4-fem.mp3"," ","","a","","","",""
"","1608","audio-keyboard-response","499","878350","0.0-3.0-1.415","../audio/47-5-fem.mp3"," ","","sobremesa","","","",""
"","971","audio-keyboard-response","500","879696","0.0-3.0-1.416","../audio/47-6-fem.mp3"," ","","no","","","",""
"","1261","audio-keyboard-response","501","881342","0.0-3.0-1.417","../audio/47-7-fem.mp3"," ","","almoço.","","","",""
"","null","html-keyboard-response","502","882602","0.0-3.0-0.418-0.418","<span style= ""font-size:30px; font-family: monospace"">+</span>","null","fixation","","","","",""
"","1069","audio-keyboard-response","503","884161","0.0-3.0-1.418","../audio/50-1-masc.mp3"," ","","O","","","",""
"","821","audio-keyboard-response","504","885344","0.0-3.0-1.419","../audio/50-2-masc.mp3"," ","","pássaro","","","",""
"","851","audio-keyboard-response","505","886565","0.0-3.0-1.420","../audio/50-3-masc.mp3"," ","","fugiu","","","",""
"","891","audio-keyboard-response","506","887854","0.0-3.0-1.421","../audio/50-4-masc.mp3"," ","","da","","","",""
"","1741","audio-keyboard-response","507","889971","0.0-3.0-1.422","../audio/50-5-masc.mp3"," ","","gaiola","","","",""
"","1061","audio-keyboard-response","508","891540","0.0-3.0-1.423","../audio/50-6-masc.mp3"," ","","pela","","","",""
"","1251","audio-keyboard-response","509","893170","0.0-3.0-1.424","../audio/50-7-masc.mp3"," ","","portinhola.","","","",""
"","4167","html-keyboard-response","510","897600","0.0-3.0-2.424-0.424","<span style=""font-size:25px; font-family: monospace"">O pássaro fugiu da gaiola?</span>","s","","","O pássaro fugiu da gaiola?","null","exp-sent","false"
"","null","html-keyboard-response","511","899113","0.0-3.0-0.425-0.425","<span style= ""font-size:30px; font-family: monospace"">+</span>","null","fixation","","","","",""
"","749","audio-keyboard-response","512","900350","0.0-3.0-1.425","../audio/01-1-fem.mp3"," ","","O","","","",""
"","821","audio-keyboard-response","513","901540","0.0-3.0-1.426","../audio/01-2-fem.mp3"," ","","menino","","","",""
"","1059","audio-keyboard-response","514","902990","0.0-3.0-1.427","../audio/01-3-fem.mp3"," ","","derrubou","","","",""
"","720","audio-keyboard-response","515","904077","0.0-3.0-1.428","../audio/01-4-fem.mp3"," ","","a","","","",""
"","1029","audio-keyboard-response","516","905492","0.0-3.0-1.429","../audio/01-5-fem.mp3"," ","","guitarra","","","",""
"","731","audio-keyboard-response","517","906612","0.0-3.0-1.430","../audio/01-6-fem.mp3"," ","","no","","","",""
"","952","audio-keyboard-response","518","907940","0.0-3.0-1.431","../audio/01-7-fem.mp3"," ","","chão.","","","",""
"","null","html-keyboard-response","519","909210","0.0-3.0-0.432-0.432","<span style= ""font-size:30px; font-family: monospace"">+</span>","null","fixation","","","","",""
"","1459","audio-keyboard-response","520","911188","0.0-3.0-1.432","../audio/04-1-masc.mp3"," ","","Duzentos","","","",""
"","1069","audio-keyboard-response","521","912635","0.0-3.0-1.433","../audio/04-2-masc.mp3"," ","","carros","","","",""
"","851","audio-keyboard-response","522","913857","0.0-3.0-1.434","../audio/04-3-masc.mp3"," ","","passaram","","","",""
"","800","audio-keyboard-response","523","915029","0.0-3.0-1.435","../audio/04-4-masc.mp3"," ","","pela","","","",""
"","1051","audio-keyboard-response","524","916458","0.0-3.0-1.436","../audio/04-5-masc.mp3"," ","","ponte","","","",""
"","960","audio-keyboard-response","525","917821","0.0-3.0-1.437","../audio/04-6-masc.mp3"," ","","hoje","","","",""
"","901","audio-keyboard-response","526","919104","0.0-3.0-1.438","../audio/04-7-masc.mp3"," ","","de","","","",""
"","1509","audio-keyboard-response","527","920985","0.0-3.0-1.439","../audio/04-8-masc.mp3"," ","","tarde.","","","",""
"","null","html-keyboard-response","528","922256","0.0-3.0-0.440-0.440","<span style= ""font-size:30px; font-family: monospace"">+</span>","null","fixation","","","","",""
"","1429","audio-keyboard-response","529","924310","0.0-3.0-1.440","../audio/03-1-fem.mp3"," ","","O","","","",""
"","1061","audio-keyboard-response","530","925736","0.0-3.0-1.441","../audio/03-2-fem.mp3"," ","","coelho","","","",""
"","928","audio-keyboard-response","531","927071","0.0-3.0-1.442","../audio/03-3-fem.mp3"," ","","foi","","","",""
"","891","audio-keyboard-response","532","928344","0.0-3.0-1.443","../audio/03-4-fem.mp3"," ","","bastante","","","",""
"","899","audio-keyboard-response","533","929632","0.0-3.0-1.444","../audio/03-5-fem.mp3"," ","","dócil","","","",""
"","949","audio-keyboard-response","534","930954","0.0-3.0-1.445","../audio/03-6-fem.mp3"," ","","com","","","",""
"","1459","audio-keyboard-response","535","932796","0.0-3.0-1.446","../audio/03-7-fem.mp3"," ","","as","","","",""
"","1851","audio-keyboard-response","536","935040","0.0-3.0-1.447","../audio/03-8-fem.mp3"," ","","crianças.","","","",""
"","null","html-keyboard-response","537","936305","0.0-3.0-0.448-0.448","<span style= ""font-size:30px; font-family: monospace"">+</span>","null","fixation","","","","",""
"","981","audio-keyboard-response","538","937815","0.0-3.0-1.448","../audio/02-2-fem.mp3"," ","","Havia","","","",""
"","2920","audio-keyboard-response","539","940994","0.0-3.0-1.449","../audio/02-2-fem.mp3"," ","","um","","","",""
"","1149","audio-keyboard-response","540","942644","0.0-3.0-1.450","../audio/02-3-fem.mp3"," ","","cheiro","","","",""
"","1008","audio-keyboard-response","541","944032","0.0-3.0-1.451","../audio/02-4-fem.mp3"," ","","de","","","",""
"","3069","audio-keyboard-response","542","947453","0.0-3.0-1.452","../audio/02-5-fem.mp3"," ","","gasolina","","","",""
"","2691","audio-keyboard-response","543","950664","0.0-3.0-1.453","../audio/02-6-fem.mp3"," ","","na","","","",""
"","1701","audio-keyboard-response","544","952846","0.0-3.0-1.454","../audio/02-7-fem.mp3"," ","","garagem.","","","",""
"","null","html-keyboard-response","545","954115","0.0-3.0-0.455-0.455","<span style= ""font-size:30px; font-family: monospace"">+</span>","null","fixation","","","","",""
"","1301","audio-keyboard-response","546","955901","0.0-3.0-1.455","../audio/05-1-fem.mp3"," ","","A","","","",""
"","1379","audio-keyboard-response","547","957673","0.0-3.0-1.456","../audio/05-2-fem.mp3"," ","","vendedora","","","",""
"","1160","audio-keyboard-response","548","959206","0.0-3.0-1.457","../audio/05-3-fem.mp3"," ","","ajudou","","","",""
"","891","audio-keyboard-response","549","960525","0.0-3.0-1.458","../audio/05-4-fem.mp3"," ","","um","","","",""
"","1219","audio-keyboard-response","550","962188","0.0-3.0-1.459","../audio/05-5-fem.mp3"," ","","turista","","","",""
"","909","audio-keyboard-response","551","963800","0.0-3.0-1.460","../audio/05-6-fem.mp3"," ","","na","","","",""
"","989","audio-keyboard-response","552","965169","0.0-3.0-1.461","../audio/05-7-fem.mp3"," ","","loja.","","","",""
"","4162","html-keyboard-response","553","969589","0.0-3.0-2.461-0.461","<span style=""font-size:25px; font-family: monospace"">A vendedora ajudou um turista?</span>","s","","","A vendedora ajudou um turista?","null","exp-sent","false"
"","null","html-keyboard-response","554","971108","0.0-3.0-0.462-0.462","<span style= ""font-size:30px; font-family: monospace"">+</span>","null","fixation","","","","",""
"","760","audio-keyboard-response","555","972368","0.0-3.0-1.462","../audio/63-1-masc.mp3"," ","","A","","","",""
"","949","audio-keyboard-response","556","973693","0.0-3.0-1.463","../audio/63-2-masc.mp3"," ","","chuva","","","",""
"","789","audio-keyboard-response","557","974869","0.0-3.0-1.464","../audio/63-3-masc.mp3"," ","","entrou","","","",""
"","699","audio-keyboard-response","558","975945","0.0-3.0-1.465","../audio/63-4-masc.mp3"," ","","pela","","","",""
"","691","audio-keyboard-response","559","977005","0.0-3.0-1.466","../audio/63-5-masc.mp3"," ","","abertura","","","",""
"","901","audio-keyboard-response","560","978290","0.0-3.0-1.467","../audio/63-6-masc.mp3"," ","","na","","","",""
"","899","audio-keyboard-response","561","979556","0.0-3.0-1.468","../audio/63-7-masc.mp3"," ","","janela.","","","",""
"","null","html-keyboard-response","562","980815","0.0-3.0-0.469-0.469","<span style= ""font-size:30px; font-family: monospace"">+</span>","null","fixation","","","","",""
"","819","audio-keyboard-response","563","982124","0.0-3.0-1.469","../audio/62-1-masc.mp3"," ","","As","","","",""
"","1309","audio-keyboard-response","564","983834","0.0-3.0-1.470","../audio/62-2-masc.mp3"," ","","artesãs","","","",""
"","1560","audio-keyboard-response","565","985776","0.0-3.0-1.471","../audio/62-3-masc.mp3"," ","","gostam","","","",""
"","1451","audio-keyboard-response","566","987613","0.0-3.0-1.472","../audio/62-4-masc.mp3"," ","","de","","","",""
"","2611","audio-keyboard-response","567","990602","0.0-3.0-1.473","../audio/62-5-masc.mp3"," ","","maquiagem","","","",""
"","1411","audio-keyboard-response","568","992499","0.0-3.0-1.474","../audio/62-6-masc.mp3"," ","","e","","","",""
"","1531","audio-keyboard-response","569","994404","0.0-3.0-1.475","../audio/62-7-masc.mp3"," ","","de","","","",""
"","261","audio-keyboard-response","570","996899","0.0-3.0-1.476","../audio/62-8-masc.mp3"," ","","crochê.","","","",""
"","null","html-keyboard-response","571","998164","0.0-3.0-0.477-0.477","<span style= ""font-size:30px; font-family: monospace"">+</span>","null","fixation","","","","",""
"","1061","audio-keyboard-response","572","999691","0.0-3.0-1.477","../audio/64-1-masc.mp3"," ","","O","","","",""
"","1192","audio-keyboard-response","573","1001261","0.0-3.0-1.478","../audio/64-2-masc.mp3"," ","","dia","","","",""
"","1299","audio-keyboard-response","574","1002945","0.0-3.0-1.479","../audio/64-3-masc.mp3"," ","","começou","","","",""
"","1000","audio-keyboard-response","575","1006307","0.0-3.0-1.480","../audio/64-4-masc.mp3"," ","","com","","","",""
"","1411","audio-keyboard-response","576","1008090","0.0-3.0-1.481","../audio/64-5-masc.mp3"," ","","garoa","","","",""
"","1400","audio-keyboard-response","577","1009844","0.0-3.0-1.482","../audio/64-6-masc.mp3"," ","","gelada","","","",""
"","1499","audio-keyboard-response","578","1011713","0.0-3.0-1.483","../audio/64-7-masc.mp3"," ","","e","","","",""
"","1251","audio-keyboard-response","579","1013335","0.0-3.0-1.484","../audio/64-8-masc.mp3"," ","","leve.","","","",""
"","null","html-keyboard-response","580","1014603","0.0-3.0-0.485-0.485","<span style= ""font-size:30px; font-family: monospace"">+</span>","null","fixation","","","","",""
"","379","audio-keyboard-response","581","1017505","0.0-3.0-1.485","../audio/61-1-masc.mp3"," ","","Aquele","","","",""
"","1488","audio-keyboard-response","582","1019390","0.0-3.0-1.486","../audio/61-2-masc.mp3"," ","","senhor","","","",""
"","971","audio-keyboard-response","583","1021474","0.0-3.0-1.487","../audio/61-3-masc.mp3"," ","","é","","","",""
"","1229","audio-keyboard-response","584","1023627","0.0-3.0-1.488","../audio/61-4-masc.mp3"," ","","muito","","","",""
"","2029","audio-keyboard-response","585","1026049","0.0-3.0-1.489","../audio/61-5-masc.mp3"," ","","sovina","","","",""
"","960","audio-keyboard-response","586","1027522","0.0-3.0-1.490","../audio/61-6-masc.mp3"," ","","e","","","",""
"","1149","audio-keyboard-response","587","1029045","0.0-3.0-1.491","../audio/61-7-masc.mp3"," ","","inflexível.","","","",""
"","null","html-keyboard-response","588","1030308","0.0-3.0-0.492-0.492","<span style= ""font-size:30px; font-family: monospace"">+</span>","null","fixation","","","","",""
"","1008","audio-keyboard-response","589","1031793","0.0-3.0-1.492","../audio/65-1-fem.mp3"," ","","O","","","",""
"","4549","audio-keyboard-response","590","1036733","0.0-3.0-1.493","../audio/65-2-fem.mp3"," ","","fantasma","","","",""
"","1120","audio-keyboard-response","591","1038823","0.0-3.0-1.494","../audio/65-3-fem.mp3"," ","","veio","","","",""
"","1011","audio-keyboard-response","592","1040276","0.0-3.0-1.495","../audio/65-4-fem.mp3"," ","","da","","","",""
"","1691","audio-keyboard-response","593","1043835","0.0-3.0-1.496","../audio/65-5-fem.mp3"," ","","escuridão","","","",""
"","939","audio-keyboard-response","594","1045595","0.0-3.0-1.497","../audio/65-6-fem.mp3"," ","","do","","","",""
"","1221","audio-keyboard-response","595","1047260","0.0-3.0-1.498","../audio/65-7-fem.mp3"," ","","armário.","","","",""
"","3010","html-keyboard-response","596","1050525","0.0-3.0-2.498-0.498","<span style=""font-size:25px; font-family: monospace"">O fantasma veio da escuridão do armário?</span>","s","","","O fantasma veio da escuridão do armário?","null","exp-sent","false"
"","null","html-keyboard-response","597","1052036","0.0-3.0-0.499-0.499","<span style= ""font-size:30px; font-family: monospace"">+</span>","null","fixation","","","","",""
"","928","audio-keyboard-response","598","1053588","0.0-3.0-1.499","../audio/16-1-fem.mp3"," ","","Eu","","","",""
"","1451","audio-keyboard-response","599","1055420","0.0-3.0-1.500","../audio/16-2-fem.mp3"," ","","nunca","","","",""
"","1499","audio-keyboard-response","600","1057304","0.0-3.0-1.501","../audio/16-3-fem.mp3"," ","","conheci","","","",""
"","1109","audio-keyboard-response","601","1058786","0.0-3.0-1.502","../audio/16-4-fem.mp3"," ","","um","","","",""
"","1461","audio-keyboard-response","602","1060664","0.0-3.0-1.503","../audio/16-5-fem.mp3"," ","","general","","","",""
"","840","audio-keyboard-response","603","1061901","0.0-3.0-1.504","../audio/16-6-fem.mp3"," ","","do","","","",""
"","1429","audio-keyboard-response","604","1063708","0.0-3.0-1.505","../audio/16-7-fem.mp3"," ","","exército.","","","",""
"","null","html-keyboard-response","605","1064979","0.0-3.0-0.506-0.506","<span style= ""font-size:30px; font-family: monospace"">+</span>","null","fixation","","","","",""
"","709","audio-keyboard-response","606","1066274","0.0-3.0-1.506","../audio/19-1-fem.mp3"," ","","O","","","",""
"","979","audio-keyboard-response","607","1067682","0.0-3.0-1.507","../audio/19-2-fem.mp3"," ","","menino","","","",""
"","912","audio-keyboard-response","608","1069499","0.0-3.0-1.508","../audio/19-3-fem.mp3"," ","","ganhou","","","",""
"","832","audio-keyboard-response","609","1070699","0.0-3.0-1.509","../audio/19-4-fem.mp3"," ","","uma","","","",""
"","960","audio-keyboard-response","610","1072055","0.0-3.0-1.510","../audio/19-5-fem.mp3"," ","","bala","","","",""
"","1011","audio-keyboard-response","611","1073445","0.0-3.0-1.511","../audio/19-6-fem.mp3"," ","","depois","","","",""
"","859","audio-keyboard-response","612","1074724","0.0-3.0-1.512","../audio/19-7-fem.mp3"," ","","do","","","",""
"","1109","audio-keyboard-response","613","1076207","0.0-3.0-1.513","../audio/19-8-fem.mp3"," ","","almoço.","","","",""
"","null","html-keyboard-response","614","1077471","0.0-3.0-0.514-0.514","<span style= ""font-size:30px; font-family: monospace"">+</span>","null","fixation","","","","",""
"","1389","audio-keyboard-response","615","1079351","0.0-3.0-1.514","../audio/17-1-fem.mp3"," ","","Falaram","","","",""
"","691","audio-keyboard-response","616","1080410","0.0-3.0-1.515","../audio/17-2-fem.mp3"," ","","da","","","",""
"","1101","audio-keyboard-response","617","1081887","0.0-3.0-1.516","../audio/17-3-fem.mp3"," ","","lei","","","",""
"","939","audio-keyboard-response","618","1083184","0.0-3.0-1.517","../audio/17-4-fem.mp3"," ","","no","","","",""
"","1560","audio-keyboard-response","619","1085140","0.0-3.0-1.518","../audio/17-5-fem.mp3"," ","","ministério","","","",""
"","1259","audio-keyboard-response","620","1087116","0.0-3.0-1.519","../audio/17-6-fem.mp3"," ","","diversas","","","",""
"","811","audio-keyboard-response","621","1088315","0.0-3.0-1.520","../audio/17-7-fem.mp3"," ","","vezes.","","","",""
"","null","html-keyboard-response","622","1089584","0.0-3.0-0.521-0.521","<span style= ""font-size:30px; font-family: monospace"">+</span>","null","fixation","","","","",""
"","928","audio-keyboard-response","623","1091027","0.0-3.0-1.521","../audio/18-1-masc.mp3"," ","","O","","","",""
"","1200","audio-keyboard-response","624","1092597","0.0-3.0-1.522","../audio/18-2-masc.mp3"," ","","enredo","","","",""
"","709","audio-keyboard-response","625","1093669","0.0-3.0-1.523","../audio/18-3-masc.mp3"," ","","traz","","","",""
"","712","audio-keyboard-response","626","1094822","0.0-3.0-1.524","../audio/18-4-masc.mp3"," ","","um","","","",""
"","1029","audio-keyboard-response","627","1096245","0.0-3.0-1.525","../audio/18-5-masc.mp3"," ","","dragão","","","",""
"","779","audio-keyboard-response","628","1097399","0.0-3.0-1.526","../audio/18-6-masc.mp3"," ","","forte","","","",""
"","899","audio-keyboard-response","629","1098714","0.0-3.0-1.527","../audio/18-7-masc.mp3"," ","","e","","","",""
"","1029","audio-keyboard-response","630","1100114","0.0-3.0-1.528","../audio/18-8-masc.mp3"," ","","solitário.","","","",""
"","null","html-keyboard-response","631","1101390","0.0-3.0-0.529-0.529","<span style= ""font-size:30px; font-family: monospace"">+</span>","null","fixation","","","","",""
"","1432","audio-keyboard-response","632","1103297","0.0-3.0-1.529","../audio/20-1-fem.mp3"," ","","O","","","",""
"","1488","audio-keyboard-response","633","1105188","0.0-3.0-1.530","../audio/20-2-fem.mp3"," ","","colega","","","",""
"","1189","audio-keyboard-response","634","1106813","0.0-3.0-1.531","../audio/20-3-fem.mp3"," ","","parecia","","","",""
"","1171","audio-keyboard-response","635","1108409","0.0-3.0-1.532","../audio/20-4-fem.mp3"," ","","muito","","","",""
"","1851","audio-keyboard-response","636","1110726","0.0-3.0-1.533","../audio/20-5-fem.mp3"," ","","gripado","","","",""
"","1109","audio-keyboard-response","637","1112512","0.0-3.0-1.534","../audio/20-6-fem.mp3"," ","","no","","","",""
"","1571","audio-keyboard-response","638","1114612","0.0-3.0-1.535","../audio/20-7-fem.mp3"," ","","dia","","","",""
"","1360","audio-keyboard-response","639","1117104","0.0-3.0-1.536","../audio/20-8-fem.mp3"," ","","anterior.","","","",""
"","2717","html-keyboard-response","640","1120086","0.0-3.0-2.536-0.536","<span style=""font-size:25px; font-family: monospace"">O colega parecia muito gripado?</span>","s","","","O colega parecia muito gripado?","null","exp-sent","false"
"","null","html-keyboard-response","641","1121604","0.0-3.0-0.537-0.537","<span style= ""font-size:30px; font-family: monospace"">+</span>","null","fixation","","","","",""
"","1328","audio-keyboard-response","642","1123547","0.0-3.0-1.537","../audio/78-1-fem.mp3"," ","","Eles","","","",""
"","1320","audio-keyboard-response","643","1126315","0.0-3.0-1.538","../audio/78-2-fem.mp3"," ","","trazem","","","",""
"","781","audio-keyboard-response","644","1127490","0.0-3.0-1.539","../audio/78-3-fem.mp3"," ","","um","","","",""
"","1251","audio-keyboard-response","645","1129735","0.0-3.0-1.540","../audio/78-4-fem.mp3"," ","","fato","","","",""
"","2059","audio-keyboard-response","646","1132350","0.0-3.0-1.541","../audio/78-5-fem.mp3"," ","","urgente","","","",""
"","1091","audio-keyboard-response","647","1134140","0.0-3.0-1.542","../audio/78-6-fem.mp3"," ","","todos","","","",""
"","1141","audio-keyboard-response","648","1135661","0.0-3.0-1.543","../audio/78-7-fem.mp3"," ","","os","","","",""
"","1459","audio-keyboard-response","649","1137519","0.0-3.0-1.544","../audio/78-8-fem.mp3"," ","","dias.","","","",""
"","null","html-keyboard-response","650","1138791","0.0-3.0-0.545-0.545","<span style= ""font-size:30px; font-family: monospace"">+</span>","null","fixation","","","","",""
"","771","audio-keyboard-response","651","1140041","0.0-3.0-1.545","../audio/77-1-fem.mp3"," ","","A","","","",""
"","661","audio-keyboard-response","652","1141091","0.0-3.0-1.546","../audio/77-2-fem.mp3"," ","","criança","","","",""
"","1000","audio-keyboard-response","653","1142485","0.0-3.0-1.547","../audio/77-3-fem.mp3"," ","","ficou","","","",""
"","741","audio-keyboard-response","654","1143606","0.0-3.0-1.548","../audio/77-4-fem.mp3"," ","","muito","","","",""
"","931","audio-keyboard-response","655","1144926","0.0-3.0-1.549","../audio/77-5-fem.mp3"," ","","feliz","","","",""
"","560","audio-keyboard-response","656","1145869","0.0-3.0-1.550","../audio/77-6-fem.mp3"," ","","com","","","",""
"","571","audio-keyboard-response","657","1146798","0.0-3.0-1.551","../audio/77-7-fem.mp3"," ","","o","","","",""
"","869","audio-keyboard-response","658","1148052","0.0-3.0-1.552","../audio/77-8-fem.mp3"," ","","brinquedo.","","","",""
"","null","html-keyboard-response","659","1149320","0.0-3.0-0.553-0.553","<span style= ""font-size:30px; font-family: monospace"">+</span>","null","fixation","","","","",""
"","691","audio-keyboard-response","660","1150500","0.0-3.0-1.553","../audio/76-1-fem.mp3"," ","","O","","","",""
"","1240","audio-keyboard-response","661","1152119","0.0-3.0-1.554","../audio/76-2-fem.mp3"," ","","bisavô","","","",""
"","960","audio-keyboard-response","662","1153515","0.0-3.0-1.555","../audio/76-3-fem.mp3"," ","","comprou","","","",""
"","851","audio-keyboard-response","663","1154739","0.0-3.0-1.556","../audio/76-4-fem.mp3"," ","","um","","","",""
"","1520","audio-keyboard-response","664","1156640","0.0-3.0-1.557","../audio/76-5-fem.mp3"," ","","ralador","","","",""
"","931","audio-keyboard-response","665","1157942","0.0-3.0-1.558","../audio/76-6-fem.mp3"," ","","de","","","",""
"","1440","audio-keyboard-response","666","1159755","0.0-3.0-1.559","../audio/76-7-fem.mp3"," ","","queijo.","","","",""
"","null","html-keyboard-response","667","1161023","0.0-3.0-0.560-0.560","<span style= ""font-size:30px; font-family: monospace"">+</span>","null","fixation","","","","",""
"","691","audio-keyboard-response","668","1162240","0.0-3.0-1.560","../audio/79-1-fem.mp3"," ","","A","","","",""
"","1139","audio-keyboard-response","669","1164109","0.0-3.0-1.561","../audio/79-2-fem.mp3"," ","","médica","","","",""
"","1411","audio-keyboard-response","670","1166132","0.0-3.0-1.562","../audio/79-3-fem.mp3"," ","","verificou","","","",""
"","749","audio-keyboard-response","671","1167236","0.0-3.0-1.563","../audio/79-4-fem.mp3"," ","","a","","","",""
"","1259","audio-keyboard-response","672","1168881","0.0-3.0-1.564","../audio/79-5-fem.mp3"," ","","gengiva","","","",""
"","731","audio-keyboard-response","673","1170040","0.0-3.0-1.565","../audio/79-6-fem.mp3"," ","","por","","","",""
"","720","audio-keyboard-response","674","1171205","0.0-3.0-1.566","../audio/79-7-fem.mp3"," ","","último.","","","",""
"","null","html-keyboard-response","675","1172478","0.0-3.0-0.567-0.567","<span style= ""font-size:30px; font-family: monospace"">+</span>","null","fixation","","","","",""
"","861","audio-keyboard-response","676","1173817","0.0-3.0-1.567","../audio/80-1-fem.mp3"," ","","Meu","","","",""
"","771","audio-keyboard-response","677","1174959","0.0-3.0-1.568","../audio/80-2-fem.mp3"," ","","primo","","","",""
"","600","audio-keyboard-response","678","1175937","0.0-3.0-1.569","../audio/80-3-fem.mp3"," ","","conheceu","","","",""
"","832","audio-keyboard-response","679","1177136","0.0-3.0-1.570","../audio/80-4-fem.mp3"," ","","um","","","",""
"","821","audio-keyboard-response","680","1178344","0.0-3.0-1.571","../audio/80-5-fem.mp3"," ","","jovem","","","",""
"","640","audio-keyboard-response","681","1179372","0.0-3.0-1.572","../audio/80-6-fem.mp3"," ","","amável","","","",""
"","840","audio-keyboard-response","682","1180621","0.0-3.0-1.573","../audio/80-7-fem.mp3"," ","","e","","","",""
"","960","audio-keyboard-response","683","1181976","0.0-3.0-1.574","../audio/80-8-fem.mp3"," ","","confiante.","","","",""
"","3206","html-keyboard-response","684","1185433","0.0-3.0-2.574-0.574","<span style=""font-size:25px; font-family: monospace"">O primo conheceu um jovem irritante?</span>","n","","","O primo conheceu um jovem irritante?","null","exp-sent","false"
"","null","html-keyboard-response","685","1186949","0.0-3.0-0.575-0.575","<span style= ""font-size:30px; font-family: monospace"">+</span>","null","fixation","","","","",""
"","672","audio-keyboard-response","686","1188301","0.0-3.0-1.575","../audio/32-1-fem.mp3"," ","","A","","","",""
"","840","audio-keyboard-response","687","1189536","0.0-3.0-1.576","../audio/32-2-fem.mp3"," ","","tia","","","",""
"","960","audio-keyboard-response","688","1190867","0.0-3.0-1.577","../audio/32-3-fem.mp3"," ","","comprou","","","",""
"","661","audio-keyboard-response","689","1191886","0.0-3.0-1.578","../audio/32-4-fem.mp3"," ","","um","","","",""
"","989","audio-keyboard-response","690","1194515","0.0-3.0-1.579","../audio/32-5-fem.mp3"," ","","pilão","","","",""
"","688","audio-keyboard-response","691","1196911","0.0-3.0-1.580","../audio/32-6-fem.mp3"," ","","para","","","",""
"","731","audio-keyboard-response","692","1198164","0.0-3.0-1.581","../audio/32-7-fem.mp3"," ","","a","","","",""
"","1109","audio-keyboard-response","693","1199664","0.0-3.0-1.582","../audio/32-8-fem.mp3"," ","","cozinha.","","","",""
"","null","html-keyboard-response","694","1200937","0.0-3.0-0.583-0.583","<span style= ""font-size:30px; font-family: monospace"">+</span>","null","fixation","","","","",""
"","952","audio-keyboard-response","695","1202377","0.0-3.0-1.583","../audio/34-1-masc.mp3"," ","","Cobrança","","","",""
"","211","audio-keyboard-response","696","1203931","0.0-3.0-1.584","../audio/34-2-masc.mp3"," ","","excessiva","","","",""
"","661","audio-keyboard-response","697","1205056","0.0-3.0-1.585","../audio/34-3-masc.mp3"," ","","é","","","",""
"","861","audio-keyboard-response","698","1206286","0.0-3.0-1.586","../audio/34-4-masc.mp3"," ","","um","","","",""
"","939","audio-keyboard-response","699","1207584","0.0-3.0-1.587","../audio/34-5-masc.mp3"," ","","fardo","","","",""
"","720","audio-keyboard-response","700","1208719","0.0-3.0-1.588","../audio/34-6-masc.mp3"," ","","para","","","",""
"","720","audio-keyboard-response","701","1209795","0.0-3.0-1.589","../audio/34-7-masc.mp3"," ","","a","","","",""
"","632","audio-keyboard-response","702","1210823","0.0-3.0-1.590","../audio/34-8-masc.mp3"," ","","cabeça.","","","",""
"","null","html-keyboard-response","703","1212087","0.0-3.0-0.591-0.591","<span style= ""font-size:30px; font-family: monospace"">+</span>","null","fixation","","","","",""
"","781","audio-keyboard-response","704","1213846","0.0-3.0-1.591","../audio/31-1-fem.mp3"," ","","O","","","",""
"","680","audio-keyboard-response","705","1214911","0.0-3.0-1.592","../audio/31-2-fem.mp3"," ","","padeiro","","","",""
"","600","audio-keyboard-response","706","1215970","0.0-3.0-1.593","../audio/31-3-fem.mp3"," ","","usou","","","",""
"","451","audio-keyboard-response","707","1216819","0.0-3.0-1.594","../audio/31-4-fem.mp3"," ","","a","","","",""
"","1101","audio-keyboard-response","708","1218294","0.0-3.0-1.595","../audio/31-5-fem.mp3"," ","","balança","","","",""
"","821","audio-keyboard-response","709","1219484","0.0-3.0-1.596","../audio/31-6-fem.mp3"," ","","o","","","",""
"","912","audio-keyboard-response","710","1220776","0.0-3.0-1.597","../audio/31-7-fem.mp3"," ","","dia","","","",""
"","1120","audio-keyboard-response","711","1222673","0.0-3.0-1.598","../audio/31-8-fem.mp3"," ","","inteiro.","","","",""
"","null","html-keyboard-response","712","1223947","0.0-3.0-0.599-0.599","<span style= ""font-size:30px; font-family: monospace"">+</span>","null","fixation","","","","",""
"","1019","audio-keyboard-response","713","1225480","0.0-3.0-1.599","../audio/33-1-masc.mp3"," ","","Eles","","","",""
"","1120","audio-keyboard-response","714","1226965","0.0-3.0-1.600","../audio/33-2-masc.mp3"," ","","sabem","","","",""
"","880","audio-keyboard-response","715","1228454","0.0-3.0-1.601","../audio/33-3-masc.mp3"," ","","do","","","",""
"","1051","audio-keyboard-response","716","1229898","0.0-3.0-1.602","../audio/33-4-masc.mp3"," ","","seu","","","",""
"","1411","audio-keyboard-response","717","1231695","0.0-3.0-1.603","../audio/33-5-masc.mp3"," ","","privilégio","","","",""
"","1120","audio-keyboard-response","718","1233229","0.0-3.0-1.604","../audio/33-6-masc.mp3"," ","","nessa","","","",""
"","1448","audio-keyboard-response","719","1236144","0.0-3.0-1.605","../audio/33-7-masc.mp3"," ","","confusão.","","","",""
"","null","html-keyboard-response","720","1237407","0.0-3.0-0.606-0.606","<span style= ""font-size:30px; font-family: monospace"">+</span>","null","fixation","","","","",""
"","669","audio-keyboard-response","721","1239191","0.0-3.0-1.606","../audio/35-1-masc.mp3"," ","","A","","","",""
"","1328","audio-keyboard-response","722","1240946","0.0-3.0-1.607","../audio/35-2-masc.mp3"," ","","receita","","","",""
"","859","audio-keyboard-response","723","1242200","0.0-3.0-1.608","../audio/35-3-masc.mp3"," ","","para","","","",""
"","701","audio-keyboard-response","724","1243287","0.0-3.0-1.609","../audio/35-4-masc.mp3"," ","","a","","","",""
"","981","audio-keyboard-response","725","1244656","0.0-3.0-1.610","../audio/35-5-masc.mp3"," ","","preparação","","","",""
"","840","audio-keyboard-response","726","1245943","0.0-3.0-1.611","../audio/35-6-masc.mp3"," ","","do","","","",""
"","1160","audio-keyboard-response","727","1247472","0.0-3.0-1.612","../audio/35-7-masc.mp3"," ","","bolo","","","",""
"","931","audio-keyboard-response","728","1248771","0.0-3.0-1.613","../audio/35-8-masc.mp3"," ","","é","","","",""
"","1381","audio-keyboard-response","729","1250533","0.0-3.0-1.614","../audio/35-9-masc.mp3"," ","","leve.","","","",""
"","3056","html-keyboard-response","730","1253856","0.0-3.0-2.614-0.614","<span style=""font-size:25px; font-family: monospace"">A receita do bolo é pesada?</span>","n","","","A receita do bolo é pesada?","null","exp-sent","false"
"[{""page_index"":0,""viewing_time"":4632}]","4632","instructions","731","1258996","0.0-4.0","","","","","","","",""
