"view_history","rt","trial_type","trial_index","time_elapsed","internal_node_id","stimulus","response","trial_part","trial","word","question","answer","accuracy"
"[{""page_index"":0,""viewing_time"":86902},{""page_index"":1,""viewing_time"":1840}]","88743","instructions","0","88747","0.0-0.0","","","","","","","",""
"","null","html-keyboard-response","1","89861","0.0-1.0-0.0-0.0","<span style= ""font-size:30px; font-family: monospace"">+</span>","null","fixation","","","","",""
"","4025","html-keyboard-response","2","94143","0.0-1.0-1.0","<span style=""font-size:30px; font-family: monospace"">O</span>"," ","","prac-sent","O","","",""
"","1687","html-keyboard-response","3","96092","0.0-1.0-1.1","<span style=""font-size:30px; font-family: monospace"">dia</span>"," ","","prac-sent","dia","","",""
"","1039","html-keyboard-response","4","97386","0.0-1.0-1.2","<span style=""font-size:30px; font-family: monospace"">estará</span>"," ","","prac-sent","estará","","",""
"","1118","html-keyboard-response","5","98764","0.0-1.0-1.3","<span style=""font-size:30px; font-family: monospace"">cheio</span>"," ","","prac-sent","cheio","","",""
"","567","html-keyboard-response","6","99587","0.0-1.0-1.4","<span style=""font-size:30px; font-family: monospace"">de</span>"," ","","prac-sent","de","","",""
"","775","html-keyboard-response","7","100620","0.0-1.0-1.5","<span style=""font-size:30px; font-family: monospace"">nuvens</span>"," ","","prac-sent","nuvens","","",""
"","1033","html-keyboard-response","8","101915","0.0-1.0-1.6","<span style=""font-size:30px; font-family: monospace"">hoje.</span>"," ","","prac-sent","hoje.","","",""
"","null","html-keyboard-response","9","103184","0.0-1.0-0.7-0.7","<span style= ""font-size:30px; font-family: monospace"">+</span>","null","fixation","","","","",""
"","1437","html-keyboard-response","10","104877","0.0-1.0-1.7","<span style=""font-size:30px; font-family: monospace"">A</span>"," ","","prac-sent","A","","",""
"","935","html-keyboard-response","11","106068","0.0-1.0-1.8","<span style=""font-size:30px; font-family: monospace"">caneca</span>"," ","","prac-sent","caneca","","",""
"","749","html-keyboard-response","12","107067","0.0-1.0-1.9","<span style=""font-size:30px; font-family: monospace"">colorida</span>"," ","","prac-sent","colorida","","",""
"","772","html-keyboard-response","13","108102","0.0-1.0-1.10","<span style=""font-size:30px; font-family: monospace"">caiu</span>"," ","","prac-sent","caiu","","",""
"","665","html-keyboard-response","14","109034","0.0-1.0-1.11","<span style=""font-size:30px; font-family: monospace"">da</span>"," ","","prac-sent","da","","",""
"","459","html-keyboard-response","15","109753","0.0-1.0-1.12","<span style=""font-size:30px; font-family: monospace"">mesa</span>"," ","","prac-sent","mesa","","",""
"","455","html-keyboard-response","16","110461","0.0-1.0-1.13","<span style=""font-size:30px; font-family: monospace"">de</span>"," ","","prac-sent","de","","",""
"","1134","html-keyboard-response","17","111856","0.0-1.0-1.14","<span style=""font-size:30px; font-family: monospace"">jantar.</span>"," ","","prac-comp","jantar.","","",""
"","5521","html-keyboard-response","18","117635","0.0-1.0-2.14-0.14","<span style=""font-size:30px; font-family: monospace"">A caneca permaneceu na mesa?</span>","n","","prac-comp","","A caneca permaneceu na mesa?","não","false"
"[{""page_index"":0,""viewing_time"":15172}]","15173","instructions","19","133321","0.0-2.0","","","","","","","",""
"","null","html-keyboard-response","20","134435","0.0-3.0-0.0-0.0","<span style= ""font-size:30px; font-family: monospace"">+</span>","null","fixation","","","","",""
"","1767","html-keyboard-response","21","136454","0.0-3.0-1.0","<span style=""font-size:30px; font-family: monospace"">A</span>"," ","","exp-sent","A","","",""
"","846","html-keyboard-response","22","137551","0.0-3.0-1.1","<span style=""font-size:30px; font-family: monospace"">força</span>"," ","","exp-sent","força","","",""
"","617","html-keyboard-response","23","138430","0.0-3.0-1.2","<span style=""font-size:30px; font-family: monospace"">d'água</span>"," ","","exp-sent","d'água","","",""
"","619","html-keyboard-response","24","139304","0.0-3.0-1.3","<span style=""font-size:30px; font-family: monospace"">estava</span>"," ","","exp-sent","estava","","",""
"","543","html-keyboard-response","25","140104","0.0-3.0-1.4","<span style=""font-size:30px; font-family: monospace"">normal</span>"," ","","exp-sent","normal","","",""
"","623","html-keyboard-response","26","140987","0.0-3.0-1.5","<span style=""font-size:30px; font-family: monospace"">naquele</span>"," ","","exp-sent","naquele","","",""
"","422","html-keyboard-response","27","141666","0.0-3.0-1.6","<span style=""font-size:30px; font-family: monospace"">dia.</span>"," ","","exp-sent","dia.","","",""
"","null","html-keyboard-response","28","142936","0.0-3.0-0.7-0.7","<span style= ""font-size:30px; font-family: monospace"">+</span>","null","fixation","","","","",""
"","518","html-keyboard-response","29","143713","0.0-3.0-1.7","<span style=""font-size:30px; font-family: monospace"">A</span>"," ","","exp-sent","A","","",""
"","511","html-keyboard-response","30","144490","0.0-3.0-1.8","<span style=""font-size:30px; font-family: monospace"">médica</span>"," ","","exp-sent","médica","","",""
"","734","html-keyboard-response","31","145487","0.0-3.0-1.9","<span style=""font-size:30px; font-family: monospace"">ofereceu</span>"," ","","exp-sent","ofereceu","","",""
"","484","html-keyboard-response","32","146232","0.0-3.0-1.10","<span style=""font-size:30px; font-family: monospace"">a</span>"," ","","exp-sent","a","","",""
"","652","html-keyboard-response","33","147148","0.0-3.0-1.11","<span style=""font-size:30px; font-family: monospace"">pomada</span>"," ","","exp-sent","pomada","","",""
"","558","html-keyboard-response","34","147967","0.0-3.0-1.12","<span style=""font-size:30px; font-family: monospace"">para</span>"," ","","exp-sent","para","","",""
"","429","html-keyboard-response","35","148650","0.0-3.0-1.13","<span style=""font-size:30px; font-family: monospace"">o</span>"," ","","exp-sent","o","","",""
"","632","html-keyboard-response","36","149541","0.0-3.0-1.14","<span style=""font-size:30px; font-family: monospace"">avô.</span>"," ","","exp-sent","avô.","","",""
"","null","html-keyboard-response","37","150796","0.0-3.0-0.15-0.15","<span style= ""font-size:30px; font-family: monospace"">+</span>","null","fixation","","","","",""
"","773","html-keyboard-response","38","151823","0.0-3.0-1.15","<span style=""font-size:30px; font-family: monospace"">Ele</span>"," ","","exp-sent","Ele","","",""
"","770","html-keyboard-response","39","152847","0.0-3.0-1.16","<span style=""font-size:30px; font-family: monospace"">conversou</span>"," ","","exp-sent","conversou","","",""
"","409","html-keyboard-response","40","153517","0.0-3.0-1.17","<span style=""font-size:30px; font-family: monospace"">com</span>"," ","","exp-sent","com","","",""
"","373","html-keyboard-response","41","154149","0.0-3.0-1.18","<span style=""font-size:30px; font-family: monospace"">o</span>"," ","","exp-sent","o","","",""
"","530","html-keyboard-response","42","154929","0.0-3.0-1.19","<span style=""font-size:30px; font-family: monospace"">patrão</span>"," ","","exp-sent","patrão","","",""
"","511","html-keyboard-response","43","155696","0.0-3.0-1.20","<span style=""font-size:30px; font-family: monospace"">durante</span>"," ","","exp-sent","durante","","",""
"","380","html-keyboard-response","44","156331","0.0-3.0-1.21","<span style=""font-size:30px; font-family: monospace"">a</span>"," ","","exp-sent","a","","",""
"","398","html-keyboard-response","45","156990","0.0-3.0-1.22","<span style=""font-size:30px; font-family: monospace"">tarde.</span>"," ","","exp-sent","tarde.","","",""
"","null","html-keyboard-response","46","158258","0.0-3.0-0.23-0.23","<span style= ""font-size:30px; font-family: monospace"">+</span>","null","fixation","","","","",""
"","1110","html-keyboard-response","47","159628","0.0-3.0-1.23","<span style=""font-size:30px; font-family: monospace"">Algumas</span>"," ","","exp-sent","Algumas","","",""
"","698","html-keyboard-response","48","160586","0.0-3.0-1.24","<span style=""font-size:30px; font-family: monospace"">pessoas</span>"," ","","exp-sent","pessoas","","",""
"","1297","html-keyboard-response","49","162144","0.0-3.0-1.25","<span style=""font-size:30px; font-family: monospace"">acreditam</span>"," ","","exp-sent","acreditam","","",""
"","694","html-keyboard-response","50","163098","0.0-3.0-1.26","<span style=""font-size:30px; font-family: monospace"">em</span>"," ","","exp-sent","em","","",""
"","837","html-keyboard-response","51","164191","0.0-3.0-1.27","<span style=""font-size:30px; font-family: monospace"">espíritos</span>"," ","","exp-sent","espíritos","","",""
"","1602","html-keyboard-response","52","166053","0.0-3.0-1.28","<span style=""font-size:30px; font-family: monospace"">e</span>"," ","","exp-sent","e","","",""
"","442","html-keyboard-response","53","166759","0.0-3.0-1.29","<span style=""font-size:30px; font-family: monospace"">em</span>"," ","","exp-sent","em","","",""
"","588","html-keyboard-response","54","167608","0.0-3.0-1.30","<span style=""font-size:30px; font-family: monospace"">outras</span>"," ","","exp-sent","outras","","",""
"","419","html-keyboard-response","55","168278","0.0-3.0-1.31","<span style=""font-size:30px; font-family: monospace"">vidas.</span>"," ","","exp-sent","vidas.","","",""
"","null","html-keyboard-response","56","169554","0.0-3.0-0.32-0.32","<span style= ""font-size:30px; font-family: monospace"">+</span>","null","fixation","","","","",""
"","1338","html-keyboard-response","57","171147","0.0-3.0-1.32","<span style=""font-size:30px; font-family: monospace"">Ela</span>"," ","","exp-sent","Ela","","",""
"","656","html-keyboard-response","58","172065","0.0-3.0-1.33","<span style=""font-size:30px; font-family: monospace"">gosta</span>"," ","","exp-sent","gosta","","",""
"","589","html-keyboard-response","59","172915","0.0-3.0-1.34","<span style=""font-size:30px; font-family: monospace"">de</span>"," ","","exp-sent","de","","",""
"","653","html-keyboard-response","60","173821","0.0-3.0-1.35","<span style=""font-size:30px; font-family: monospace"">estudar</span>"," ","","exp-sent","estudar","","",""
"","705","html-keyboard-response","61","174792","0.0-3.0-1.36","<span style=""font-size:30px; font-family: monospace"">matemática</span>"," ","","exp-sent","matemática","","",""
"","588","html-keyboard-response","62","175643","0.0-3.0-1.37","<span style=""font-size:30px; font-family: monospace"">com</span>"," ","","exp-sent","com","","",""
"","633","html-keyboard-response","63","176530","0.0-3.0-1.38","<span style=""font-size:30px; font-family: monospace"">colegas.</span>"," ","","comp","colegas.","","",""
"","3350","html-keyboard-response","64","180141","0.0-3.0-2.38-0.38","<span style=""font-size:30px; font-family: monospace"">Ela gosta de estudar física?</span>","n","","comp","","Ela gosta de estudar física?","não","false"
"","null","html-keyboard-response","65","181653","0.0-3.0-0.39-0.39","<span style= ""font-size:30px; font-family: monospace"">+</span>","null","fixation","","","","",""
"","706","html-keyboard-response","66","182614","0.0-3.0-1.39","<span style=""font-size:30px; font-family: monospace"">Ele</span>"," ","","exp-sent","Ele","","",""
"","1057","html-keyboard-response","67","183925","0.0-3.0-1.40","<span style=""font-size:30px; font-family: monospace"">é</span>"," ","","exp-sent","é","","",""
"","417","html-keyboard-response","68","184604","0.0-3.0-1.41","<span style=""font-size:30px; font-family: monospace"">um</span>"," ","","exp-sent","um","","",""
"","385","html-keyboard-response","69","185246","0.0-3.0-1.42","<span style=""font-size:30px; font-family: monospace"">pai</span>"," ","","exp-sent","pai","","",""
"","819","html-keyboard-response","70","186317","0.0-3.0-1.43","<span style=""font-size:30px; font-family: monospace"">ausente</span>"," ","","exp-sent","ausente","","",""
"","423","html-keyboard-response","71","186995","0.0-3.0-1.44","<span style=""font-size:30px; font-family: monospace"">e</span>"," ","","exp-sent","e","","",""
"","454","html-keyboard-response","72","187708","0.0-3.0-1.45","<span style=""font-size:30px; font-family: monospace"">muito</span>"," ","","exp-sent","muito","","",""
"","764","html-keyboard-response","73","188732","0.0-3.0-1.46","<span style=""font-size:30px; font-family: monospace"">fofoqueiro.</span>"," ","","exp-sent","fofoqueiro.","","",""
"","null","html-keyboard-response","74","190003","0.0-3.0-0.47-0.47","<span style= ""font-size:30px; font-family: monospace"">+</span>","null","fixation","","","","",""
"","465","html-keyboard-response","75","190724","0.0-3.0-1.47","<span style=""font-size:30px; font-family: monospace"">O</span>"," ","","exp-sent","O","","",""
"","440","html-keyboard-response","76","191422","0.0-3.0-1.48","<span style=""font-size:30px; font-family: monospace"">filho</span>"," ","","exp-sent","filho","","",""
"","391","html-keyboard-response","77","192070","0.0-3.0-1.49","<span style=""font-size:30px; font-family: monospace"">lavou</span>"," ","","exp-sent","lavou","","",""
"","465","html-keyboard-response","78","192790","0.0-3.0-1.50","<span style=""font-size:30px; font-family: monospace"">a</span>"," ","","exp-sent","a","","",""
"","405","html-keyboard-response","79","193449","0.0-3.0-1.51","<span style=""font-size:30px; font-family: monospace"">roupa</span>"," ","","exp-sent","roupa","","",""
"","426","html-keyboard-response","80","194130","0.0-3.0-1.52","<span style=""font-size:30px; font-family: monospace"">sem</span>"," ","","exp-sent","sem","","",""
"","660","html-keyboard-response","81","195043","0.0-3.0-1.53","<span style=""font-size:30px; font-family: monospace"">nenhuma</span>"," ","","exp-sent","nenhuma","","",""
"","468","html-keyboard-response","82","195770","0.0-3.0-1.54","<span style=""font-size:30px; font-family: monospace"">ajuda.</span>"," ","","exp-sent","ajuda.","","",""
"","null","html-keyboard-response","83","197039","0.0-3.0-0.55-0.55","<span style= ""font-size:30px; font-family: monospace"">+</span>","null","fixation","","","","",""
"","647","html-keyboard-response","84","197938","0.0-3.0-1.55","<span style=""font-size:30px; font-family: monospace"">O</span>"," ","","exp-sent","O","","",""
"","463","html-keyboard-response","85","198664","0.0-3.0-1.56","<span style=""font-size:30px; font-family: monospace"">menino</span>"," ","","exp-sent","menino","","",""
"","420","html-keyboard-response","86","199350","0.0-3.0-1.57","<span style=""font-size:30px; font-family: monospace"">quebrou</span>"," ","","exp-sent","quebrou","","",""
"","424","html-keyboard-response","87","200038","0.0-3.0-1.58","<span style=""font-size:30px; font-family: monospace"">a</span>"," ","","exp-sent","a","","",""
"","461","html-keyboard-response","88","200753","0.0-3.0-1.59","<span style=""font-size:30px; font-family: monospace"">perna</span>"," ","","exp-sent","perna","","",""
"","446","html-keyboard-response","89","201449","0.0-3.0-1.60","<span style=""font-size:30px; font-family: monospace"">nos</span>"," ","","exp-sent","nos","","",""
"","725","html-keyboard-response","90","202441","0.0-3.0-1.61","<span style=""font-size:30px; font-family: monospace"">esportes.</span>"," ","","exp-sent","esportes.","","",""
"","null","html-keyboard-response","91","203696","0.0-3.0-0.62-0.62","<span style= ""font-size:30px; font-family: monospace"">+</span>","null","fixation","","","","",""
"","606","html-keyboard-response","92","204561","0.0-3.0-1.62","<span style=""font-size:30px; font-family: monospace"">Ela</span>"," ","","exp-sent","Ela","","",""
"","448","html-keyboard-response","93","205275","0.0-3.0-1.63","<span style=""font-size:30px; font-family: monospace"">brincou</span>"," ","","exp-sent","brincou","","",""
"","473","html-keyboard-response","94","206001","0.0-3.0-1.64","<span style=""font-size:30px; font-family: monospace"">com</span>"," ","","exp-sent","com","","",""
"","387","html-keyboard-response","95","206649","0.0-3.0-1.65","<span style=""font-size:30px; font-family: monospace"">uma</span>"," ","","exp-sent","uma","","",""
"","527","html-keyboard-response","96","207430","0.0-3.0-1.66","<span style=""font-size:30px; font-family: monospace"">menina</span>"," ","","exp-sent","menina","","",""
"","391","html-keyboard-response","97","208073","0.0-3.0-1.67","<span style=""font-size:30px; font-family: monospace"">da</span>"," ","","exp-sent","da","","",""
"","470","html-keyboard-response","98","208801","0.0-3.0-1.68","<span style=""font-size:30px; font-family: monospace"">turma.</span>"," ","","exp-sent","turma.","","",""
"","null","html-keyboard-response","99","210070","0.0-3.0-0.69-0.69","<span style= ""font-size:30px; font-family: monospace"">+</span>","null","fixation","","","","",""
"","652","html-keyboard-response","100","210978","0.0-3.0-1.69","<span style=""font-size:30px; font-family: monospace"">Ele</span>"," ","","exp-sent","Ele","","",""
"","439","html-keyboard-response","101","211672","0.0-3.0-1.70","<span style=""font-size:30px; font-family: monospace"">esteve</span>"," ","","exp-sent","esteve","","",""
"","381","html-keyboard-response","102","212314","0.0-3.0-1.71","<span style=""font-size:30px; font-family: monospace"">no</span>"," ","","exp-sent","no","","",""
"","765","html-keyboard-response","103","213335","0.0-3.0-1.72","<span style=""font-size:30px; font-family: monospace"">escritório</span>"," ","","exp-sent","escritório","","",""
"","539","html-keyboard-response","104","214136","0.0-3.0-1.73","<span style=""font-size:30px; font-family: monospace"">o</span>"," ","","exp-sent","o","","",""
"","447","html-keyboard-response","105","214838","0.0-3.0-1.74","<span style=""font-size:30px; font-family: monospace"">dia</span>"," ","","exp-sent","dia","","",""
"","450","html-keyboard-response","106","215544","0.0-3.0-1.75","<span style=""font-size:30px; font-family: monospace"">inteiro.</span>"," ","","comp","inteiro.","","",""
"","4121","html-keyboard-response","107","219921","0.0-3.0-2.75-0.75","<span style=""font-size:30px; font-family: monospace"">Ele esteve no parque o dia inteiro?</span>","n","","comp","","Ele esteve no parque o dia inteiro?","não","false"
"","null","html-keyboard-response","108","221443","0.0-3.0-0.76-0.76","<span style= ""font-size:30px; font-family: monospace"">+</span>","null","fixation","","","","",""
"","1118","html-keyboard-response","109","222817","0.0-3.0-1.76","<span style=""font-size:30px; font-family: monospace"">O</span>"," ","","exp-sent","O","","",""
"","909","html-keyboard-response","110","223978","0.0-3.0-1.77","<span style=""font-size:30px; font-family: monospace"">travesseiro</span>"," ","","exp-sent","travesseiro","","",""
"","1219","html-keyboard-response","111","225449","0.0-3.0-1.78","<span style=""font-size:30px; font-family: monospace"">era</span>"," ","","exp-sent","era","","",""
"","460","html-keyboard-response","112","226170","0.0-3.0-1.79","<span style=""font-size:30px; font-family: monospace"">muito</span>"," ","","exp-sent","muito","","",""
"","490","html-keyboard-response","113","226923","0.0-3.0-1.80","<span style=""font-size:30px; font-family: monospace"">macio</span>"," ","","exp-sent","macio","","",""
"","458","html-keyboard-response","114","227640","0.0-3.0-1.81","<span style=""font-size:30px; font-family: monospace"">e</span>"," ","","exp-sent","e","","",""
"","731","html-keyboard-response","115","228629","0.0-3.0-1.82","<span style=""font-size:30px; font-family: monospace"">confortável.</span>"," ","","exp-sent","confortável.","","",""
"","null","html-keyboard-response","116","229900","0.0-3.0-0.83-0.83","<span style= ""font-size:30px; font-family: monospace"">+</span>","null","fixation","","","","",""
"","723","html-keyboard-response","117","230881","0.0-3.0-1.83","<span style=""font-size:30px; font-family: monospace"">Hoje</span>"," ","","exp-sent","Hoje","","",""
"","477","html-keyboard-response","118","231611","0.0-3.0-1.84","<span style=""font-size:30px; font-family: monospace"">a</span>"," ","","exp-sent","a","","",""
"","827","html-keyboard-response","119","232699","0.0-3.0-1.85","<span style=""font-size:30px; font-family: monospace"">atendente</span>"," ","","exp-sent","atendente","","",""
"","368","html-keyboard-response","120","233331","0.0-3.0-1.86","<span style=""font-size:30px; font-family: monospace"">estava</span>"," ","","exp-sent","estava","","",""
"","323","html-keyboard-response","121","233904","0.0-3.0-1.87","<span style=""font-size:30px; font-family: monospace"">furiosa</span>"," ","","exp-sent","furiosa","","",""
"","393","html-keyboard-response","122","234559","0.0-3.0-1.88","<span style=""font-size:30px; font-family: monospace"">com</span>"," ","","exp-sent","com","","",""
"","379","html-keyboard-response","123","235198","0.0-3.0-1.89","<span style=""font-size:30px; font-family: monospace"">o</span>"," ","","exp-sent","o","","",""
"","381","html-keyboard-response","124","235838","0.0-3.0-1.90","<span style=""font-size:30px; font-family: monospace"">cliente.</span>"," ","","exp-sent","cliente.","","",""
"","null","html-keyboard-response","125","237102","0.0-3.0-0.91-0.91","<span style= ""font-size:30px; font-family: monospace"">+</span>","null","fixation","","","","",""
"","512","html-keyboard-response","126","237872","0.0-3.0-1.91","<span style=""font-size:30px; font-family: monospace"">O</span>"," ","","exp-sent","O","","",""
"","559","html-keyboard-response","127","238698","0.0-3.0-1.92","<span style=""font-size:30px; font-family: monospace"">vizinho</span>"," ","","exp-sent","vizinho","","",""
"","353","html-keyboard-response","128","239308","0.0-3.0-1.93","<span style=""font-size:30px; font-family: monospace"">é</span>"," ","","exp-sent","é","","",""
"","357","html-keyboard-response","129","239923","0.0-3.0-1.94","<span style=""font-size:30px; font-family: monospace"">um</span>"," ","","exp-sent","um","","",""
"","1243","html-keyboard-response","130","241432","0.0-3.0-1.95","<span style=""font-size:30px; font-family: monospace"">arquiteto</span>"," ","","exp-sent","arquiteto","","",""
"","423","html-keyboard-response","131","242113","0.0-3.0-1.96","<span style=""font-size:30px; font-family: monospace"">muito</span>"," ","","exp-sent","muito","","",""
"","1804","html-keyboard-response","132","244168","0.0-3.0-1.97","<span style=""font-size:30px; font-family: monospace"">excêntrico.</span>"," ","","exp-sent","excêntrico.","","",""
"","null","html-keyboard-response","133","245434","0.0-3.0-0.98-0.98","<span style= ""font-size:30px; font-family: monospace"">+</span>","null","fixation","","","","",""
"","474","html-keyboard-response","134","246167","0.0-3.0-1.98","<span style=""font-size:30px; font-family: monospace"">A</span>"," ","","exp-sent","A","","",""
"","311","html-keyboard-response","135","246741","0.0-3.0-1.99","<span style=""font-size:30px; font-family: monospace"">nossa</span>"," ","","exp-sent","nossa","","",""
"","520","html-keyboard-response","136","247526","0.0-3.0-1.100","<span style=""font-size:30px; font-family: monospace"">colega</span>"," ","","exp-sent","colega","","",""
"","426","html-keyboard-response","137","248209","0.0-3.0-1.101","<span style=""font-size:30px; font-family: monospace"">foi</span>"," ","","exp-sent","foi","","",""
"","327","html-keyboard-response","138","248787","0.0-3.0-1.102","<span style=""font-size:30px; font-family: monospace"">má</span>"," ","","exp-sent","má","","",""
"","433","html-keyboard-response","139","249479","0.0-3.0-1.103","<span style=""font-size:30px; font-family: monospace"">com</span>"," ","","exp-sent","com","","",""
"","408","html-keyboard-response","140","250142","0.0-3.0-1.104","<span style=""font-size:30px; font-family: monospace"">as</span>"," ","","exp-sent","as","","",""
"","432","html-keyboard-response","141","250837","0.0-3.0-1.105","<span style=""font-size:30px; font-family: monospace"">crianças.</span>"," ","","exp-sent","crianças.","","",""
"","null","html-keyboard-response","142","252098","0.0-3.0-0.106-0.106","<span style= ""font-size:30px; font-family: monospace"">+</span>","null","fixation","","","","",""
"","931","html-keyboard-response","143","253285","0.0-3.0-1.106","<span style=""font-size:30px; font-family: monospace"">Virtudes</span>"," ","","exp-sent","Virtudes","","",""
"","466","html-keyboard-response","144","254005","0.0-3.0-1.107","<span style=""font-size:30px; font-family: monospace"">não</span>"," ","","exp-sent","não","","",""
"","602","html-keyboard-response","145","254861","0.0-3.0-1.108","<span style=""font-size:30px; font-family: monospace"">são</span>"," ","","exp-sent","são","","",""
"","705","html-keyboard-response","146","255816","0.0-3.0-1.109","<span style=""font-size:30px; font-family: monospace"">preguiça,</span>"," ","","exp-sent","preguiça,","","",""
"","520","html-keyboard-response","147","256600","0.0-3.0-1.110","<span style=""font-size:30px; font-family: monospace"">gula</span>"," ","","exp-sent","gula","","",""
"","547","html-keyboard-response","148","257405","0.0-3.0-1.111","<span style=""font-size:30px; font-family: monospace"">nem</span>"," ","","exp-sent","nem","","",""
"","1409","html-keyboard-response","149","259072","0.0-3.0-1.112","<span style=""font-size:30px; font-family: monospace"">ganância.</span>"," ","","comp","ganância.","","",""
"","4977","html-keyboard-response","150","264301","0.0-3.0-2.112-0.112","<span style=""font-size:30px; font-family: monospace"">Preguiça é uma virtude?</span>","n","","comp","","Preguiça é uma virtude?","não","false"
"","null","html-keyboard-response","151","265812","0.0-3.0-0.113-0.113","<span style= ""font-size:30px; font-family: monospace"">+</span>","null","fixation","","","","",""
"","724","html-keyboard-response","152","266793","0.0-3.0-1.113","<span style=""font-size:30px; font-family: monospace"">As</span>"," ","","exp-sent","As","","",""
"","466","html-keyboard-response","153","267517","0.0-3.0-1.114","<span style=""font-size:30px; font-family: monospace"">crianças</span>"," ","","exp-sent","crianças","","",""
"","329","html-keyboard-response","154","268110","0.0-3.0-1.115","<span style=""font-size:30px; font-family: monospace"">viram</span>"," ","","exp-sent","viram","","",""
"","304","html-keyboard-response","155","268673","0.0-3.0-1.116","<span style=""font-size:30px; font-family: monospace"">um</span>"," ","","exp-sent","um","","",""
"","871","html-keyboard-response","156","269808","0.0-3.0-1.117","<span style=""font-size:30px; font-family: monospace"">vaga-lume</span>"," ","","exp-sent","vaga-lume","","",""
"","561","html-keyboard-response","157","270633","0.0-3.0-1.118","<span style=""font-size:30px; font-family: monospace"">nos</span>"," ","","exp-sent","nos","","",""
"","908","html-keyboard-response","158","271801","0.0-3.0-1.119","<span style=""font-size:30px; font-family: monospace"">arbustos.</span>"," ","","exp-sent","arbustos.","","",""
"","null","html-keyboard-response","159","273062","0.0-3.0-0.120-0.120","<span style= ""font-size:30px; font-family: monospace"">+</span>","null","fixation","","","","",""
"","517","html-keyboard-response","160","273837","0.0-3.0-1.120","<span style=""font-size:30px; font-family: monospace"">Ontem</span>"," ","","exp-sent","Ontem","","",""
"","556","html-keyboard-response","161","274652","0.0-3.0-1.121","<span style=""font-size:30px; font-family: monospace"">o</span>"," ","","exp-sent","o","","",""
"","799","html-keyboard-response","162","275704","0.0-3.0-1.122","<span style=""font-size:30px; font-family: monospace"">funcionário</span>"," ","","exp-sent","funcionário","","",""
"","483","html-keyboard-response","163","276450","0.0-3.0-1.123","<span style=""font-size:30px; font-family: monospace"">pediu</span>"," ","","exp-sent","pediu","","",""
"","672","html-keyboard-response","164","277386","0.0-3.0-1.124","<span style=""font-size:30px; font-family: monospace"">autorização</span>"," ","","exp-sent","autorização","","",""
"","446","html-keyboard-response","165","278084","0.0-3.0-1.125","<span style=""font-size:30px; font-family: monospace"">para</span>"," ","","exp-sent","para","","",""
"","392","html-keyboard-response","166","278735","0.0-3.0-1.126","<span style=""font-size:30px; font-family: monospace"">a</span>"," ","","exp-sent","a","","",""
"","413","html-keyboard-response","167","279406","0.0-3.0-1.127","<span style=""font-size:30px; font-family: monospace"">colega.</span>"," ","","exp-sent","colega.","","",""
"","null","html-keyboard-response","168","280675","0.0-3.0-0.128-0.128","<span style= ""font-size:30px; font-family: monospace"">+</span>","null","fixation","","","","",""
"","383","html-keyboard-response","169","281312","0.0-3.0-1.128","<span style=""font-size:30px; font-family: monospace"">Eu</span>"," ","","exp-sent","Eu","","",""
"","358","html-keyboard-response","170","281924","0.0-3.0-1.129","<span style=""font-size:30px; font-family: monospace"">sempre</span>"," ","","exp-sent","sempre","","",""
"","402","html-keyboard-response","171","282582","0.0-3.0-1.130","<span style=""font-size:30px; font-family: monospace"">fujo</span>"," ","","exp-sent","fujo","","",""
"","302","html-keyboard-response","172","283150","0.0-3.0-1.131","<span style=""font-size:30px; font-family: monospace"">de</span>"," ","","exp-sent","de","","",""
"","689","html-keyboard-response","173","284092","0.0-3.0-1.132","<span style=""font-size:30px; font-family: monospace"">conflito</span>"," ","","exp-sent","conflito","","",""
"","396","html-keyboard-response","174","284744","0.0-3.0-1.133","<span style=""font-size:30px; font-family: monospace"">com</span>"," ","","exp-sent","com","","",""
"","422","html-keyboard-response","175","285419","0.0-3.0-1.134","<span style=""font-size:30px; font-family: monospace"">as</span>"," ","","exp-sent","as","","",""
"","383","html-keyboard-response","176","286059","0.0-3.0-1.135","<span style=""font-size:30px; font-family: monospace"">pessoas.</span>"," ","","exp-sent","pessoas.","","",""
"","null","html-keyboard-response","177","287325","0.0-3.0-0.136-0.136","<span style= ""font-size:30px; font-family: monospace"">+</span>","null","fixation","","","","",""
"","532","html-keyboard-response","178","288110","0.0-3.0-1.136","<span style=""font-size:30px; font-family: monospace"">O</span>"," ","","exp-sent","O","","",""
"","320","html-keyboard-response","179","288693","0.0-3.0-1.137","<span style=""font-size:30px; font-family: monospace"">bolo</span>"," ","","exp-sent","bolo","","",""
"","314","html-keyboard-response","180","289264","0.0-3.0-1.138","<span style=""font-size:30px; font-family: monospace"">era</span>"," ","","exp-sent","era","","",""
"","320","html-keyboard-response","181","289845","0.0-3.0-1.139","<span style=""font-size:30px; font-family: monospace"">de</span>"," ","","exp-sent","de","","",""
"","407","html-keyboard-response","182","290517","0.0-3.0-1.140","<span style=""font-size:30px; font-family: monospace"">abacaxi</span>"," ","","exp-sent","abacaxi","","",""
"","386","html-keyboard-response","183","291161","0.0-3.0-1.141","<span style=""font-size:30px; font-family: monospace"">e</span>"," ","","exp-sent","e","","",""
"","406","html-keyboard-response","184","291830","0.0-3.0-1.142","<span style=""font-size:30px; font-family: monospace"">creme</span>"," ","","exp-sent","creme","","",""
"","447","html-keyboard-response","185","292539","0.0-3.0-1.143","<span style=""font-size:30px; font-family: monospace"">de</span>"," ","","exp-sent","de","","",""
"","615","html-keyboard-response","186","293420","0.0-3.0-1.144","<span style=""font-size:30px; font-family: monospace"">coco.</span>"," ","","exp-sent","coco.","","",""
"","null","html-keyboard-response","187","294689","0.0-3.0-0.145-0.145","<span style= ""font-size:30px; font-family: monospace"">+</span>","null","fixation","","","","",""
"","472","html-keyboard-response","188","295417","0.0-3.0-1.145","<span style=""font-size:30px; font-family: monospace"">As</span>"," ","","exp-sent","As","","",""
"","521","html-keyboard-response","189","296192","0.0-3.0-1.146","<span style=""font-size:30px; font-family: monospace"">crianças</span>"," ","","exp-sent","crianças","","",""
"","509","html-keyboard-response","190","296955","0.0-3.0-1.147","<span style=""font-size:30px; font-family: monospace"">brincaram</span>"," ","","exp-sent","brincaram","","",""
"","402","html-keyboard-response","191","297623","0.0-3.0-1.148","<span style=""font-size:30px; font-family: monospace"">com</span>"," ","","exp-sent","com","","",""
"","507","html-keyboard-response","192","298392","0.0-3.0-1.149","<span style=""font-size:30px; font-family: monospace"">bolhas</span>"," ","","exp-sent","bolhas","","",""
"","352","html-keyboard-response","193","299010","0.0-3.0-1.150","<span style=""font-size:30px; font-family: monospace"">no</span>"," ","","exp-sent","no","","",""
"","624","html-keyboard-response","194","299899","0.0-3.0-1.151","<span style=""font-size:30px; font-family: monospace"">banho.</span>"," ","","comp","banho.","","",""
"","3543","html-keyboard-response","195","303708","0.0-3.0-2.151-0.151","<span style=""font-size:30px; font-family: monospace"">As crianças brincaram com bolhas?</span>","s","","comp","","As crianças brincaram com bolhas?","sim","false"
"","null","html-keyboard-response","196","305226","0.0-3.0-0.152-0.152","<span style= ""font-size:30px; font-family: monospace"">+</span>","null","fixation","","","","",""
"","160","html-keyboard-response","197","305643","0.0-3.0-1.152","<span style=""font-size:30px; font-family: monospace"">Minha</span>"," ","","exp-sent","Minha","","",""
"","615","html-keyboard-response","198","306512","0.0-3.0-1.153","<span style=""font-size:30px; font-family: monospace"">prima</span>"," ","","exp-sent","prima","","",""
"","1222","html-keyboard-response","199","307995","0.0-3.0-1.154","<span style=""font-size:30px; font-family: monospace"">trocou</span>"," ","","exp-sent","trocou","","",""
"","396","html-keyboard-response","200","308655","0.0-3.0-1.155","<span style=""font-size:30px; font-family: monospace"">a</span>"," ","","exp-sent","a","","",""
"","363","html-keyboard-response","201","309270","0.0-3.0-1.156","<span style=""font-size:30px; font-family: monospace"">tela</span>"," ","","exp-sent","tela","","",""
"","386","html-keyboard-response","202","309914","0.0-3.0-1.157","<span style=""font-size:30px; font-family: monospace"">do</span>"," ","","exp-sent","do","","",""
"","757","html-keyboard-response","203","310923","0.0-3.0-1.158","<span style=""font-size:30px; font-family: monospace"">celular</span>"," ","","exp-sent","celular","","",""
"","409","html-keyboard-response","204","311583","0.0-3.0-1.159","<span style=""font-size:30px; font-family: monospace"">duas</span>"," ","","exp-sent","duas","","",""
"","485","html-keyboard-response","205","312334","0.0-3.0-1.160","<span style=""font-size:30px; font-family: monospace"">vezes.</span>"," ","","exp-sent","vezes.","","",""
"","null","html-keyboard-response","206","313615","0.0-3.0-0.161-0.161","<span style= ""font-size:30px; font-family: monospace"">+</span>","null","fixation","","","","",""
"","601","html-keyboard-response","207","314476","0.0-3.0-1.161","<span style=""font-size:30px; font-family: monospace"">Agora</span>"," ","","exp-sent","Agora","","",""
"","507","html-keyboard-response","208","315240","0.0-3.0-1.162","<span style=""font-size:30px; font-family: monospace"">a</span>"," ","","exp-sent","a","","",""
"","447","html-keyboard-response","209","315939","0.0-3.0-1.163","<span style=""font-size:30px; font-family: monospace"">minha</span>"," ","","exp-sent","minha","","",""
"","334","html-keyboard-response","210","316527","0.0-3.0-1.164","<span style=""font-size:30px; font-family: monospace"">única</span>"," ","","exp-sent","única","","",""
"","664","html-keyboard-response","211","317456","0.0-3.0-1.165","<span style=""font-size:30px; font-family: monospace"">preocupação</span>"," ","","exp-sent","preocupação","","",""
"","513","html-keyboard-response","212","318224","0.0-3.0-1.166","<span style=""font-size:30px; font-family: monospace"">é</span>"," ","","exp-sent","é","","",""
"","391","html-keyboard-response","213","318874","0.0-3.0-1.167","<span style=""font-size:30px; font-family: monospace"">um</span>"," ","","exp-sent","um","","",""
"","592","html-keyboard-response","214","319722","0.0-3.0-1.168","<span style=""font-size:30px; font-family: monospace"">descanso</span>"," ","","exp-sent","descanso","","",""
"","1578","html-keyboard-response","215","321559","0.0-3.0-1.169","<span style=""font-size:30px; font-family: monospace"">tranquilo.</span>"," ","","exp-sent","tranquilo.","","",""
"","null","html-keyboard-response","216","322838","0.0-3.0-0.170-0.170","<span style= ""font-size:30px; font-family: monospace"">+</span>","null","fixation","","","","",""
"","512","html-keyboard-response","217","323603","0.0-3.0-1.170","<span style=""font-size:30px; font-family: monospace"">A</span>"," ","","exp-sent","A","","",""
"","620","html-keyboard-response","218","324484","0.0-3.0-1.171","<span style=""font-size:30px; font-family: monospace"">criança</span>"," ","","exp-sent","criança","","",""
"","258","html-keyboard-response","219","325007","0.0-3.0-1.172","<span style=""font-size:30px; font-family: monospace"">ganhou</span>"," ","","exp-sent","ganhou","","",""
"","645","html-keyboard-response","220","325913","0.0-3.0-1.173","<span style=""font-size:30px; font-family: monospace"">um</span>"," ","","exp-sent","um","","",""
"","322","html-keyboard-response","221","326489","0.0-3.0-1.174","<span style=""font-size:30px; font-family: monospace"">presente</span>"," ","","exp-sent","presente","","",""
"","538","html-keyboard-response","222","327292","0.0-3.0-1.175","<span style=""font-size:30px; font-family: monospace"">maravilhoso.</span>"," ","","exp-sent","maravilhoso.","","",""
"","null","html-keyboard-response","223","328553","0.0-3.0-0.176-0.176","<span style= ""font-size:30px; font-family: monospace"">+</span>","null","fixation","","","","",""
"","377","html-keyboard-response","224","329183","0.0-3.0-1.176","<span style=""font-size:30px; font-family: monospace"">Os</span>"," ","","exp-sent","Os","","",""
"","415","html-keyboard-response","225","329853","0.0-3.0-1.177","<span style=""font-size:30px; font-family: monospace"">bichos</span>"," ","","exp-sent","bichos","","",""
"","365","html-keyboard-response","226","330475","0.0-3.0-1.178","<span style=""font-size:30px; font-family: monospace"">têm</span>"," ","","exp-sent","têm","","",""
"","340","html-keyboard-response","227","331074","0.0-3.0-1.179","<span style=""font-size:30px; font-family: monospace"">um</span>"," ","","exp-sent","um","","",""
"","687","html-keyboard-response","228","332026","0.0-3.0-1.180","<span style=""font-size:30px; font-family: monospace"">instinto</span>"," ","","exp-sent","instinto","","",""
"","405","html-keyboard-response","229","332686","0.0-3.0-1.181","<span style=""font-size:30px; font-family: monospace"">de</span>"," ","","exp-sent","de","","",""
"","657","html-keyboard-response","230","333609","0.0-3.0-1.182","<span style=""font-size:30px; font-family: monospace"">sobrevivência</span>"," ","","exp-sent","sobrevivência","","",""
"","514","html-keyboard-response","231","334375","0.0-3.0-1.183","<span style=""font-size:30px; font-family: monospace"">forte.</span>"," ","","exp-sent","forte.","","",""
"","null","html-keyboard-response","232","335645","0.0-3.0-0.184-0.184","<span style= ""font-size:30px; font-family: monospace"">+</span>","null","fixation","","","","",""
"","484","html-keyboard-response","233","336387","0.0-3.0-1.184","<span style=""font-size:30px; font-family: monospace"">Aquele</span>"," ","","exp-sent","Aquele","","",""
"","276","html-keyboard-response","234","336929","0.0-3.0-1.185","<span style=""font-size:30px; font-family: monospace"">menino</span>"," ","","exp-sent","menino","","",""
"","208","html-keyboard-response","235","337400","0.0-3.0-1.186","<span style=""font-size:30px; font-family: monospace"">alto</span>"," ","","exp-sent","alto","","",""
"","371","html-keyboard-response","236","338024","0.0-3.0-1.187","<span style=""font-size:30px; font-family: monospace"">é</span>"," ","","exp-sent","é","","",""
"","2080","html-keyboard-response","237","340356","0.0-3.0-1.188","<span style=""font-size:30px; font-family: monospace"">exibido</span>"," ","","exp-sent","exibido","","",""
"","427","html-keyboard-response","238","341042","0.0-3.0-1.189","<span style=""font-size:30px; font-family: monospace"">e</span>"," ","","exp-sent","e","","",""
"","801","html-keyboard-response","239","342110","0.0-3.0-1.190","<span style=""font-size:30px; font-family: monospace"">sovina.</span>"," ","","comp","sovina.","","",""
"","5142","html-keyboard-response","240","347517","0.0-3.0-2.190-0.190","<span style=""font-size:30px; font-family: monospace"">Aquele menino é humilde?</span>","n","","comp","","Aquele menino é humilde?","não","false"
"","null","html-keyboard-response","241","349032","0.0-3.0-0.191-0.191","<span style= ""font-size:30px; font-family: monospace"">+</span>","null","fixation","","","","",""
"","3824","html-keyboard-response","242","353111","0.0-3.0-1.191","<span style=""font-size:30px; font-family: monospace"">Este</span>"," ","","exp-sent","Este","","",""
"","394","html-keyboard-response","243","353757","0.0-3.0-1.192","<span style=""font-size:30px; font-family: monospace"">conto</span>"," ","","exp-sent","conto","","",""
"","357","html-keyboard-response","244","354370","0.0-3.0-1.193","<span style=""font-size:30px; font-family: monospace"">tem</span>"," ","","exp-sent","tem","","",""
"","339","html-keyboard-response","245","354970","0.0-3.0-1.194","<span style=""font-size:30px; font-family: monospace"">um</span>"," ","","exp-sent","um","","",""
"","353","html-keyboard-response","246","355588","0.0-3.0-1.195","<span style=""font-size:30px; font-family: monospace"">final</span>"," ","","exp-sent","final","","",""
"","351","html-keyboard-response","247","356190","0.0-3.0-1.196","<span style=""font-size:30px; font-family: monospace"">perfeito.</span>"," ","","exp-sent","perfeito.","","",""
"","null","html-keyboard-response","248","357454","0.0-3.0-0.197-0.197","<span style= ""font-size:30px; font-family: monospace"">+</span>","null","fixation","","","","",""
"","348","html-keyboard-response","249","358060","0.0-3.0-1.197","<span style=""font-size:30px; font-family: monospace"">Ele</span>"," ","","exp-sent","Ele","","",""
"","427","html-keyboard-response","250","358751","0.0-3.0-1.198","<span style=""font-size:30px; font-family: monospace"">precisa</span>"," ","","exp-sent","precisa","","",""
"","325","html-keyboard-response","251","359334","0.0-3.0-1.199","<span style=""font-size:30px; font-family: monospace"">de</span>"," ","","exp-sent","de","","",""
"","272","html-keyboard-response","252","359861","0.0-3.0-1.200","<span style=""font-size:30px; font-family: monospace"">um</span>"," ","","exp-sent","um","","",""
"","289","html-keyboard-response","253","360404","0.0-3.0-1.201","<span style=""font-size:30px; font-family: monospace"">protetor</span>"," ","","exp-sent","protetor","","",""
"","280","html-keyboard-response","254","360949","0.0-3.0-1.202","<span style=""font-size:30px; font-family: monospace"">de</span>"," ","","exp-sent","de","","",""
"","441","html-keyboard-response","255","361647","0.0-3.0-1.203","<span style=""font-size:30px; font-family: monospace"">ouvido.</span>"," ","","exp-sent","ouvido.","","",""
"","null","html-keyboard-response","256","362913","0.0-3.0-0.204-0.204","<span style= ""font-size:30px; font-family: monospace"">+</span>","null","fixation","","","","",""
"","400","html-keyboard-response","257","363568","0.0-3.0-1.204","<span style=""font-size:30px; font-family: monospace"">Os</span>"," ","","exp-sent","Os","","",""
"","362","html-keyboard-response","258","364193","0.0-3.0-1.205","<span style=""font-size:30px; font-family: monospace"">hábitos</span>"," ","","exp-sent","hábitos","","",""
"","310","html-keyboard-response","259","364759","0.0-3.0-1.206","<span style=""font-size:30px; font-family: monospace"">de</span>"," ","","exp-sent","de","","",""
"","288","html-keyboard-response","260","365309","0.0-3.0-1.207","<span style=""font-size:30px; font-family: monospace"">lugares</span>"," ","","exp-sent","lugares","","",""
"","355","html-keyboard-response","261","365922","0.0-3.0-1.208","<span style=""font-size:30px; font-family: monospace"">diferentes</span>"," ","","exp-sent","diferentes","","",""
"","345","html-keyboard-response","262","366520","0.0-3.0-1.209","<span style=""font-size:30px; font-family: monospace"">são</span>"," ","","exp-sent","são","","",""
"","336","html-keyboard-response","263","367120","0.0-3.0-1.210","<span style=""font-size:30px; font-family: monospace"">muito</span>"," ","","exp-sent","muito","","",""
"","354","html-keyboard-response","264","367729","0.0-3.0-1.211","<span style=""font-size:30px; font-family: monospace"">lindos.</span>"," ","","exp-sent","lindos.","","",""
"","null","html-keyboard-response","265","368992","0.0-3.0-0.212-0.212","<span style= ""font-size:30px; font-family: monospace"">+</span>","null","fixation","","","","",""
"","413","html-keyboard-response","266","369663","0.0-3.0-1.212","<span style=""font-size:30px; font-family: monospace"">O</span>"," ","","exp-sent","O","","",""
"","475","html-keyboard-response","267","370398","0.0-3.0-1.213","<span style=""font-size:30px; font-family: monospace"">médico</span>"," ","","exp-sent","médico","","",""
"","610","html-keyboard-response","268","371265","0.0-3.0-1.214","<span style=""font-size:30px; font-family: monospace"">corrigiu</span>"," ","","exp-sent","corrigiu","","",""
"","342","html-keyboard-response","269","371857","0.0-3.0-1.215","<span style=""font-size:30px; font-family: monospace"">a</span>"," ","","exp-sent","a","","",""
"","304","html-keyboard-response","270","372423","0.0-3.0-1.216","<span style=""font-size:30px; font-family: monospace"">postura</span>"," ","","exp-sent","postura","","",""
"","313","html-keyboard-response","271","373003","0.0-3.0-1.217","<span style=""font-size:30px; font-family: monospace"">das</span>"," ","","exp-sent","das","","",""
"","369","html-keyboard-response","272","373627","0.0-3.0-1.218","<span style=""font-size:30px; font-family: monospace"">costas</span>"," ","","exp-sent","costas","","",""
"","345","html-keyboard-response","273","374235","0.0-3.0-1.219","<span style=""font-size:30px; font-family: monospace"">da</span>"," ","","exp-sent","da","","",""
"","410","html-keyboard-response","274","374901","0.0-3.0-1.220","<span style=""font-size:30px; font-family: monospace"">pessoa.</span>"," ","","exp-sent","pessoa.","","",""
"","null","html-keyboard-response","275","376165","0.0-3.0-0.221-0.221","<span style= ""font-size:30px; font-family: monospace"">+</span>","null","fixation","","","","",""
"","454","html-keyboard-response","276","376871","0.0-3.0-1.221","<span style=""font-size:30px; font-family: monospace"">Aquele</span>"," ","","exp-sent","Aquele","","",""
"","387","html-keyboard-response","277","377516","0.0-3.0-1.222","<span style=""font-size:30px; font-family: monospace"">era</span>"," ","","exp-sent","era","","",""
"","339","html-keyboard-response","278","378120","0.0-3.0-1.223","<span style=""font-size:30px; font-family: monospace"">um</span>"," ","","exp-sent","um","","",""
"","346","html-keyboard-response","279","378729","0.0-3.0-1.224","<span style=""font-size:30px; font-family: monospace"">caso</span>"," ","","exp-sent","caso","","",""
"","330","html-keyboard-response","280","379318","0.0-3.0-1.225","<span style=""font-size:30px; font-family: monospace"">real</span>"," ","","exp-sent","real","","",""
"","375","html-keyboard-response","281","379947","0.0-3.0-1.226","<span style=""font-size:30px; font-family: monospace"">de</span>"," ","","exp-sent","de","","",""
"","651","html-keyboard-response","282","380856","0.0-3.0-1.227","<span style=""font-size:30px; font-family: monospace"">sequestro</span>"," ","","exp-sent","sequestro","","",""
"","910","html-keyboard-response","283","382020","0.0-3.0-1.228","<span style=""font-size:30px; font-family: monospace"">premeditado.</span>"," ","","comp","premeditado.","","",""
"","5401","html-keyboard-response","284","387680","0.0-3.0-2.228-0.228","<span style=""font-size:30px; font-family: monospace"">Aquele era um caso real de roubo?</span>","n","","comp","","Aquele era um caso real de roubo?","não","false"
"","null","html-keyboard-response","285","389207","0.0-3.0-0.229-0.229","<span style= ""font-size:30px; font-family: monospace"">+</span>","null","fixation","","","","",""
"","151","html-keyboard-response","286","389612","0.0-3.0-1.229","<span style=""font-size:30px; font-family: monospace"">Ganhamos</span>"," ","","exp-sent","Ganhamos","","",""
"","1059","html-keyboard-response","287","390932","0.0-3.0-1.230","<span style=""font-size:30px; font-family: monospace"">passagem</span>"," ","","exp-sent","passagem","","",""
"","349","html-keyboard-response","288","391533","0.0-3.0-1.231","<span style=""font-size:30px; font-family: monospace"">para</span>"," ","","exp-sent","para","","",""
"","344","html-keyboard-response","289","392129","0.0-3.0-1.232","<span style=""font-size:30px; font-family: monospace"">uma</span>"," ","","exp-sent","uma","","",""
"","433","html-keyboard-response","290","392828","0.0-3.0-1.233","<span style=""font-size:30px; font-family: monospace"">viagem</span>"," ","","exp-sent","viagem","","",""
"","417","html-keyboard-response","291","393499","0.0-3.0-1.234","<span style=""font-size:30px; font-family: monospace"">de</span>"," ","","exp-sent","de","","",""
"","552","html-keyboard-response","292","394315","0.0-3.0-1.235","<span style=""font-size:30px; font-family: monospace"">férias.</span>"," ","","exp-sent","férias.","","",""
"","null","html-keyboard-response","293","395579","0.0-3.0-0.236-0.236","<span style= ""font-size:30px; font-family: monospace"">+</span>","null","fixation","","","","",""
"","421","html-keyboard-response","294","396261","0.0-3.0-1.236","<span style=""font-size:30px; font-family: monospace"">Caiu</span>"," ","","exp-sent","Caiu","","",""
"","449","html-keyboard-response","295","396971","0.0-3.0-1.237","<span style=""font-size:30px; font-family: monospace"">algo</span>"," ","","exp-sent","algo","","",""
"","328","html-keyboard-response","296","397556","0.0-3.0-1.238","<span style=""font-size:30px; font-family: monospace"">no</span>"," ","","exp-sent","no","","",""
"","352","html-keyboard-response","297","398165","0.0-3.0-1.239","<span style=""font-size:30px; font-family: monospace"">meu</span>"," ","","exp-sent","meu","","",""
"","429","html-keyboard-response","298","398846","0.0-3.0-1.240","<span style=""font-size:30px; font-family: monospace"">olho</span>"," ","","exp-sent","olho","","",""
"","385","html-keyboard-response","299","399482","0.0-3.0-1.241","<span style=""font-size:30px; font-family: monospace"">ontem</span>"," ","","exp-sent","ontem","","",""
"","424","html-keyboard-response","300","400172","0.0-3.0-1.242","<span style=""font-size:30px; font-family: monospace"">de</span>"," ","","exp-sent","de","","",""
"","485","html-keyboard-response","301","400912","0.0-3.0-1.243","<span style=""font-size:30px; font-family: monospace"">tarde.</span>"," ","","exp-sent","tarde.","","",""
"","null","html-keyboard-response","302","402187","0.0-3.0-0.244-0.244","<span style= ""font-size:30px; font-family: monospace"">+</span>","null","fixation","","","","",""
"","383","html-keyboard-response","303","402826","0.0-3.0-1.244","<span style=""font-size:30px; font-family: monospace"">Não</span>"," ","","exp-sent","Não","","",""
"","444","html-keyboard-response","304","403528","0.0-3.0-1.245","<span style=""font-size:30px; font-family: monospace"">havia</span>"," ","","exp-sent","havia","","",""
"","425","html-keyboard-response","305","404216","0.0-3.0-1.246","<span style=""font-size:30px; font-family: monospace"">mais</span>"," ","","exp-sent","mais","","",""
"","419","html-keyboard-response","306","404889","0.0-3.0-1.247","<span style=""font-size:30px; font-family: monospace"">nenhum</span>"," ","","exp-sent","nenhum","","",""
"","421","html-keyboard-response","307","405574","0.0-3.0-1.248","<span style=""font-size:30px; font-family: monospace"">ingresso</span>"," ","","exp-sent","ingresso","","",""
"","371","html-keyboard-response","308","406197","0.0-3.0-1.249","<span style=""font-size:30px; font-family: monospace"">para</span>"," ","","exp-sent","para","","",""
"","438","html-keyboard-response","309","406889","0.0-3.0-1.250","<span style=""font-size:30px; font-family: monospace"">o</span>"," ","","exp-sent","o","","",""
"","522","html-keyboard-response","310","407677","0.0-3.0-1.251","<span style=""font-size:30px; font-family: monospace"">evento.</span>"," ","","exp-sent","evento.","","",""
"","null","html-keyboard-response","311","408942","0.0-3.0-0.252-0.252","<span style= ""font-size:30px; font-family: monospace"">+</span>","null","fixation","","","","",""
"","447","html-keyboard-response","312","409643","0.0-3.0-1.252","<span style=""font-size:30px; font-family: monospace"">A</span>"," ","","exp-sent","A","","",""
"","312","html-keyboard-response","313","410206","0.0-3.0-1.253","<span style=""font-size:30px; font-family: monospace"">médica</span>"," ","","exp-sent","médica","","",""
"","306","html-keyboard-response","314","410778","0.0-3.0-1.254","<span style=""font-size:30px; font-family: monospace"">descobriu</span>"," ","","exp-sent","descobriu","","",""
"","419","html-keyboard-response","315","411453","0.0-3.0-1.255","<span style=""font-size:30px; font-family: monospace"">uma</span>"," ","","exp-sent","uma","","",""
"","386","html-keyboard-response","316","412091","0.0-3.0-1.256","<span style=""font-size:30px; font-family: monospace"">cura</span>"," ","","exp-sent","cura","","",""
"","367","html-keyboard-response","317","412717","0.0-3.0-1.257","<span style=""font-size:30px; font-family: monospace"">para</span>"," ","","exp-sent","para","","",""
"","595","html-keyboard-response","318","413574","0.0-3.0-1.258","<span style=""font-size:30px; font-family: monospace"">a</span>"," ","","exp-sent","a","","",""
"","529","html-keyboard-response","319","414354","0.0-3.0-1.259","<span style=""font-size:30px; font-family: monospace"">doença.</span>"," ","","exp-sent","doença.","","",""
"","null","html-keyboard-response","320","415615","0.0-3.0-0.260-0.260","<span style= ""font-size:30px; font-family: monospace"">+</span>","null","fixation","","","","",""
"","449","html-keyboard-response","321","416320","0.0-3.0-1.260","<span style=""font-size:30px; font-family: monospace"">O</span>"," ","","exp-sent","O","","",""
"","361","html-keyboard-response","322","416936","0.0-3.0-1.261","<span style=""font-size:30px; font-family: monospace"">menino</span>"," ","","exp-sent","menino","","",""
"","506","html-keyboard-response","323","417703","0.0-3.0-1.262","<span style=""font-size:30px; font-family: monospace"">riscou</span>"," ","","exp-sent","riscou","","",""
"","421","html-keyboard-response","324","418377","0.0-3.0-1.263","<span style=""font-size:30px; font-family: monospace"">o</span>"," ","","exp-sent","o","","",""
"","473","html-keyboard-response","325","419116","0.0-3.0-1.264","<span style=""font-size:30px; font-family: monospace"">caderno</span>"," ","","exp-sent","caderno","","",""
"","319","html-keyboard-response","326","419699","0.0-3.0-1.265","<span style=""font-size:30px; font-family: monospace"">com</span>"," ","","exp-sent","com","","",""
"","348","html-keyboard-response","327","420300","0.0-3.0-1.266","<span style=""font-size:30px; font-family: monospace"">a</span>"," ","","exp-sent","a","","",""
"","320","html-keyboard-response","328","420886","0.0-3.0-1.267","<span style=""font-size:30px; font-family: monospace"">caneta.</span>"," ","","comp","caneta.","","",""
"","4614","html-keyboard-response","329","425765","0.0-3.0-2.267-0.267","<span style=""font-size:30px; font-family: monospace"">O menino riscou a parede com a caneta?</span>","n","","comp","","O menino riscou a parede com a caneta?","não","false"
"","null","html-keyboard-response","330","427280","0.0-3.0-0.268-0.268","<span style= ""font-size:30px; font-family: monospace"">+</span>","null","fixation","","","","",""
"","1526","html-keyboard-response","331","429064","0.0-3.0-1.268","<span style=""font-size:30px; font-family: monospace"">Ursos</span>"," ","","exp-sent","Ursos","","",""
"","1395","html-keyboard-response","332","430725","0.0-3.0-1.269","<span style=""font-size:30px; font-family: monospace"">têm</span>"," ","","exp-sent","têm","","",""
"","1451","html-keyboard-response","333","432442","0.0-3.0-1.270","<span style=""font-size:30px; font-family: monospace"">uma</span>"," ","","exp-sent","uma","","",""
"","1744","html-keyboard-response","334","434440","0.0-3.0-1.271","<span style=""font-size:30px; font-family: monospace"">patada</span>"," ","","exp-sent","patada","","",""
"","552","html-keyboard-response","335","435256","0.0-3.0-1.272","<span style=""font-size:30px; font-family: monospace"">brutal</span>"," ","","exp-sent","brutal","","",""
"","346","html-keyboard-response","336","435868","0.0-3.0-1.273","<span style=""font-size:30px; font-family: monospace"">e</span>"," ","","exp-sent","e","","",""
"","733","html-keyboard-response","337","436861","0.0-3.0-1.274","<span style=""font-size:30px; font-family: monospace"">poderosa.</span>"," ","","exp-sent","poderosa.","","",""
"","null","html-keyboard-response","338","438117","0.0-3.0-0.275-0.275","<span style= ""font-size:30px; font-family: monospace"">+</span>","null","fixation","","","","",""
"","362","html-keyboard-response","339","438735","0.0-3.0-1.275","<span style=""font-size:30px; font-family: monospace"">Eu</span>"," ","","exp-sent","Eu","","",""
"","360","html-keyboard-response","340","439357","0.0-3.0-1.276","<span style=""font-size:30px; font-family: monospace"">fiz</span>"," ","","exp-sent","fiz","","",""
"","376","html-keyboard-response","341","439995","0.0-3.0-1.277","<span style=""font-size:30px; font-family: monospace"">aulas</span>"," ","","exp-sent","aulas","","",""
"","296","html-keyboard-response","342","440565","0.0-3.0-1.278","<span style=""font-size:30px; font-family: monospace"">de</span>"," ","","exp-sent","de","","",""
"","597","html-keyboard-response","343","441424","0.0-3.0-1.279","<span style=""font-size:30px; font-family: monospace"">espanhol</span>"," ","","exp-sent","espanhol","","",""
"","360","html-keyboard-response","344","442048","0.0-3.0-1.280","<span style=""font-size:30px; font-family: monospace"">nesta</span>"," ","","exp-sent","nesta","","",""
"","1294","html-keyboard-response","345","443608","0.0-3.0-1.281","<span style=""font-size:30px; font-family: monospace"">cidade.</span>"," ","","exp-sent","cidade.","","",""
"","null","html-keyboard-response","346","444872","0.0-3.0-0.282-0.282","<span style= ""font-size:30px; font-family: monospace"">+</span>","null","fixation","","","","",""
"","214","html-keyboard-response","347","445341","0.0-3.0-1.282","<span style=""font-size:30px; font-family: monospace"">Ele</span>"," ","","exp-sent","Ele","","",""
"","723","html-keyboard-response","348","446327","0.0-3.0-1.283","<span style=""font-size:30px; font-family: monospace"">comprou</span>"," ","","exp-sent","comprou","","",""
"","640","html-keyboard-response","349","447231","0.0-3.0-1.284","<span style=""font-size:30px; font-family: monospace"">mais</span>"," ","","exp-sent","mais","","",""
"","445","html-keyboard-response","350","447939","0.0-3.0-1.285","<span style=""font-size:30px; font-family: monospace"">uma</span>"," ","","exp-sent","uma","","",""
"","1218","html-keyboard-response","351","449410","0.0-3.0-1.286","<span style=""font-size:30px; font-family: monospace"">esponja</span>"," ","","exp-sent","esponja","","",""
"","573","html-keyboard-response","352","450242","0.0-3.0-1.287","<span style=""font-size:30px; font-family: monospace"">para</span>"," ","","exp-sent","para","","",""
"","962","html-keyboard-response","353","451466","0.0-3.0-1.288","<span style=""font-size:30px; font-family: monospace"">a</span>"," ","","exp-sent","a","","",""
"","663","html-keyboard-response","354","452395","0.0-3.0-1.289","<span style=""font-size:30px; font-family: monospace"">cozinha.</span>"," ","","exp-sent","cozinha.","","",""
"","null","html-keyboard-response","355","453658","0.0-3.0-0.290-0.290","<span style= ""font-size:30px; font-family: monospace"">+</span>","null","fixation","","","","",""
"","449","html-keyboard-response","356","454365","0.0-3.0-1.290","<span style=""font-size:30px; font-family: monospace"">Ele</span>"," ","","exp-sent","Ele","","",""
"","642","html-keyboard-response","357","455258","0.0-3.0-1.291","<span style=""font-size:30px; font-family: monospace"">teve</span>"," ","","exp-sent","teve","","",""
"","723","html-keyboard-response","358","456241","0.0-3.0-1.292","<span style=""font-size:30px; font-family: monospace"">um</span>"," ","","exp-sent","um","","",""
"","618","html-keyboard-response","359","457114","0.0-3.0-1.293","<span style=""font-size:30px; font-family: monospace"">sono</span>"," ","","exp-sent","sono","","",""
"","948","html-keyboard-response","360","458329","0.0-3.0-1.294","<span style=""font-size:30px; font-family: monospace"">bizarro</span>"," ","","exp-sent","bizarro","","",""
"","649","html-keyboard-response","361","459242","0.0-3.0-1.295","<span style=""font-size:30px; font-family: monospace"">sem</span>"," ","","exp-sent","sem","","",""
"","1038","html-keyboard-response","362","460542","0.0-3.0-1.296","<span style=""font-size:30px; font-family: monospace"">nenhum</span>"," ","","exp-sent","nenhum","","",""
"","599","html-keyboard-response","363","461401","0.0-3.0-1.297","<span style=""font-size:30px; font-family: monospace"">motivo.</span>"," ","","exp-sent","motivo.","","",""
"","null","html-keyboard-response","364","462664","0.0-3.0-0.298-0.298","<span style= ""font-size:30px; font-family: monospace"">+</span>","null","fixation","","","","",""
"","397","html-keyboard-response","365","463315","0.0-3.0-1.298","<span style=""font-size:30px; font-family: monospace"">A</span>"," ","","exp-sent","A","","",""
"","426","html-keyboard-response","366","464006","0.0-3.0-1.299","<span style=""font-size:30px; font-family: monospace"">moça</span>"," ","","exp-sent","moça","","",""
"","335","html-keyboard-response","367","464595","0.0-3.0-1.300","<span style=""font-size:30px; font-family: monospace"">comprou</span>"," ","","exp-sent","comprou","","",""
"","319","html-keyboard-response","368","465179","0.0-3.0-1.301","<span style=""font-size:30px; font-family: monospace"">um</span>"," ","","exp-sent","um","","",""
"","303","html-keyboard-response","369","465739","0.0-3.0-1.302","<span style=""font-size:30px; font-family: monospace"">diamante</span>"," ","","exp-sent","diamante","","",""
"","460","html-keyboard-response","370","466456","0.0-3.0-1.303","<span style=""font-size:30px; font-family: monospace"">para</span>"," ","","exp-sent","para","","",""
"","394","html-keyboard-response","371","467103","0.0-3.0-1.304","<span style=""font-size:30px; font-family: monospace"">sua</span>"," ","","exp-sent","sua","","",""
"","1066","html-keyboard-response","372","468424","0.0-3.0-1.305","<span style=""font-size:30px; font-family: monospace"">prima.</span>"," ","","comp","prima.","","",""
"","3178","html-keyboard-response","373","471860","0.0-3.0-2.305-0.305","<span style=""font-size:30px; font-family: monospace"">A moça comprou um diamante?</span>","s","","comp","","A moça comprou um diamante?","sim","false"
"","null","html-keyboard-response","374","473362","0.0-3.0-0.306-0.306","<span style= ""font-size:30px; font-family: monospace"">+</span>","null","fixation","","","","",""
"","636","html-keyboard-response","375","474255","0.0-3.0-1.306","<span style=""font-size:30px; font-family: monospace"">Preciso</span>"," ","","exp-sent","Preciso","","",""
"","370","html-keyboard-response","376","474882","0.0-3.0-1.307","<span style=""font-size:30px; font-family: monospace"">de</span>"," ","","exp-sent","de","","",""
"","570","html-keyboard-response","377","475707","0.0-3.0-1.308","<span style=""font-size:30px; font-family: monospace"">um</span>"," ","","exp-sent","um","","",""
"","1121","html-keyboard-response","378","477081","0.0-3.0-1.309","<span style=""font-size:30px; font-family: monospace"">relatório</span>"," ","","exp-sent","relatório","","",""
"","976","html-keyboard-response","379","478311","0.0-3.0-1.310","<span style=""font-size:30px; font-family: monospace"">oficial</span>"," ","","exp-sent","oficial","","",""
"","299","html-keyboard-response","380","478870","0.0-3.0-1.311","<span style=""font-size:30px; font-family: monospace"">para</span>"," ","","exp-sent","para","","",""
"","291","html-keyboard-response","381","479419","0.0-3.0-1.312","<span style=""font-size:30px; font-family: monospace"">amanhã.</span>"," ","","exp-sent","amanhã.","","",""
"","null","html-keyboard-response","382","480680","0.0-3.0-0.313-0.313","<span style= ""font-size:30px; font-family: monospace"">+</span>","null","fixation","","","","",""
"","296","html-keyboard-response","383","481232","0.0-3.0-1.313","<span style=""font-size:30px; font-family: monospace"">Ele</span>"," ","","exp-sent","Ele","","",""
"","260","html-keyboard-response","384","481759","0.0-3.0-1.314","<span style=""font-size:30px; font-family: monospace"">viu</span>"," ","","exp-sent","viu","","",""
"","182","html-keyboard-response","385","482196","0.0-3.0-1.315","<span style=""font-size:30px; font-family: monospace"">um</span>"," ","","exp-sent","um","","",""
"","348","html-keyboard-response","386","482809","0.0-3.0-1.316","<span style=""font-size:30px; font-family: monospace"">inseto</span>"," ","","exp-sent","inseto","","",""
"","463","html-keyboard-response","387","483525","0.0-3.0-1.317","<span style=""font-size:30px; font-family: monospace"">marrom</span>"," ","","exp-sent","marrom","","",""
"","325","html-keyboard-response","388","484108","0.0-3.0-1.318","<span style=""font-size:30px; font-family: monospace"">na</span>"," ","","exp-sent","na","","",""
"","280","html-keyboard-response","389","484652","0.0-3.0-1.319","<span style=""font-size:30px; font-family: monospace"">parede.</span>"," ","","exp-sent","parede.","","",""
"","null","html-keyboard-response","390","485930","0.0-3.0-0.320-0.320","<span style= ""font-size:30px; font-family: monospace"">+</span>","null","fixation","","","","",""
"","788","html-keyboard-response","391","486976","0.0-3.0-1.320","<span style=""font-size:30px; font-family: monospace"">O</span>"," ","","exp-sent","O","","",""
"","320","html-keyboard-response","392","487550","0.0-3.0-1.321","<span style=""font-size:30px; font-family: monospace"">avô</span>"," ","","exp-sent","avô","","",""
"","318","html-keyboard-response","393","488134","0.0-3.0-1.322","<span style=""font-size:30px; font-family: monospace"">fez</span>"," ","","exp-sent","fez","","",""
"","264","html-keyboard-response","394","488651","0.0-3.0-1.323","<span style=""font-size:30px; font-family: monospace"">uma</span>"," ","","exp-sent","uma","","",""
"","424","html-keyboard-response","395","489331","0.0-3.0-1.324","<span style=""font-size:30px; font-family: monospace"">lista</span>"," ","","exp-sent","lista","","",""
"","360","html-keyboard-response","396","489948","0.0-3.0-1.325","<span style=""font-size:30px; font-family: monospace"">de</span>"," ","","exp-sent","de","","",""
"","340","html-keyboard-response","397","490553","0.0-3.0-1.326","<span style=""font-size:30px; font-family: monospace"">compras</span>"," ","","exp-sent","compras","","",""
"","374","html-keyboard-response","398","491180","0.0-3.0-1.327","<span style=""font-size:30px; font-family: monospace"">do</span>"," ","","exp-sent","do","","",""
"","502","html-keyboard-response","399","491940","0.0-3.0-1.328","<span style=""font-size:30px; font-family: monospace"">mercado.</span>"," ","","exp-sent","mercado.","","",""
"","null","html-keyboard-response","400","493200","0.0-3.0-0.329-0.329","<span style= ""font-size:30px; font-family: monospace"">+</span>","null","fixation","","","","",""
"","516","html-keyboard-response","401","493974","0.0-3.0-1.329","<span style=""font-size:30px; font-family: monospace"">As</span>"," ","","exp-sent","As","","",""
"","391","html-keyboard-response","402","494618","0.0-3.0-1.330","<span style=""font-size:30px; font-family: monospace"">pessoas</span>"," ","","exp-sent","pessoas","","",""
"","315","html-keyboard-response","403","495191","0.0-3.0-1.331","<span style=""font-size:30px; font-family: monospace"">não</span>"," ","","exp-sent","não","","",""
"","296","html-keyboard-response","404","495746","0.0-3.0-1.332","<span style=""font-size:30px; font-family: monospace"">enviam</span>"," ","","exp-sent","enviam","","",""
"","383","html-keyboard-response","405","496389","0.0-3.0-1.333","<span style=""font-size:30px; font-family: monospace"">telegrama</span>"," ","","exp-sent","telegrama","","",""
"","896","html-keyboard-response","406","497552","0.0-3.0-1.334","<span style=""font-size:30px; font-family: monospace"">nos</span>"," ","","exp-sent","nos","","",""
"","274","html-keyboard-response","407","498086","0.0-3.0-1.335","<span style=""font-size:30px; font-family: monospace"">dias</span>"," ","","exp-sent","dias","","",""
"","287","html-keyboard-response","408","498630","0.0-3.0-1.336","<span style=""font-size:30px; font-family: monospace"">de</span>"," ","","exp-sent","de","","",""
"","392","html-keyboard-response","409","499277","0.0-3.0-1.337","<span style=""font-size:30px; font-family: monospace"">hoje.</span>"," ","","exp-sent","hoje.","","",""
"","null","html-keyboard-response","410","500554","0.0-3.0-0.338-0.338","<span style= ""font-size:30px; font-family: monospace"">+</span>","null","fixation","","","","",""
"","364","html-keyboard-response","411","501173","0.0-3.0-1.338","<span style=""font-size:30px; font-family: monospace"">Ele</span>"," ","","exp-sent","Ele","","",""
"","347","html-keyboard-response","412","501783","0.0-3.0-1.339","<span style=""font-size:30px; font-family: monospace"">não</span>"," ","","exp-sent","não","","",""
"","356","html-keyboard-response","413","502406","0.0-3.0-1.340","<span style=""font-size:30px; font-family: monospace"">gosta</span>"," ","","exp-sent","gosta","","",""
"","337","html-keyboard-response","414","502996","0.0-3.0-1.341","<span style=""font-size:30px; font-family: monospace"">de</span>"," ","","exp-sent","de","","",""
"","351","html-keyboard-response","415","503601","0.0-3.0-1.342","<span style=""font-size:30px; font-family: monospace"">tomate</span>"," ","","exp-sent","tomate","","",""
"","755","html-keyboard-response","416","504613","0.0-3.0-1.343","<span style=""font-size:30px; font-family: monospace"">misturado</span>"," ","","exp-sent","misturado","","",""
"","381","html-keyboard-response","417","505247","0.0-3.0-1.344","<span style=""font-size:30px; font-family: monospace"">na</span>"," ","","exp-sent","na","","",""
"","553","html-keyboard-response","418","506059","0.0-3.0-1.345","<span style=""font-size:30px; font-family: monospace"">comida.</span>"," ","","comp","comida.","","",""
"","3773","html-keyboard-response","419","510098","0.0-3.0-2.345-0.345","<span style=""font-size:30px; font-family: monospace"">Ele gosta de tomate na comida?</span>","n","","comp","","Ele gosta de tomate na comida?","não","false"
"","null","html-keyboard-response","420","511616","0.0-3.0-0.346-0.346","<span style= ""font-size:30px; font-family: monospace"">+</span>","null","fixation","","","","",""
"","2832","html-keyboard-response","421","514703","0.0-3.0-1.346","<span style=""font-size:30px; font-family: monospace"">A</span>"," ","","exp-sent","A","","",""
"","529","html-keyboard-response","422","515494","0.0-3.0-1.347","<span style=""font-size:30px; font-family: monospace"">senhora</span>"," ","","exp-sent","senhora","","",""
"","579","html-keyboard-response","423","516331","0.0-3.0-1.348","<span style=""font-size:30px; font-family: monospace"">cumprimentou</span>"," ","","exp-sent","cumprimentou","","",""
"","1175","html-keyboard-response","424","517761","0.0-3.0-1.349","<span style=""font-size:30px; font-family: monospace"">o</span>"," ","","exp-sent","o","","",""
"","711","html-keyboard-response","425","518736","0.0-3.0-1.350","<span style=""font-size:30px; font-family: monospace"">operador</span>"," ","","exp-sent","operador","","",""
"","328","html-keyboard-response","426","519324","0.0-3.0-1.351","<span style=""font-size:30px; font-family: monospace"">de</span>"," ","","exp-sent","de","","",""
"","321","html-keyboard-response","427","519903","0.0-3.0-1.352","<span style=""font-size:30px; font-family: monospace"">caixa.</span>"," ","","exp-sent","caixa.","","",""
"","null","html-keyboard-response","428","521179","0.0-3.0-0.353-0.353","<span style= ""font-size:30px; font-family: monospace"">+</span>","null","fixation","","","","",""
"","172","html-keyboard-response","429","521605","0.0-3.0-1.353","<span style=""font-size:30px; font-family: monospace"">A</span>"," ","","exp-sent","A","","",""
"","279","html-keyboard-response","430","522144","0.0-3.0-1.354","<span style=""font-size:30px; font-family: monospace"">gente</span>"," ","","exp-sent","gente","","",""
"","471","html-keyboard-response","431","522879","0.0-3.0-1.355","<span style=""font-size:30px; font-family: monospace"">viu</span>"," ","","exp-sent","viu","","",""
"","400","html-keyboard-response","432","523538","0.0-3.0-1.356","<span style=""font-size:30px; font-family: monospace"">o</span>"," ","","exp-sent","o","","",""
"","284","html-keyboard-response","433","524086","0.0-3.0-1.357","<span style=""font-size:30px; font-family: monospace"">eclipse</span>"," ","","exp-sent","eclipse","","",""
"","321","html-keyboard-response","434","524660","0.0-3.0-1.358","<span style=""font-size:30px; font-family: monospace"">lunar</span>"," ","","exp-sent","lunar","","",""
"","311","html-keyboard-response","435","525238","0.0-3.0-1.359","<span style=""font-size:30px; font-family: monospace"">durante</span>"," ","","exp-sent","durante","","",""
"","293","html-keyboard-response","436","525789","0.0-3.0-1.360","<span style=""font-size:30px; font-family: monospace"">o</span>"," ","","exp-sent","o","","",""
"","333","html-keyboard-response","437","526382","0.0-3.0-1.361","<span style=""font-size:30px; font-family: monospace"">dia.</span>"," ","","exp-sent","dia.","","",""
"","null","html-keyboard-response","438","527648","0.0-3.0-0.362-0.362","<span style= ""font-size:30px; font-family: monospace"">+</span>","null","fixation","","","","",""
"","396","html-keyboard-response","439","528301","0.0-3.0-1.362","<span style=""font-size:30px; font-family: monospace"">A</span>"," ","","exp-sent","A","","",""
"","277","html-keyboard-response","440","528839","0.0-3.0-1.363","<span style=""font-size:30px; font-family: monospace"">mordida</span>"," ","","exp-sent","mordida","","",""
"","381","html-keyboard-response","441","529483","0.0-3.0-1.364","<span style=""font-size:30px; font-family: monospace"">do</span>"," ","","exp-sent","do","","",""
"","591","html-keyboard-response","442","530327","0.0-3.0-1.365","<span style=""font-size:30px; font-family: monospace"">cachorro</span>"," ","","exp-sent","cachorro","","",""
"","363","html-keyboard-response","443","530951","0.0-3.0-1.366","<span style=""font-size:30px; font-family: monospace"">voraz</span>"," ","","exp-sent","voraz","","",""
"","391","html-keyboard-response","444","531602","0.0-3.0-1.367","<span style=""font-size:30px; font-family: monospace"">causou</span>"," ","","exp-sent","causou","","",""
"","317","html-keyboard-response","445","532177","0.0-3.0-1.368","<span style=""font-size:30px; font-family: monospace"">uma</span>"," ","","exp-sent","uma","","",""
"","554","html-keyboard-response","446","532982","0.0-3.0-1.369","<span style=""font-size:30px; font-family: monospace"">cicatriz.</span>"," ","","exp-sent","cicatriz.","","",""
"","null","html-keyboard-response","447","534246","0.0-3.0-0.370-0.370","<span style= ""font-size:30px; font-family: monospace"">+</span>","null","fixation","","","","",""
"","374","html-keyboard-response","448","534878","0.0-3.0-1.370","<span style=""font-size:30px; font-family: monospace"">Elas</span>"," ","","exp-sent","Elas","","",""
"","319","html-keyboard-response","449","535464","0.0-3.0-1.371","<span style=""font-size:30px; font-family: monospace"">não</span>"," ","","exp-sent","não","","",""
"","330","html-keyboard-response","450","536047","0.0-3.0-1.372","<span style=""font-size:30px; font-family: monospace"">viram</span>"," ","","exp-sent","viram","","",""
"","358","html-keyboard-response","451","536666","0.0-3.0-1.373","<span style=""font-size:30px; font-family: monospace"">nenhuma</span>"," ","","exp-sent","nenhuma","","",""
"","461","html-keyboard-response","452","537381","0.0-3.0-1.374","<span style=""font-size:30px; font-family: monospace"">diferença</span>"," ","","exp-sent","diferença","","",""
"","318","html-keyboard-response","453","537959","0.0-3.0-1.375","<span style=""font-size:30px; font-family: monospace"">entre</span>"," ","","exp-sent","entre","","",""
"","341","html-keyboard-response","454","538553","0.0-3.0-1.376","<span style=""font-size:30px; font-family: monospace"">os</span>"," ","","exp-sent","os","","",""
"","450","html-keyboard-response","455","539262","0.0-3.0-1.377","<span style=""font-size:30px; font-family: monospace"">textos.</span>"," ","","exp-sent","textos.","","",""
"","null","html-keyboard-response","456","540519","0.0-3.0-0.378-0.378","<span style= ""font-size:30px; font-family: monospace"">+</span>","null","fixation","","","","",""
"","493","html-keyboard-response","457","541264","0.0-3.0-1.378","<span style=""font-size:30px; font-family: monospace"">Amanhã</span>"," ","","exp-sent","Amanhã","","",""
"","400","html-keyboard-response","458","541929","0.0-3.0-1.379","<span style=""font-size:30px; font-family: monospace"">vai</span>"," ","","exp-sent","vai","","",""
"","563","html-keyboard-response","459","542743","0.0-3.0-1.380","<span style=""font-size:30px; font-family: monospace"">ter</span>"," ","","exp-sent","ter","","",""
"","1152","html-keyboard-response","460","544156","0.0-3.0-1.381","<span style=""font-size:30px; font-family: monospace"">um</span>"," ","","exp-sent","um","","",""
"","479","html-keyboard-response","461","544889","0.0-3.0-1.382","<span style=""font-size:30px; font-family: monospace"">bazar</span>"," ","","exp-sent","bazar","","",""
"","770","html-keyboard-response","462","545923","0.0-3.0-1.383","<span style=""font-size:30px; font-family: monospace"">no</span>"," ","","exp-sent","no","","",""
"","411","html-keyboard-response","463","546601","0.0-3.0-1.384","<span style=""font-size:30px; font-family: monospace"">bairro.</span>"," ","","comp","bairro.","","",""
"","3286","html-keyboard-response","464","550146","0.0-3.0-2.384-0.384","<span style=""font-size:30px; font-family: monospace"">Amanhã vai acontecer um bazar no bairro?</span>","s","","comp","","Amanhã vai acontecer um bazar no bairro?","sim","false"
"","null","html-keyboard-response","465","551663","0.0-3.0-0.385-0.385","<span style= ""font-size:30px; font-family: monospace"">+</span>","null","fixation","","","","",""
"","425","html-keyboard-response","466","552342","0.0-3.0-1.385","<span style=""font-size:30px; font-family: monospace"">No</span>"," ","","exp-sent","No","","",""
"","586","html-keyboard-response","467","553189","0.0-3.0-1.386","<span style=""font-size:30px; font-family: monospace"">passado</span>"," ","","exp-sent","passado","","",""
"","351","html-keyboard-response","468","553797","0.0-3.0-1.387","<span style=""font-size:30px; font-family: monospace"">houve</span>"," ","","exp-sent","houve","","",""
"","344","html-keyboard-response","469","554401","0.0-3.0-1.388","<span style=""font-size:30px; font-family: monospace"">uma</span>"," ","","exp-sent","uma","","",""
"","1119","html-keyboard-response","470","555782","0.0-3.0-1.389","<span style=""font-size:30px; font-family: monospace"">rebelião</span>"," ","","exp-sent","rebelião","","",""
"","462","html-keyboard-response","471","556507","0.0-3.0-1.390","<span style=""font-size:30px; font-family: monospace"">nesta</span>"," ","","exp-sent","nesta","","",""
"","1014","html-keyboard-response","472","557775","0.0-3.0-1.391","<span style=""font-size:30px; font-family: monospace"">cidade.</span>"," ","","exp-sent","cidade.","","",""
"","null","html-keyboard-response","473","559038","0.0-3.0-0.392-0.392","<span style= ""font-size:30px; font-family: monospace"">+</span>","null","fixation","","","","",""
"","833","html-keyboard-response","474","560130","0.0-3.0-1.392","<span style=""font-size:30px; font-family: monospace"">Ele</span>"," ","","exp-sent","Ele","","",""
"","471","html-keyboard-response","475","560853","0.0-3.0-1.393","<span style=""font-size:30px; font-family: monospace"">fundou</span>"," ","","exp-sent","fundou","","",""
"","445","html-keyboard-response","476","561559","0.0-3.0-1.394","<span style=""font-size:30px; font-family: monospace"">uma</span>"," ","","exp-sent","uma","","",""
"","524","html-keyboard-response","477","562337","0.0-3.0-1.395","<span style=""font-size:30px; font-family: monospace"">empresa</span>"," ","","exp-sent","empresa","","",""
"","495","html-keyboard-response","478","563087","0.0-3.0-1.396","<span style=""font-size:30px; font-family: monospace"">privada</span>"," ","","exp-sent","privada","","",""
"","308","html-keyboard-response","479","563655","0.0-3.0-1.397","<span style=""font-size:30px; font-family: monospace"">sem</span>"," ","","exp-sent","sem","","",""
"","335","html-keyboard-response","480","564243","0.0-3.0-1.398","<span style=""font-size:30px; font-family: monospace"">ajuda.</span>"," ","","exp-sent","ajuda.","","",""
"","null","html-keyboard-response","481","565498","0.0-3.0-0.399-0.399","<span style= ""font-size:30px; font-family: monospace"">+</span>","null","fixation","","","","",""
"","506","html-keyboard-response","482","566261","0.0-3.0-1.399","<span style=""font-size:30px; font-family: monospace"">As</span>"," ","","exp-sent","As","","",""
"","447","html-keyboard-response","483","566970","0.0-3.0-1.400","<span style=""font-size:30px; font-family: monospace"">meninas</span>"," ","","exp-sent","meninas","","",""
"","271","html-keyboard-response","484","567496","0.0-3.0-1.401","<span style=""font-size:30px; font-family: monospace"">encontraram</span>"," ","","exp-sent","encontraram","","",""
"","364","html-keyboard-response","485","568111","0.0-3.0-1.402","<span style=""font-size:30px; font-family: monospace"">um</span>"," ","","exp-sent","um","","",""
"","358","html-keyboard-response","486","568723","0.0-3.0-1.403","<span style=""font-size:30px; font-family: monospace"">rato</span>"," ","","exp-sent","rato","","",""
"","178","html-keyboard-response","487","569163","0.0-3.0-1.404","<span style=""font-size:30px; font-family: monospace"">dentro</span>"," ","","exp-sent","dentro","","",""
"","313","html-keyboard-response","488","569733","0.0-3.0-1.405","<span style=""font-size:30px; font-family: monospace"">de</span>"," ","","exp-sent","de","","",""
"","272","html-keyboard-response","489","570263","0.0-3.0-1.406","<span style=""font-size:30px; font-family: monospace"">casa.</span>"," ","","exp-sent","casa.","","",""
"","null","html-keyboard-response","490","571532","0.0-3.0-0.407-0.407","<span style= ""font-size:30px; font-family: monospace"">+</span>","null","fixation","","","","",""
"","325","html-keyboard-response","491","572109","0.0-3.0-1.407","<span style=""font-size:30px; font-family: monospace"">O</span>"," ","","exp-sent","O","","",""
"","374","html-keyboard-response","492","572746","0.0-3.0-1.408","<span style=""font-size:30px; font-family: monospace"">texto</span>"," ","","exp-sent","texto","","",""
"","364","html-keyboard-response","493","573372","0.0-3.0-1.409","<span style=""font-size:30px; font-family: monospace"">tinha</span>"," ","","exp-sent","tinha","","",""
"","356","html-keyboard-response","494","573984","0.0-3.0-1.410","<span style=""font-size:30px; font-family: monospace"">ideias</span>"," ","","exp-sent","ideias","","",""
"","373","html-keyboard-response","495","574619","0.0-3.0-1.411","<span style=""font-size:30px; font-family: monospace"">vagas</span>"," ","","exp-sent","vagas","","",""
"","332","html-keyboard-response","496","575210","0.0-3.0-1.412","<span style=""font-size:30px; font-family: monospace"">e</span>"," ","","exp-sent","e","","",""
"","713","html-keyboard-response","497","576175","0.0-3.0-1.413","<span style=""font-size:30px; font-family: monospace"">confusas.</span>"," ","","exp-sent","confusas.","","",""
"","null","html-keyboard-response","498","577435","0.0-3.0-0.414-0.414","<span style= ""font-size:30px; font-family: monospace"">+</span>","null","fixation","","","","",""
"","427","html-keyboard-response","499","578115","0.0-3.0-1.414","<span style=""font-size:30px; font-family: monospace"">As</span>"," ","","exp-sent","As","","",""
"","483","html-keyboard-response","500","578854","0.0-3.0-1.415","<span style=""font-size:30px; font-family: monospace"">crianças</span>"," ","","exp-sent","crianças","","",""
"","323","html-keyboard-response","501","579443","0.0-3.0-1.416","<span style=""font-size:30px; font-family: monospace"">viram</span>"," ","","exp-sent","viram","","",""
"","334","html-keyboard-response","502","580044","0.0-3.0-1.417","<span style=""font-size:30px; font-family: monospace"">a</span>"," ","","exp-sent","a","","",""
"","789","html-keyboard-response","503","581094","0.0-3.0-1.418","<span style=""font-size:30px; font-family: monospace"">acrobata</span>"," ","","exp-sent","acrobata","","",""
"","657","html-keyboard-response","504","582004","0.0-3.0-1.419","<span style=""font-size:30px; font-family: monospace"">talentosa</span>"," ","","exp-sent","talentosa","","",""
"","352","html-keyboard-response","505","582616","0.0-3.0-1.420","<span style=""font-size:30px; font-family: monospace"">no</span>"," ","","exp-sent","no","","",""
"","335","html-keyboard-response","506","583211","0.0-3.0-1.421","<span style=""font-size:30px; font-family: monospace"">circo.</span>"," ","","comp","circo.","","",""
"","3572","html-keyboard-response","507","587042","0.0-3.0-2.421-0.421","<span style=""font-size:30px; font-family: monospace"">As crianças viram o palhaço no circo?</span>","n","","comp","","As crianças viram o palhaço no circo?","não","false"
"","null","html-keyboard-response","508","588569","0.0-3.0-0.422-0.422","<span style= ""font-size:30px; font-family: monospace"">+</span>","null","fixation","","","","",""
"","165","html-keyboard-response","509","588987","0.0-3.0-1.422","<span style=""font-size:30px; font-family: monospace"">O</span>"," ","","exp-sent","O","","",""
"","267","html-keyboard-response","510","589517","0.0-3.0-1.423","<span style=""font-size:30px; font-family: monospace"">moço</span>"," ","","exp-sent","moço","","",""
"","294","html-keyboard-response","511","590066","0.0-3.0-1.424","<span style=""font-size:30px; font-family: monospace"">usou</span>"," ","","exp-sent","usou","","",""
"","254","html-keyboard-response","512","590577","0.0-3.0-1.425","<span style=""font-size:30px; font-family: monospace"">várias</span>"," ","","exp-sent","várias","","",""
"","268","html-keyboard-response","513","591104","0.0-3.0-1.426","<span style=""font-size:30px; font-family: monospace"">velas</span>"," ","","exp-sent","velas","","",""
"","285","html-keyboard-response","514","591648","0.0-3.0-1.427","<span style=""font-size:30px; font-family: monospace"">no</span>"," ","","exp-sent","no","","",""
"","288","html-keyboard-response","515","592191","0.0-3.0-1.428","<span style=""font-size:30px; font-family: monospace"">enfeite</span>"," ","","exp-sent","enfeite","","",""
"","373","html-keyboard-response","516","592830","0.0-3.0-1.429","<span style=""font-size:30px; font-family: monospace"">de</span>"," ","","exp-sent","de","","",""
"","310","html-keyboard-response","517","593400","0.0-3.0-1.430","<span style=""font-size:30px; font-family: monospace"">mesa.</span>"," ","","exp-sent","mesa.","","",""
"","null","html-keyboard-response","518","594670","0.0-3.0-0.431-0.431","<span style= ""font-size:30px; font-family: monospace"">+</span>","null","fixation","","","","",""
"","339","html-keyboard-response","519","595265","0.0-3.0-1.431","<span style=""font-size:30px; font-family: monospace"">Gostamos</span>"," ","","exp-sent","Gostamos","","",""
"","366","html-keyboard-response","520","595893","0.0-3.0-1.432","<span style=""font-size:30px; font-family: monospace"">de</span>"," ","","exp-sent","de","","",""
"","340","html-keyboard-response","521","596498","0.0-3.0-1.433","<span style=""font-size:30px; font-family: monospace"">suco</span>"," ","","exp-sent","suco","","",""
"","340","html-keyboard-response","522","597094","0.0-3.0-1.434","<span style=""font-size:30px; font-family: monospace"">em</span>"," ","","exp-sent","em","","",""
"","519","html-keyboard-response","523","597867","0.0-3.0-1.435","<span style=""font-size:30px; font-family: monospace"">garrafa</span>"," ","","exp-sent","garrafa","","",""
"","374","html-keyboard-response","524","598500","0.0-3.0-1.436","<span style=""font-size:30px; font-family: monospace"">de</span>"," ","","exp-sent","de","","",""
"","474","html-keyboard-response","525","599231","0.0-3.0-1.437","<span style=""font-size:30px; font-family: monospace"">tamanho</span>"," ","","exp-sent","tamanho","","",""
"","316","html-keyboard-response","526","599810","0.0-3.0-1.438","<span style=""font-size:30px; font-family: monospace"">pequeno.</span>"," ","","exp-sent","pequeno.","","",""
"","null","html-keyboard-response","527","601069","0.0-3.0-0.439-0.439","<span style= ""font-size:30px; font-family: monospace"">+</span>","null","fixation","","","","",""
"","569","html-keyboard-response","528","601896","0.0-3.0-1.439","<span style=""font-size:30px; font-family: monospace"">Sua</span>"," ","","exp-sent","Sua","","",""
"","365","html-keyboard-response","529","602518","0.0-3.0-1.440","<span style=""font-size:30px; font-family: monospace"">filha</span>"," ","","exp-sent","filha","","",""
"","333","html-keyboard-response","530","603103","0.0-3.0-1.441","<span style=""font-size:30px; font-family: monospace"">é</span>"," ","","exp-sent","é","","",""
"","285","html-keyboard-response","531","603654","0.0-3.0-1.442","<span style=""font-size:30px; font-family: monospace"">muito</span>"," ","","exp-sent","muito","","",""
"","317","html-keyboard-response","532","604224","0.0-3.0-1.443","<span style=""font-size:30px; font-family: monospace"">capaz</span>"," ","","exp-sent","capaz","","",""
"","278","html-keyboard-response","533","604755","0.0-3.0-1.444","<span style=""font-size:30px; font-family: monospace"">e</span>"," ","","exp-sent","e","","",""
"","984","html-keyboard-response","534","606000","0.0-3.0-1.445","<span style=""font-size:30px; font-family: monospace"">esforçada.</span>"," ","","exp-sent","esforçada.","","",""
"","null","html-keyboard-response","535","607275","0.0-3.0-0.446-0.446","<span style= ""font-size:30px; font-family: monospace"">+</span>","null","fixation","","","","",""
"","646","html-keyboard-response","536","608179","0.0-3.0-1.446","<span style=""font-size:30px; font-family: monospace"">A</span>"," ","","exp-sent","A","","",""
"","423","html-keyboard-response","537","608864","0.0-3.0-1.447","<span style=""font-size:30px; font-family: monospace"">batida</span>"," ","","exp-sent","batida","","",""
"","302","html-keyboard-response","538","609424","0.0-3.0-1.448","<span style=""font-size:30px; font-family: monospace"">causou</span>"," ","","exp-sent","causou","","",""
"","314","html-keyboard-response","539","609989","0.0-3.0-1.449","<span style=""font-size:30px; font-family: monospace"">muita</span>"," ","","exp-sent","muita","","",""
"","274","html-keyboard-response","540","610524","0.0-3.0-1.450","<span style=""font-size:30px; font-family: monospace"">confusão</span>"," ","","exp-sent","confusão","","",""
"","299","html-keyboard-response","541","611091","0.0-3.0-1.451","<span style=""font-size:30px; font-family: monospace"">na</span>"," ","","exp-sent","na","","",""
"","281","html-keyboard-response","542","611626","0.0-3.0-1.452","<span style=""font-size:30px; font-family: monospace"">estrada.</span>"," ","","exp-sent","estrada.","","",""
"","null","html-keyboard-response","543","612897","0.0-3.0-0.453-0.453","<span style= ""font-size:30px; font-family: monospace"">+</span>","null","fixation","","","","",""
"","437","html-keyboard-response","544","613589","0.0-3.0-1.453","<span style=""font-size:30px; font-family: monospace"">Eu</span>"," ","","exp-sent","Eu","","",""
"","472","html-keyboard-response","545","614324","0.0-3.0-1.454","<span style=""font-size:30px; font-family: monospace"">cozinhei</span>"," ","","exp-sent","cozinhei","","",""
"","342","html-keyboard-response","546","614929","0.0-3.0-1.455","<span style=""font-size:30px; font-family: monospace"">um</span>"," ","","exp-sent","um","","",""
"","340","html-keyboard-response","547","615532","0.0-3.0-1.456","<span style=""font-size:30px; font-family: monospace"">almoço</span>"," ","","exp-sent","almoço","","",""
"","438","html-keyboard-response","548","616236","0.0-3.0-1.457","<span style=""font-size:30px; font-family: monospace"">nutritivo</span>"," ","","exp-sent","nutritivo","","",""
"","417","html-keyboard-response","549","616914","0.0-3.0-1.458","<span style=""font-size:30px; font-family: monospace"">para</span>"," ","","exp-sent","para","","",""
"","341","html-keyboard-response","550","617516","0.0-3.0-1.459","<span style=""font-size:30px; font-family: monospace"">hoje.</span>"," ","","comp","hoje.","","",""
"","3126","html-keyboard-response","551","620900","0.0-3.0-2.459-0.459","<span style=""font-size:30px; font-family: monospace"">O almoço era nutritivo?</span>","s","","comp","","O almoço era nutritivo?","sim","false"
"","null","html-keyboard-response","552","622426","0.0-3.0-0.460-0.460","<span style= ""font-size:30px; font-family: monospace"">+</span>","null","fixation","","","","",""
"","610","html-keyboard-response","553","623291","0.0-3.0-1.460","<span style=""font-size:30px; font-family: monospace"">Eu</span>"," ","","exp-sent","Eu","","",""
"","433","html-keyboard-response","554","623988","0.0-3.0-1.461","<span style=""font-size:30px; font-family: monospace"">gosto</span>"," ","","exp-sent","gosto","","",""
"","234","html-keyboard-response","555","624483","0.0-3.0-1.462","<span style=""font-size:30px; font-family: monospace"">de</span>"," ","","exp-sent","de","","",""
"","287","html-keyboard-response","556","625027","0.0-3.0-1.463","<span style=""font-size:30px; font-family: monospace"">molho</span>"," ","","exp-sent","molho","","",""
"","300","html-keyboard-response","557","625594","0.0-3.0-1.464","<span style=""font-size:30px; font-family: monospace"">picante</span>"," ","","exp-sent","picante","","",""
"","286","html-keyboard-response","558","626137","0.0-3.0-1.465","<span style=""font-size:30px; font-family: monospace"">nas</span>"," ","","exp-sent","nas","","",""
"","520","html-keyboard-response","559","626913","0.0-3.0-1.466","<span style=""font-size:30px; font-family: monospace"">batatas.</span>"," ","","exp-sent","batatas.","","",""
"","null","html-keyboard-response","560","628184","0.0-3.0-0.467-0.467","<span style= ""font-size:30px; font-family: monospace"">+</span>","null","fixation","","","","",""
"","324","html-keyboard-response","561","628761","0.0-3.0-1.467","<span style=""font-size:30px; font-family: monospace"">As</span>"," ","","exp-sent","As","","",""
"","355","html-keyboard-response","562","629378","0.0-3.0-1.468","<span style=""font-size:30px; font-family: monospace"">pessoas</span>"," ","","exp-sent","pessoas","","",""
"","326","html-keyboard-response","563","629968","0.0-3.0-1.469","<span style=""font-size:30px; font-family: monospace"">têm</span>"," ","","exp-sent","têm","","",""
"","315","html-keyboard-response","564","630547","0.0-3.0-1.470","<span style=""font-size:30px; font-family: monospace"">sua</span>"," ","","exp-sent","sua","","",""
"","351","html-keyboard-response","565","631152","0.0-3.0-1.471","<span style=""font-size:30px; font-family: monospace"">liberdade</span>"," ","","exp-sent","liberdade","","",""
"","361","html-keyboard-response","566","631765","0.0-3.0-1.472","<span style=""font-size:30px; font-family: monospace"">até</span>"," ","","exp-sent","até","","",""
"","474","html-keyboard-response","567","632501","0.0-3.0-1.473","<span style=""font-size:30px; font-family: monospace"">certo</span>"," ","","exp-sent","certo","","",""
"","361","html-keyboard-response","568","633127","0.0-3.0-1.474","<span style=""font-size:30px; font-family: monospace"">ponto.</span>"," ","","exp-sent","ponto.","","",""
"","null","html-keyboard-response","569","634397","0.0-3.0-0.475-0.475","<span style= ""font-size:30px; font-family: monospace"">+</span>","null","fixation","","","","",""
"","472","html-keyboard-response","570","635127","0.0-3.0-1.475","<span style=""font-size:30px; font-family: monospace"">A</span>"," ","","exp-sent","A","","",""
"","287","html-keyboard-response","571","635678","0.0-3.0-1.476","<span style=""font-size:30px; font-family: monospace"">empresa</span>"," ","","exp-sent","empresa","","",""
"","336","html-keyboard-response","572","636275","0.0-3.0-1.477","<span style=""font-size:30px; font-family: monospace"">enviou</span>"," ","","exp-sent","enviou","","",""
"","310","html-keyboard-response","573","636844","0.0-3.0-1.478","<span style=""font-size:30px; font-family: monospace"">o</span>"," ","","exp-sent","o","","",""
"","275","html-keyboard-response","574","637381","0.0-3.0-1.479","<span style=""font-size:30px; font-family: monospace"">aviso</span>"," ","","exp-sent","aviso","","",""
"","312","html-keyboard-response","575","637959","0.0-3.0-1.480","<span style=""font-size:30px; font-family: monospace"">hoje</span>"," ","","exp-sent","hoje","","",""
"","355","html-keyboard-response","576","638574","0.0-3.0-1.481","<span style=""font-size:30px; font-family: monospace"">de</span>"," ","","exp-sent","de","","",""
"","385","html-keyboard-response","577","639211","0.0-3.0-1.482","<span style=""font-size:30px; font-family: monospace"">tarde.</span>"," ","","exp-sent","tarde.","","",""
"","null","html-keyboard-response","578","640476","0.0-3.0-0.483-0.483","<span style= ""font-size:30px; font-family: monospace"">+</span>","null","fixation","","","","",""
"","330","html-keyboard-response","579","641065","0.0-3.0-1.483","<span style=""font-size:30px; font-family: monospace"">A</span>"," ","","exp-sent","A","","",""
"","419","html-keyboard-response","580","641746","0.0-3.0-1.484","<span style=""font-size:30px; font-family: monospace"">loja</span>"," ","","exp-sent","loja","","",""
"","452","html-keyboard-response","581","642452","0.0-3.0-1.485","<span style=""font-size:30px; font-family: monospace"">vende</span>"," ","","exp-sent","vende","","",""
"","326","html-keyboard-response","582","643041","0.0-3.0-1.486","<span style=""font-size:30px; font-family: monospace"">tanto</span>"," ","","exp-sent","tanto","","",""
"","758","html-keyboard-response","583","644052","0.0-3.0-1.487","<span style=""font-size:30px; font-family: monospace"">frituras</span>"," ","","exp-sent","frituras","","",""
"","426","html-keyboard-response","584","644743","0.0-3.0-1.488","<span style=""font-size:30px; font-family: monospace"">quanto</span>"," ","","exp-sent","quanto","","",""
