[
	{
		"view_history": [
			{
				"page_index": 0,
				"viewing_time": 133301
			},
			{
				"page_index": 1,
				"viewing_time": 3864
			}
		],
		"rt": 137166,
		"trial_type": "instructions",
		"trial_index": 0,
		"time_elapsed": 137165,
		"internal_node_id": "0.0-0.0"
	},
	{
		"rt": null,
		"stimulus": "<span style= \"font-size:30px; font-family: monospace\">+</span>",
		"response": null,
		"trial_part": "fixation",
		"trial_type": "html-keyboard-response",
		"trial_index": 1,
		"time_elapsed": 138267,
		"internal_node_id": "0.0-1.0-0.0-0.0"
	},
	{
		"rt": 12040,
		"stimulus": "<span style=\"font-size:30px; font-family: monospace\">O</span>",
		"response": " ",
		"trial": "prac-sent",
		"word": "O",
		"trial_type": "html-keyboard-response",
		"trial_index": 2,
		"time_elapsed": 150558,
		"internal_node_id": "0.0-1.0-1.0"
	},
	{
		"rt": 4916,
		"stimulus": "<span style=\"font-size:30px; font-family: monospace\">dia</span>",
		"response": " ",
		"trial": "prac-sent",
		"word": "dia",
		"trial_type": "html-keyboard-response",
		"trial_index": 3,
		"time_elapsed": 155725,
		"internal_node_id": "0.0-1.0-1.1"
	},
	{
		"rt": 18885,
		"stimulus": "<span style=\"font-size:30px; font-family: monospace\">estará</span>",
		"response": " ",
		"trial": "prac-sent",
		"word": "estará",
		"trial_type": "html-keyboard-response",
		"trial_index": 4,
		"time_elapsed": 174861,
		"internal_node_id": "0.0-1.0-1.2"
	},
	{
		"rt": 4485,
		"stimulus": "<span style=\"font-size:30px; font-family: monospace\">cheio</span>",
		"response": " ",
		"trial": "prac-sent",
		"word": "cheio",
		"trial_type": "html-keyboard-response",
		"trial_index": 5,
		"time_elapsed": 179597,
		"internal_node_id": "0.0-1.0-1.3"
	},
	{
		"rt": 6004,
		"stimulus": "<span style=\"font-size:30px; font-family: monospace\">de</span>",
		"response": " ",
		"trial": "prac-sent",
		"word": "de",
		"trial_type": "html-keyboard-response",
		"trial_index": 6,
		"time_elapsed": 185853,
		"internal_node_id": "0.0-1.0-1.4"
	},
	{
		"rt": 2806,
		"stimulus": "<span style=\"font-size:30px; font-family: monospace\">nuvens</span>",
		"response": " ",
		"trial": "prac-sent",
		"word": "nuvens",
		"trial_type": "html-keyboard-response",
		"trial_index": 7,
		"time_elapsed": 188909,
		"internal_node_id": "0.0-1.0-1.5"
	},
	{
		"rt": 4388,
		"stimulus": "<span style=\"font-size:30px; font-family: monospace\">hoje.</span>",
		"response": " ",
		"trial": "prac-sent",
		"word": "hoje.",
		"trial_type": "html-keyboard-response",
		"trial_index": 8,
		"time_elapsed": 193548,
		"internal_node_id": "0.0-1.0-1.6"
	},
	{
		"rt": null,
		"stimulus": "<span style= \"font-size:30px; font-family: monospace\">+</span>",
		"response": null,
		"trial_part": "fixation",
		"trial_type": "html-keyboard-response",
		"trial_index": 9,
		"time_elapsed": 194800,
		"internal_node_id": "0.0-1.0-0.7-0.7"
	},
	{
		"rt": 2289,
		"stimulus": "<span style=\"font-size:30px; font-family: monospace\">A</span>",
		"response": " ",
		"trial": "prac-sent",
		"word": "A",
		"trial_type": "html-keyboard-response",
		"trial_index": 10,
		"time_elapsed": 197340,
		"internal_node_id": "0.0-1.0-1.7"
	},
	{
		"rt": 2148,
		"stimulus": "<span style=\"font-size:30px; font-family: monospace\">caneca</span>",
		"response": " ",
		"trial": "prac-sent",
		"word": "caneca",
		"trial_type": "html-keyboard-response",
		"trial_index": 11,
		"time_elapsed": 199740,
		"internal_node_id": "0.0-1.0-1.8"
	},
	{
		"rt": 1798,
		"stimulus": "<span style=\"font-size:30px; font-family: monospace\">colorida</span>",
		"response": " ",
		"trial": "prac-sent",
		"word": "colorida",
		"trial_type": "html-keyboard-response",
		"trial_index": 12,
		"time_elapsed": 201788,
		"internal_node_id": "0.0-1.0-1.9"
	},
	{
		"rt": 2117,
		"stimulus": "<span style=\"font-size:30px; font-family: monospace\">caiu</span>",
		"response": " ",
		"trial": "prac-sent",
		"word": "caiu",
		"trial_type": "html-keyboard-response",
		"trial_index": 13,
		"time_elapsed": 204156,
		"internal_node_id": "0.0-1.0-1.10"
	},
	{
		"rt": 2213,
		"stimulus": "<span style=\"font-size:30px; font-family: monospace\">da</span>",
		"response": " ",
		"trial": "prac-sent",
		"word": "da",
		"trial_type": "html-keyboard-response",
		"trial_index": 14,
		"time_elapsed": 206620,
		"internal_node_id": "0.0-1.0-1.11"
	},
	{
		"rt": 2598,
		"stimulus": "<span style=\"font-size:30px; font-family: monospace\">mesa</span>",
		"response": " ",
		"trial": "prac-sent",
		"word": "mesa",
		"trial_type": "html-keyboard-response",
		"trial_index": 15,
		"time_elapsed": 209469,
		"internal_node_id": "0.0-1.0-1.12"
	},
	{
		"rt": 2820,
		"stimulus": "<span style=\"font-size:30px; font-family: monospace\">de</span>",
		"response": " ",
		"trial": "prac-sent",
		"word": "de",
		"trial_type": "html-keyboard-response",
		"trial_index": 16,
		"time_elapsed": 212540,
		"internal_node_id": "0.0-1.0-1.13"
	},
	{
		"rt": 2180,
		"stimulus": "<span style=\"font-size:30px; font-family: monospace\">jantar.</span>",
		"response": " ",
		"trial": "prac-comp",
		"word": "jantar.",
		"trial_type": "html-keyboard-response",
		"trial_index": 17,
		"time_elapsed": 214972,
		"internal_node_id": "0.0-1.0-1.14"
	},
	{
		"rt": 32390,
		"stimulus": "<span style=\"font-size:30px; font-family: monospace\">A caneca permaneceu na mesa?</span>",
		"response": "n",
		"question": "A caneca permaneceu na mesa?",
		"answer": "não",
		"trial": "prac-comp",
		"trial_type": "html-keyboard-response",
		"trial_index": 18,
		"time_elapsed": 247612,
		"internal_node_id": "0.0-1.0-2.14-0.14",
		"accuracy": false
	},
	{
		"view_history": [
			{
				"page_index": 0,
				"viewing_time": 62595
			}
		],
		"rt": 62595,
		"trial_type": "instructions",
		"trial_index": 19,
		"time_elapsed": 310709,
		"internal_node_id": "0.0-2.0"
	},
	{
		"rt": null,
		"stimulus": "<span style= \"font-size:30px; font-family: monospace\">+</span>",
		"response": null,
		"trial_part": "fixation",
		"trial_type": "html-keyboard-response",
		"trial_index": 20,
		"time_elapsed": 311812,
		"internal_node_id": "0.0-3.0-0.0-0.0"
	},
	{
		"rt": 5886,
		"stimulus": "<span style=\"font-size:30px; font-family: monospace\">O</span>",
		"response": " ",
		"trial": "exp-sent",
		"word": "O",
		"trial_type": "html-keyboard-response",
		"trial_index": 21,
		"time_elapsed": 317949,
		"internal_node_id": "0.0-3.0-1.0"
	},
	{
		"rt": 5557,
		"stimulus": "<span style=\"font-size:30px; font-family: monospace\">texto</span>",
		"response": " ",
		"trial": "exp-sent",
		"word": "texto",
		"trial_type": "html-keyboard-response",
		"trial_index": 22,
		"time_elapsed": 323757,
		"internal_node_id": "0.0-3.0-1.1"
	},
	{
		"rt": 6053,
		"stimulus": "<span style=\"font-size:30px; font-family: monospace\">trazia</span>",
		"response": " ",
		"trial": "exp-sent",
		"word": "trazia",
		"trial_type": "html-keyboard-response",
		"trial_index": 23,
		"time_elapsed": 330061,
		"internal_node_id": "0.0-3.0-1.2"
	},
	{
		"rt": 5669,
		"stimulus": "<span style=\"font-size:30px; font-family: monospace\">um</span>",
		"response": " ",
		"trial": "exp-sent",
		"word": "um",
		"trial_type": "html-keyboard-response",
		"trial_index": 24,
		"time_elapsed": 335981,
		"internal_node_id": "0.0-3.0-1.3"
	},
	{
		"rt": 15717,
		"stimulus": "<span style=\"font-size:30px; font-family: monospace\">argumento</span>",
		"response": " ",
		"trial": "exp-sent",
		"word": "argumento",
		"trial_type": "html-keyboard-response",
		"trial_index": 25,
		"time_elapsed": 351948,
		"internal_node_id": "0.0-3.0-1.4"
	},
	{
		"rt": 4710,
		"stimulus": "<span style=\"font-size:30px; font-family: monospace\">central</span>",
		"response": " ",
		"trial": "exp-sent",
		"word": "central",
		"trial_type": "html-keyboard-response",
		"trial_index": 26,
		"time_elapsed": 356908,
		"internal_node_id": "0.0-3.0-1.5"
	},
	{
		"rt": 34980,
		"stimulus": "<span style=\"font-size:30px; font-family: monospace\">para</span>",
		"response": " ",
		"trial": "exp-sent",
		"word": "para",
		"trial_type": "html-keyboard-response",
		"trial_index": 27,
		"time_elapsed": 392140,
		"internal_node_id": "0.0-3.0-1.6"
	},
	{
		"rt": 2965,
		"stimulus": "<span style=\"font-size:30px; font-family: monospace\">a</span>",
		"response": " ",
		"trial": "exp-sent",
		"word": "a",
		"trial_type": "html-keyboard-response",
		"trial_index": 28,
		"time_elapsed": 395355,
		"internal_node_id": "0.0-3.0-1.7"
	},
	{
		"rt": 16421,
		"stimulus": "<span style=\"font-size:30px; font-family: monospace\">conversa.</span>",
		"response": " ",
		"trial": "exp-sent",
		"word": "conversa.",
		"trial_type": "html-keyboard-response",
		"trial_index": 29,
		"time_elapsed": 412028,
		"internal_node_id": "0.0-3.0-1.8"
	},
	{
		"rt": null,
		"stimulus": "<span style= \"font-size:30px; font-family: monospace\">+</span>",
		"response": null,
		"trial_part": "fixation",
		"trial_type": "html-keyboard-response",
		"trial_index": 30,
		"time_elapsed": 413281,
		"internal_node_id": "0.0-3.0-0.9-0.9"
	},
	{
		"rt": 1617,
		"stimulus": "<span style=\"font-size:30px; font-family: monospace\">Ontem</span>",
		"response": " ",
		"trial": "exp-sent",
		"word": "Ontem",
		"trial_type": "html-keyboard-response",
		"trial_index": 31,
		"time_elapsed": 415148,
		"internal_node_id": "0.0-3.0-1.9"
	},
	{
		"rt": 2293,
		"stimulus": "<span style=\"font-size:30px; font-family: monospace\">a</span>",
		"response": " ",
		"trial": "exp-sent",
		"word": "a",
		"trial_type": "html-keyboard-response",
		"trial_index": 32,
		"time_elapsed": 417692,
		"internal_node_id": "0.0-3.0-1.10"
	},
	{
		"rt": 25157,
		"stimulus": "<span style=\"font-size:30px; font-family: monospace\">temperatura</span>",
		"response": " ",
		"trial": "exp-sent",
		"word": "temperatura",
		"trial_type": "html-keyboard-response",
		"trial_index": 33,
		"time_elapsed": 443100,
		"internal_node_id": "0.0-3.0-1.11"
	},
	{
		"rt": 4805,
		"stimulus": "<span style=\"font-size:30px; font-family: monospace\">estava</span>",
		"response": " ",
		"trial": "exp-sent",
		"word": "estava",
		"trial_type": "html-keyboard-response",
		"trial_index": 34,
		"time_elapsed": 448156,
		"internal_node_id": "0.0-3.0-1.12"
	},
	{
		"rt": 3412,
		"stimulus": "<span style=\"font-size:30px; font-family: monospace\">amena</span>",
		"response": " ",
		"trial": "exp-sent",
		"word": "amena",
		"trial_type": "html-keyboard-response",
		"trial_index": 35,
		"time_elapsed": 451820,
		"internal_node_id": "0.0-3.0-1.13"
	},
	{
		"rt": 5301,
		"stimulus": "<span style=\"font-size:30px; font-family: monospace\">durante</span>",
		"response": " ",
		"trial": "exp-sent",
		"word": "durante",
		"trial_type": "html-keyboard-response",
		"trial_index": 36,
		"time_elapsed": 457372,
		"internal_node_id": "0.0-3.0-1.14"
	},
	{
		"rt": 7669,
		"stimulus": "<span style=\"font-size:30px; font-family: monospace\">o</span>",
		"response": " ",
		"trial": "exp-sent",
		"word": "o",
		"trial_type": "html-keyboard-response",
		"trial_index": 37,
		"time_elapsed": 465293,
		"internal_node_id": "0.0-3.0-1.15"
	},
	{
		"rt": 18005,
		"stimulus": "<span style=\"font-size:30px; font-family: monospace\">dia.</span>",
		"response": " ",
		"trial": "exp-sent",
		"word": "dia.",
		"trial_type": "html-keyboard-response",
		"trial_index": 38,
		"time_elapsed": 483547,
		"internal_node_id": "0.0-3.0-1.16"
	},
	{
		"rt": null,
		"stimulus": "<span style= \"font-size:30px; font-family: monospace\">+</span>",
		"response": null,
		"trial_part": "fixation",
		"trial_type": "html-keyboard-response",
		"trial_index": 39,
		"time_elapsed": 484800,
		"internal_node_id": "0.0-3.0-0.17-0.17"
	},
	{
		"rt": 48800,
		"stimulus": "<span style=\"font-size:30px; font-family: monospace\">Havia</span>",
		"response": " ",
		"trial": "exp-sent",
		"word": "Havia",
		"trial_type": "html-keyboard-response",
		"trial_index": 40,
		"time_elapsed": 533851,
		"internal_node_id": "0.0-3.0-1.17"
	},
	{
		"rt": 3413,
		"stimulus": "<span style=\"font-size:30px; font-family: monospace\">um</span>",
		"response": " ",
		"trial": "exp-sent",
		"word": "um",
		"trial_type": "html-keyboard-response",
		"trial_index": 41,
		"time_elapsed": 537515,
		"internal_node_id": "0.0-3.0-1.18"
	},
	{
		"rt": 19093,
		"stimulus": "<span style=\"font-size:30px; font-family: monospace\">machucado</span>",
		"response": " ",
		"trial": "exp-sent",
		"word": "machucado",
		"trial_type": "html-keyboard-response",
		"trial_index": 42,
		"time_elapsed": 556859,
		"internal_node_id": "0.0-3.0-1.19"
	},
	{
		"rt": 3284,
		"stimulus": "<span style=\"font-size:30px; font-family: monospace\">no</span>",
		"response": " ",
		"trial": "exp-sent",
		"word": "no",
		"trial_type": "html-keyboard-response",
		"trial_index": 43,
		"time_elapsed": 560395,
		"internal_node_id": "0.0-3.0-1.20"
	},
	{
		"rt": 3669,
		"stimulus": "<span style=\"font-size:30px; font-family: monospace\">dedo</span>",
		"response": " ",
		"trial": "exp-sent",
		"word": "dedo",
		"trial_type": "html-keyboard-response",
		"trial_index": 44,
		"time_elapsed": 564315,
		"internal_node_id": "0.0-3.0-1.21"
	},
	{
		"rt": 15125,
		"stimulus": "<span style=\"font-size:30px; font-family: monospace\">da</span>",
		"response": " ",
		"trial": "exp-sent",
		"word": "da",
		"trial_type": "html-keyboard-response",
		"trial_index": 45,
		"time_elapsed": 579691,
		"internal_node_id": "0.0-3.0-1.22"
	},
	{
		"rt": 63796,
		"stimulus": "<span style=\"font-size:30px; font-family: monospace\">criança.</span>",
		"response": " ",
		"trial": "exp-sent",
		"word": "criança.",
		"trial_type": "html-keyboard-response",
		"trial_index": 46,
		"time_elapsed": 643739,
		"internal_node_id": "0.0-3.0-1.23"
	},
	{
		"rt": null,
		"stimulus": "<span style= \"font-size:30px; font-family: monospace\">+</span>",
		"response": null,
		"trial_part": "fixation",
		"trial_type": "html-keyboard-response",
		"trial_index": 47,
		"time_elapsed": 644992,
		"internal_node_id": "0.0-3.0-0.24-0.24"
	},
	{
		"rt": 7552,
		"stimulus": "<span style=\"font-size:30px; font-family: monospace\">A</span>",
		"response": " ",
		"trial": "exp-sent",
		"word": "A",
		"trial_type": "html-keyboard-response",
		"trial_index": 48,
		"time_elapsed": 652795,
		"internal_node_id": "0.0-3.0-1.24"
	},
	{
		"rt": 6469,
		"stimulus": "<span style=\"font-size:30px; font-family: monospace\">borboleta</span>",
		"response": " ",
		"trial": "exp-sent",
		"word": "borboleta",
		"trial_type": "html-keyboard-response",
		"trial_index": 49,
		"time_elapsed": 659515,
		"internal_node_id": "0.0-3.0-1.25"
	},
	{
		"rt": 8261,
		"stimulus": "<span style=\"font-size:30px; font-family: monospace\">pousou</span>",
		"response": " ",
		"trial": "exp-sent",
		"word": "pousou",
		"trial_type": "html-keyboard-response",
		"trial_index": 50,
		"time_elapsed": 668027,
		"internal_node_id": "0.0-3.0-1.26"
	},
	{
		"rt": 3141,
		"stimulus": "<span style=\"font-size:30px; font-family: monospace\">no</span>",
		"response": " ",
		"trial": "exp-sent",
		"word": "no",
		"trial_type": "html-keyboard-response",
		"trial_index": 51,
		"time_elapsed": 671419,
		"internal_node_id": "0.0-3.0-1.27"
	},
	{
		"rt": 3494,
		"stimulus": "<span style=\"font-size:30px; font-family: monospace\">ombro</span>",
		"response": " ",
		"trial": "exp-sent",
		"word": "ombro",
		"trial_type": "html-keyboard-response",
		"trial_index": 52,
		"time_elapsed": 675163,
		"internal_node_id": "0.0-3.0-1.28"
	},
	{
		"rt": 7254,
		"stimulus": "<span style=\"font-size:30px; font-family: monospace\">daquela</span>",
		"response": " ",
		"trial": "exp-sent",
		"word": "daquela",
		"trial_type": "html-keyboard-response",
		"trial_index": 53,
		"time_elapsed": 682667,
		"internal_node_id": "0.0-3.0-1.29"
	},
	{
		"rt": 26580,
		"stimulus": "<span style=\"font-size:30px; font-family: monospace\">moça.</span>",
		"response": " ",
		"trial": "exp-sent",
		"word": "moça.",
		"trial_type": "html-keyboard-response",
		"trial_index": 54,
		"time_elapsed": 709498,
		"internal_node_id": "0.0-3.0-1.30"
	},
	{
		"rt": null,
		"stimulus": "<span style= \"font-size:30px; font-family: monospace\">+</span>",
		"response": null,
		"trial_part": "fixation",
		"trial_type": "html-keyboard-response",
		"trial_index": 55,
		"time_elapsed": 710751,
		"internal_node_id": "0.0-3.0-0.31-0.31"
	},
	{
		"rt": 1776,
		"stimulus": "<span style=\"font-size:30px; font-family: monospace\">Eu</span>",
		"response": " ",
		"trial": "exp-sent",
		"word": "Eu",
		"trial_type": "html-keyboard-response",
		"trial_index": 56,
		"time_elapsed": 712778,
		"internal_node_id": "0.0-3.0-1.31"
	},
	{
		"rt": 4629,
		"stimulus": "<span style=\"font-size:30px; font-family: monospace\">quero</span>",
		"response": " ",
		"trial": "exp-sent",
		"word": "quero",
		"trial_type": "html-keyboard-response",
		"trial_index": 57,
		"time_elapsed": 717658,
		"internal_node_id": "0.0-3.0-1.32"
	},
	{
		"rt": 2869,
		"stimulus": "<span style=\"font-size:30px; font-family: monospace\">um</span>",
		"response": " ",
		"trial": "exp-sent",
		"word": "um",
		"trial_type": "html-keyboard-response",
		"trial_index": 58,
		"time_elapsed": 720778,
		"internal_node_id": "0.0-3.0-1.33"
	},
	{
		"rt": 4453,
		"stimulus": "<span style=\"font-size:30px; font-family: monospace\">namorado</span>",
		"response": " ",
		"trial": "exp-sent",
		"word": "namorado",
		"trial_type": "html-keyboard-response",
		"trial_index": 59,
		"time_elapsed": 725482,
		"internal_node_id": "0.0-3.0-1.34"
	},
	{
		"rt": 5573,
		"stimulus": "<span style=\"font-size:30px; font-family: monospace\">honesto</span>",
		"response": " ",
		"trial": "exp-sent",
		"word": "honesto",
		"trial_type": "html-keyboard-response",
		"trial_index": 60,
		"time_elapsed": 731306,
		"internal_node_id": "0.0-3.0-1.35"
	},
	{
		"rt": 3061,
		"stimulus": "<span style=\"font-size:30px; font-family: monospace\">e</span>",
		"response": " ",
		"trial": "exp-sent",
		"word": "e",
		"trial_type": "html-keyboard-response",
		"trial_index": 61,
		"time_elapsed": 734618,
		"internal_node_id": "0.0-3.0-1.36"
	},
	{
		"rt": 29510,
		"stimulus": "<span style=\"font-size:30px; font-family: monospace\">compreensivo.</span>",
		"response": " ",
		"trial": "comp",
		"word": "compreensivo.",
		"trial_type": "html-keyboard-response",
		"trial_index": 62,
		"time_elapsed": 764378,
		"internal_node_id": "0.0-3.0-1.37"
	},
	{
		"rt": 40997,
		"stimulus": "<span style=\"font-size:30px; font-family: monospace\">Eu quero um namorado honesto?</span>",
		"response": "s",
		"question": "Eu quero um namorado honesto?",
		"answer": "sim",
		"trial": "comp",
		"trial_type": "html-keyboard-response",
		"trial_index": 63,
		"time_elapsed": 805626,
		"internal_node_id": "0.0-3.0-2.37-0.37",
		"accuracy": false
	},
	{
		"rt": null,
		"stimulus": "<span style= \"font-size:30px; font-family: monospace\">+</span>",
		"response": null,
		"trial_part": "fixation",
		"trial_type": "html-keyboard-response",
		"trial_index": 64,
		"time_elapsed": 807128,
		"internal_node_id": "0.0-3.0-0.38-0.38"
	},
	{
		"rt": 10535,
		"stimulus": "<span style=\"font-size:30px; font-family: monospace\">Ursos</span>",
		"response": " ",
		"trial": "exp-sent",
		"word": "Ursos",
		"trial_type": "html-keyboard-response",
		"trial_index": 65,
		"time_elapsed": 817914,
		"internal_node_id": "0.0-3.0-1.38"
	},
	{
		"rt": 2997,
		"stimulus": "<span style=\"font-size:30px; font-family: monospace\">têm</span>",
		"response": " ",
		"trial": "exp-sent",
		"word": "têm",
		"trial_type": "html-keyboard-response",
		"trial_index": 66,
		"time_elapsed": 821162,
		"internal_node_id": "0.0-3.0-1.39"
	},
	{
		"rt": 2948,
		"stimulus": "<span style=\"font-size:30px; font-family: monospace\">uma</span>",
		"response": " ",
		"trial": "exp-sent",
		"word": "uma",
		"trial_type": "html-keyboard-response",
		"trial_index": 67,
		"time_elapsed": 824362,
		"internal_node_id": "0.0-3.0-1.40"
	},
	{
		"rt": 18885,
		"stimulus": "<span style=\"font-size:30px; font-family: monospace\">patada</span>",
		"response": " ",
		"trial": "exp-sent",
		"word": "patada",
		"trial_type": "html-keyboard-response",
		"trial_index": 68,
		"time_elapsed": 843498,
		"internal_node_id": "0.0-3.0-1.41"
	},
	{
		"rt": 8501,
		"stimulus": "<span style=\"font-size:30px; font-family: monospace\">brutal</span>",
		"response": " ",
		"trial": "exp-sent",
		"word": "brutal",
		"trial_type": "html-keyboard-response",
		"trial_index": 69,
		"time_elapsed": 852250,
		"internal_node_id": "0.0-3.0-1.42"
	},
	{
		"rt": 2900,
		"stimulus": "<span style=\"font-size:30px; font-family: monospace\">e</span>",
		"response": " ",
		"trial": "exp-sent",
		"word": "e",
		"trial_type": "html-keyboard-response",
		"trial_index": 70,
		"time_elapsed": 855402,
		"internal_node_id": "0.0-3.0-1.43"
	},
	{
		"rt": 51013,
		"stimulus": "<span style=\"font-size:30px; font-family: monospace\">poderosa.</span>",
		"response": " ",
		"trial": "exp-sent",
		"word": "poderosa.",
		"trial_type": "html-keyboard-response",
		"trial_index": 71,
		"time_elapsed": 906663,
		"internal_node_id": "0.0-3.0-1.44"
	},
	{
		"rt": null,
		"stimulus": "<span style= \"font-size:30px; font-family: monospace\">+</span>",
		"response": null,
		"trial_part": "fixation",
		"trial_type": "html-keyboard-response",
		"trial_index": 72,
		"time_elapsed": 907914,
		"internal_node_id": "0.0-3.0-0.45-0.45"
	},
	{
		"rt": 3889,
		"stimulus": "<span style=\"font-size:30px; font-family: monospace\">Eu</span>",
		"response": " ",
		"trial": "exp-sent",
		"word": "Eu",
		"trial_type": "html-keyboard-response",
		"trial_index": 73,
		"time_elapsed": 912054,
		"internal_node_id": "0.0-3.0-1.45"
	},
	{
		"rt": 4245,
		"stimulus": "<span style=\"font-size:30px; font-family: monospace\">fiz</span>",
		"response": " ",
		"trial": "exp-sent",
		"word": "fiz",
		"trial_type": "html-keyboard-response",
		"trial_index": 74,
		"time_elapsed": 916550,
		"internal_node_id": "0.0-3.0-1.46"
	},
	{
		"rt": 3749,
		"stimulus": "<span style=\"font-size:30px; font-family: monospace\">aulas</span>",
		"response": " ",
		"trial": "exp-sent",
		"word": "aulas",
		"trial_type": "html-keyboard-response",
		"trial_index": 75,
		"time_elapsed": 920550,
		"internal_node_id": "0.0-3.0-1.47"
	},
	{
		"rt": 3189,
		"stimulus": "<span style=\"font-size:30px; font-family: monospace\">de</span>",
		"response": " ",
		"trial": "exp-sent",
		"word": "de",
		"trial_type": "html-keyboard-response",
		"trial_index": 76,
		"time_elapsed": 923990,
		"internal_node_id": "0.0-3.0-1.48"
	},
	{
		"rt": 4757,
		"stimulus": "<span style=\"font-size:30px; font-family: monospace\">espanhol</span>",
		"response": " ",
		"trial": "exp-sent",
		"word": "espanhol",
		"trial_type": "html-keyboard-response",
		"trial_index": 77,
		"time_elapsed": 928998,
		"internal_node_id": "0.0-3.0-1.49"
	},
	{
		"rt": 6405,
		"stimulus": "<span style=\"font-size:30px; font-family: monospace\">nesta</span>",
		"response": " ",
		"trial": "exp-sent",
		"word": "nesta",
		"trial_type": "html-keyboard-response",
		"trial_index": 78,
		"time_elapsed": 935654,
		"internal_node_id": "0.0-3.0-1.50"
	},
	{
		"rt": 16885,
		"stimulus": "<span style=\"font-size:30px; font-family: monospace\">cidade.</span>",
		"response": " ",
		"trial": "exp-sent",
		"word": "cidade.",
		"trial_type": "html-keyboard-response",
		"trial_index": 79,
		"time_elapsed": 952790,
		"internal_node_id": "0.0-3.0-1.51"
	},
	{
		"rt": null,
		"stimulus": "<span style= \"font-size:30px; font-family: monospace\">+</span>",
		"response": null,
		"trial_part": "fixation",
		"trial_type": "html-keyboard-response",
		"trial_index": 80,
		"time_elapsed": 954043,
		"internal_node_id": "0.0-3.0-0.52-0.52"
	},
	{
		"rt": 5345,
		"stimulus": "<span style=\"font-size:30px; font-family: monospace\">Ele</span>",
		"response": " ",
		"trial": "exp-sent",
		"word": "Ele",
		"trial_type": "html-keyboard-response",
		"trial_index": 81,
		"time_elapsed": 959638,
		"internal_node_id": "0.0-3.0-1.52"
	},
	{
		"rt": 10773,
		"stimulus": "<span style=\"font-size:30px; font-family: monospace\">comprou</span>",
		"response": " ",
		"trial": "exp-sent",
		"word": "comprou",
		"trial_type": "html-keyboard-response",
		"trial_index": 82,
		"time_elapsed": 970662,
		"internal_node_id": "0.0-3.0-1.53"
	},
	{
		"rt": 3124,
		"stimulus": "<span style=\"font-size:30px; font-family: monospace\">mais</span>",
		"response": " ",
		"trial": "exp-sent",
		"word": "mais",
		"trial_type": "html-keyboard-response",
		"trial_index": 83,
		"time_elapsed": 974037,
		"internal_node_id": "0.0-3.0-1.54"
	},
	{
		"rt": 6469,
		"stimulus": "<span style=\"font-size:30px; font-family: monospace\">uma</span>",
		"response": " ",
		"trial": "exp-sent",
		"word": "uma",
		"trial_type": "html-keyboard-response",
		"trial_index": 84,
		"time_elapsed": 980758,
		"internal_node_id": "0.0-3.0-1.55"
	},
	{
		"rt": 6933,
		"stimulus": "<span style=\"font-size:30px; font-family: monospace\">esponja</span>",
		"response": " ",
		"trial": "exp-sent",
		"word": "esponja",
		"trial_type": "html-keyboard-response",
		"trial_index": 85,
		"time_elapsed": 987942,
		"internal_node_id": "0.0-3.0-1.56"
	},
	{
		"rt": 3493,
		"stimulus": "<span style=\"font-size:30px; font-family: monospace\">para</span>",
		"response": " ",
		"trial": "exp-sent",
		"word": "para",
		"trial_type": "html-keyboard-response",
		"trial_index": 86,
		"time_elapsed": 991685,
		"internal_node_id": "0.0-3.0-1.57"
	},
	{
		"rt": 2916,
		"stimulus": "<span style=\"font-size:30px; font-family: monospace\">a</span>",
		"response": " ",
		"trial": "exp-sent",
		"word": "a",
		"trial_type": "html-keyboard-response",
		"trial_index": 87,
		"time_elapsed": 994853,
		"internal_node_id": "0.0-3.0-1.58"
	},
	{
		"rt": 23963,
		"stimulus": "<span style=\"font-size:30px; font-family: monospace\">cozinha.</span>",
		"response": " ",
		"trial": "exp-sent",
		"word": "cozinha.",
		"trial_type": "html-keyboard-response",
		"trial_index": 88,
		"time_elapsed": 1019077,
		"internal_node_id": "0.0-3.0-1.59"
	},
	{
		"rt": null,
		"stimulus": "<span style= \"font-size:30px; font-family: monospace\">+</span>",
		"response": null,
		"trial_part": "fixation",
		"trial_type": "html-keyboard-response",
		"trial_index": 89,
		"time_elapsed": 1020330,
		"internal_node_id": "0.0-3.0-0.60-0.60"
	},
	{
		"rt": 3665,
		"stimulus": "<span style=\"font-size:30px; font-family: monospace\">Ele</span>",
		"response": " ",
		"trial": "exp-sent",
		"word": "Ele",
		"trial_type": "html-keyboard-response",
		"trial_index": 90,
		"time_elapsed": 1024246,
		"internal_node_id": "0.0-3.0-1.60"
	},
	{
		"rt": 3188,
		"stimulus": "<span style=\"font-size:30px; font-family: monospace\">teve</span>",
		"response": " ",
		"trial": "exp-sent",
		"word": "teve",
		"trial_type": "html-keyboard-response",
		"trial_index": 91,
		"time_elapsed": 1027685,
		"internal_node_id": "0.0-3.0-1.61"
	},
	{
		"rt": 2933,
		"stimulus": "<span style=\"font-size:30px; font-family: monospace\">um</span>",
		"response": " ",
		"trial": "exp-sent",
		"word": "um",
		"trial_type": "html-keyboard-response",
		"trial_index": 92,
		"time_elapsed": 1030867,
		"internal_node_id": "0.0-3.0-1.62"
	},
	{
		"rt": 21685,
		"stimulus": "<span style=\"font-size:30px; font-family: monospace\">sono</span>",
		"response": " ",
		"trial": "exp-sent",
		"word": "sono",
		"trial_type": "html-keyboard-response",
		"trial_index": 93,
		"time_elapsed": 1052803,
		"internal_node_id": "0.0-3.0-1.63"
	},
	{
		"rt": 4565,
		"stimulus": "<span style=\"font-size:30px; font-family: monospace\">bizarro</span>",
		"response": " ",
		"trial": "exp-sent",
		"word": "bizarro",
		"trial_type": "html-keyboard-response",
		"trial_index": 94,
		"time_elapsed": 1057619,
		"internal_node_id": "0.0-3.0-1.64"
	},
	{
		"rt": 3093,
		"stimulus": "<span style=\"font-size:30px; font-family: monospace\">sem</span>",
		"response": " ",
		"trial": "exp-sent",
		"word": "sem",
		"trial_type": "html-keyboard-response",
		"trial_index": 95,
		"time_elapsed": 1060963,
		"internal_node_id": "0.0-3.0-1.65"
	},
	{
		"rt": 4405,
		"stimulus": "<span style=\"font-size:30px; font-family: monospace\">nenhum</span>",
		"response": " ",
		"trial": "exp-sent",
		"word": "nenhum",
		"trial_type": "html-keyboard-response",
		"trial_index": 96,
		"time_elapsed": 1065619,
		"internal_node_id": "0.0-3.0-1.66"
	},
	{
		"rt": 13090,
		"stimulus": "<span style=\"font-size:30px; font-family: monospace\">motivo.</span>",
		"response": " ",
		"trial": "exp-sent",
		"word": "motivo.",
		"trial_type": "html-keyboard-response",
		"trial_index": 97,
		"time_elapsed": 1078963,
		"internal_node_id": "0.0-3.0-1.67"
	},
	{
		"rt": null,
		"stimulus": "<span style= \"font-size:30px; font-family: monospace\">+</span>",
		"response": null,
		"trial_part": "fixation",
		"trial_type": "html-keyboard-response",
		"trial_index": 98,
		"time_elapsed": 1080215,
		"internal_node_id": "0.0-3.0-0.68-0.68"
	},
	{
		"rt": 4225,
		"stimulus": "<span style=\"font-size:30px; font-family: monospace\">A</span>",
		"response": " ",
		"trial": "exp-sent",
		"word": "A",
		"trial_type": "html-keyboard-response",
		"trial_index": 99,
		"time_elapsed": 1084691,
		"internal_node_id": "0.0-3.0-1.68"
	},
	{
		"rt": 3780,
		"stimulus": "<span style=\"font-size:30px; font-family: monospace\">moça</span>",
		"response": " ",
		"trial": "exp-sent",
		"word": "moça",
		"trial_type": "html-keyboard-response",
		"trial_index": 100,
		"time_elapsed": 1088723,
		"internal_node_id": "0.0-3.0-1.69"
	},
	{
		"rt": 3365,
		"stimulus": "<span style=\"font-size:30px; font-family: monospace\">comprou</span>",
		"response": " ",
		"trial": "exp-sent",
		"word": "comprou",
		"trial_type": "html-keyboard-response",
		"trial_index": 101,
		"time_elapsed": 1092338,
		"internal_node_id": "0.0-3.0-1.70"
	},
	{
		"rt": 2806,
		"stimulus": "<span style=\"font-size:30px; font-family: monospace\">um</span>",
		"response": " ",
		"trial": "exp-sent",
		"word": "um",
		"trial_type": "html-keyboard-response",
		"trial_index": 102,
		"time_elapsed": 1095409,
		"internal_node_id": "0.0-3.0-1.71"
	},
	{
		"rt": 4074,
		"stimulus": "<span style=\"font-size:30px; font-family: monospace\">diamante</span>",
		"response": " ",
		"trial": "exp-sent",
		"word": "diamante",
		"trial_type": "html-keyboard-response",
		"trial_index": 103,
		"time_elapsed": 1099746,
		"internal_node_id": "0.0-3.0-1.72"
	},
	{
		"rt": 2901,
		"stimulus": "<span style=\"font-size:30px; font-family: monospace\">para</span>",
		"response": " ",
		"trial": "exp-sent",
		"word": "para",
		"trial_type": "html-keyboard-response",
		"trial_index": 104,
		"time_elapsed": 1102898,
		"internal_node_id": "0.0-3.0-1.73"
	},
	{
		"rt": 2880,
		"stimulus": "<span style=\"font-size:30px; font-family: monospace\">sua</span>",
		"response": " ",
		"trial": "exp-sent",
		"word": "sua",
		"trial_type": "html-keyboard-response",
		"trial_index": 105,
		"time_elapsed": 1106034,
		"internal_node_id": "0.0-3.0-1.74"
	},
	{
		"rt": 17989,
		"stimulus": "<span style=\"font-size:30px; font-family: monospace\">prima.</span>",
		"response": " ",
		"trial": "comp",
		"word": "prima.",
		"trial_type": "html-keyboard-response",
		"trial_index": 106,
		"time_elapsed": 1124274,
		"internal_node_id": "0.0-3.0-1.75"
	},
	{
		"rt": 13109,
		"stimulus": "<span style=\"font-size:30px; font-family: monospace\">A moça comprou um diamante?</span>",
		"response": "s",
		"question": "A moça comprou um diamante?",
		"answer": "sim",
		"trial": "comp",
		"trial_type": "html-keyboard-response",
		"trial_index": 107,
		"time_elapsed": 1137634,
		"internal_node_id": "0.0-3.0-2.75-0.75",
		"accuracy": false
	},
	{
		"rt": null,
		"stimulus": "<span style= \"font-size:30px; font-family: monospace\">+</span>",
		"response": null,
		"trial_part": "fixation",
		"trial_type": "html-keyboard-response",
		"trial_index": 108,
		"time_elapsed": 1139136,
		"internal_node_id": "0.0-3.0-0.76-0.76"
	},
	{
		"rt": 7399,
		"stimulus": "<span style=\"font-size:30px; font-family: monospace\">Barulho</span>",
		"response": " ",
		"trial": "exp-sent",
		"word": "Barulho",
		"trial_type": "html-keyboard-response",
		"trial_index": 109,
		"time_elapsed": 1146786,
		"internal_node_id": "0.0-3.0-1.76"
	},
	{
		"rt": 3061,
		"stimulus": "<span style=\"font-size:30px; font-family: monospace\">de</span>",
		"response": " ",
		"trial": "exp-sent",
		"word": "de",
		"trial_type": "html-keyboard-response",
		"trial_index": 110,
		"time_elapsed": 1150098,
		"internal_node_id": "0.0-3.0-1.77"
	},
	{
		"rt": 3268,
		"stimulus": "<span style=\"font-size:30px; font-family: monospace\">carros</span>",
		"response": " ",
		"trial": "exp-sent",
		"word": "carros",
		"trial_type": "html-keyboard-response",
		"trial_index": 111,
		"time_elapsed": 1153616,
		"internal_node_id": "0.0-3.0-1.78"
	},
	{
		"rt": 2628,
		"stimulus": "<span style=\"font-size:30px; font-family: monospace\">é</span>",
		"response": " ",
		"trial": "exp-sent",
		"word": "é",
		"trial_type": "html-keyboard-response",
		"trial_index": 112,
		"time_elapsed": 1156496,
		"internal_node_id": "0.0-3.0-1.79"
	},
	{
		"rt": 27647,
		"stimulus": "<span style=\"font-size:30px; font-family: monospace\">irritante</span>",
		"response": " ",
		"trial": "exp-sent",
		"word": "irritante",
		"trial_type": "html-keyboard-response",
		"trial_index": 113,
		"time_elapsed": 1184400,
		"internal_node_id": "0.0-3.0-1.80"
	},
	{
		"rt": 4069,
		"stimulus": "<span style=\"font-size:30px; font-family: monospace\">para</span>",
		"response": " ",
		"trial": "exp-sent",
		"word": "para",
		"trial_type": "html-keyboard-response",
		"trial_index": 114,
		"time_elapsed": 1188720,
		"internal_node_id": "0.0-3.0-1.81"
	},
	{
		"rt": 2886,
		"stimulus": "<span style=\"font-size:30px; font-family: monospace\">a</span>",
		"response": " ",
		"trial": "exp-sent",
		"word": "a",
		"trial_type": "html-keyboard-response",
		"trial_index": 115,
		"time_elapsed": 1191856,
		"internal_node_id": "0.0-3.0-1.82"
	},
	{
		"rt": 45445,
		"stimulus": "<span style=\"font-size:30px; font-family: monospace\">moça.</span>",
		"response": " ",
		"trial": "exp-sent",
		"word": "moça.",
		"trial_type": "html-keyboard-response",
		"trial_index": 116,
		"time_elapsed": 1237550,
		"internal_node_id": "0.0-3.0-1.83"
	},
	{
		"rt": null,
		"stimulus": "<span style= \"font-size:30px; font-family: monospace\">+</span>",
		"response": null,
		"trial_part": "fixation",
		"trial_type": "html-keyboard-response",
		"trial_index": 117,
		"time_elapsed": 1238801,
		"internal_node_id": "0.0-3.0-0.84-0.84"
	},
	{
		"rt": 5953,
		"stimulus": "<span style=\"font-size:30px; font-family: monospace\">A</span>",
		"response": " ",
		"trial": "exp-sent",
		"word": "A",
		"trial_type": "html-keyboard-response",
		"trial_index": 118,
		"time_elapsed": 1245006,
		"internal_node_id": "0.0-3.0-1.84"
	},
	{
		"rt": 3285,
		"stimulus": "<span style=\"font-size:30px; font-family: monospace\">loja</span>",
		"response": " ",
		"trial": "exp-sent",
		"word": "loja",
		"trial_type": "html-keyboard-response",
		"trial_index": 119,
		"time_elapsed": 1248542,
		"internal_node_id": "0.0-3.0-1.85"
	},
	{
		"rt": 2853,
		"stimulus": "<span style=\"font-size:30px; font-family: monospace\">também</span>",
		"response": " ",
		"trial": "exp-sent",
		"word": "também",
		"trial_type": "html-keyboard-response",
		"trial_index": 120,
		"time_elapsed": 1251646,
		"internal_node_id": "0.0-3.0-1.86"
	},
	{
		"rt": 2980,
		"stimulus": "<span style=\"font-size:30px; font-family: monospace\">vende</span>",
		"response": " ",
		"trial": "exp-sent",
		"word": "vende",
		"trial_type": "html-keyboard-response",
		"trial_index": 121,
		"time_elapsed": 1254878,
		"internal_node_id": "0.0-3.0-1.87"
	},
	{
		"rt": 23621,
		"stimulus": "<span style=\"font-size:30px; font-family: monospace\">taça</span>",
		"response": " ",
		"trial": "exp-sent",
		"word": "taça",
		"trial_type": "html-keyboard-response",
		"trial_index": 122,
		"time_elapsed": 1278750,
		"internal_node_id": "0.0-3.0-1.88"
	},
	{
		"rt": 2853,
		"stimulus": "<span style=\"font-size:30px; font-family: monospace\">de</span>",
		"response": " ",
		"trial": "exp-sent",
		"word": "de",
		"trial_type": "html-keyboard-response",
		"trial_index": 123,
		"time_elapsed": 1281854,
		"internal_node_id": "0.0-3.0-1.89"
	},
	{
		"rt": 7188,
		"stimulus": "<span style=\"font-size:30px; font-family: monospace\">vinho</span>",
		"response": " ",
		"trial": "exp-sent",
		"word": "vinho",
		"trial_type": "html-keyboard-response",
		"trial_index": 124,
		"time_elapsed": 1289294,
		"internal_node_id": "0.0-3.0-1.90"
	},
	{
		"rt": 3126,
		"stimulus": "<span style=\"font-size:30px; font-family: monospace\">e</span>",
		"response": " ",
		"trial": "exp-sent",
		"word": "e",
		"trial_type": "html-keyboard-response",
		"trial_index": 125,
		"time_elapsed": 1292670,
		"internal_node_id": "0.0-3.0-1.91"
	},
	{
		"rt": 34597,
		"stimulus": "<span style=\"font-size:30px; font-family: monospace\">espumante.</span>",
		"response": " ",
		"trial": "exp-sent",
		"word": "espumante.",
		"trial_type": "html-keyboard-response",
		"trial_index": 126,
		"time_elapsed": 1327516,
		"internal_node_id": "0.0-3.0-1.92"
	},
	{
		"rt": null,
		"stimulus": "<span style= \"font-size:30px; font-family: monospace\">+</span>",
		"response": null,
		"trial_part": "fixation",
		"trial_type": "html-keyboard-response",
		"trial_index": 127,
		"time_elapsed": 1328768,
		"internal_node_id": "0.0-3.0-0.93-0.93"
	},
	{
		"rt": 6577,
		"stimulus": "<span style=\"font-size:30px; font-family: monospace\">A</span>",
		"response": " ",
		"trial": "exp-sent",
		"word": "A",
		"trial_type": "html-keyboard-response",
		"trial_index": 128,
		"time_elapsed": 1335596,
		"internal_node_id": "0.0-3.0-1.93"
	},
	{
		"rt": 3013,
		"stimulus": "<span style=\"font-size:30px; font-family: monospace\">bruxa</span>",
		"response": " ",
		"trial": "exp-sent",
		"word": "bruxa",
		"trial_type": "html-keyboard-response",
		"trial_index": 129,
		"time_elapsed": 1338860,
		"internal_node_id": "0.0-3.0-1.94"
	},
	{
		"rt": 2500,
		"stimulus": "<span style=\"font-size:30px; font-family: monospace\">tinha</span>",
		"response": " ",
		"trial": "exp-sent",
		"word": "tinha",
		"trial_type": "html-keyboard-response",
		"trial_index": 130,
		"time_elapsed": 1341612,
		"internal_node_id": "0.0-3.0-1.95"
	},
	{
		"rt": 2293,
		"stimulus": "<span style=\"font-size:30px; font-family: monospace\">uma</span>",
		"response": " ",
		"trial": "exp-sent",
		"word": "uma",
		"trial_type": "html-keyboard-response",
		"trial_index": 131,
		"time_elapsed": 1344156,
		"internal_node_id": "0.0-3.0-1.96"
	},
	{
		"rt": 2741,
		"stimulus": "<span style=\"font-size:30px; font-family: monospace\">vassoura</span>",
		"response": " ",
		"trial": "exp-sent",
		"word": "vassoura",
		"trial_type": "html-keyboard-response",
		"trial_index": 132,
		"time_elapsed": 1347148,
		"internal_node_id": "0.0-3.0-1.97"
	},
	{
		"rt": 2260,
		"stimulus": "<span style=\"font-size:30px; font-family: monospace\">e</span>",
		"response": " ",
		"trial": "exp-sent",
		"word": "e",
		"trial_type": "html-keyboard-response",
		"trial_index": 133,
		"time_elapsed": 1349660,
		"internal_node_id": "0.0-3.0-1.98"
	},
	{
		"rt": 2565,
		"stimulus": "<span style=\"font-size:30px; font-family: monospace\">um</span>",
		"response": " ",
		"trial": "exp-sent",
		"word": "um",
		"trial_type": "html-keyboard-response",
		"trial_index": 134,
		"time_elapsed": 1352476,
		"internal_node_id": "0.0-3.0-1.99"
	},
	{
		"rt": 7989,
		"stimulus": "<span style=\"font-size:30px; font-family: monospace\">gato.</span>",
		"response": " ",
		"trial": "exp-sent",
		"word": "gato.",
		"trial_type": "html-keyboard-response",
		"trial_index": 135,
		"time_elapsed": 1360716,
		"internal_node_id": "0.0-3.0-1.100"
	},
	{
		"rt": null,
		"stimulus": "<span style= \"font-size:30px; font-family: monospace\">+</span>",
		"response": null,
		"trial_part": "fixation",
		"trial_type": "html-keyboard-response",
		"trial_index": 136,
		"time_elapsed": 1361967,
		"internal_node_id": "0.0-3.0-0.101-0.101"
	},
	{
		"rt": 3586,
		"stimulus": "<span style=\"font-size:30px; font-family: monospace\">Eu</span>",
		"response": " ",
		"trial": "exp-sent",
		"word": "Eu",
		"trial_type": "html-keyboard-response",
		"trial_index": 137,
		"time_elapsed": 1365804,
		"internal_node_id": "0.0-3.0-1.101"
	},
	{
		"rt": 2405,
		"stimulus": "<span style=\"font-size:30px; font-family: monospace\">me</span>",
		"response": " ",
		"trial": "exp-sent",
		"word": "me",
		"trial_type": "html-keyboard-response",
		"trial_index": 138,
		"time_elapsed": 1368460,
		"internal_node_id": "0.0-3.0-1.102"
	},
	{
		"rt": 4165,
		"stimulus": "<span style=\"font-size:30px; font-family: monospace\">divirto</span>",
		"response": " ",
		"trial": "exp-sent",
		"word": "divirto",
		"trial_type": "html-keyboard-response",
		"trial_index": 139,
		"time_elapsed": 1372876,
		"internal_node_id": "0.0-3.0-1.103"
	},
	{
		"rt": 2453,
		"stimulus": "<span style=\"font-size:30px; font-family: monospace\">em</span>",
		"response": " ",
		"trial": "exp-sent",
		"word": "em",
		"trial_type": "html-keyboard-response",
		"trial_index": 140,
		"time_elapsed": 1375580,
		"internal_node_id": "0.0-3.0-1.104"
	},
	{
		"rt": 4805,
		"stimulus": "<span style=\"font-size:30px; font-family: monospace\">festas</span>",
		"response": " ",
		"trial": "exp-sent",
		"word": "festas",
		"trial_type": "html-keyboard-response",
		"trial_index": 141,
		"time_elapsed": 1380636,
		"internal_node_id": "0.0-3.0-1.105"
	},
	{
		"rt": 2500,
		"stimulus": "<span style=\"font-size:30px; font-family: monospace\">de</span>",
		"response": " ",
		"trial": "exp-sent",
		"word": "de",
		"trial_type": "html-keyboard-response",
		"trial_index": 142,
		"time_elapsed": 1383388,
		"internal_node_id": "0.0-3.0-1.106"
	},
	{
		"rt": 7733,
		"stimulus": "<span style=\"font-size:30px; font-family: monospace\">criança.</span>",
		"response": " ",
		"trial": "exp-sent",
		"word": "criança.",
		"trial_type": "html-keyboard-response",
		"trial_index": 143,
		"time_elapsed": 1391370,
		"internal_node_id": "0.0-3.0-1.107"
	},
	{
		"rt": null,
		"stimulus": "<span style= \"font-size:30px; font-family: monospace\">+</span>",
		"response": null,
		"trial_part": "fixation",
		"trial_type": "html-keyboard-response",
		"trial_index": 144,
		"time_elapsed": 1392622,
		"internal_node_id": "0.0-3.0-0.108-0.108"
	},
	{
		"rt": 10465,
		"stimulus": "<span style=\"font-size:30px; font-family: monospace\">A</span>",
		"response": " ",
		"trial": "exp-sent",
		"word": "A",
		"trial_type": "html-keyboard-response",
		"trial_index": 145,
		"time_elapsed": 1403338,
		"internal_node_id": "0.0-3.0-1.108"
	},
	{
		"rt": 2901,
		"stimulus": "<span style=\"font-size:30px; font-family: monospace\">janela</span>",
		"response": " ",
		"trial": "exp-sent",
		"word": "janela",
		"trial_type": "html-keyboard-response",
		"trial_index": 146,
		"time_elapsed": 1406490,
		"internal_node_id": "0.0-3.0-1.109"
	},
	{
		"rt": 2643,
		"stimulus": "<span style=\"font-size:30px; font-family: monospace\">alta</span>",
		"response": " ",
		"trial": "exp-sent",
		"word": "alta",
		"trial_type": "html-keyboard-response",
		"trial_index": 147,
		"time_elapsed": 1409386,
		"internal_node_id": "0.0-3.0-1.110"
	},
	{
		"rt": 2438,
		"stimulus": "<span style=\"font-size:30px; font-family: monospace\">estava</span>",
		"response": " ",
		"trial": "exp-sent",
		"word": "estava",
		"trial_type": "html-keyboard-response",
		"trial_index": 148,
		"time_elapsed": 1412075,
		"internal_node_id": "0.0-3.0-1.111"
	},
	{
		"rt": 3684,
		"stimulus": "<span style=\"font-size:30px; font-family: monospace\">quebrada</span>",
		"response": " ",
		"trial": "exp-sent",
		"word": "quebrada",
		"trial_type": "html-keyboard-response",
		"trial_index": 149,
		"time_elapsed": 1416010,
		"internal_node_id": "0.0-3.0-1.112"
	},
	{
		"rt": 2389,
		"stimulus": "<span style=\"font-size:30px; font-family: monospace\">desde</span>",
		"response": " ",
		"trial": "exp-sent",
		"word": "desde",
		"trial_type": "html-keyboard-response",
		"trial_index": 150,
		"time_elapsed": 1418650,
		"internal_node_id": "0.0-3.0-1.113"
	},
	{
		"rt": 2293,
		"stimulus": "<span style=\"font-size:30px; font-family: monospace\">ontem.</span>",
		"response": " ",
		"trial": "comp",
		"word": "ontem.",
		"trial_type": "html-keyboard-response",
		"trial_index": 151,
		"time_elapsed": 1421194,
		"internal_node_id": "0.0-3.0-1.114"
	},
	{
		"rt": 44214,
		"stimulus": "<span style=\"font-size:30px; font-family: monospace\">A janela alta estava quebrada?</span>",
		"response": "s",
		"question": "A janela alta estava quebrada?",
		"answer": "sim",
		"trial": "comp",
		"trial_type": "html-keyboard-response",
		"trial_index": 152,
		"time_elapsed": 1465656,
		"internal_node_id": "0.0-3.0-2.114-0.114",
		"accuracy": false
	},
	{
		"rt": null,
		"stimulus": "<span style= \"font-size:30px; font-family: monospace\">+</span>",
		"response": null,
		"trial_part": "fixation",
		"trial_type": "html-keyboard-response",
		"trial_index": 153,
		"time_elapsed": 1467157,
		"internal_node_id": "0.0-3.0-0.115-0.115"
	},
	{
		"rt": 6071,
		"stimulus": "<span style=\"font-size:30px; font-family: monospace\">A</span>",
		"response": " ",
		"trial": "exp-sent",
		"word": "A",
		"trial_type": "html-keyboard-response",
		"trial_index": 154,
		"time_elapsed": 1473480,
		"internal_node_id": "0.0-3.0-1.115"
	},
	{
		"rt": 3541,
		"stimulus": "<span style=\"font-size:30px; font-family: monospace\">força</span>",
		"response": " ",
		"trial": "exp-sent",
		"word": "força",
		"trial_type": "html-keyboard-response",
		"trial_index": 155,
		"time_elapsed": 1477272,
		"internal_node_id": "0.0-3.0-1.116"
	},
	{
		"rt": 3093,
		"stimulus": "<span style=\"font-size:30px; font-family: monospace\">d'água</span>",
		"response": " ",
		"trial": "exp-sent",
		"word": "d'água",
		"trial_type": "html-keyboard-response",
		"trial_index": 156,
		"time_elapsed": 1480616,
		"internal_node_id": "0.0-3.0-1.117"
	},
	{
		"rt": 2564,
		"stimulus": "<span style=\"font-size:30px; font-family: monospace\">estava</span>",
		"response": " ",
		"trial": "exp-sent",
		"word": "estava",
		"trial_type": "html-keyboard-response",
		"trial_index": 157,
		"time_elapsed": 1483432,
		"internal_node_id": "0.0-3.0-1.118"
	},
	{
		"rt": 2678,
		"stimulus": "<span style=\"font-size:30px; font-family: monospace\">normal</span>",
		"response": " ",
		"trial": "exp-sent",
		"word": "normal",
		"trial_type": "html-keyboard-response",
		"trial_index": 158,
		"time_elapsed": 1486360,
		"internal_node_id": "0.0-3.0-1.119"
	},
	{
		"rt": 3477,
		"stimulus": "<span style=\"font-size:30px; font-family: monospace\">naquele</span>",
		"response": " ",
		"trial": "exp-sent",
		"word": "naquele",
		"trial_type": "html-keyboard-response",
		"trial_index": 159,
		"time_elapsed": 1490088,
		"internal_node_id": "0.0-3.0-1.120"
	},
	{
		"rt": 3060,
		"stimulus": "<span style=\"font-size:30px; font-family: monospace\">dia.</span>",
		"response": " ",
		"trial": "exp-sent",
		"word": "dia.",
		"trial_type": "html-keyboard-response",
		"trial_index": 160,
		"time_elapsed": 1493400,
		"internal_node_id": "0.0-3.0-1.121"
	},
	{
		"rt": null,
		"stimulus": "<span style= \"font-size:30px; font-family: monospace\">+</span>",
		"response": null,
		"trial_part": "fixation",
		"trial_type": "html-keyboard-response",
		"trial_index": 161,
		"time_elapsed": 1494651,
		"internal_node_id": "0.0-3.0-0.122-0.122"
	},
	{
		"rt": 8466,
		"stimulus": "<span style=\"font-size:30px; font-family: monospace\">A</span>",
		"response": " ",
		"trial": "exp-sent",
		"word": "A",
		"trial_type": "html-keyboard-response",
		"trial_index": 162,
		"time_elapsed": 1503368,
		"internal_node_id": "0.0-3.0-1.122"
	},
	{
		"rt": 3333,
		"stimulus": "<span style=\"font-size:30px; font-family: monospace\">médica</span>",
		"response": " ",
		"trial": "exp-sent",
		"word": "médica",
		"trial_type": "html-keyboard-response",
		"trial_index": 163,
		"time_elapsed": 1506952,
		"internal_node_id": "0.0-3.0-1.123"
	},
	{
		"rt": 5013,
		"stimulus": "<span style=\"font-size:30px; font-family: monospace\">ofereceu</span>",
		"response": " ",
		"trial": "exp-sent",
		"word": "ofereceu",
		"trial_type": "html-keyboard-response",
		"trial_index": 164,
		"time_elapsed": 1512216,
		"internal_node_id": "0.0-3.0-1.124"
	},
	{
		"rt": 2774,
		"stimulus": "<span style=\"font-size:30px; font-family: monospace\">a</span>",
		"response": " ",
		"trial": "exp-sent",
		"word": "a",
		"trial_type": "html-keyboard-response",
		"trial_index": 165,
		"time_elapsed": 1515240,
		"internal_node_id": "0.0-3.0-1.125"
	},
	{
		"rt": 4133,
		"stimulus": "<span style=\"font-size:30px; font-family: monospace\">pomada</span>",
		"response": " ",
		"trial": "exp-sent",
		"word": "pomada",
		"trial_type": "html-keyboard-response",
		"trial_index": 166,
		"time_elapsed": 1519624,
		"internal_node_id": "0.0-3.0-1.126"
	},
	{
		"rt": 2613,
		"stimulus": "<span style=\"font-size:30px; font-family: monospace\">para</span>",
		"response": " ",
		"trial": "exp-sent",
		"word": "para",
		"trial_type": "html-keyboard-response",
		"trial_index": 167,
		"time_elapsed": 1522488,
		"internal_node_id": "0.0-3.0-1.127"
	},
	{
		"rt": 2310,
		"stimulus": "<span style=\"font-size:30px; font-family: monospace\">o</span>",
		"response": " ",
		"trial": "exp-sent",
		"word": "o",
		"trial_type": "html-keyboard-response",
		"trial_index": 168,
		"time_elapsed": 1525048,
		"internal_node_id": "0.0-3.0-1.128"
	},
	{
		"rt": 6549,
		"stimulus": "<span style=\"font-size:30px; font-family: monospace\">avô.</span>",
		"response": " ",
		"trial": "exp-sent",
		"word": "avô.",
		"trial_type": "html-keyboard-response",
		"trial_index": 169,
		"time_elapsed": 1531846,
		"internal_node_id": "0.0-3.0-1.129"
	},
	{
		"rt": null,
		"stimulus": "<span style= \"font-size:30px; font-family: monospace\">+</span>",
		"response": null,
		"trial_part": "fixation",
		"trial_type": "html-keyboard-response",
		"trial_index": 170,
		"time_elapsed": 1533099,
		"internal_node_id": "0.0-3.0-0.130-0.130"
	},
	{
		"rt": 3857,
		"stimulus": "<span style=\"font-size:30px; font-family: monospace\">Ele</span>",
		"response": " ",
		"trial": "exp-sent",
		"word": "Ele",
		"trial_type": "html-keyboard-response",
		"trial_index": 171,
		"time_elapsed": 1537206,
		"internal_node_id": "0.0-3.0-1.130"
	},
	{
		"rt": 3166,
		"stimulus": "<span style=\"font-size:30px; font-family: monospace\">conversou</span>",
		"response": " ",
		"trial": "exp-sent",
		"word": "conversou",
		"trial_type": "html-keyboard-response",
		"trial_index": 172,
		"time_elapsed": 1540631,
		"internal_node_id": "0.0-3.0-1.131"
	},
	{
		"rt": 3556,
		"stimulus": "<span style=\"font-size:30px; font-family: monospace\">com</span>",
		"response": " ",
		"trial": "exp-sent",
		"word": "com",
		"trial_type": "html-keyboard-response",
		"trial_index": 173,
		"time_elapsed": 1544438,
		"internal_node_id": "0.0-3.0-1.132"
	},
	{
		"rt": 3028,
		"stimulus": "<span style=\"font-size:30px; font-family: monospace\">o</span>",
		"response": " ",
		"trial": "exp-sent",
		"word": "o",
		"trial_type": "html-keyboard-response",
		"trial_index": 174,
		"time_elapsed": 1547718,
		"internal_node_id": "0.0-3.0-1.133"
	},
	{
		"rt": 3462,
		"stimulus": "<span style=\"font-size:30px; font-family: monospace\">patrão</span>",
		"response": " ",
		"trial": "exp-sent",
		"word": "patrão",
		"trial_type": "html-keyboard-response",
		"trial_index": 175,
		"time_elapsed": 1551431,
		"internal_node_id": "0.0-3.0-1.134"
	},
	{
		"rt": 2805,
		"stimulus": "<span style=\"font-size:30px; font-family: monospace\">durante</span>",
		"response": " ",
		"trial": "exp-sent",
		"word": "durante",
		"trial_type": "html-keyboard-response",
		"trial_index": 176,
		"time_elapsed": 1554486,
		"internal_node_id": "0.0-3.0-1.135"
	},
	{
		"rt": 3381,
		"stimulus": "<span style=\"font-size:30px; font-family: monospace\">a</span>",
		"response": " ",
		"trial": "exp-sent",
		"word": "a",
		"trial_type": "html-keyboard-response",
		"trial_index": 177,
		"time_elapsed": 1558118,
		"internal_node_id": "0.0-3.0-1.136"
	},
	{
		"rt": 13572,
		"stimulus": "<span style=\"font-size:30px; font-family: monospace\">tarde.</span>",
		"response": " ",
		"trial": "exp-sent",
		"word": "tarde.",
		"trial_type": "html-keyboard-response",
		"trial_index": 178,
		"time_elapsed": 1571942,
		"internal_node_id": "0.0-3.0-1.137"
	},
	{
		"rt": null,
		"stimulus": "<span style= \"font-size:30px; font-family: monospace\">+</span>",
		"response": null,
		"trial_part": "fixation",
		"trial_type": "html-keyboard-response",
		"trial_index": 179,
		"time_elapsed": 1573194,
		"internal_node_id": "0.0-3.0-0.138-0.138"
	},
	{
		"rt": 6417,
		"stimulus": "<span style=\"font-size:30px; font-family: monospace\">Algumas</span>",
		"response": " ",
		"trial": "exp-sent",
		"word": "Algumas",
		"trial_type": "html-keyboard-response",
		"trial_index": 180,
		"time_elapsed": 1579863,
		"internal_node_id": "0.0-3.0-1.138"
	},
	{
		"rt": 2740,
		"stimulus": "<span style=\"font-size:30px; font-family: monospace\">pessoas</span>",
		"response": " ",
		"trial": "exp-sent",
		"word": "pessoas",
		"trial_type": "html-keyboard-response",
		"trial_index": 181,
		"time_elapsed": 1582854,
		"internal_node_id": "0.0-3.0-1.139"
	},
	{
		"rt": 3397,
		"stimulus": "<span style=\"font-size:30px; font-family: monospace\">acreditam</span>",
		"response": " ",
		"trial": "exp-sent",
		"word": "acreditam",
		"trial_type": "html-keyboard-response",
		"trial_index": 182,
		"time_elapsed": 1586502,
		"internal_node_id": "0.0-3.0-1.140"
	},
	{
		"rt": 2421,
		"stimulus": "<span style=\"font-size:30px; font-family: monospace\">em</span>",
		"response": " ",
		"trial": "exp-sent",
		"word": "em",
		"trial_type": "html-keyboard-response",
		"trial_index": 183,
		"time_elapsed": 1589174,
		"internal_node_id": "0.0-3.0-1.141"
	},
	{
		"rt": 3700,
		"stimulus": "<span style=\"font-size:30px; font-family: monospace\">espíritos</span>",
		"response": " ",
		"trial": "exp-sent",
		"word": "espíritos",
		"trial_type": "html-keyboard-response",
		"trial_index": 184,
		"time_elapsed": 1593125,
		"internal_node_id": "0.0-3.0-1.142"
	},
	{
		"rt": 2740,
		"stimulus": "<span style=\"font-size:30px; font-family: monospace\">e</span>",
		"response": " ",
		"trial": "exp-sent",
		"word": "e",
		"trial_type": "html-keyboard-response",
		"trial_index": 185,
		"time_elapsed": 1596117,
		"internal_node_id": "0.0-3.0-1.143"
	},
	{
		"rt": 2452,
		"stimulus": "<span style=\"font-size:30px; font-family: monospace\">em</span>",
		"response": " ",
		"trial": "exp-sent",
		"word": "em",
		"trial_type": "html-keyboard-response",
		"trial_index": 186,
		"time_elapsed": 1598821,
		"internal_node_id": "0.0-3.0-1.144"
	},
	{
		"rt": 2692,
		"stimulus": "<span style=\"font-size:30px; font-family: monospace\">outras</span>",
		"response": " ",
		"trial": "exp-sent",
		"word": "outras",
		"trial_type": "html-keyboard-response",
		"trial_index": 187,
		"time_elapsed": 1601765,
		"internal_node_id": "0.0-3.0-1.145"
	},
	{
		"rt": 8100,
		"stimulus": "<span style=\"font-size:30px; font-family: monospace\">vidas.</span>",
		"response": " ",
		"trial": "exp-sent",
		"word": "vidas.",
		"trial_type": "html-keyboard-response",
		"trial_index": 188,
		"time_elapsed": 1610117,
		"internal_node_id": "0.0-3.0-1.146"
	},
	{
		"rt": null,
		"stimulus": "<span style= \"font-size:30px; font-family: monospace\">+</span>",
		"response": null,
		"trial_part": "fixation",
		"trial_type": "html-keyboard-response",
		"trial_index": 189,
		"time_elapsed": 1611368,
		"internal_node_id": "0.0-3.0-0.147-0.147"
	},
	{
		"rt": 3506,
		"stimulus": "<span style=\"font-size:30px; font-family: monospace\">Ela</span>",
		"response": " ",
		"trial": "exp-sent",
		"word": "Ela",
		"trial_type": "html-keyboard-response",
		"trial_index": 190,
		"time_elapsed": 1615125,
		"internal_node_id": "0.0-3.0-1.147"
	},
	{
		"rt": 2997,
		"stimulus": "<span style=\"font-size:30px; font-family: monospace\">gosta</span>",
		"response": " ",
		"trial": "exp-sent",
		"word": "gosta",
		"trial_type": "html-keyboard-response",
		"trial_index": 191,
		"time_elapsed": 1618373,
		"internal_node_id": "0.0-3.0-1.148"
	},
	{
		"rt": 2404,
		"stimulus": "<span style=\"font-size:30px; font-family: monospace\">de</span>",
		"response": " ",
		"trial": "exp-sent",
		"word": "de",
		"trial_type": "html-keyboard-response",
		"trial_index": 192,
		"time_elapsed": 1621029,
		"internal_node_id": "0.0-3.0-1.149"
	},
	{
		"rt": 3060,
		"stimulus": "<span style=\"font-size:30px; font-family: monospace\">estudar</span>",
		"response": " ",
		"trial": "exp-sent",
		"word": "estudar",
		"trial_type": "html-keyboard-response",
		"trial_index": 193,
		"time_elapsed": 1624341,
		"internal_node_id": "0.0-3.0-1.150"
	},
	{
		"rt": 2821,
		"stimulus": "<span style=\"font-size:30px; font-family: monospace\">matemática</span>",
		"response": " ",
		"trial": "exp-sent",
		"word": "matemática",
		"trial_type": "html-keyboard-response",
		"trial_index": 194,
		"time_elapsed": 1627413,
		"internal_node_id": "0.0-3.0-1.151"
	},
	{
		"rt": 2341,
		"stimulus": "<span style=\"font-size:30px; font-family: monospace\">com</span>",
		"response": " ",
		"trial": "exp-sent",
		"word": "com",
		"trial_type": "html-keyboard-response",
		"trial_index": 195,
		"time_elapsed": 1630005,
		"internal_node_id": "0.0-3.0-1.152"
	},
	{
		"rt": 11333,
		"stimulus": "<span style=\"font-size:30px; font-family: monospace\">colegas.</span>",
		"response": " ",
		"trial": "comp",
		"word": "colegas.",
		"trial_type": "html-keyboard-response",
		"trial_index": 196,
		"time_elapsed": 1641589,
		"internal_node_id": "0.0-3.0-1.153"
	},
	{
		"rt": 10501,
		"stimulus": "<span style=\"font-size:30px; font-family: monospace\">Ela gosta de estudar física?</span>",
		"response": "n",
		"question": "Ela gosta de estudar física?",
		"answer": "não",
		"trial": "comp",
		"trial_type": "html-keyboard-response",
		"trial_index": 197,
		"time_elapsed": 1652341,
		"internal_node_id": "0.0-3.0-2.153-0.153",
		"accuracy": false
	},
	{
		"rt": null,
		"stimulus": "<span style= \"font-size:30px; font-family: monospace\">+</span>",
		"response": null,
		"trial_part": "fixation",
		"trial_type": "html-keyboard-response",
		"trial_index": 198,
		"time_elapsed": 1653842,
		"internal_node_id": "0.0-3.0-0.154-0.154"
	},
	{
		"rt": 1591,
		"stimulus": "<span style=\"font-size:30px; font-family: monospace\">Ele</span>",
		"response": " ",
		"trial": "exp-sent",
		"word": "Ele",
		"trial_type": "html-keyboard-response",
		"trial_index": 199,
		"time_elapsed": 1655684,
		"internal_node_id": "0.0-3.0-1.154"
	},
	{
		"rt": 4485,
		"stimulus": "<span style=\"font-size:30px; font-family: monospace\">é</span>",
		"response": " ",
		"trial": "exp-sent",
		"word": "é",
		"trial_type": "html-keyboard-response",
		"trial_index": 200,
		"time_elapsed": 1660420,
		"internal_node_id": "0.0-3.0-1.155"
	},
	{
		"rt": 5508,
		"stimulus": "<span style=\"font-size:30px; font-family: monospace\">um</span>",
		"response": " ",
		"trial": "exp-sent",
		"word": "um",
		"trial_type": "html-keyboard-response",
		"trial_index": 201,
		"time_elapsed": 1666180,
		"internal_node_id": "0.0-3.0-1.156"
	},
	{
		"rt": 4213,
		"stimulus": "<span style=\"font-size:30px; font-family: monospace\">pai</span>",
		"response": " ",
		"trial": "exp-sent",
		"word": "pai",
		"trial_type": "html-keyboard-response",
		"trial_index": 202,
		"time_elapsed": 1670644,
		"internal_node_id": "0.0-3.0-1.157"
	},
	{
		"rt": 4868,
		"stimulus": "<span style=\"font-size:30px; font-family: monospace\">ausente</span>",
		"response": " ",
		"trial": "exp-sent",
		"word": "ausente",
		"trial_type": "html-keyboard-response",
		"trial_index": 203,
		"time_elapsed": 1675764,
		"internal_node_id": "0.0-3.0-1.158"
	},
	{
		"rt": 4645,
		"stimulus": "<span style=\"font-size:30px; font-family: monospace\">e</span>",
		"response": " ",
		"trial": "exp-sent",
		"word": "e",
		"trial_type": "html-keyboard-response",
		"trial_index": 204,
		"time_elapsed": 1680660,
		"internal_node_id": "0.0-3.0-1.159"
	},
	{
		"rt": 3252,
		"stimulus": "<span style=\"font-size:30px; font-family: monospace\">muito</span>",
		"response": " ",
		"trial": "exp-sent",
		"word": "muito",
		"trial_type": "html-keyboard-response",
		"trial_index": 205,
		"time_elapsed": 1684164,
		"internal_node_id": "0.0-3.0-1.160"
	},
	{
		"rt": 19781,
		"stimulus": "<span style=\"font-size:30px; font-family: monospace\">fofoqueiro.</span>",
		"response": " ",
		"trial": "exp-sent",
		"word": "fofoqueiro.",
		"trial_type": "html-keyboard-response",
		"trial_index": 206,
		"time_elapsed": 1704196,
		"internal_node_id": "0.0-3.0-1.161"
	},
	{
		"rt": null,
		"stimulus": "<span style= \"font-size:30px; font-family: monospace\">+</span>",
		"response": null,
		"trial_part": "fixation",
		"trial_type": "html-keyboard-response",
		"trial_index": 207,
		"time_elapsed": 1705448,
		"internal_node_id": "0.0-3.0-0.162-0.162"
	},
	{
		"rt": 6545,
		"stimulus": "<span style=\"font-size:30px; font-family: monospace\">O</span>",
		"response": " ",
		"trial": "exp-sent",
		"word": "O",
		"trial_type": "html-keyboard-response",
		"trial_index": 208,
		"time_elapsed": 1712244,
		"internal_node_id": "0.0-3.0-1.162"
	},
	{
		"rt": 4309,
		"stimulus": "<span style=\"font-size:30px; font-family: monospace\">filho</span>",
		"response": " ",
		"trial": "exp-sent",
		"word": "filho",
		"trial_type": "html-keyboard-response",
		"trial_index": 209,
		"time_elapsed": 1716802,
		"internal_node_id": "0.0-3.0-1.163"
	},
	{
		"rt": 2741,
		"stimulus": "<span style=\"font-size:30px; font-family: monospace\">lavou</span>",
		"response": " ",
		"trial": "exp-sent",
		"word": "lavou",
		"trial_type": "html-keyboard-response",
		"trial_index": 210,
		"time_elapsed": 1719794,
		"internal_node_id": "0.0-3.0-1.164"
	},
	{
		"rt": 2804,
		"stimulus": "<span style=\"font-size:30px; font-family: monospace\">a</span>",
		"response": " ",
		"trial": "exp-sent",
		"word": "a",
		"trial_type": "html-keyboard-response",
		"trial_index": 211,
		"time_elapsed": 1722850,
		"internal_node_id": "0.0-3.0-1.165"
	},
	{
		"rt": 2597,
		"stimulus": "<span style=\"font-size:30px; font-family: monospace\">roupa</span>",
		"response": " ",
		"trial": "exp-sent",
		"word": "roupa",
		"trial_type": "html-keyboard-response",
		"trial_index": 212,
		"time_elapsed": 1725698,
		"internal_node_id": "0.0-3.0-1.166"
	},
	{
		"rt": 2485,
		"stimulus": "<span style=\"font-size:30px; font-family: monospace\">sem</span>",
		"response": " ",
		"trial": "exp-sent",
		"word": "sem",
		"trial_type": "html-keyboard-response",
		"trial_index": 213,
		"time_elapsed": 1728434,
		"internal_node_id": "0.0-3.0-1.167"
	},
	{
		"rt": 3541,
		"stimulus": "<span style=\"font-size:30px; font-family: monospace\">nenhuma</span>",
		"response": " ",
		"trial": "exp-sent",
		"word": "nenhuma",
		"trial_type": "html-keyboard-response",
		"trial_index": 214,
		"time_elapsed": 1732226,
		"internal_node_id": "0.0-3.0-1.168"
	},
	{
		"rt": 8437,
		"stimulus": "<span style=\"font-size:30px; font-family: monospace\">ajuda.</span>",
		"response": " ",
		"trial": "exp-sent",
		"word": "ajuda.",
		"trial_type": "html-keyboard-response",
		"trial_index": 215,
		"time_elapsed": 1740914,
		"internal_node_id": "0.0-3.0-1.169"
	},
	{
		"rt": null,
		"stimulus": "<span style= \"font-size:30px; font-family: monospace\">+</span>",
		"response": null,
		"trial_part": "fixation",
		"trial_type": "html-keyboard-response",
		"trial_index": 216,
		"time_elapsed": 1742166,
		"internal_node_id": "0.0-3.0-0.170-0.170"
	},
	{
		"rt": 5922,
		"stimulus": "<span style=\"font-size:30px; font-family: monospace\">O</span>",
		"response": " ",
		"trial": "exp-sent",
		"word": "O",
		"trial_type": "html-keyboard-response",
		"trial_index": 217,
		"time_elapsed": 1748338,
		"internal_node_id": "0.0-3.0-1.170"
	},
	{
		"rt": 2837,
		"stimulus": "<span style=\"font-size:30px; font-family: monospace\">menino</span>",
		"response": " ",
		"trial": "exp-sent",
		"word": "menino",
		"trial_type": "html-keyboard-response",
		"trial_index": 218,
		"time_elapsed": 1751426,
		"internal_node_id": "0.0-3.0-1.171"
	},
	{
		"rt": 3732,
		"stimulus": "<span style=\"font-size:30px; font-family: monospace\">quebrou</span>",
		"response": " ",
		"trial": "exp-sent",
		"word": "quebrou",
		"trial_type": "html-keyboard-response",
		"trial_index": 219,
		"time_elapsed": 1755411,
		"internal_node_id": "0.0-3.0-1.172"
	},
	{
		"rt": 2852,
		"stimulus": "<span style=\"font-size:30px; font-family: monospace\">a</span>",
		"response": " ",
		"trial": "exp-sent",
		"word": "a",
		"trial_type": "html-keyboard-response",
		"trial_index": 220,
		"time_elapsed": 1758514,
		"internal_node_id": "0.0-3.0-1.173"
	},
	{
		"rt": 6710,
		"stimulus": "<span style=\"font-size:30px; font-family: monospace\">perna</span>",
		"response": " ",
		"trial": "exp-sent",
		"word": "perna",
		"trial_type": "html-keyboard-response",
		"trial_index": 221,
		"time_elapsed": 1765474,
		"internal_node_id": "0.0-3.0-1.174"
	},
	{
		"rt": 2357,
		"stimulus": "<span style=\"font-size:30px; font-family: monospace\">nos</span>",
		"response": " ",
		"trial": "exp-sent",
		"word": "nos",
		"trial_type": "html-keyboard-response",
		"trial_index": 222,
		"time_elapsed": 1768082,
		"internal_node_id": "0.0-3.0-1.175"
	},
	{
		"rt": 30244,
		"stimulus": "<span style=\"font-size:30px; font-family: monospace\">esportes.</span>",
		"response": " ",
		"trial": "exp-sent",
		"word": "esportes.",
		"trial_type": "html-keyboard-response",
		"trial_index": 223,
		"time_elapsed": 1798576,
		"internal_node_id": "0.0-3.0-1.176"
	},
	{
		"rt": null,
		"stimulus": "<span style= \"font-size:30px; font-family: monospace\">+</span>",
		"response": null,
		"trial_part": "fixation",
		"trial_type": "html-keyboard-response",
		"trial_index": 224,
		"time_elapsed": 1799828,
		"internal_node_id": "0.0-3.0-0.177-0.177"
	},
	{
		"rt": 3761,
		"stimulus": "<span style=\"font-size:30px; font-family: monospace\">Ela</span>",
		"response": " ",
		"trial": "exp-sent",
		"word": "Ela",
		"trial_type": "html-keyboard-response",
		"trial_index": 225,
		"time_elapsed": 1803840,
		"internal_node_id": "0.0-3.0-1.177"
	},
	{
		"rt": 3525,
		"stimulus": "<span style=\"font-size:30px; font-family: monospace\">brincou</span>",
		"response": " ",
		"trial": "exp-sent",
		"word": "brincou",
		"trial_type": "html-keyboard-response",
		"trial_index": 226,
		"time_elapsed": 1807617,
		"internal_node_id": "0.0-3.0-1.178"
	},
	{
		"rt": 2581,
		"stimulus": "<span style=\"font-size:30px; font-family: monospace\">com</span>",
		"response": " ",
		"trial": "exp-sent",
		"word": "com",
		"trial_type": "html-keyboard-response",
		"trial_index": 227,
		"time_elapsed": 1810448,
		"internal_node_id": "0.0-3.0-1.179"
	},
	{
		"rt": 4101,
		"stimulus": "<span style=\"font-size:30px; font-family: monospace\">uma</span>",
		"response": " ",
		"trial": "exp-sent",
		"word": "uma",
		"trial_type": "html-keyboard-response",
		"trial_index": 228,
		"time_elapsed": 1814800,
		"internal_node_id": "0.0-3.0-1.180"
	},
	{
		"rt": 2965,
		"stimulus": "<span style=\"font-size:30px; font-family: monospace\">menina</span>",
		"response": " ",
		"trial": "exp-sent",
		"word": "menina",
		"trial_type": "html-keyboard-response",
		"trial_index": 229,
		"time_elapsed": 1818017,
		"internal_node_id": "0.0-3.0-1.181"
	},
	{
		"rt": 2565,
		"stimulus": "<span style=\"font-size:30px; font-family: monospace\">da</span>",
		"response": " ",
		"trial": "exp-sent",
		"word": "da",
		"trial_type": "html-keyboard-response",
		"trial_index": 230,
		"time_elapsed": 1820833,
		"internal_node_id": "0.0-3.0-1.182"
	},
	{
		"rt": 10981,
		"stimulus": "<span style=\"font-size:30px; font-family: monospace\">turma.</span>",
		"response": " ",
		"trial": "exp-sent",
		"word": "turma.",
		"trial_type": "html-keyboard-response",
		"trial_index": 231,
		"time_elapsed": 1832064,
		"internal_node_id": "0.0-3.0-1.183"
	},
	{
		"rt": null,
		"stimulus": "<span style= \"font-size:30px; font-family: monospace\">+</span>",
		"response": null,
		"trial_part": "fixation",
		"trial_type": "html-keyboard-response",
		"trial_index": 232,
		"time_elapsed": 1833316,
		"internal_node_id": "0.0-3.0-0.184-0.184"
	},
	{
		"rt": 5762,
		"stimulus": "<span style=\"font-size:30px; font-family: monospace\">Ele</span>",
		"response": " ",
		"trial": "exp-sent",
		"word": "Ele",
		"trial_type": "html-keyboard-response",
		"trial_index": 233,
		"time_elapsed": 1839328,
		"internal_node_id": "0.0-3.0-1.184"
	},
	{
		"rt": 5445,
		"stimulus": "<span style=\"font-size:30px; font-family: monospace\">esteve</span>",
		"response": " ",
		"trial": "exp-sent",
		"word": "esteve",
		"trial_type": "html-keyboard-response",
		"trial_index": 234,
		"time_elapsed": 1845024,
		"internal_node_id": "0.0-3.0-1.185"
	},
	{
		"rt": 3734,
		"stimulus": "<span style=\"font-size:30px; font-family: monospace\">no</span>",
		"response": " ",
		"trial": "exp-sent",
		"word": "no",
		"trial_type": "html-keyboard-response",
		"trial_index": 235,
		"time_elapsed": 1849009,
		"internal_node_id": "0.0-3.0-1.186"
	},
	{
		"rt": 15557,
		"stimulus": "<span style=\"font-size:30px; font-family: monospace\">escritório</span>",
		"response": " ",
		"trial": "exp-sent",
		"word": "escritório",
		"trial_type": "html-keyboard-response",
		"trial_index": 236,
		"time_elapsed": 1864814,
		"internal_node_id": "0.0-3.0-1.187"
	},
	{
		"rt": 2532,
		"stimulus": "<span style=\"font-size:30px; font-family: monospace\">o</span>",
		"response": " ",
		"trial": "exp-sent",
		"word": "o",
		"trial_type": "html-keyboard-response",
		"trial_index": 237,
		"time_elapsed": 1867598,
		"internal_node_id": "0.0-3.0-1.188"
	},
	{
		"rt": 3045,
		"stimulus": "<span style=\"font-size:30px; font-family: monospace\">dia</span>",
		"response": " ",
		"trial": "exp-sent",
		"word": "dia",
		"trial_type": "html-keyboard-response",
		"trial_index": 238,
		"time_elapsed": 1870894,
		"internal_node_id": "0.0-3.0-1.189"
	},
	{
		"rt": 11156,
		"stimulus": "<span style=\"font-size:30px; font-family: monospace\">inteiro.</span>",
		"response": " ",
		"trial": "comp",
		"word": "inteiro.",
		"trial_type": "html-keyboard-response",
		"trial_index": 239,
		"time_elapsed": 1882302,
		"internal_node_id": "0.0-3.0-1.190"
	},
	{
		"rt": 24837,
		"stimulus": "<span style=\"font-size:30px; font-family: monospace\">Ele esteve no parque o dia inteiro?</span>",
		"response": "n",
		"question": "Ele esteve no parque o dia inteiro?",
		"answer": "não",
		"trial": "comp",
		"trial_type": "html-keyboard-response",
		"trial_index": 240,
		"time_elapsed": 1907390,
		"internal_node_id": "0.0-3.0-2.190-0.190",
		"accuracy": false
	},
	{
		"rt": null,
		"stimulus": "<span style= \"font-size:30px; font-family: monospace\">+</span>",
		"response": null,
		"trial_part": "fixation",
		"trial_type": "html-keyboard-response",
		"trial_index": 241,
		"time_elapsed": 1908892,
		"internal_node_id": "0.0-3.0-0.191-0.191"
	},
	{
		"rt": 3671,
		"stimulus": "<span style=\"font-size:30px; font-family: monospace\">A</span>",
		"response": " ",
		"trial": "exp-sent",
		"word": "A",
		"trial_type": "html-keyboard-response",
		"trial_index": 242,
		"time_elapsed": 1912814,
		"internal_node_id": "0.0-3.0-1.191"
	},
	{
		"rt": 5189,
		"stimulus": "<span style=\"font-size:30px; font-family: monospace\">motorista</span>",
		"response": " ",
		"trial": "exp-sent",
		"word": "motorista",
		"trial_type": "html-keyboard-response",
		"trial_index": 243,
		"time_elapsed": 1918254,
		"internal_node_id": "0.0-3.0-1.192"
	},
	{
		"rt": 3141,
		"stimulus": "<span style=\"font-size:30px; font-family: monospace\">fez</span>",
		"response": " ",
		"trial": "exp-sent",
		"word": "fez",
		"trial_type": "html-keyboard-response",
		"trial_index": 244,
		"time_elapsed": 1921646,
		"internal_node_id": "0.0-3.0-1.193"
	},
	{
		"rt": 2645,
		"stimulus": "<span style=\"font-size:30px; font-family: monospace\">o</span>",
		"response": " ",
		"trial": "exp-sent",
		"word": "o",
		"trial_type": "html-keyboard-response",
		"trial_index": 245,
		"time_elapsed": 1924542,
		"internal_node_id": "0.0-3.0-1.194"
	},
	{
		"rt": 4533,
		"stimulus": "<span style=\"font-size:30px; font-family: monospace\">retorno</span>",
		"response": " ",
		"trial": "exp-sent",
		"word": "retorno",
		"trial_type": "html-keyboard-response",
		"trial_index": 246,
		"time_elapsed": 1929325,
		"internal_node_id": "0.0-3.0-1.195"
	},
	{
		"rt": 2837,
		"stimulus": "<span style=\"font-size:30px; font-family: monospace\">com</span>",
		"response": " ",
		"trial": "exp-sent",
		"word": "com",
		"trial_type": "html-keyboard-response",
		"trial_index": 247,
		"time_elapsed": 1932413,
		"internal_node_id": "0.0-3.0-1.196"
	},
	{
		"rt": 9669,
		"stimulus": "<span style=\"font-size:30px; font-family: monospace\">cuidado.</span>",
		"response": " ",
		"trial": "exp-sent",
		"word": "cuidado.",
		"trial_type": "html-keyboard-response",
		"trial_index": 248,
		"time_elapsed": 1942333,
		"internal_node_id": "0.0-3.0-1.197"
	},
	{
		"rt": null,
		"stimulus": "<span style= \"font-size:30px; font-family: monospace\">+</span>",
		"response": null,
		"trial_part": "fixation",
		"trial_type": "html-keyboard-response",
		"trial_index": 249,
		"time_elapsed": 1943585,
		"internal_node_id": "0.0-3.0-0.198-0.198"
	},
	{
		"rt": 4818,
		"stimulus": "<span style=\"font-size:30px; font-family: monospace\">Contos</span>",
		"response": " ",
		"trial": "exp-sent",
		"word": "Contos",
		"trial_type": "html-keyboard-response",
		"trial_index": 250,
		"time_elapsed": 1948653,
		"internal_node_id": "0.0-3.0-1.198"
	},
	{
		"rt": 2933,
		"stimulus": "<span style=\"font-size:30px; font-family: monospace\">de</span>",
		"response": " ",
		"trial": "exp-sent",
		"word": "de",
		"trial_type": "html-keyboard-response",
		"trial_index": 251,
		"time_elapsed": 1951837,
		"internal_node_id": "0.0-3.0-1.199"
	},
	{
		"rt": 3861,
		"stimulus": "<span style=\"font-size:30px; font-family: monospace\">ação</span>",
		"response": " ",
		"trial": "exp-sent",
		"word": "ação",
		"trial_type": "html-keyboard-response",
		"trial_index": 252,
		"time_elapsed": 1955949,
		"internal_node_id": "0.0-3.0-1.200"
	},
	{
		"rt": 22197,
		"stimulus": "<span style=\"font-size:30px; font-family: monospace\">têm</span>",
		"response": " ",
		"trial": "exp-sent",
		"word": "têm",
		"trial_type": "html-keyboard-response",
		"trial_index": 253,
		"time_elapsed": 1978397,
		"internal_node_id": "0.0-3.0-1.201"
	},
	{
		"rt": 5428,
		"stimulus": "<span style=\"font-size:30px; font-family: monospace\">chantagem</span>",
		"response": " ",
		"trial": "exp-sent",
		"word": "chantagem",
		"trial_type": "html-keyboard-response",
		"trial_index": 254,
		"time_elapsed": 1984077,
		"internal_node_id": "0.0-3.0-1.202"
	},
	{
		"rt": 2405,
		"stimulus": "<span style=\"font-size:30px; font-family: monospace\">e</span>",
		"response": " ",
		"trial": "exp-sent",
		"word": "e",
		"trial_type": "html-keyboard-response",
		"trial_index": 255,
		"time_elapsed": 1986733,
		"internal_node_id": "0.0-3.0-1.203"
	},
	{
		"rt": 2261,
		"stimulus": "<span style=\"font-size:30px; font-family: monospace\">muita</span>",
		"response": " ",
		"trial": "exp-sent",
		"word": "muita",
		"trial_type": "html-keyboard-response",
		"trial_index": 256,
		"time_elapsed": 1989245,
		"internal_node_id": "0.0-3.0-1.204"
	},
	{
		"rt": 2292,
		"stimulus": "<span style=\"font-size:30px; font-family: monospace\">luta.</span>",
		"response": " ",
		"trial": "exp-sent",
		"word": "luta.",
		"trial_type": "html-keyboard-response",
		"trial_index": 257,
		"time_elapsed": 1991788,
		"internal_node_id": "0.0-3.0-1.205"
	},
	{
		"rt": null,
		"stimulus": "<span style= \"font-size:30px; font-family: monospace\">+</span>",
		"response": null,
		"trial_part": "fixation",
		"trial_type": "html-keyboard-response",
		"trial_index": 258,
		"time_elapsed": 1993040,
		"internal_node_id": "0.0-3.0-0.206-0.206"
	},
	{
		"rt": 5073,
		"stimulus": "<span style=\"font-size:30px; font-family: monospace\">A</span>",
		"response": " ",
		"trial": "exp-sent",
		"word": "A",
		"trial_type": "html-keyboard-response",
		"trial_index": 259,
		"time_elapsed": 1998364,
		"internal_node_id": "0.0-3.0-1.206"
	},
	{
		"rt": 2805,
		"stimulus": "<span style=\"font-size:30px; font-family: monospace\">bisavó</span>",
		"response": " ",
		"trial": "exp-sent",
		"word": "bisavó",
		"trial_type": "html-keyboard-response",
		"trial_index": 260,
		"time_elapsed": 2001420,
		"internal_node_id": "0.0-3.0-1.207"
	},
	{
		"rt": 2965,
		"stimulus": "<span style=\"font-size:30px; font-family: monospace\">recebeu</span>",
		"response": " ",
		"trial": "exp-sent",
		"word": "recebeu",
		"trial_type": "html-keyboard-response",
		"trial_index": 261,
		"time_elapsed": 2004636,
		"internal_node_id": "0.0-3.0-1.208"
	},
	{
		"rt": 2757,
		"stimulus": "<span style=\"font-size:30px; font-family: monospace\">um</span>",
		"response": " ",
		"trial": "exp-sent",
		"word": "um",
		"trial_type": "html-keyboard-response",
		"trial_index": 262,
		"time_elapsed": 2007644,
		"internal_node_id": "0.0-3.0-1.209"
	},
	{
		"rt": 3237,
		"stimulus": "<span style=\"font-size:30px; font-family: monospace\">benefício</span>",
		"response": " ",
		"trial": "exp-sent",
		"word": "benefício",
		"trial_type": "html-keyboard-response",
		"trial_index": 263,
		"time_elapsed": 2011132,
		"internal_node_id": "0.0-3.0-1.210"
	},
	{
		"rt": 5077,
		"stimulus": "<span style=\"font-size:30px; font-family: monospace\">temporário</span>",
		"response": " ",
		"trial": "exp-sent",
		"word": "temporário",
		"trial_type": "html-keyboard-response",
		"trial_index": 264,
		"time_elapsed": 2016460,
		"internal_node_id": "0.0-3.0-1.211"
	},
	{
		"rt": 6260,
		"stimulus": "<span style=\"font-size:30px; font-family: monospace\">do</span>",
		"response": " ",
		"trial": "exp-sent",
		"word": "do",
		"trial_type": "html-keyboard-response",
		"trial_index": 265,
		"time_elapsed": 2022972,
		"internal_node_id": "0.0-3.0-1.212"
	},
	{
		"rt": 7365,
		"stimulus": "<span style=\"font-size:30px; font-family: monospace\">governo.</span>",
		"response": " ",
		"trial": "exp-sent",
		"word": "governo.",
		"trial_type": "html-keyboard-response",
		"trial_index": 266,
		"time_elapsed": 2030588,
		"internal_node_id": "0.0-3.0-1.213"
	},
	{
		"rt": null,
		"stimulus": "<span style= \"font-size:30px; font-family: monospace\">+</span>",
		"response": null,
		"trial_part": "fixation",
		"trial_type": "html-keyboard-response",
		"trial_index": 267,
		"time_elapsed": 2031840,
		"internal_node_id": "0.0-3.0-0.214-0.214"
	},
	{
		"rt": 1137,
		"stimulus": "<span style=\"font-size:30px; font-family: monospace\">As</span>",
		"response": " ",
		"trial": "exp-sent",
		"word": "As",
		"trial_type": "html-keyboard-response",
		"trial_index": 268,
		"time_elapsed": 2033228,
		"internal_node_id": "0.0-3.0-1.214"
	},
	{
		"rt": 1813,
		"stimulus": "<span style=\"font-size:30px; font-family: monospace\">crianças</span>",
		"response": " ",
		"trial": "exp-sent",
		"word": "crianças",
		"trial_type": "html-keyboard-response",
		"trial_index": 269,
		"time_elapsed": 2035292,
		"internal_node_id": "0.0-3.0-1.215"
	},
	{
		"rt": 3301,
		"stimulus": "<span style=\"font-size:30px; font-family: monospace\">brincaram</span>",
		"response": " ",
		"trial": "exp-sent",
		"word": "brincaram",
		"trial_type": "html-keyboard-response",
		"trial_index": 270,
		"time_elapsed": 2038844,
		"internal_node_id": "0.0-3.0-1.216"
	},
	{
		"rt": 2613,
		"stimulus": "<span style=\"font-size:30px; font-family: monospace\">no</span>",
		"response": " ",
		"trial": "exp-sent",
		"word": "no",
		"trial_type": "html-keyboard-response",
		"trial_index": 271,
		"time_elapsed": 2041708,
		"internal_node_id": "0.0-3.0-1.217"
	},
	{
		"rt": 2565,
		"stimulus": "<span style=\"font-size:30px; font-family: monospace\">balanço</span>",
		"response": " ",
		"trial": "exp-sent",
		"word": "balanço",
		"trial_type": "html-keyboard-response",
		"trial_index": 272,
		"time_elapsed": 2044524,
		"internal_node_id": "0.0-3.0-1.218"
	},
	{
		"rt": 2469,
		"stimulus": "<span style=\"font-size:30px; font-family: monospace\">a</span>",
		"response": " ",
		"trial": "exp-sent",
		"word": "a",
		"trial_type": "html-keyboard-response",
		"trial_index": 273,
		"time_elapsed": 2047244,
		"internal_node_id": "0.0-3.0-1.219"
	},
	{
		"rt": 4149,
		"stimulus": "<span style=\"font-size:30px; font-family: monospace\">tarde</span>",
		"response": " ",
		"trial": "exp-sent",
		"word": "tarde",
		"trial_type": "html-keyboard-response",
		"trial_index": 274,
		"time_elapsed": 2051642,
		"internal_node_id": "0.0-3.0-1.220"
	},
	{
		"rt": 7252,
		"stimulus": "<span style=\"font-size:30px; font-family: monospace\">toda.</span>",
		"response": " ",
		"trial": "exp-sent",
		"word": "toda.",
		"trial_type": "html-keyboard-response",
		"trial_index": 275,
		"time_elapsed": 2059146,
		"internal_node_id": "0.0-3.0-1.221"
	},
	{
		"rt": null,
		"stimulus": "<span style= \"font-size:30px; font-family: monospace\">+</span>",
		"response": null,
		"trial_part": "fixation",
		"trial_type": "html-keyboard-response",
		"trial_index": 276,
		"time_elapsed": 2060398,
		"internal_node_id": "0.0-3.0-0.222-0.222"
	},
	{
		"rt": 5825,
		"stimulus": "<span style=\"font-size:30px; font-family: monospace\">Ela</span>",
		"response": " ",
		"trial": "exp-sent",
		"word": "Ela",
		"trial_type": "html-keyboard-response",
		"trial_index": 277,
		"time_elapsed": 2066474,
		"internal_node_id": "0.0-3.0-1.222"
	},
	{
		"rt": 3077,
		"stimulus": "<span style=\"font-size:30px; font-family: monospace\">gosta</span>",
		"response": " ",
		"trial": "exp-sent",
		"word": "gosta",
		"trial_type": "html-keyboard-response",
		"trial_index": 278,
		"time_elapsed": 2069802,
		"internal_node_id": "0.0-3.0-1.223"
	},
	{
		"rt": 2404,
		"stimulus": "<span style=\"font-size:30px; font-family: monospace\">de</span>",
		"response": " ",
		"trial": "exp-sent",
		"word": "de",
		"trial_type": "html-keyboard-response",
		"trial_index": 279,
		"time_elapsed": 2072458,
		"internal_node_id": "0.0-3.0-1.224"
	},
	{
		"rt": 2932,
		"stimulus": "<span style=\"font-size:30px; font-family: monospace\">comida</span>",
		"response": " ",
		"trial": "exp-sent",
		"word": "comida",
		"trial_type": "html-keyboard-response",
		"trial_index": 280,
		"time_elapsed": 2075642,
		"internal_node_id": "0.0-3.0-1.225"
	},
	{
		"rt": 3093,
		"stimulus": "<span style=\"font-size:30px; font-family: monospace\">natural</span>",
		"response": " ",
		"trial": "exp-sent",
		"word": "natural",
		"trial_type": "html-keyboard-response",
		"trial_index": 281,
		"time_elapsed": 2078986,
		"internal_node_id": "0.0-3.0-1.226"
	},
	{
		"rt": 2677,
		"stimulus": "<span style=\"font-size:30px; font-family: monospace\">no</span>",
		"response": " ",
		"trial": "exp-sent",
		"word": "no",
		"trial_type": "html-keyboard-response",
		"trial_index": 282,
		"time_elapsed": 2081914,
		"internal_node_id": "0.0-3.0-1.227"
	},
	{
		"rt": 10853,
		"stimulus": "<span style=\"font-size:30px; font-family: monospace\">almoço.</span>",
		"response": " ",
		"trial": "comp",
		"word": "almoço.",
		"trial_type": "html-keyboard-response",
		"trial_index": 283,
		"time_elapsed": 2093018,
		"internal_node_id": "0.0-3.0-1.228"
	},
	{
		"rt": 4837,
		"stimulus": "<span style=\"font-size:30px; font-family: monospace\">Ela gosta de comida natural no almoço?</span>",
		"response": "s",
		"question": "Ela gosta de comida natural no almoço?",
		"answer": "sim",
		"trial": "comp",
		"trial_type": "html-keyboard-response",
		"trial_index": 284,
		"time_elapsed": 2098106,
		"internal_node_id": "0.0-3.0-2.228-0.228",
		"accuracy": false
	},
	{
		"rt": null,
		"stimulus": "<span style= \"font-size:30px; font-family: monospace\">+</span>",
		"response": null,
		"trial_part": "fixation",
		"trial_type": "html-keyboard-response",
		"trial_index": 285,
		"time_elapsed": 2099608,
		"internal_node_id": "0.0-3.0-0.229-0.229"
	},
	{
		"rt": 5623,
		"stimulus": "<span style=\"font-size:30px; font-family: monospace\">Este</span>",
		"response": " ",
		"trial": "exp-sent",
		"word": "Este",
		"trial_type": "html-keyboard-response",
		"trial_index": 286,
		"time_elapsed": 2105482,
		"internal_node_id": "0.0-3.0-1.229"
	},
	{
		"rt": 2788,
		"stimulus": "<span style=\"font-size:30px; font-family: monospace\">conto</span>",
		"response": " ",
		"trial": "exp-sent",
		"word": "conto",
		"trial_type": "html-keyboard-response",
		"trial_index": 287,
		"time_elapsed": 2108522,
		"internal_node_id": "0.0-3.0-1.230"
	},
	{
		"rt": 2884,
		"stimulus": "<span style=\"font-size:30px; font-family: monospace\">tem</span>",
		"response": " ",
		"trial": "exp-sent",
		"word": "tem",
		"trial_type": "html-keyboard-response",
		"trial_index": 288,
		"time_elapsed": 2111656,
		"internal_node_id": "0.0-3.0-1.231"
	},
	{
		"rt": 2628,
		"stimulus": "<span style=\"font-size:30px; font-family: monospace\">um</span>",
		"response": " ",
		"trial": "exp-sent",
		"word": "um",
		"trial_type": "html-keyboard-response",
		"trial_index": 289,
		"time_elapsed": 2114536,
		"internal_node_id": "0.0-3.0-1.232"
	},
	{
		"rt": 3301,
		"stimulus": "<span style=\"font-size:30px; font-family: monospace\">final</span>",
		"response": " ",
		"trial": "exp-sent",
		"word": "final",
		"trial_type": "html-keyboard-response",
		"trial_index": 290,
		"time_elapsed": 2118088,
		"internal_node_id": "0.0-3.0-1.233"
	},
	{
		"rt": 3621,
		"stimulus": "<span style=\"font-size:30px; font-family: monospace\">perfeito.</span>",
		"response": " ",
		"trial": "exp-sent",
		"word": "perfeito.",
		"trial_type": "html-keyboard-response",
		"trial_index": 291,
		"time_elapsed": 2121960,
		"internal_node_id": "0.0-3.0-1.234"
	},
	{
		"rt": null,
		"stimulus": "<span style= \"font-size:30px; font-family: monospace\">+</span>",
		"response": null,
		"trial_part": "fixation",
		"trial_type": "html-keyboard-response",
		"trial_index": 292,
		"time_elapsed": 2123212,
		"internal_node_id": "0.0-3.0-0.235-0.235"
	},
	{
		"rt": 5394,
		"stimulus": "<span style=\"font-size:30px; font-family: monospace\">Ele</span>",
		"response": " ",
		"trial": "exp-sent",
		"word": "Ele",
		"trial_type": "html-keyboard-response",
		"trial_index": 293,
		"time_elapsed": 2128856,
		"internal_node_id": "0.0-3.0-1.235"
	},
	{
		"rt": 4164,
		"stimulus": "<span style=\"font-size:30px; font-family: monospace\">precisa</span>",
		"response": " ",
		"trial": "exp-sent",
		"word": "precisa",
		"trial_type": "html-keyboard-response",
		"trial_index": 294,
		"time_elapsed": 2133272,
		"internal_node_id": "0.0-3.0-1.236"
	},
	{
		"rt": 2533,
		"stimulus": "<span style=\"font-size:30px; font-family: monospace\">de</span>",
		"response": " ",
		"trial": "exp-sent",
		"word": "de",
		"trial_type": "html-keyboard-response",
		"trial_index": 295,
		"time_elapsed": 2136056,
		"internal_node_id": "0.0-3.0-1.237"
	},
	{
		"rt": 2645,
		"stimulus": "<span style=\"font-size:30px; font-family: monospace\">um</span>",
		"response": " ",
		"trial": "exp-sent",
		"word": "um",
		"trial_type": "html-keyboard-response",
		"trial_index": 296,
		"time_elapsed": 2138952,
		"internal_node_id": "0.0-3.0-1.238"
	},
	{
		"rt": 4101,
		"stimulus": "<span style=\"font-size:30px; font-family: monospace\">protetor</span>",
		"response": " ",
		"trial": "exp-sent",
		"word": "protetor",
		"trial_type": "html-keyboard-response",
		"trial_index": 297,
		"time_elapsed": 2143304,
		"internal_node_id": "0.0-3.0-1.239"
	},
	{
		"rt": 10085,
		"stimulus": "<span style=\"font-size:30px; font-family: monospace\">de</span>",
		"response": " ",
		"trial": "exp-sent",
		"word": "de",
		"trial_type": "html-keyboard-response",
		"trial_index": 298,
		"time_elapsed": 2153640,
		"internal_node_id": "0.0-3.0-1.240"
	},
	{
		"rt": 5253,
		"stimulus": "<span style=\"font-size:30px; font-family: monospace\">ouvido.</span>",
		"response": " ",
		"trial": "exp-sent",
		"word": "ouvido.",
		"trial_type": "html-keyboard-response",
		"trial_index": 299,
		"time_elapsed": 2159144,
		"internal_node_id": "0.0-3.0-1.241"
	},
	{
		"rt": null,
		"stimulus": "<span style= \"font-size:30px; font-family: monospace\">+</span>",
		"response": null,
		"trial_part": "fixation",
		"trial_type": "html-keyboard-response",
		"trial_index": 300,
		"time_elapsed": 2160396,
		"internal_node_id": "0.0-3.0-0.242-0.242"
	},
	{
		"rt": 4130,
		"stimulus": "<span style=\"font-size:30px; font-family: monospace\">Os</span>",
		"response": " ",
		"trial": "exp-sent",
		"word": "Os",
		"trial_type": "html-keyboard-response",
		"trial_index": 301,
		"time_elapsed": 2164776,
		"internal_node_id": "0.0-3.0-1.242"
	},
	{
		"rt": 4725,
		"stimulus": "<span style=\"font-size:30px; font-family: monospace\">hábitos</span>",
		"response": " ",
		"trial": "exp-sent",
		"word": "hábitos",
		"trial_type": "html-keyboard-response",
		"trial_index": 302,
		"time_elapsed": 2169752,
		"internal_node_id": "0.0-3.0-1.243"
	},
	{
		"rt": 3397,
		"stimulus": "<span style=\"font-size:30px; font-family: monospace\">de</span>",
		"response": " ",
		"trial": "exp-sent",
		"word": "de",
		"trial_type": "html-keyboard-response",
		"trial_index": 303,
		"time_elapsed": 2173399,
		"internal_node_id": "0.0-3.0-1.244"
	},
	{
		"rt": 3989,
		"stimulus": "<span style=\"font-size:30px; font-family: monospace\">lugares</span>",
		"response": " ",
		"trial": "exp-sent",
		"word": "lugares",
		"trial_type": "html-keyboard-response",
		"trial_index": 304,
		"time_elapsed": 2177639,
		"internal_node_id": "0.0-3.0-1.245"
	},
	{
		"rt": 2773,
		"stimulus": "<span style=\"font-size:30px; font-family: monospace\">diferentes</span>",
		"response": " ",
		"trial": "exp-sent",
		"word": "diferentes",
		"trial_type": "html-keyboard-response",
		"trial_index": 305,
		"time_elapsed": 2180663,
		"internal_node_id": "0.0-3.0-1.246"
	},
	{
		"rt": 2646,
		"stimulus": "<span style=\"font-size:30px; font-family: monospace\">são</span>",
		"response": " ",
		"trial": "exp-sent",
		"word": "são",
		"trial_type": "html-keyboard-response",
		"trial_index": 306,
		"time_elapsed": 2183559,
		"internal_node_id": "0.0-3.0-1.247"
	},
	{
		"rt": 2501,
		"stimulus": "<span style=\"font-size:30px; font-family: monospace\">muito</span>",
		"response": " ",
		"trial": "exp-sent",
		"word": "muito",
		"trial_type": "html-keyboard-response",
		"trial_index": 307,
		"time_elapsed": 2186311,
		"internal_node_id": "0.0-3.0-1.248"
	},
	{
		"rt": 8453,
		"stimulus": "<span style=\"font-size:30px; font-family: monospace\">lindos.</span>",
		"response": " ",
		"trial": "exp-sent",
		"word": "lindos.",
		"trial_type": "html-keyboard-response",
		"trial_index": 308,
		"time_elapsed": 2195015,
		"internal_node_id": "0.0-3.0-1.249"
	},
	{
		"rt": null,
		"stimulus": "<span style= \"font-size:30px; font-family: monospace\">+</span>",
		"response": null,
		"trial_part": "fixation",
		"trial_type": "html-keyboard-response",
		"trial_index": 309,
		"time_elapsed": 2196266,
		"internal_node_id": "0.0-3.0-0.250-0.250"
	},
	{
		"rt": 4529,
		"stimulus": "<span style=\"font-size:30px; font-family: monospace\">O</span>",
		"response": " ",
		"trial": "exp-sent",
		"word": "O",
		"trial_type": "html-keyboard-response",
		"trial_index": 310,
		"time_elapsed": 2201047,
		"internal_node_id": "0.0-3.0-1.250"
	},
	{
		"rt": 2293,
		"stimulus": "<span style=\"font-size:30px; font-family: monospace\">médico</span>",
		"response": " ",
		"trial": "exp-sent",
		"word": "médico",
		"trial_type": "html-keyboard-response",
		"trial_index": 311,
		"time_elapsed": 2203591,
		"internal_node_id": "0.0-3.0-1.251"
	},
	{
		"rt": 2374,
		"stimulus": "<span style=\"font-size:30px; font-family: monospace\">corrigiu</span>",
		"response": " ",
		"trial": "exp-sent",
		"word": "corrigiu",
		"trial_type": "html-keyboard-response",
		"trial_index": 312,
		"time_elapsed": 2206215,
		"internal_node_id": "0.0-3.0-1.252"
	},
	{
		"rt": 2437,
		"stimulus": "<span style=\"font-size:30px; font-family: monospace\">a</span>",
		"response": " ",
		"trial": "exp-sent",
		"word": "a",
		"trial_type": "html-keyboard-response",
		"trial_index": 313,
		"time_elapsed": 2208903,
		"internal_node_id": "0.0-3.0-1.253"
	},
	{
		"rt": 2277,
		"stimulus": "<span style=\"font-size:30px; font-family: monospace\">postura</span>",
		"response": " ",
		"trial": "exp-sent",
		"word": "postura",
		"trial_type": "html-keyboard-response",
		"trial_index": 314,
		"time_elapsed": 2211431,
		"internal_node_id": "0.0-3.0-1.254"
	},
	{
		"rt": 2181,
		"stimulus": "<span style=\"font-size:30px; font-family: monospace\">das</span>",
		"response": " ",
		"trial": "exp-sent",
		"word": "das",
		"trial_type": "html-keyboard-response",
		"trial_index": 315,
		"time_elapsed": 2213863,
		"internal_node_id": "0.0-3.0-1.255"
	},
	{
		"rt": 2245,
		"stimulus": "<span style=\"font-size:30px; font-family: monospace\">costas</span>",
		"response": " ",
		"trial": "exp-sent",
		"word": "costas",
		"trial_type": "html-keyboard-response",
		"trial_index": 316,
		"time_elapsed": 2216359,
		"internal_node_id": "0.0-3.0-1.256"
	},
	{
		"rt": 2325,
		"stimulus": "<span style=\"font-size:30px; font-family: monospace\">da</span>",
		"response": " ",
		"trial": "exp-sent",
		"word": "da",
		"trial_type": "html-keyboard-response",
		"trial_index": 317,
		"time_elapsed": 2218935,
		"internal_node_id": "0.0-3.0-1.257"
	},
	{
		"rt": 3365,
		"stimulus": "<span style=\"font-size:30px; font-family: monospace\">pessoa.</span>",
		"response": " ",
		"trial": "exp-sent",
		"word": "pessoa.",
		"trial_type": "html-keyboard-response",
		"trial_index": 318,
		"time_elapsed": 2222551,
		"internal_node_id": "0.0-3.0-1.258"
	},
	{
		"rt": null,
		"stimulus": "<span style= \"font-size:30px; font-family: monospace\">+</span>",
		"response": null,
		"trial_part": "fixation",
		"trial_type": "html-keyboard-response",
		"trial_index": 319,
		"time_elapsed": 2223802,
		"internal_node_id": "0.0-3.0-0.259-0.259"
	},
	{
		"rt": 3874,
		"stimulus": "<span style=\"font-size:30px; font-family: monospace\">Aquele</span>",
		"response": " ",
		"trial": "exp-sent",
		"word": "Aquele",
		"trial_type": "html-keyboard-response",
		"trial_index": 320,
		"time_elapsed": 2227927,
		"internal_node_id": "0.0-3.0-1.259"
	},
	{
		"rt": 5269,
		"stimulus": "<span style=\"font-size:30px; font-family: monospace\">era</span>",
		"response": " ",
		"trial": "exp-sent",
		"word": "era",
		"trial_type": "html-keyboard-response",
		"trial_index": 321,
		"time_elapsed": 2233446,
		"internal_node_id": "0.0-3.0-1.260"
	},
	{
		"rt": 2389,
		"stimulus": "<span style=\"font-size:30px; font-family: monospace\">um</span>",
		"response": " ",
		"trial": "exp-sent",
		"word": "um",
		"trial_type": "html-keyboard-response",
		"trial_index": 322,
		"time_elapsed": 2236086,
		"internal_node_id": "0.0-3.0-1.261"
	},
	{
		"rt": 2293,
		"stimulus": "<span style=\"font-size:30px; font-family: monospace\">caso</span>",
		"response": " ",
		"trial": "exp-sent",
		"word": "caso",
		"trial_type": "html-keyboard-response",
		"trial_index": 323,
		"time_elapsed": 2238630,
		"internal_node_id": "0.0-3.0-1.262"
	},
	{
		"rt": 2885,
		"stimulus": "<span style=\"font-size:30px; font-family: monospace\">real</span>",
		"response": " ",
		"trial": "exp-sent",
		"word": "real",
		"trial_type": "html-keyboard-response",
		"trial_index": 324,
		"time_elapsed": 2241766,
		"internal_node_id": "0.0-3.0-1.263"
	},
	{
		"rt": 2261,
		"stimulus": "<span style=\"font-size:30px; font-family: monospace\">de</span>",
		"response": " ",
		"trial": "exp-sent",
		"word": "de",
		"trial_type": "html-keyboard-response",
		"trial_index": 325,
		"time_elapsed": 2244278,
		"internal_node_id": "0.0-3.0-1.264"
	},
	{
		"rt": 3525,
		"stimulus": "<span style=\"font-size:30px; font-family: monospace\">sequestro</span>",
		"response": " ",
		"trial": "exp-sent",
		"word": "sequestro",
		"trial_type": "html-keyboard-response",
		"trial_index": 326,
		"time_elapsed": 2248053,
		"internal_node_id": "0.0-3.0-1.265"
	},
	{
		"rt": 4885,
		"stimulus": "<span style=\"font-size:30px; font-family: monospace\">premeditado.</span>",
		"response": " ",
		"trial": "comp",
		"word": "premeditado.",
		"trial_type": "html-keyboard-response",
		"trial_index": 327,
		"time_elapsed": 2253190,
		"internal_node_id": "0.0-3.0-1.266"
	},
	{
		"rt": 6616,
		"stimulus": "<span style=\"font-size:30px; font-family: monospace\">Aquele era um caso real de roubo?</span>",
		"response": "n",
		"question": "Aquele era um caso real de roubo?",
		"answer": "não",
		"trial": "comp",
		"trial_type": "html-keyboard-response",
		"trial_index": 328,
		"time_elapsed": 2260070,
		"internal_node_id": "0.0-3.0-2.266-0.266",
		"accuracy": false
	},
	{
		"rt": null,
		"stimulus": "<span style= \"font-size:30px; font-family: monospace\">+</span>",
		"response": null,
		"trial_part": "fixation",
		"trial_type": "html-keyboard-response",
		"trial_index": 329,
		"time_elapsed": 2261570,
		"internal_node_id": "0.0-3.0-0.267-0.267"
	},
	{
		"rt": 1208,
		"stimulus": "<span style=\"font-size:30px; font-family: monospace\">A</span>",
		"response": " ",
		"trial": "exp-sent",
		"word": "A",
		"trial_type": "html-keyboard-response",
		"trial_index": 330,
		"time_elapsed": 2263030,
		"internal_node_id": "0.0-3.0-1.267"
	},
	{
		"rt": 1764,
		"stimulus": "<span style=\"font-size:30px; font-family: monospace\">senhora</span>",
		"response": " ",
		"trial": "exp-sent",
		"word": "senhora",
		"trial_type": "html-keyboard-response",
		"trial_index": 331,
		"time_elapsed": 2265046,
		"internal_node_id": "0.0-3.0-1.268"
	},
	{
		"rt": 4468,
		"stimulus": "<span style=\"font-size:30px; font-family: monospace\">cumprimentou</span>",
		"response": " ",
		"trial": "exp-sent",
		"word": "cumprimentou",
		"trial_type": "html-keyboard-response",
		"trial_index": 332,
		"time_elapsed": 2269765,
		"internal_node_id": "0.0-3.0-1.269"
	},
	{
		"rt": 2661,
		"stimulus": "<span style=\"font-size:30px; font-family: monospace\">o</span>",
		"response": " ",
		"trial": "exp-sent",
		"word": "o",
		"trial_type": "html-keyboard-response",
		"trial_index": 333,
		"time_elapsed": 2272677,
		"internal_node_id": "0.0-3.0-1.270"
	},
	{
		"rt": 5701,
		"stimulus": "<span style=\"font-size:30px; font-family: monospace\">operador</span>",
		"response": " ",
		"trial": "exp-sent",
		"word": "operador",
		"trial_type": "html-keyboard-response",
		"trial_index": 334,
		"time_elapsed": 2278630,
		"internal_node_id": "0.0-3.0-1.271"
	},
	{
		"rt": 2468,
		"stimulus": "<span style=\"font-size:30px; font-family: monospace\">de</span>",
		"response": " ",
		"trial": "exp-sent",
		"word": "de",
		"trial_type": "html-keyboard-response",
		"trial_index": 335,
		"time_elapsed": 2281349,
		"internal_node_id": "0.0-3.0-1.272"
	},
	{
		"rt": 3162,
		"stimulus": "<span style=\"font-size:30px; font-family: monospace\">caixa.</span>",
		"response": " ",
		"trial": "exp-sent",
		"word": "caixa.",
		"trial_type": "html-keyboard-response",
		"trial_index": 336,
		"time_elapsed": 2284774,
		"internal_node_id": "0.0-3.0-1.273"
	},
	{
		"rt": null,
		"stimulus": "<span style= \"font-size:30px; font-family: monospace\">+</span>",
		"response": null,
		"trial_part": "fixation",
		"trial_type": "html-keyboard-response",
		"trial_index": 337,
		"time_elapsed": 2286026,
		"internal_node_id": "0.0-3.0-0.274-0.274"
	},
	{
		"rt": 3552,
		"stimulus": "<span style=\"font-size:30px; font-family: monospace\">A</span>",
		"response": " ",
		"trial": "exp-sent",
		"word": "A",
