"view_history","rt","trial_type","trial_index","time_elapsed","internal_node_id","stimulus","response","trial_part","word","question","answer","trial","accuracy"
"[{""page_index"":0,""viewing_time"":4695},{""page_index"":1,""viewing_time"":2944}]","7639","instructions","0","7640","0.0-0.0","","","","","","","",""
"","null","html-keyboard-response","1","8758","0.0-1.0-0.0-0.0","<span style= ""font-size:30px; font-family: monospace"">+</span>","null","fixation","","","","",""
"","4200","audio-keyboard-response","2","13248","0.0-1.0-1.0","../audio/prac-question-1-1.mp3"," ","","O","","","",""
"","1811","audio-keyboard-response","3","15327","0.0-1.0-1.1","../audio/prac-question-1-2.mp3"," ","","dia","","","",""
"","2341","audio-keyboard-response","4","17935","0.0-1.0-1.2","../audio/prac-question-1-3.mp3"," ","","estará","","","",""
"","1859","audio-keyboard-response","5","20079","0.0-1.0-1.3","../audio/prac-question-1-4.mp3"," ","","cheio","","","",""
"","1408","audio-keyboard-response","6","21759","0.0-1.0-1.4","../audio/prac-question-1-5.mp3"," ","","de","","","",""
"","1640","audio-keyboard-response","7","23679","0.0-1.0-1.5","../audio/prac-question-1-6.mp3"," ","","nuvens","","","",""
"","2080","audio-keyboard-response","8","26031","0.0-1.0-1.6","../audio/prac-question-1-7.mp3"," ","","hoje.","","","",""
"","null","html-keyboard-response","9","27309","0.0-1.0-0.7-0.7","<span style= ""font-size:30px; font-family: monospace"">+</span>","null","fixation","","","","",""
"","1669","audio-keyboard-response","10","29247","0.0-1.0-1.7","../audio/prac-question-2-1.mp3"," ","","A","","","",""
"","1821","audio-keyboard-response","11","31343","0.0-1.0-1.8","../audio/prac-question-2-2.mp3"," ","","caneca","","","",""
"","1779","audio-keyboard-response","12","33391","0.0-1.0-1.9","../audio/prac-question-2-3.mp3"," ","","colorida","","","",""
"","1880","audio-keyboard-response","13","35535","0.0-1.0-1.10","../audio/prac-question-2-4.mp3"," ","","caiu","","","",""
"","1259","audio-keyboard-response","14","37071","0.0-1.0-1.11","../audio/prac-question-2-5.mp3"," ","","da","","","",""
"","1709","audio-keyboard-response","15","39055","0.0-1.0-1.12","../audio/prac-question-2-6.mp3"," ","","mesa","","","",""
"","1389","audio-keyboard-response","16","40719","0.0-1.0-1.13","../audio/prac-question-2-7.mp3"," ","","de","","","",""
"","2011","audio-keyboard-response","17","43007","0.0-1.0-1.14","../audio/prac-question-2-8.mp3"," ","","jantar.","","","",""
"","24567","html-keyboard-response","18","67838","0.0-1.0-2.14-0.14","<span style=""font-size:25px; font-family: monospace"">A caneca era colorida?</span>","s","","","A caneca era colorida?","null","prac-sent","false"
"[{""page_index"":0,""viewing_time"":12664}]","12665","instructions","19","81006","0.0-2.0","","","","","","","",""
"","null","html-keyboard-response","20","82108","0.0-3.0-0.0-0.0","<span style= ""font-size:30px; font-family: monospace"">+</span>","null","fixation","","","","",""
"","3048","audio-keyboard-response","21","85517","0.0-3.0-1.0","../audio/51-1-fem.mp3"," ","","Suco","","","",""
"","1541","audio-keyboard-response","22","87342","0.0-3.0-1.1","../audio/51-2-fem.mp3"," ","","de","","","",""
"","2101","audio-keyboard-response","23","89709","0.0-3.0-1.2","../audio/51-3-fem.mp3"," ","","acerola","","","",""
"","1840","audio-keyboard-response","24","91822","0.0-3.0-1.3","../audio/51-4-fem.mp3"," ","","é","","","",""
"","2171","audio-keyboard-response","25","94270","0.0-3.0-1.4","../audio/51-5-fem.mp3"," ","","azedo","","","",""
"","1720","audio-keyboard-response","26","96270","0.0-3.0-1.5","../audio/51-6-fem.mp3"," ","","e","","","",""
"","1971","audio-keyboard-response","27","98510","0.0-3.0-1.6","../audio/51-7-fem.mp3"," ","","até","","","",""
"","1979","audio-keyboard-response","28","100765","0.0-3.0-1.7","../audio/51-8-fem.mp3"," ","","barato.","","","",""
"","null","html-keyboard-response","29","102030","0.0-3.0-0.8-0.8","<span style= ""font-size:30px; font-family: monospace"">+</span>","null","fixation","","","","",""
"","1288","audio-keyboard-response","30","103598","0.0-3.0-1.8","../audio/54-1-fem.mp3"," ","","Estou","","","",""
"","1120","audio-keyboard-response","31","104989","0.0-3.0-1.9","../audio/54-2-fem.mp3"," ","","com","","","",""
"","1571","audio-keyboard-response","32","106830","0.0-3.0-1.10","../audio/54-3-fem.mp3"," ","","medo","","","",""
"","1960","audio-keyboard-response","33","109070","0.0-3.0-1.11","../audio/54-4-fem.mp3"," ","","da","","","",""
"","2000","audio-keyboard-response","34","111342","0.0-3.0-1.12","../audio/54-5-fem.mp3"," ","","atual","","","",""
"","2349","audio-keyboard-response","35","113965","0.0-3.0-1.13","../audio/54-6-fem.mp3"," ","","organização","","","",""
"","1880","audio-keyboard-response","36","116110","0.0-3.0-1.14","../audio/54-7-fem.mp3"," ","","do","","","",""
"","2979","audio-keyboard-response","37","119358","0.0-3.0-1.15","../audio/54-8-fem.mp3"," ","","país.","","","",""
"","null","html-keyboard-response","38","120624","0.0-3.0-0.16-0.16","<span style= ""font-size:30px; font-family: monospace"">+</span>","null","fixation","","","","",""
"","1571","audio-keyboard-response","39","122462","0.0-3.0-1.16","../audio/53-1-fem.mp3"," ","","O","","","",""
"","1971","audio-keyboard-response","40","124702","0.0-3.0-1.17","../audio/53-2-fem.mp3"," ","","médico","","","",""
"","1509","audio-keyboard-response","41","126494","0.0-3.0-1.18","../audio/53-3-fem.mp3"," ","","foi","","","",""
"","1851","audio-keyboard-response","42","128620","0.0-3.0-1.19","../audio/53-4-fem.mp3"," ","","bastante","","","",""
"","1920","audio-keyboard-response","43","130828","0.0-3.0-1.20","../audio/53-5-fem.mp3"," ","","preciso","","","",""
"","2291","audio-keyboard-response","44","133388","0.0-3.0-1.21","../audio/53-6-fem.mp3"," ","","durante","","","",""
"","1368","audio-keyboard-response","45","135036","0.0-3.0-1.22","../audio/53-7-fem.mp3"," ","","a","","","",""
"","1840","audio-keyboard-response","46","137148","0.0-3.0-1.23","../audio/53-8-fem.mp3"," ","","cirurgia.","","","",""
"","null","html-keyboard-response","47","138400","0.0-3.0-0.24-0.24","<span style= ""font-size:30px; font-family: monospace"">+</span>","null","fixation","","","","",""
"","2101","audio-keyboard-response","48","140780","0.0-3.0-1.24","../audio/52-1-masc.mp3"," ","","Às","","","",""
"","1499","audio-keyboard-response","49","142556","0.0-3.0-1.25","../audio/52-2-masc.mp3"," ","","vezes","","","",""
"","1139","audio-keyboard-response","50","143964","0.0-3.0-1.26","../audio/52-3-masc.mp3"," ","","eu","","","",""
"","1261","audio-keyboard-response","51","145500","0.0-3.0-1.27","../audio/52-4-masc.mp3"," ","","tenho","","","",""
"","1560","audio-keyboard-response","52","147340","0.0-3.0-1.28","../audio/52-5-masc.mp3"," ","","azia","","","",""
"","1451","audio-keyboard-response","53","149068","0.0-3.0-1.29","../audio/52-6-masc.mp3"," ","","depois","","","",""
"","1280","audio-keyboard-response","54","150604","0.0-3.0-1.30","../audio/52-7-masc.mp3"," ","","da","","","",""
"","2931","audio-keyboard-response","55","153804","0.0-3.0-1.31","../audio/52-8-masc.mp3"," ","","janta.","","","",""
"","null","html-keyboard-response","56","155063","0.0-3.0-0.32-0.32","<span style= ""font-size:30px; font-family: monospace"">+</span>","null","fixation","","","","",""
"","1509","audio-keyboard-response","57","156844","0.0-3.0-1.32","../audio/55-1-fem.mp3"," ","","O","","","",""
"","1851","audio-keyboard-response","58","158972","0.0-3.0-1.33","../audio/55-2-fem.mp3"," ","","insulto","","","",""
"","2840","audio-keyboard-response","59","162076","0.0-3.0-1.34","../audio/55-3-fem.mp3"," ","","recente","","","",""
"","1571","audio-keyboard-response","60","163932","0.0-3.0-1.35","../audio/55-4-fem.mp3"," ","","causou","","","",""
"","1981","audio-keyboard-response","61","166188","0.0-3.0-1.36","../audio/55-5-fem.mp3"," ","","indignação","","","",""
"","1459","audio-keyboard-response","62","167916","0.0-3.0-1.37","../audio/55-6-fem.mp3"," ","","em","","","",""
"","1520","audio-keyboard-response","63","169708","0.0-3.0-1.38","../audio/55-7-fem.mp3"," ","","todos.","","","",""
"","15430","html-keyboard-response","64","185404","0.0-3.0-2.38-0.38","<span style=""font-size:25px; font-family: monospace"">O insulto causou calmaria?</span>","s","","","O insulto causou calmaria?","null","exp-sent","false"
"","null","html-keyboard-response","65","186919","0.0-3.0-0.39-0.39","<span style= ""font-size:30px; font-family: monospace"">+</span>","null","fixation","","","","",""
"","1611","audio-keyboard-response","66","188811","0.0-3.0-1.39","../audio/56-1-fem.mp3"," ","","A","","","",""
"","1371","audio-keyboard-response","67","190459","0.0-3.0-1.40","../audio/56-2-fem.mp3"," ","","moça","","","",""
"","1560","audio-keyboard-response","68","192299","0.0-3.0-1.41","../audio/56-3-fem.mp3"," ","","foi","","","",""
"","1840","audio-keyboard-response","69","194411","0.0-3.0-1.42","../audio/56-4-fem.mp3"," ","","à","","","",""
"","1931","audio-keyboard-response","70","196603","0.0-3.0-1.43","../audio/56-5-fem.mp3"," ","","agência","","","",""
"","2611","audio-keyboard-response","71","199483","0.0-3.0-1.44","../audio/56-6-fem.mp3"," ","","bancária","","","",""
"","1552","audio-keyboard-response","72","201307","0.0-3.0-1.45","../audio/56-7-fem.mp3"," ","","ontem","","","",""
"","1251","audio-keyboard-response","73","202827","0.0-3.0-1.46","../audio/56-8-fem.mp3"," ","","de","","","",""
"","2131","audio-keyboard-response","74","205227","0.0-3.0-1.47","../audio/56-9-fem.mp3"," ","","tarde.","","","",""
"","null","html-keyboard-response","75","206485","0.0-3.0-0.48-0.48","<span style= ""font-size:30px; font-family: monospace"">+</span>","null","fixation","","","","",""
"","981","audio-keyboard-response","76","207739","0.0-3.0-1.48","../audio/59-1-fem.mp3"," ","","O","","","",""
"","1621","audio-keyboard-response","77","209627","0.0-3.0-1.49","../audio/59-2-fem.mp3"," ","","carteiro","","","",""
"","1509","audio-keyboard-response","78","211403","0.0-3.0-1.50","../audio/59-3-fem.mp3"," ","","fez","","","",""
"","1120","audio-keyboard-response","79","212795","0.0-3.0-1.51","../audio/59-4-fem.mp3"," ","","uma","","","",""
"","2240","audio-keyboard-response","80","215307","0.0-3.0-1.52","../audio/59-5-fem.mp3"," ","","tentativa","","","",""
"","1128","audio-keyboard-response","81","216715","0.0-3.0-1.53","../audio/59-6-fem.mp3"," ","","de","","","",""
"","1592","audio-keyboard-response","82","218587","0.0-3.0-1.54","../audio/59-7-fem.mp3"," ","","entrega.","","","",""
"","null","html-keyboard-response","83","219855","0.0-3.0-0.55-0.55","<span style= ""font-size:30px; font-family: monospace"">+</span>","null","fixation","","","","",""
"","1069","audio-keyboard-response","84","221211","0.0-3.0-1.55","../audio/57-1-masc.mp3"," ","","O","","","",""
"","1789","audio-keyboard-response","85","223275","0.0-3.0-1.56","../audio/57-2-masc.mp3"," ","","capitão","","","",""
"","1440","audio-keyboard-response","86","224987","0.0-3.0-1.57","../audio/57-3-masc.mp3"," ","","deu","","","",""
"","1280","audio-keyboard-response","87","226539","0.0-3.0-1.58","../audio/57-4-masc.mp3"," ","","uma","","","",""
"","1811","audio-keyboard-response","88","228619","0.0-3.0-1.59","../audio/57-5-masc.mp3"," ","","instrução","","","",""
"","1040","audio-keyboard-response","89","229947","0.0-3.0-1.60","../audio/57-6-masc.mp3"," ","","para","","","",""
"","1029","audio-keyboard-response","90","231243","0.0-3.0-1.61","../audio/57-7-masc.mp3"," ","","as","","","",""
"","1640","audio-keyboard-response","91","233147","0.0-3.0-1.62","../audio/57-8-masc.mp3"," ","","pessoas.","","","",""
"","null","html-keyboard-response","92","234415","0.0-3.0-0.63-0.63","<span style= ""font-size:30px; font-family: monospace"">+</span>","null","fixation","","","","",""
"","1229","audio-keyboard-response","93","235931","0.0-3.0-1.63","../audio/58-1-fem.mp3"," ","","Havia","","","",""
"","1360","audio-keyboard-response","94","237563","0.0-3.0-1.64","../audio/58-2-fem.mp3"," ","","apenas","","","",""
"","1101","audio-keyboard-response","95","238939","0.0-3.0-1.65","../audio/58-3-fem.mp3"," ","","um","","","",""
"","1229","audio-keyboard-response","96","240443","0.0-3.0-1.66","../audio/58-4-fem.mp3"," ","","último","","","",""
"","1440","audio-keyboard-response","97","242155","0.0-3.0-1.67","../audio/58-5-fem.mp3"," ","","herdeiro","","","",""
"","1168","audio-keyboard-response","98","243595","0.0-3.0-1.68","../audio/58-6-fem.mp3"," ","","do","","","",""
"","1789","audio-keyboard-response","99","245659","0.0-3.0-1.69","../audio/58-7-fem.mp3"," ","","dinheiro.","","","",""
"","null","html-keyboard-response","100","246913","0.0-3.0-0.70-0.70","<span style= ""font-size:30px; font-family: monospace"">+</span>","null","fixation","","","","",""
"","2248","audio-keyboard-response","101","249434","0.0-3.0-1.70","../audio/60-1-masc.mp3"," ","","Ondas","","","",""
"","1080","audio-keyboard-response","102","250778","0.0-3.0-1.71","../audio/60-2-masc.mp3"," ","","têm","","","",""
"","1141","audio-keyboard-response","103","252185","0.0-3.0-1.72","../audio/60-3-masc.mp3"," ","","um","","","",""
"","2000","audio-keyboard-response","104","254458","0.0-3.0-1.73","../audio/60-4-masc.mp3"," ","","impacto","","","",""
"","1869","audio-keyboard-response","105","256601","0.0-3.0-1.74","../audio/60-5-masc.mp3"," ","","destrutivo","","","",""
"","1440","audio-keyboard-response","106","258330","0.0-3.0-1.75","../audio/60-6-masc.mp3"," ","","no","","","",""
"","2120","audio-keyboard-response","107","260730","0.0-3.0-1.76","../audio/60-7-masc.mp3"," ","","litoral.","","","",""
"","9652","html-keyboard-response","108","270634","0.0-3.0-2.76-0.76","<span style=""font-size:25px; font-family: monospace"">Ondas têm um impacto destrutivo?</span>","s","","","Ondas têm um impacto destrutivo?","null","exp-sent","false"
"","null","html-keyboard-response","109","272149","0.0-3.0-0.77-0.77","<span style= ""font-size:30px; font-family: monospace"">+</span>","null","fixation","","","","",""
"","1000","audio-keyboard-response","110","273418","0.0-3.0-1.77","../audio/32-1-masc.mp3"," ","","A","","","",""
"","1309","audio-keyboard-response","111","275001","0.0-3.0-1.78","../audio/32-2-masc.mp3"," ","","tia","","","",""
"","1741","audio-keyboard-response","112","277018","0.0-3.0-1.79","../audio/32-3-masc.mp3"," ","","comprou","","","",""
"","1480","audio-keyboard-response","113","278777","0.0-3.0-1.80","../audio/32-4-masc.mp3"," ","","um","","","",""
"","1469","audio-keyboard-response","114","280522","0.0-3.0-1.81","../audio/32-5-masc.mp3"," ","","pilão","","","",""
"","3712","audio-keyboard-response","115","284506","0.0-3.0-1.82","../audio/32-6-masc.mp3"," ","","para","","","",""
"","1651","audio-keyboard-response","116","286426","0.0-3.0-1.83","../audio/32-7-masc.mp3"," ","","a","","","",""
"","1469","audio-keyboard-response","117","288169","0.0-3.0-1.84","../audio/32-8-masc.mp3"," ","","cozinha.","","","",""
"","null","html-keyboard-response","118","289426","0.0-3.0-0.85-0.85","<span style= ""font-size:30px; font-family: monospace"">+</span>","null","fixation","","","","",""
"","1179","audio-keyboard-response","119","290889","0.0-3.0-1.85","../audio/33-1-fem.mp3"," ","","Eles","","","",""
"","1320","audio-keyboard-response","120","292490","0.0-3.0-1.86","../audio/33-2-fem.mp3"," ","","sabem","","","",""
"","1200","audio-keyboard-response","121","293962","0.0-3.0-1.87","../audio/33-3-fem.mp3"," ","","do","","","",""
"","1371","audio-keyboard-response","122","295610","0.0-3.0-1.88","../audio/33-4-fem.mp3"," ","","seu","","","",""
"","1640","audio-keyboard-response","123","297514","0.0-3.0-1.89","../audio/33-5-fem.mp3"," ","","privilégio","","","",""
"","1299","audio-keyboard-response","124","299081","0.0-3.0-1.90","../audio/33-6-fem.mp3"," ","","nessa","","","",""
"","1680","audio-keyboard-response","125","301034","0.0-3.0-1.91","../audio/33-7-fem.mp3"," ","","confusão.","","","",""
"","null","html-keyboard-response","126","302302","0.0-3.0-0.92-0.92","<span style= ""font-size:30px; font-family: monospace"">+</span>","null","fixation","","","","",""
"","960","audio-keyboard-response","127","303545","0.0-3.0-1.92","../audio/31-1-masc.mp3"," ","","O","","","",""
"","1261","audio-keyboard-response","128","305066","0.0-3.0-1.93","../audio/31-2-masc.mp3"," ","","padeiro","","","",""
"","1171","audio-keyboard-response","129","306506","0.0-3.0-1.94","../audio/31-3-masc.mp3"," ","","usou","","","",""
"","771","audio-keyboard-response","130","307545","0.0-3.0-1.95","../audio/31-4-masc.mp3"," ","","a","","","",""
"","1440","audio-keyboard-response","131","309257","0.0-3.0-1.96","../audio/31-5-masc.mp3"," ","","balança","","","",""
"","1331","audio-keyboard-response","132","310857","0.0-3.0-1.97","../audio/31-6-masc.mp3"," ","","o","","","",""
"","1240","audio-keyboard-response","133","312361","0.0-3.0-1.98","../audio/31-7-masc.mp3"," ","","dia","","","",""
"","1792","audio-keyboard-response","134","314425","0.0-3.0-1.99","../audio/31-8-masc.mp3"," ","","inteiro.","","","",""
"","null","html-keyboard-response","135","315682","0.0-3.0-0.100-0.100","<span style= ""font-size:30px; font-family: monospace"">+</span>","null","fixation","","","","",""
"","1501","audio-keyboard-response","136","317465","0.0-3.0-1.100","../audio/34-1-fem.mp3"," ","","Cobrança","","","",""
"","1640","audio-keyboard-response","137","319385","0.0-3.0-1.101","../audio/34-2-fem.mp3"," ","","excessiva","","","",""
"","1149","audio-keyboard-response","138","320809","0.0-3.0-1.102","../audio/34-3-fem.mp3"," ","","é","","","",""
"","1040","audio-keyboard-response","139","322121","0.0-3.0-1.103","../audio/34-4-fem.mp3"," ","","um","","","",""
"","1419","audio-keyboard-response","140","323801","0.0-3.0-1.104","../audio/34-5-fem.mp3"," ","","fardo","","","",""
"","1251","audio-keyboard-response","141","325337","0.0-3.0-1.105","../audio/34-6-fem.mp3"," ","","para","","","",""
"","1040","audio-keyboard-response","142","326649","0.0-3.0-1.106","../audio/34-7-fem.mp3"," ","","a","","","",""
"","2251","audio-keyboard-response","143","329161","0.0-3.0-1.107","../audio/34-8-fem.mp3"," ","","cabeça.","","","",""
"","null","html-keyboard-response","144","330415","0.0-3.0-0.108-0.108","<span style= ""font-size:30px; font-family: monospace"">+</span>","null","fixation","","","","",""
"","1309","audio-keyboard-response","145","332009","0.0-3.0-1.108","../audio/35-1-fem.mp3"," ","","A","","","",""
"","1261","audio-keyboard-response","146","333545","0.0-3.0-1.109","../audio/35-2-fem.mp3"," ","","receita","","","",""
"","1029","audio-keyboard-response","147","334841","0.0-3.0-1.110","../audio/35-3-fem.mp3"," ","","para","","","",""
"","1051","audio-keyboard-response","148","336169","0.0-3.0-1.111","../audio/35-4-fem.mp3"," ","","a","","","",""
"","1592","audio-keyboard-response","149","338025","0.0-3.0-1.112","../audio/35-5-fem.mp3"," ","","preparação","","","",""
"","880","audio-keyboard-response","150","339177","0.0-3.0-1.113","../audio/35-6-fem.mp3"," ","","do","","","",""
"","1160","audio-keyboard-response","151","340617","0.0-3.0-1.114","../audio/35-7-fem.mp3"," ","","bolo","","","",""
"","869","audio-keyboard-response","152","341753","0.0-3.0-1.115","../audio/35-8-fem.mp3"," ","","é","","","",""
"","1549","audio-keyboard-response","153","343577","0.0-3.0-1.116","../audio/35-9-fem.mp3"," ","","leve.","","","",""
"","15984","html-keyboard-response","154","359817","0.0-3.0-2.116-0.116","<span style=""font-size:25px; font-family: monospace"">A receita do bolo é pesada?</span>","s","","","A receita do bolo é pesada?","null","exp-sent","false"
"","null","html-keyboard-response","155","361344","0.0-3.0-0.117-0.117","<span style= ""font-size:30px; font-family: monospace"">+</span>","null","fixation","","","","",""
"","848","audio-keyboard-response","156","362473","0.0-3.0-1.117","../audio/13-1-fem.mp3"," ","","Para","","","",""
"","891","audio-keyboard-response","157","363641","0.0-3.0-1.118","../audio/13-2-fem.mp3"," ","","mim","","","",""
"","680","audio-keyboard-response","158","364585","0.0-3.0-1.119","../audio/13-3-fem.mp3"," ","","é","","","",""
"","1029","audio-keyboard-response","159","365897","0.0-3.0-1.120","../audio/13-4-fem.mp3"," ","","muito","","","",""
"","1080","audio-keyboard-response","160","367257","0.0-3.0-1.121","../audio/13-5-fem.mp3"," ","","difícil","","","",""
"","1259","audio-keyboard-response","161","368793","0.0-3.0-1.122","../audio/13-6-fem.mp3"," ","","acordar","","","",""
"","989","audio-keyboard-response","162","370056","0.0-3.0-1.123","../audio/13-7-fem.mp3"," ","","cedo.","","","",""
"","null","html-keyboard-response","163","371322","0.0-3.0-0.124-0.124","<span style= ""font-size:30px; font-family: monospace"">+</span>","null","fixation","","","","",""
"","832","audio-keyboard-response","164","372423","0.0-3.0-1.124","../audio/14-1-fem.mp3"," ","","O","","","",""
"","960","audio-keyboard-response","165","373655","0.0-3.0-1.125","../audio/14-2-fem.mp3"," ","","cachorro","","","",""
"","709","audio-keyboard-response","166","374631","0.0-3.0-1.126","../audio/14-3-fem.mp3"," ","","é","","","",""
"","800","audio-keyboard-response","167","375703","0.0-3.0-1.127","../audio/14-4-fem.mp3"," ","","muito","","","",""
"","1059","audio-keyboard-response","168","377047","0.0-3.0-1.128","../audio/14-5-fem.mp3"," ","","fiel","","","",""
"","680","audio-keyboard-response","169","378008","0.0-3.0-1.129","../audio/14-6-fem.mp3"," ","","a","","","",""
"","952","audio-keyboard-response","170","379223","0.0-3.0-1.130","../audio/14-7-fem.mp3"," ","","seus","","","",""
"","979","audio-keyboard-response","171","380487","0.0-3.0-1.131","../audio/14-8-fem.mp3"," ","","donos.","","","",""
"","null","html-keyboard-response","172","381754","0.0-3.0-0.132-0.132","<span style= ""font-size:30px; font-family: monospace"">+</span>","null","fixation","","","","",""
"","1051","audio-keyboard-response","173","383095","0.0-3.0-1.132","../audio/11-1-fem.mp3"," ","","Elas","","","",""
"","891","audio-keyboard-response","174","384264","0.0-3.0-1.133","../audio/11-2-fem.mp3"," ","","gostam","","","",""
"","979","audio-keyboard-response","175","385511","0.0-3.0-1.134","../audio/11-3-fem.mp3"," ","","muito","","","",""
"","848","audio-keyboard-response","176","386631","0.0-3.0-1.135","../audio/11-4-fem.mp3"," ","","de","","","",""
"","1400","audio-keyboard-response","177","388311","0.0-3.0-1.136","../audio/11-5-fem.mp3"," ","","aritmética","","","",""
"","1088","audio-keyboard-response","178","389672","0.0-3.0-1.137","../audio/11-6-fem.mp3"," ","","e","","","",""
"","960","audio-keyboard-response","179","390903","0.0-3.0-1.138","../audio/11-7-fem.mp3"," ","","de","","","",""
"","1579","audio-keyboard-response","180","392759","0.0-3.0-1.139","../audio/11-8-fem.mp3"," ","","leitura.","","","",""
"","null","html-keyboard-response","181","394017","0.0-3.0-0.140-0.140","<span style= ""font-size:30px; font-family: monospace"">+</span>","null","fixation","","","","",""
"","949","audio-keyboard-response","182","395239","0.0-3.0-1.140","../audio/12-1-masc.mp3"," ","","O","","","",""
"","931","audio-keyboard-response","183","396439","0.0-3.0-1.141","../audio/12-2-masc.mp3"," ","","dia","","","",""
"","971","audio-keyboard-response","184","397687","0.0-3.0-1.142","../audio/12-3-masc.mp3"," ","","estava","","","",""
"","920","audio-keyboard-response","185","398887","0.0-3.0-1.143","../audio/12-4-masc.mp3"," ","","quente,","","","",""
"","1101","audio-keyboard-response","186","400263","0.0-3.0-1.144","../audio/12-5-masc.mp3"," ","","tranquilo","","","",""
"","1000","audio-keyboard-response","187","401528","0.0-3.0-1.145","../audio/12-6-masc.mp3"," ","","e","","","",""
"","2109","audio-keyboard-response","188","403911","0.0-3.0-1.146","../audio/12-7-masc.mp3"," ","","ensolarado.","","","",""
"","null","html-keyboard-response","189","405170","0.0-3.0-0.147-0.147","<span style= ""font-size:30px; font-family: monospace"">+</span>","null","fixation","","","","",""
"","912","audio-keyboard-response","190","406343","0.0-3.0-1.147","../audio/15-1-masc.mp3"," ","","Meu","","","",""
"","899","audio-keyboard-response","191","407527","0.0-3.0-1.148","../audio/15-2-masc.mp3"," ","","primo","","","",""
"","851","audio-keyboard-response","192","408663","0.0-3.0-1.149","../audio/15-3-masc.mp3"," ","","é","","","",""
"","789","audio-keyboard-response","193","409719","0.0-3.0-1.150","../audio/15-4-masc.mp3"," ","","um","","","",""
"","1029","audio-keyboard-response","194","411016","0.0-3.0-1.151","../audio/15-5-masc.mp3"," ","","grande","","","",""
"","1291","audio-keyboard-response","195","412583","0.0-3.0-1.152","../audio/15-6-masc.mp3"," ","","vendedor","","","",""
"","819","audio-keyboard-response","196","413671","0.0-3.0-1.153","../audio/15-7-masc.mp3"," ","","de","","","",""
"","979","audio-keyboard-response","197","414919","0.0-3.0-1.154","../audio/15-8-masc.mp3"," ","","carros.","","","",""
"","17660","html-keyboard-response","198","432838","0.0-3.0-2.154-0.154","<span style=""font-size:25px; font-family: monospace"">O primo é um vendedor de carros?</span>","s","","","O primo é um vendedor de carros?","null","exp-sent","false"
"","null","html-keyboard-response","199","434364","0.0-3.0-0.155-0.155","<span style= ""font-size:30px; font-family: monospace"">+</span>","null","fixation","","","","",""
"","251","audio-keyboard-response","200","434902","0.0-3.0-1.155","../audio/43-1-fem.mp3"," ","","Eu","","","",""
"","1179","audio-keyboard-response","201","436358","0.0-3.0-1.156","../audio/43-2-fem.mp3"," ","","achei","","","",""
"","789","audio-keyboard-response","202","437414","0.0-3.0-1.157","../audio/43-3-fem.mp3"," ","","um","","","",""
"","1109","audio-keyboard-response","203","438790","0.0-3.0-1.158","../audio/43-4-fem.mp3"," ","","colchão","","","",""
"","989","audio-keyboard-response","204","440054","0.0-3.0-1.159","../audio/43-5-fem.mp3"," ","","velho","","","",""
"","771","audio-keyboard-response","205","441094","0.0-3.0-1.160","../audio/43-6-fem.mp3"," ","","e","","","",""
"","789","audio-keyboard-response","206","442166","0.0-3.0-1.161","../audio/43-7-fem.mp3"," ","","imundo","","","",""
"","731","audio-keyboard-response","207","443158","0.0-3.0-1.162","../audio/43-8-fem.mp3"," ","","na","","","",""
"","861","audio-keyboard-response","208","444294","0.0-3.0-1.163","../audio/43-9-fem.mp3"," ","","casa.","","","",""
"","null","html-keyboard-response","209","445574","0.0-3.0-0.164-0.164","<span style= ""font-size:30px; font-family: monospace"">+</span>","null","fixation","","","","",""
"","741","audio-keyboard-response","210","446582","0.0-3.0-1.164","../audio/41-1-fem.mp3"," ","","A","","","",""
"","968","audio-keyboard-response","211","447830","0.0-3.0-1.165","../audio/41-2-fem.mp3"," ","","novela","","","",""
"","848","audio-keyboard-response","212","448950","0.0-3.0-1.166","../audio/41-3-fem.mp3"," ","","falava","","","",""
"","891","audio-keyboard-response","213","450102","0.0-3.0-1.167","../audio/41-4-fem.mp3"," ","","de","","","",""
"","1189","audio-keyboard-response","214","451558","0.0-3.0-1.168","../audio/41-5-fem.mp3"," ","","paixão","","","",""
"","771","audio-keyboard-response","215","452614","0.0-3.0-1.169","../audio/41-6-fem.mp3"," ","","e","","","",""
"","1211","audio-keyboard-response","216","454102","0.0-3.0-1.170","../audio/41-7-fem.mp3"," ","","comédia.","","","",""
"","null","html-keyboard-response","217","455366","0.0-3.0-0.171-0.171","<span style= ""font-size:30px; font-family: monospace"">+</span>","null","fixation","","","","",""
"","880","audio-keyboard-response","218","456534","0.0-3.0-1.171","../audio/44-1-masc.mp3"," ","","Meus","","","",""
"","880","audio-keyboard-response","219","457702","0.0-3.0-1.172","../audio/44-2-masc.mp3"," ","","irmãos","","","",""
"","869","audio-keyboard-response","220","458838","0.0-3.0-1.173","../audio/44-3-masc.mp3"," ","","brigam","","","",""
"","1200","audio-keyboard-response","221","460310","0.0-3.0-1.174","../audio/44-4-masc.mp3"," ","","por","","","",""
"","1099","audio-keyboard-response","222","461686","0.0-3.0-1.175","../audio/44-5-masc.mp3"," ","","bobagem","","","",""
"","901","audio-keyboard-response","223","462854","0.0-3.0-1.176","../audio/44-6-masc.mp3"," ","","todos","","","",""
"","880","audio-keyboard-response","224","464006","0.0-3.0-1.177","../audio/44-7-masc.mp3"," ","","os","","","",""
"","1021","audio-keyboard-response","225","465302","0.0-3.0-1.178","../audio/44-8-masc.mp3"," ","","dias.","","","",""
"","null","html-keyboard-response","226","466563","0.0-3.0-0.179-0.179","<span style= ""font-size:30px; font-family: monospace"">+</span>","null","fixation","","","","",""
"","829","audio-keyboard-response","227","467686","0.0-3.0-1.179","../audio/42-1-masc.mp3"," ","","Eu","","","",""
"","1840","audio-keyboard-response","228","469798","0.0-3.0-1.180","../audio/42-2-masc.mp3"," ","","fui","","","",""
"","971","audio-keyboard-response","229","471046","0.0-3.0-1.181","../audio/42-3-masc.mp3"," ","","a","","","",""
"","891","audio-keyboard-response","230","472198","0.0-3.0-1.182","../audio/42-4-masc.mp3"," ","","uma","","","",""
"","1051","audio-keyboard-response","231","473526","0.0-3.0-1.183","../audio/42-5-masc.mp3"," ","","loja","","","",""
"","840","audio-keyboard-response","232","474630","0.0-3.0-1.184","../audio/42-6-masc.mp3"," ","","de","","","",""
"","1099","audio-keyboard-response","233","476006","0.0-3.0-1.185","../audio/42-7-masc.mp3"," ","","móveis","","","",""
"","829","audio-keyboard-response","234","477110","0.0-3.0-1.186","../audio/42-8-masc.mp3"," ","","no","","","",""
"","1259","audio-keyboard-response","235","478646","0.0-3.0-1.187","../audio/42-9-masc.mp3"," ","","bairro.","","","",""
"","null","html-keyboard-response","236","479909","0.0-3.0-0.188-0.188","<span style= ""font-size:30px; font-family: monospace"">+</span>","null","fixation","","","","",""
"","731","audio-keyboard-response","237","480918","0.0-3.0-1.188","../audio/45-1-fem.mp3"," ","","O","","","",""
"","941","audio-keyboard-response","238","482134","0.0-3.0-1.189","../audio/45-2-fem.mp3"," ","","homem","","","",""
"","1139","audio-keyboard-response","239","483558","0.0-3.0-1.190","../audio/45-3-fem.mp3"," ","","pagou","","","",""
"","851","audio-keyboard-response","240","484694","0.0-3.0-1.191","../audio/45-4-fem.mp3"," ","","o","","","",""
"","1029","audio-keyboard-response","241","485990","0.0-3.0-1.192","../audio/45-5-fem.mp3"," ","","aluguel","","","",""
"","779","audio-keyboard-response","242","487030","0.0-3.0-1.193","../audio/45-6-fem.mp3"," ","","com","","","",""
"","1120","audio-keyboard-response","243","488422","0.0-3.0-1.194","../audio/45-7-fem.mp3"," ","","atraso.","","","",""
"","10973","html-keyboard-response","244","499653","0.0-3.0-2.194-0.194","<span style=""font-size:25px; font-family: monospace"">O homem pagou o aluguel em dia?</span>","n","","","O homem pagou o aluguel em dia?","null","exp-sent","false"
"","null","html-keyboard-response","245","501161","0.0-3.0-0.195-0.195","<span style= ""font-size:30px; font-family: monospace"">+</span>","null","fixation","","","","",""
"","240","audio-keyboard-response","246","501685","0.0-3.0-1.195","../audio/69-1-fem.mp3"," ","","A","","","",""
"","1011","audio-keyboard-response","247","502965","0.0-3.0-1.196","../audio/69-2-fem.mp3"," ","","loja","","","",""
"","1120","audio-keyboard-response","248","504356","0.0-3.0-1.197","../audio/69-3-fem.mp3"," ","","recebeu","","","",""
"","808","audio-keyboard-response","249","505429","0.0-3.0-1.198","../audio/69-4-fem.mp3"," ","","uma","","","",""
"","1059","audio-keyboard-response","250","506756","0.0-3.0-1.199","../audio/69-5-fem.mp3"," ","","poltrona","","","",""
"","931","audio-keyboard-response","251","507956","0.0-3.0-1.200","../audio/69-6-fem.mp3"," ","","de","","","",""
"","949","audio-keyboard-response","252","509189","0.0-3.0-1.201","../audio/69-7-fem.mp3"," ","","couro","","","",""
"","920","audio-keyboard-response","253","510389","0.0-3.0-1.202","../audio/69-8-fem.mp3"," ","","preto.","","","",""
"","null","html-keyboard-response","254","511656","0.0-3.0-0.203-0.203","<span style= ""font-size:30px; font-family: monospace"">+</span>","null","fixation","","","","",""
"","259","audio-keyboard-response","255","512196","0.0-3.0-1.203","../audio/66-1-masc.mp3"," ","","Não","","","",""
"","1019","audio-keyboard-response","256","513476","0.0-3.0-1.204","../audio/66-2-masc.mp3"," ","","gosto","","","",""
"","808","audio-keyboard-response","257","514549","0.0-3.0-1.205","../audio/66-3-masc.mp3"," ","","de","","","",""
"","1168","audio-keyboard-response","258","515989","0.0-3.0-1.206","../audio/66-4-masc.mp3"," ","","gente","","","",""
"","1309","audio-keyboard-response","259","517573","0.0-3.0-1.207","../audio/66-5-masc.mp3"," ","","egoísta","","","",""
"","901","audio-keyboard-response","260","518740","0.0-3.0-1.208","../audio/66-6-masc.mp3"," ","","nem","","","",""
"","1840","audio-keyboard-response","261","520853","0.0-3.0-1.209","../audio/66-7-masc.mp3"," ","","chata.","","","",""
"","null","html-keyboard-response","262","522125","0.0-3.0-0.210-0.210","<span style= ""font-size:30px; font-family: monospace"">+</span>","null","fixation","","","","",""
"","891","audio-keyboard-response","263","523301","0.0-3.0-1.210","../audio/67-1-masc.mp3"," ","","Minha","","","",""
"","819","audio-keyboard-response","264","524405","0.0-3.0-1.211","../audio/67-2-masc.mp3"," ","","tia","","","",""
"","1021","audio-keyboard-response","265","525701","0.0-3.0-1.212","../audio/67-3-masc.mp3"," ","","comprou","","","",""
"","851","audio-keyboard-response","266","526821","0.0-3.0-1.213","../audio/67-4-masc.mp3"," ","","um","","","",""
"","1179","audio-keyboard-response","267","528277","0.0-3.0-1.214","../audio/67-5-masc.mp3"," ","","cordão","","","",""
"","861","audio-keyboard-response","268","529413","0.0-3.0-1.215","../audio/67-6-masc.mp3"," ","","para","","","",""
"","709","audio-keyboard-response","269","530405","0.0-3.0-1.216","../audio/67-7-masc.mp3"," ","","o","","","",""
"","2400","audio-keyboard-response","270","533077","0.0-3.0-1.217","../audio/67-8-masc.mp3"," ","","varal.","","","",""
"","null","html-keyboard-response","271","534334","0.0-3.0-0.218-0.218","<span style= ""font-size:30px; font-family: monospace"">+</span>","null","fixation","","","","",""
"","880","audio-keyboard-response","272","535493","0.0-3.0-1.218","../audio/68-1-masc.mp3"," ","","Meu","","","",""
"","949","audio-keyboard-response","273","536725","0.0-3.0-1.219","../audio/68-2-masc.mp3"," ","","irmão","","","",""
"","920","audio-keyboard-response","274","537925","0.0-3.0-1.220","../audio/68-3-masc.mp3"," ","","teve","","","",""
"","861","audio-keyboard-response","275","539060","0.0-3.0-1.221","../audio/68-4-masc.mp3"," ","","um","","","",""
"","968","audio-keyboard-response","276","540309","0.0-3.0-1.222","../audio/68-5-masc.mp3"," ","","noivado","","","",""
"","1088","audio-keyboard-response","277","541669","0.0-3.0-1.223","../audio/68-6-masc.mp3"," ","","longo","","","",""
"","688","audio-keyboard-response","278","542629","0.0-3.0-1.224","../audio/68-7-masc.mp3"," ","","e","","","",""
"","1440","audio-keyboard-response","279","544341","0.0-3.0-1.225","../audio/68-8-masc.mp3"," ","","maravilhoso.","","","",""
"","null","html-keyboard-response","280","545592","0.0-3.0-0.226-0.226","<span style= ""font-size:30px; font-family: monospace"">+</span>","null","fixation","","","","",""
"","2280","audio-keyboard-response","281","548149","0.0-3.0-1.226","../audio/70-1-fem.mp3"," ","","O","","","",""
"","1179","audio-keyboard-response","282","549605","0.0-3.0-1.227","../audio/70-2-fem.mp3"," ","","meu","","","",""
"","1032","audio-keyboard-response","283","550900","0.0-3.0-1.228","../audio/70-3-fem.mp3"," ","","filho","","","",""
"","880","audio-keyboard-response","284","552053","0.0-3.0-1.229","../audio/70-4-fem.mp3"," ","","tem","","","",""
"","1171","audio-keyboard-response","285","553493","0.0-3.0-1.230","../audio/70-5-fem.mp3"," ","","medo","","","",""
"","1011","audio-keyboard-response","286","554773","0.0-3.0-1.231","../audio/70-6-fem.mp3"," ","","de","","","",""
"","1480","audio-keyboard-response","287","556533","0.0-3.0-1.232","../audio/70-7-fem.mp3"," ","","enguia","","","",""
"","811","audio-keyboard-response","288","557621","0.0-3.0-1.233","../audio/70-8-fem.mp3"," ","","e","","","",""
"","2259","audio-keyboard-response","289","560164","0.0-3.0-1.234","../audio/70-9-fem.mp3"," ","","beija-flor.","","","",""
"","18628","html-keyboard-response","290","579044","0.0-3.0-2.234-0.234","<span style=""font-size:25px; font-family: monospace"">O filho tem medo de tigre?</span>","n","","","O filho tem medo de tigre?","null","exp-sent","false"
"","null","html-keyboard-response","291","580560","0.0-3.0-0.235-0.235","<span style= ""font-size:30px; font-family: monospace"">+</span>","null","fixation","","","","",""
"","749","audio-keyboard-response","292","581604","0.0-3.0-1.235","../audio/01-1-masc.mp3"," ","","O","","","",""
"","1000","audio-keyboard-response","293","582868","0.0-3.0-1.236","../audio/01-2-masc.mp3"," ","","menino","","","",""
"","2619","audio-keyboard-response","294","585748","0.0-3.0-1.237","../audio/01-3-masc.mp3"," ","","derrubou","","","",""
"","859","audio-keyboard-response","295","586884","0.0-3.0-1.238","../audio/01-4-masc.mp3"," ","","a","","","",""
"","1131","audio-keyboard-response","296","588292","0.0-3.0-1.239","../audio/01-5-masc.mp3"," ","","guitarra","","","",""
"","651","audio-keyboard-response","297","589220","0.0-3.0-1.240","../audio/01-6-masc.mp3"," ","","no","","","",""
"","861","audio-keyboard-response","298","590340","0.0-3.0-1.241","../audio/01-7-masc.mp3"," ","","chão.","","","",""
"","null","html-keyboard-response","299","591595","0.0-3.0-0.242-0.242","<span style= ""font-size:30px; font-family: monospace"">+</span>","null","fixation","","","","",""
"","1021","audio-keyboard-response","300","592900","0.0-3.0-1.242","../audio/02-2-masc.mp3"," ","","Havia","","","",""
"","1491","audio-keyboard-response","301","594644","0.0-3.0-1.243","../audio/02-2-masc.mp3"," ","","um","","","",""
"","1181","audio-keyboard-response","302","596100","0.0-3.0-1.244","../audio/02-3-masc.mp3"," ","","cheiro","","","",""
"","1011","audio-keyboard-response","303","597380","0.0-3.0-1.245","../audio/02-4-masc.mp3"," ","","de","","","",""
"","1059","audio-keyboard-response","304","598708","0.0-3.0-1.246","../audio/02-5-masc.mp3"," ","","gasolina","","","",""
"","829","audio-keyboard-response","305","599812","0.0-3.0-1.247","../audio/02-6-masc.mp3"," ","","na","","","",""
"","949","audio-keyboard-response","306","601044","0.0-3.0-1.248","../audio/02-7-masc.mp3"," ","","garagem.","","","",""
"","null","html-keyboard-response","307","602308","0.0-3.0-0.249-0.249","<span style= ""font-size:30px; font-family: monospace"">+</span>","null","fixation","","","","",""
"","349","audio-keyboard-response","308","602932","0.0-3.0-1.249","../audio/03-1-masc.mp3"," ","","O","","","",""
"","1800","audio-keyboard-response","309","605012","0.0-3.0-1.250","../audio/03-2-masc.mp3"," ","","coelho","","","",""
"","829","audio-keyboard-response","310","606116","0.0-3.0-1.251","../audio/03-3-masc.mp3"," ","","foi","","","",""
"","1120","audio-keyboard-response","311","607524","0.0-3.0-1.252","../audio/03-4-masc.mp3"," ","","bastante","","","",""
"","1069","audio-keyboard-response","312","608868","0.0-3.0-1.253","../audio/03-5-masc.mp3"," ","","dócil","","","",""
"","848","audio-keyboard-response","313","609988","0.0-3.0-1.254","../audio/03-6-masc.mp3"," ","","com","","","",""
"","811","audio-keyboard-response","314","611076","0.0-3.0-1.255","../audio/03-7-masc.mp3"," ","","as","","","",""
"","1040","audio-keyboard-response","315","612388","0.0-3.0-1.256","../audio/03-8-masc.mp3"," ","","crianças.","","","",""
"","null","html-keyboard-response","316","613659","0.0-3.0-0.257-0.257","<span style= ""font-size:30px; font-family: monospace"">+</span>","null","fixation","","","","",""
"","1669","audio-keyboard-response","317","615604","0.0-3.0-1.257","../audio/04-1-masc.mp3"," ","","Duzentos","","","",""
"","1000","audio-keyboard-response","318","616884","0.0-3.0-1.258","../audio/04-2-masc.mp3"," ","","carros","","","",""
"","1051","audio-keyboard-response","319","618212","0.0-3.0-1.259","../audio/04-3-masc.mp3"," ","","passaram","","","",""
"","1080","audio-keyboard-response","320","619556","0.0-3.0-1.260","../audio/04-4-masc.mp3"," ","","pela","","","",""
"","1091","audio-keyboard-response","321","620915","0.0-3.0-1.261","../audio/04-5-masc.mp3"," ","","ponte","","","",""
"","960","audio-keyboard-response","322","622147","0.0-3.0-1.262","../audio/04-6-masc.mp3"," ","","hoje","","","",""
"","691","audio-keyboard-response","323","623123","0.0-3.0-1.263","../audio/04-7-masc.mp3"," ","","de","","","",""
"","1040","audio-keyboard-response","324","624435","0.0-3.0-1.264","../audio/04-8-masc.mp3"," ","","tarde.","","","",""
"","null","html-keyboard-response","325","625693","0.0-3.0-0.265-0.265","<span style= ""font-size:30px; font-family: monospace"">+</span>","null","fixation","","","","",""
"","739","audio-keyboard-response","326","626707","0.0-3.0-1.265","../audio/05-1-masc.mp3"," ","","A","","","",""
"","2152","audio-keyboard-response","327","629139","0.0-3.0-1.266","../audio/05-2-masc.mp3"," ","","vendedora","","","",""
"","1059","audio-keyboard-response","328","630483","0.0-3.0-1.267","../audio/05-3-masc.mp3"," ","","ajudou","","","",""
"","771","audio-keyboard-response","329","631539","0.0-3.0-1.268","../audio/05-4-masc.mp3"," ","","um","","","",""
"","1200","audio-keyboard-response","330","633011","0.0-3.0-1.269","../audio/05-5-masc.mp3"," ","","turista","","","",""
"","909","audio-keyboard-response","331","634195","0.0-3.0-1.270","../audio/05-6-masc.mp3"," ","","na","","","",""
"","1120","audio-keyboard-response","332","635587","0.0-3.0-1.271","../audio/05-7-masc.mp3"," ","","loja.","","","",""
"","9568","html-keyboard-response","333","645411","0.0-3.0-2.271-0.271","<span style=""font-size:25px; font-family: monospace"">A vendedora ajudou um turista?</span>","s","","","A vendedora ajudou um turista?","null","exp-sent","false"
"","null","html-keyboard-response","334","646925","0.0-3.0-0.272-0.272","<span style= ""font-size:30px; font-family: monospace"">+</span>","null","fixation","","","","",""
"","709","audio-keyboard-response","335","647923","0.0-3.0-1.272","../audio/22-1-fem.mp3"," ","","Eu","","","",""
"","1291","audio-keyboard-response","336","649491","0.0-3.0-1.273","../audio/22-2-fem.mp3"," ","","detesto","","","",""
"","1051","audio-keyboard-response","337","650819","0.0-3.0-1.274","../audio/22-3-fem.mp3"," ","","fumaça","","","",""
"","800","audio-keyboard-response","338","651891","0.0-3.0-1.275","../audio/22-4-fem.mp3"," ","","de","","","",""
"","1320","audio-keyboard-response","339","653491","0.0-3.0-1.276","../audio/22-5-fem.mp3"," ","","cachimbo","","","",""
"","1000","audio-keyboard-response","340","654771","0.0-3.0-1.277","../audio/22-6-fem.mp3"," ","","e","","","",""
"","821","audio-keyboard-response","341","655859","0.0-3.0-1.278","../audio/22-7-fem.mp3"," ","","de","","","",""
"","1480","audio-keyboard-response","342","657619","0.0-3.0-1.279","../audio/22-8-fem.mp3"," ","","cigarro.","","","",""
"","null","html-keyboard-response","343","658881","0.0-3.0-0.280-0.280","<span style= ""font-size:30px; font-family: monospace"">+</span>","null","fixation","","","","",""
"","731","audio-keyboard-response","344","659891","0.0-3.0-1.280","../audio/24-1-fem.mp3"," ","","As","","","",""
"","1069","audio-keyboard-response","345","661251","0.0-3.0-1.281","../audio/24-2-fem.mp3"," ","","crianças","","","",""
"","779","audio-keyboard-response","346","662307","0.0-3.0-1.282","../audio/24-3-fem.mp3"," ","","vão","","","",""
"","1139","audio-keyboard-response","347","663715","0.0-3.0-1.283","../audio/24-4-fem.mp3"," ","","ao","","","",""
"","1349","audio-keyboard-response","348","665331","0.0-3.0-1.284","../audio/24-5-fem.mp3"," ","","cinema","","","",""
"","981","audio-keyboard-response","349","666579","0.0-3.0-1.285","../audio/24-6-fem.mp3"," ","","mais","","","",""
"","1280","audio-keyboard-response","350","668131","0.0-3.0-1.286","../audio/24-7-fem.mp3"," ","","tarde.","","","",""
"","null","html-keyboard-response","351","669396","0.0-3.0-0.287-0.287","<span style= ""font-size:30px; font-family: monospace"">+</span>","null","fixation","","","","",""
"","1760","audio-keyboard-response","352","671427","0.0-3.0-1.287","../audio/21-1-masc.mp3"," ","","Precisamos","","","",""
"","779","audio-keyboard-response","353","672483","0.0-3.0-1.288","../audio/21-2-masc.mp3"," ","","de","","","",""
"","1131","audio-keyboard-response","354","673891","0.0-3.0-1.289","../audio/21-3-masc.mp3"," ","","paciência","","","",""
"","851","audio-keyboard-response","355","675011","0.0-3.0-1.290","../audio/21-4-masc.mp3"," ","","e","","","",""
"","1291","audio-keyboard-response","356","676579","0.0-3.0-1.291","../audio/21-5-masc.mp3"," ","","bondade","","","",""
"","1040","audio-keyboard-response","357","677891","0.0-3.0-1.292","../audio/21-6-masc.mp3"," ","","para","","","",""
"","760","audio-keyboard-response","358","678931","0.0-3.0-1.293","../audio/21-7-masc.mp3"," ","","um","","","",""
"","1109","audio-keyboard-response","359","680323","0.0-3.0-1.294","../audio/21-8-masc.mp3"," ","","mundo","","","",""
"","2621","audio-keyboard-response","360","683217","0.0-3.0-1.295","../audio/21-9-masc.mp3"," ","","melhor.","","","",""
"","null","html-keyboard-response","361","684485","0.0-3.0-0.296-0.296","<span style= ""font-size:30px; font-family: monospace"">+</span>","null","fixation","","","","",""
"","1371","audio-keyboard-response","362","686129","0.0-3.0-1.296","../audio/23-1-masc.mp3"," ","","Português","","","",""
"","880","audio-keyboard-response","363","687281","0.0-3.0-1.297","../audio/23-2-masc.mp3"," ","","é","","","",""
"","840","audio-keyboard-response","364","688385","0.0-3.0-1.298","../audio/23-3-masc.mp3"," ","","um","","","",""
"","1219","audio-keyboard-response","365","689873","0.0-3.0-1.299","../audio/23-4-masc.mp3"," ","","assunto","","","",""
"","1811","audio-keyboard-response","366","691969","0.0-3.0-1.300","../audio/23-5-masc.mp3"," ","","elementar","","","",""
"","939","audio-keyboard-response","367","693185","0.0-3.0-1.301","../audio/23-6-masc.mp3"," ","","para","","","",""
"","1019","audio-keyboard-response","368","694481","0.0-3.0-1.302","../audio/23-7-masc.mp3"," ","","os","","","",""
"","1160","audio-keyboard-response","369","695905","0.0-3.0-1.303","../audio/23-8-masc.mp3"," ","","alunos.","","","",""
"","null","html-keyboard-response","370","697161","0.0-3.0-0.304-0.304","<span style= ""font-size:30px; font-family: monospace"">+</span>","null","fixation","","","","",""
"","851","audio-keyboard-response","371","698289","0.0-3.0-1.304","../audio/25-1-masc.mp3"," ","","Ela","","","",""
"","1280","audio-keyboard-response","372","699841","0.0-3.0-1.305","../audio/25-2-masc.mp3"," ","","faz","","","",""
"","952","audio-keyboard-response","373","701057","0.0-3.0-1.306","../audio/25-3-masc.mp3"," ","","tanto","","","",""
"","1299","audio-keyboard-response","374","702625","0.0-3.0-1.307","../audio/25-4-masc.mp3"," ","","cabelo","","","",""
"","1059","audio-keyboard-response","375","703953","0.0-3.0-1.308","../audio/25-5-masc.mp3"," ","","liso","","","",""
"","1059","audio-keyboard-response","376","705281","0.0-3.0-1.309","../audio/25-6-masc.mp3"," ","","quanto","","","",""
"","1211","audio-keyboard-response","377","706755","0.0-3.0-1.310","../audio/25-7-masc.mp3"," ","","cacheado.","","","",""
"","14296","html-keyboard-response","378","721313","0.0-3.0-2.310-0.310","<span style=""font-size:25px; font-family: monospace"">Ela só faz cabelo cacheado?</span>","s","","","Ela só faz cabelo cacheado?","null","exp-sent","false"
"","null","html-keyboard-response","379","722825","0.0-3.0-0.311-0.311","<span style= ""font-size:30px; font-family: monospace"">+</span>","null","fixation","","","","",""
"","771","audio-keyboard-response","380","723873","0.0-3.0-1.311","../audio/18-1-masc.mp3"," ","","O","","","",""
"","1280","audio-keyboard-response","381","725425","0.0-3.0-1.312","../audio/18-2-masc.mp3"," ","","enredo","","","",""
"","928","audio-keyboard-response","382","726625","0.0-3.0-1.313","../audio/18-3-masc.mp3"," ","","traz","","","",""
"","800","audio-keyboard-response","383","727697","0.0-3.0-1.314","../audio/18-4-masc.mp3"," ","","um","","","",""
"","1069","audio-keyboard-response","384","729041","0.0-3.0-1.315","../audio/18-5-masc.mp3"," ","","dragão","","","",""
"","760","audio-keyboard-response","385","730081","0.0-3.0-1.316","../audio/18-6-masc.mp3"," ","","forte","","","",""
"","920","audio-keyboard-response","386","731281","0.0-3.0-1.317","../audio/18-7-masc.mp3"," ","","e","","","",""
"","1200","audio-keyboard-response","387","732753","0.0-3.0-1.318","../audio/18-8-masc.mp3"," ","","solitário.","","","",""
"","null","html-keyboard-response","388","734021","0.0-3.0-0.319-0.319","<span style= ""font-size:30px; font-family: monospace"">+</span>","null","fixation","","","","",""
"","640","audio-keyboard-response","389","734929","0.0-3.0-1.319","../audio/19-1-fem.mp3"," ","","O","","","",""
"","939","audio-keyboard-response","390","736145","0.0-3.0-1.320","../audio/19-2-fem.mp3"," ","","menino","","","",""
"","1131","audio-keyboard-response","391","737553","0.0-3.0-1.321","../audio/19-3-fem.mp3"," ","","ganhou","","","",""
"","851","audio-keyboard-response","392","738673","0.0-3.0-1.322","../audio/19-4-fem.mp3"," ","","uma","","","",""
"","912","audio-keyboard-response","393","739857","0.0-3.0-1.323","../audio/19-5-fem.mp3"," ","","bala","","","",""
"","1179","audio-keyboard-response","394","741313","0.0-3.0-1.324","../audio/19-6-fem.mp3"," ","","depois","","","",""
"","891","audio-keyboard-response","395","742481","0.0-3.0-1.325","../audio/19-7-fem.mp3"," ","","do","","","",""
"","1272","audio-keyboard-response","396","744016","0.0-3.0-1.326","../audio/19-8-fem.mp3"," ","","almoço.","","","",""
"","null","html-keyboard-response","397","745280","0.0-3.0-0.327-0.327","<span style= ""font-size:30px; font-family: monospace"">+</span>","null","fixation","","","","",""
"","880","audio-keyboard-response","398","746432","0.0-3.0-1.327","../audio/16-1-masc.mp3"," ","","Eu","","","",""
"","949","audio-keyboard-response","399","747648","0.0-3.0-1.328","../audio/16-2-masc.mp3"," ","","nunca","","","",""
"","1099","audio-keyboard-response","400","749024","0.0-3.0-1.329","../audio/16-3-masc.mp3"," ","","conheci","","","",""
"","779","audio-keyboard-response","401","750080","0.0-3.0-1.330","../audio/16-4-masc.mp3"," ","","um","","","",""
"","1192","audio-keyboard-response","402","751536","0.0-3.0-1.331","../audio/16-5-masc.mp3"," ","","general","","","",""
"","939","audio-keyboard-response","403","752752","0.0-3.0-1.332","../audio/16-6-masc.mp3"," ","","do","","","",""
"","1379","audio-keyboard-response","404","754400","0.0-3.0-1.333","../audio/16-7-masc.mp3"," ","","exército.","","","",""
"","null","html-keyboard-response","405","755660","0.0-3.0-0.334-0.334","<span style= ""font-size:30px; font-family: monospace"">+</span>","null","fixation","","","","",""
"","1309","audio-keyboard-response","406","757248","0.0-3.0-1.334","../audio/17-1-fem.mp3"," ","","Falaram","","","",""
"","1021","audio-keyboard-response","407","758528","0.0-3.0-1.335","../audio/17-2-fem.mp3"," ","","da","","","",""
"","1000","audio-keyboard-response","408","759808","0.0-3.0-1.336","../audio/17-3-fem.mp3"," ","","lei","","","",""
"","920","audio-keyboard-response","409","761008","0.0-3.0-1.337","../audio/17-4-fem.mp3"," ","","no","","","",""
"","1451","audio-keyboard-response","410","762736","0.0-3.0-1.338","../audio/17-5-fem.mp3"," ","","ministério","","","",""
"","1120","audio-keyboard-response","411","764128","0.0-3.0-1.339","../audio/17-6-fem.mp3"," ","","diversas","","","",""
"","1080","audio-keyboard-response","412","765488","0.0-3.0-1.340","../audio/17-7-fem.mp3"," ","","vezes.","","","",""
"","null","html-keyboard-response","413","766755","0.0-3.0-0.341-0.341","<span style= ""font-size:30px; font-family: monospace"">+</span>","null","fixation","","","","",""
"","1171","audio-keyboard-response","414","768192","0.0-3.0-1.341","../audio/20-1-fem.mp3"," ","","O","","","",""
"","1101","audio-keyboard-response","415","769568","0.0-3.0-1.342","../audio/20-2-fem.mp3"," ","","colega","","","",""
"","1349","audio-keyboard-response","416","771200","0.0-3.0-1.343","../audio/20-3-fem.mp3"," ","","parecia","","","",""
"","1229","audio-keyboard-response","417","772704","0.0-3.0-1.344","../audio/20-4-fem.mp3"," ","","muito","","","",""
"","1320","audio-keyboard-response","418","774304","0.0-3.0-1.345","../audio/20-5-fem.mp3"," ","","gripado","","","",""
"","960","audio-keyboard-response","419","775536","0.0-3.0-1.346","../audio/20-6-fem.mp3"," ","","no","","","",""
"","1091","audio-keyboard-response","420","776896","0.0-3.0-1.347","../audio/20-7-fem.mp3"," ","","dia","","","",""
"","1869","audio-keyboard-response","421","779040","0.0-3.0-1.348","../audio/20-8-fem.mp3"," ","","anterior.","","","",""
"","11633","html-keyboard-response","422","790928","0.0-3.0-2.348-0.348","<span style=""font-size:25px; font-family: monospace"">O colega parecia muito gripado?</span>","s","","","O colega parecia muito gripado?","null","exp-sent","false"
"","null","html-keyboard-response","423","792453","0.0-3.0-0.349-0.349","<span style= ""font-size:30px; font-family: monospace"">+</span>","null","fixation","","","","",""
"","1061","audio-keyboard-response","424","793808","0.0-3.0-1.349","../audio/29-1-masc.mp3"," ","","Hoje","","","",""
"","1141","audio-keyboard-response","425","795216","0.0-3.0-1.350","../audio/29-2-masc.mp3"," ","","vamos","","","",""
"","1859","audio-keyboard-response","426","797360","0.0-3.0-1.351","../audio/29-3-masc.mp3"," ","","fazer","","","",""
"","1120","audio-keyboard-response","427","798752","0.0-3.0-1.352","../audio/29-4-masc.mp3"," ","","uma","","","",""
"","1451","audio-keyboard-response","428","800480","0.0-3.0-1.353","../audio/29-5-masc.mp3"," ","","atividade","","","",""
"","1112","audio-keyboard-response","429","801856","0.0-3.0-1.354","../audio/29-6-masc.mp3"," ","","sobre","","","",""
"","1059","audio-keyboard-response","430","803200","0.0-3.0-1.355","../audio/29-7-masc.mp3"," ","","fauna","","","",""
"","1240","audio-keyboard-response","431","804895","0.0-3.0-1.356","../audio/29-8-masc.mp3"," ","","marinha.","","","",""
"","null","html-keyboard-response","432","806150","0.0-3.0-0.357-0.357","<span style= ""font-size:30px; font-family: monospace"">+</span>","null","fixation","","","","",""
"","800","audio-keyboard-response","433","807231","0.0-3.0-1.357","../audio/28-1-masc.mp3"," ","","O","","","",""
"","1200","audio-keyboard-response","434","808703","0.0-3.0-1.358","../audio/28-2-masc.mp3"," ","","time","","","",""
"","2899","audio-keyboard-response","435","811871","0.0-3.0-1.359","../audio/28-3-masc.mp3"," ","","quer","","","",""
"","931","audio-keyboard-response","436","813071","0.0-3.0-1.360","../audio/28-4-masc.mp3"," ","","a","","","",""
"","1120","audio-keyboard-response","437","814479","0.0-3.0-1.361","../audio/28-5-masc.mp3"," ","","vitória","","","",""
"","1360","audio-keyboard-response","438","816111","0.0-3.0-1.362","../audio/28-6-masc.mp3"," ","","no","","","",""
"","1080","audio-keyboard-response","439","817455","0.0-3.0-1.363","../audio/28-7-masc.mp3"," ","","jogo","","","",""
"","800","audio-keyboard-response","440","818527","0.0-3.0-1.364","../audio/28-8-masc.mp3"," ","","de","","","",""
"","1141","audio-keyboard-response","441","819935","0.0-3.0-1.365","../audio/28-9-masc.mp3"," ","","vôlei.","","","",""
"","null","html-keyboard-response","442","821202","0.0-3.0-0.366-0.366","<span style= ""font-size:30px; font-family: monospace"">+</span>","null","fixation","","","","",""
"","781","audio-keyboard-response","443","822255","0.0-3.0-1.366","../audio/27-1-fem.mp3"," ","","O","","","",""
"","1029","audio-keyboard-response","444","823551","0.0-3.0-1.367","../audio/27-2-fem.mp3"," ","","dinheiro","","","",""
"","992","audio-keyboard-response","445","824815","0.0-3.0-1.368","../audio/27-3-fem.mp3"," ","","chegou","","","",""
"","640","audio-keyboard-response","446","825727","0.0-3.0-1.369","../audio/27-4-fem.mp3"," ","","à","","","",""
"","880","audio-keyboard-response","447","826879","0.0-3.0-1.370","../audio/27-5-fem.mp3"," ","","elite","","","",""
"","1171","audio-keyboard-response","448","828319","0.0-3.0-1.371","../audio/27-6-fem.mp3"," ","","deste","","","",""
"","1000","audio-keyboard-response","449","829583","0.0-3.0-1.372","../audio/27-7-fem.mp3"," ","","país.","","","",""
"","null","html-keyboard-response","450","830849","0.0-3.0-0.373-0.373","<span style= ""font-size:30px; font-family: monospace"">+</span>","null","fixation","","","","",""
"","931","audio-keyboard-response","451","832047","0.0-3.0-1.373","../audio/26-1-masc.mp3"," ","","Amanhã","","","",""
"","1160","audio-keyboard-response","452","833487","0.0-3.0-1.374","../audio/26-2-masc.mp3"," ","","temos","","","",""
"","1531","audio-keyboard-response","453","835279","0.0-3.0-1.375","../audio/26-3-masc.mp3"," ","","festa","","","",""
"","851","audio-keyboard-response","454","836399","0.0-3.0-1.376","../audio/26-4-masc.mp3"," ","","na","","","",""
"","989","audio-keyboard-response","455","837663","0.0-3.0-1.377","../audio/26-5-masc.mp3"," ","","piscina","","","",""
"","741","audio-keyboard-response","456","838687","0.0-3.0-1.378","../audio/26-6-masc.mp3"," ","","o","","","",""
"","880","audio-keyboard-response","457","839839","0.0-3.0-1.379","../audio/26-7-masc.mp3"," ","","dia","","","",""
"","971","audio-keyboard-response","458","841071","0.0-3.0-1.380","../audio/26-8-masc.mp3"," ","","todo.","","","",""
"","null","html-keyboard-response","459","842335","0.0-3.0-0.381-0.381","<span style= ""font-size:30px; font-family: monospace"">+</span>","null","fixation","","","","",""
"","859","audio-keyboard-response","460","843471","0.0-3.0-1.381","../audio/30-1-masc.mp3"," ","","O","","","",""
"","1011","audio-keyboard-response","461","844751","0.0-3.0-1.382","../audio/30-2-masc.mp3"," ","","funcionário","","","",""
"","1171","audio-keyboard-response","462","846190","0.0-3.0-1.383","../audio/30-3-masc.mp3"," ","","entregou","","","",""
"","1131","audio-keyboard-response","463","847599","0.0-3.0-1.384","../audio/30-4-masc.mp3"," ","","o","","","",""
"","1272","audio-keyboard-response","464","849135","0.0-3.0-1.385","../audio/30-5-masc.mp3"," ","","restante","","","",""
"","1221","audio-keyboard-response","465","850655","0.0-3.0-1.386","../audio/30-6-masc.mp3"," ","","do","","","",""
"","1149","audio-keyboard-response","466","852079","0.0-3.0-1.387","../audio/30-7-masc.mp3"," ","","dinheiro.","","","",""
"","9723","html-keyboard-response","467","862063","0.0-3.0-2.387-0.387","<span style=""font-size:25px; font-family: monospace"">O funcionário entregou o contrato?</span>","s","","","O funcionário entregou o contrato?","null","exp-sent","false"
"","null","html-keyboard-response","468","863579","0.0-3.0-0.388-0.388","<span style= ""font-size:30px; font-family: monospace"">+</span>","null","fixation","","","","",""
"","1219","audio-keyboard-response","469","865070","0.0-3.0-1.388","../audio/72-1-fem.mp3"," ","","A","","","",""
"","1520","audio-keyboard-response","470","866862","0.0-3.0-1.389","../audio/72-2-fem.mp3"," ","","vencedora","","","",""
"","1211","audio-keyboard-response","471","868350","0.0-3.0-1.390","../audio/72-3-fem.mp3"," ","","recebeu","","","",""
"","800","audio-keyboard-response","472","869422","0.0-3.0-1.391","../audio/72-4-fem.mp3"," ","","um","","","",""
"","920","audio-keyboard-response","473","870606","0.0-3.0-1.392","../audio/72-5-fem.mp3"," ","","prêmio","","","",""
"","800","audio-keyboard-response","474","871678","0.0-3.0-1.393","../audio/72-6-fem.mp3"," ","","em","","","",""
"","1851","audio-keyboard-response","475","873790","0.0-3.0-1.394","../audio/72-7-fem.mp3"," ","","dinheiro.","","","",""
"","null","html-keyboard-response","476","875041","0.0-3.0-0.395-0.395","<span style= ""font-size:30px; font-family: monospace"">+</span>","null","fixation","","","","",""
"","920","audio-keyboard-response","477","876238","0.0-3.0-1.395","../audio/74-1-masc.mp3"," ","","Este","","","",""
"","1011","audio-keyboard-response","478","877518","0.0-3.0-1.396","../audio/74-2-masc.mp3"," ","","emprego","","","",""
"","811","audio-keyboard-response","479","878589","0.0-3.0-1.397","../audio/74-3-masc.mp3"," ","","é","","","",""
"","771","audio-keyboard-response","480","879629","0.0-3.0-1.398","../audio/74-4-masc.mp3"," ","","muito","","","",""
"","1232","audio-keyboard-response","481","881134","0.0-3.0-1.399","../audio/74-5-masc.mp3"," ","","cansativo","","","",""
"","589","audio-keyboard-response","482","881997","0.0-3.0-1.400","../audio/74-6-masc.mp3"," ","","a","","","",""
"","1000","audio-keyboard-response","483","883261","0.0-3.0-1.401","../audio/74-7-masc.mp3"," ","","longo","","","",""
"","989","audio-keyboard-response","484","884526","0.0-3.0-1.402","../audio/74-8-masc.mp3"," ","","prazo.","","","",""
"","null","html-keyboard-response","485","885787","0.0-3.0-0.403-0.403","<span style= ""font-size:30px; font-family: monospace"">+</span>","null","fixation","","","","",""
"","672","audio-keyboard-response","486","886733","0.0-3.0-1.403","../audio/73-1-masc.mp3"," ","","O","","","",""
"","1029","audio-keyboard-response","487","888030","0.0-3.0-1.404","../audio/73-2-masc.mp3"," ","","cliente","","","",""
"","931","audio-keyboard-response","488","889229","0.0-3.0-1.405","../audio/73-3-masc.mp3"," ","","era","","","",""
"","771","audio-keyboard-response","489","890270","0.0-3.0-1.406","../audio/73-4-masc.mp3"," ","","um","","","",""
"","939","audio-keyboard-response","490","891469","0.0-3.0-1.407","../audio/73-5-masc.mp3"," ","","homem","","","",""
"","949","audio-keyboard-response","491","892685","0.0-3.0-1.408","../audio/73-6-masc.mp3"," ","","muito","","","",""
"","1221","audio-keyboard-response","492","894174","0.0-3.0-1.409","../audio/73-7-masc.mp3"," ","","educado.","","","",""
"","null","html-keyboard-response","493","895441","0.0-3.0-0.410-0.410","<span style= ""font-size:30px; font-family: monospace"">+</span>","null","fixation","","","","",""
"","811","audio-keyboard-response","494","896526","0.0-3.0-1.410","../audio/71-1-fem.mp3"," ","","Minhas","","","",""
"","989","audio-keyboard-response","495","897790","0.0-3.0-1.411","../audio/71-2-fem.mp3"," ","","comidas","","","",""
"","992","audio-keyboard-response","496","899054","0.0-3.0-1.412","../audio/71-3-fem.mp3"," ","","favoritas","","","",""
"","1029","audio-keyboard-response","497","900365","0.0-3.0-1.413","../audio/71-4-fem.mp3"," ","","são","","","",""
"","931","audio-keyboard-response","498","901566","0.0-3.0-1.414","../audio/71-5-fem.mp3"," ","","morango","","","",""
"","731","audio-keyboard-response","499","902558","0.0-3.0-1.415","../audio/71-6-fem.mp3"," ","","e","","","",""
"","1120","audio-keyboard-response","500","903950","0.0-3.0-1.416","../audio/71-7-fem.mp3"," ","","uva.","","","",""
"","null","html-keyboard-response","501","905217","0.0-3.0-0.417-0.417","<span style= ""font-size:30px; font-family: monospace"">+</span>","null","fixation","","","","",""
"","1560","audio-keyboard-response","502","907054","0.0-3.0-1.417","../audio/75-1-masc.mp3"," ","","Só","","","",""
"","1059","audio-keyboard-response","503","908382","0.0-3.0-1.418","../audio/75-2-masc.mp3"," ","","existe","","","",""
"","829","audio-keyboard-response","504","909486","0.0-3.0-1.419","../audio/75-3-masc.mp3"," ","","uma","","","",""
"","1029","audio-keyboard-response","505","910782","0.0-3.0-1.420","../audio/75-4-masc.mp3"," ","","pessoa","","","",""
"","1469","audio-keyboard-response","506","912509","0.0-3.0-1.421","../audio/75-5-masc.mp3"," ","","canhota","","","",""
"","1011","audio-keyboard-response","507","913790","0.0-3.0-1.422","../audio/75-6-masc.mp3"," ","","nesta","","","",""
"","1131","audio-keyboard-response","508","915198","0.0-3.0-1.423","../audio/75-7-masc.mp3"," ","","cidade.","","","",""
"","19396","html-keyboard-response","509","934844","0.0-3.0-2.423-0.423","<span style=""font-size:25px; font-family: monospace"">Só existe uma pessoa canhota na cidade?</span>","s","","","Só existe uma pessoa canhota na cidade?","null","exp-sent","false"
"","null","html-keyboard-response","510","936372","0.0-3.0-0.424-0.424","<span style= ""font-size:30px; font-family: monospace"">+</span>","null","fixation","","","","",""
"","699","audio-keyboard-response","511","937356","0.0-3.0-1.424","../audio/46-1-masc.mp3"," ","","Meu","","","",""
"","1040","audio-keyboard-response","512","938668","0.0-3.0-1.425","../audio/46-2-masc.mp3"," ","","primo","","","",""
"","939","audio-keyboard-response","513","939868","0.0-3.0-1.426","../audio/46-3-masc.mp3"," ","","estava","","","",""
"","840","audio-keyboard-response","514","940972","0.0-3.0-1.427","../audio/46-4-masc.mp3"," ","","muito","","","",""
"","1299","audio-keyboard-response","515","942540","0.0-3.0-1.428","../audio/46-5-masc.mp3"," ","","deprimido","","","",""
"","779","audio-keyboard-response","516","943596","0.0-3.0-1.429","../audio/46-6-masc.mp3"," ","","no","","","",""
"","1032","audio-keyboard-response","517","944892","0.0-3.0-1.430","../audio/46-7-masc.mp3"," ","","inverno.","","","",""
"","null","html-keyboard-response","518","946157","0.0-3.0-0.431-0.431","<span style= ""font-size:30px; font-family: monospace"">+</span>","null","fixation","","","","",""
"","1320","audio-keyboard-response","519","947740","0.0-3.0-1.431","../audio/48-1-masc.mp3"," ","","Ela","","","",""
"","829","audio-keyboard-response","520","948844","0.0-3.0-1.432","../audio/48-2-masc.mp3"," ","","come","","","",""
"","931","audio-keyboard-response","521","950044","0.0-3.0-1.433","../audio/48-3-masc.mp3"," ","","feijão","","","",""
"","851","audio-keyboard-response","522","951164","0.0-3.0-1.434","../audio/48-4-masc.mp3"," ","","com","","","",""
"","949","audio-keyboard-response","523","952396","0.0-3.0-1.435","../audio/48-5-masc.mp3"," ","","arroz","","","",""
"","880","audio-keyboard-response","524","953548","0.0-3.0-1.436","../audio/48-6-masc.mp3"," ","","todos","","","",""
"","800","audio-keyboard-response","525","954620","0.0-3.0-1.437","../audio/48-7-masc.mp3"," ","","os","","","",""
"","899","audio-keyboard-response","526","955788","0.0-3.0-1.438","../audio/48-8-masc.mp3"," ","","dias.","","","",""
"","null","html-keyboard-response","527","957049","0.0-3.0-0.439-0.439","<span style= ""font-size:30px; font-family: monospace"">+</span>","null","fixation","","","","",""
"","1179","audio-keyboard-response","528","958508","0.0-3.0-1.439","../audio/47-1-fem.mp3"," ","","O","","","",""
"","781","audio-keyboard-response","529","959564","0.0-3.0-1.440","../audio/47-2-fem.mp3"," ","","tio","","","",""
"","1099","audio-keyboard-response","530","960940","0.0-3.0-1.441","../audio/47-3-fem.mp3"," ","","recusou","","","",""
"","659","audio-keyboard-response","531","961868","0.0-3.0-1.442","../audio/47-4-fem.mp3"," ","","a","","","",""
"","1120","audio-keyboard-response","532","963276","0.0-3.0-1.443","../audio/47-5-fem.mp3"," ","","sobremesa","","","",""
"","781","audio-keyboard-response","533","964332","0.0-3.0-1.444","../audio/47-6-fem.mp3"," ","","no","","","",""
"","1059","audio-keyboard-response","534","965660","0.0-3.0-1.445","../audio/47-7-fem.mp3"," ","","almoço.","","","",""
"","null","html-keyboard-response","535","966923","0.0-3.0-0.446-0.446","<span style= ""font-size:30px; font-family: monospace"">+</span>","null","fixation","","","","",""
"","811","audio-keyboard-response","536","968012","0.0-3.0-1.446","../audio/49-1-fem.mp3"," ","","Eu","","","",""
"","800","audio-keyboard-response","537","969084","0.0-3.0-1.447","../audio/49-2-fem.mp3"," ","","quero","","","",""
"","821","audio-keyboard-response","538","970172","0.0-3.0-1.448","../audio/49-3-fem.mp3"," ","","um","","","",""
"","1229","audio-keyboard-response","539","971676","0.0-3.0-1.449","../audio/49-4-fem.mp3"," ","","lanche","","","",""
"","1411","audio-keyboard-response","540","973356","0.0-3.0-1.450","../audio/49-5-fem.mp3"," ","","duplo","","","",""
"","851","audio-keyboard-response","541","974476","0.0-3.0-1.451","../audio/49-6-fem.mp3"," ","","e","","","",""
"","781","audio-keyboard-response","542","975532","0.0-3.0-1.452","../audio/49-7-fem.mp3"," ","","um","","","",""
"","1299","audio-keyboard-response","543","977100","0.0-3.0-1.453","../audio/49-8-fem.mp3"," ","","suco.","","","",""
"","null","html-keyboard-response","544","978361","0.0-3.0-0.454-0.454","<span style= ""font-size:30px; font-family: monospace"">+</span>","null","fixation","","","","",""
"","949","audio-keyboard-response","545","979596","0.0-3.0-1.454","../audio/50-1-fem.mp3"," ","","O","","","",""
"","1261","audio-keyboard-response","546","981132","0.0-3.0-1.455","../audio/50-2-fem.mp3"," ","","pássaro","","","",""
"","1099","audio-keyboard-response","547","982508","0.0-3.0-1.456","../audio/50-3-fem.mp3"," ","","fugiu","","","",""
"","741","audio-keyboard-response","548","983532","0.0-3.0-1.457","../audio/50-4-fem.mp3"," ","","da","","","",""
"","1109","audio-keyboard-response","549","984908","0.0-3.0-1.458","../audio/50-5-fem.mp3"," ","","gaiola","","","",""
"","880","audio-keyboard-response","550","986060","0.0-3.0-1.459","../audio/50-6-fem.mp3"," ","","pela","","","",""
"","1541","audio-keyboard-response","551","987884","0.0-3.0-1.460","../audio/50-7-fem.mp3"," ","","portinhola.","","","",""
"","13635","html-keyboard-response","552","1001771","0.0-3.0-2.460-0.460","<span style=""font-size:25px; font-family: monospace"">O pássaro fugiu da gaiola?</span>","n","","","O pássaro fugiu da gaiola?","null","exp-sent","false"
"","null","html-keyboard-response","553","1003276","0.0-3.0-0.461-0.461","<span style= ""font-size:30px; font-family: monospace"">+</span>","null","fixation","","","","",""
"","11200","audio-keyboard-response","554","1014763","0.0-3.0-1.461","../audio/07-1-masc.mp3"," ","","Meu","","","",""
"","920","audio-keyboard-response","555","1015947","0.0-3.0-1.462","../audio/07-2-masc.mp3"," ","","filho","","","",""
"","699","audio-keyboard-response","556","1016907","0.0-3.0-1.463","../audio/07-3-masc.mp3"," ","","é","","","",""
"","960","audio-keyboard-response","557","1018139","0.0-3.0-1.464","../audio/07-4-masc.mp3"," ","","muito","","","",""
"","1131","audio-keyboard-response","558","1019547","0.0-3.0-1.465","../audio/07-5-masc.mp3"," ","","responsável","","","",""
"","979","audio-keyboard-response","559","1020795","0.0-3.0-1.466","../audio/07-6-masc.mp3"," ","","nos","","","",""
"","1112","audio-keyboard-response","560","1022171","0.0-3.0-1.467","../audio/07-7-masc.mp3"," ","","estudos.","","","",""
"","null","html-keyboard-response","561","1023423","0.0-3.0-0.468-0.468","<span style= ""font-size:30px; font-family: monospace"">+</span>","null","fixation","","","","",""
"","680","audio-keyboard-response","562","1024379","0.0-3.0-1.468","../audio/09-1-fem.mp3"," ","","O","","","",""
"","1061","audio-keyboard-response","563","1025723","0.0-3.0-1.469","../audio/09-2-fem.mp3"," ","","rapaz","","","",""
"","1000","audio-keyboard-response","564","1026987","0.0-3.0-1.470","../audio/09-3-fem.mp3"," ","","limpou","","","",""
"","699","audio-keyboard-response","565","1027947","0.0-3.0-1.471","../audio/09-4-fem.mp3"," ","","o","","","",""
"","1029","audio-keyboard-response","566","1029259","0.0-3.0-1.472","../audio/09-5-fem.mp3"," ","","terreno","","","",""
"","800","audio-keyboard-response","567","1030331","0.0-3.0-1.473","../audio/09-6-fem.mp3"," ","","com","","","",""
"","829","audio-keyboard-response","568","1031419","0.0-3.0-1.474","../audio/09-7-fem.mp3"," ","","uma","","","",""
"","819","audio-keyboard-response","569","1032507","0.0-3.0-1.475","../audio/09-8-fem.mp3"," ","","pá.","","","",""
"","null","html-keyboard-response","570","1033772","0.0-3.0-0.476-0.476","<span style= ""font-size:30px; font-family: monospace"">+</span>","null","fixation","","","","",""
"","680","audio-keyboard-response","571","1034731","0.0-3.0-1.476","../audio/08-1-masc.mp3"," ","","A","","","",""
"","1229","audio-keyboard-response","572","1036235","0.0-3.0-1.477","../audio/08-2-masc.mp3"," ","","receita","","","",""
"","941","audio-keyboard-response","573","1037451","0.0-3.0-1.478","../audio/08-3-masc.mp3"," ","","pede","","","",""
"","851","audio-keyboard-response","574","1038571","0.0-3.0-1.479","../audio/08-4-masc.mp3"," ","","um","","","",""
"","1059","audio-keyboard-response","575","1039899","0.0-3.0-1.480","../audio/08-5-masc.mp3"," ","","litro","","","",""
"","739","audio-keyboard-response","576","1040907","0.0-3.0-1.481","../audio/08-6-masc.mp3"," ","","de","","","",""
"","1021","audio-keyboard-response","577","1042203","0.0-3.0-1.482","../audio/08-7-masc.mp3"," ","","leite","","","",""
"","1120","audio-keyboard-response","578","1043596","0.0-3.0-1.483","../audio/08-8-masc.mp3"," ","","integral.","","","",""
"","null","html-keyboard-response","579","1044862","0.0-3.0-0.484-0.484","<span style= ""font-size:30px; font-family: monospace"">+</span>","null","fixation","","","","",""
"","1352","audio-keyboard-response","580","1046491","0.0-3.0-1.484","../audio/06-1-masc.mp3"," ","","Ouvimos","","","",""
"","899","audio-keyboard-response","581","1047659","0.0-3.0-1.485","../audio/06-2-masc.mp3"," ","","a","","","",""
"","960","audio-keyboard-response","582","1048891","0.0-3.0-1.486","../audio/06-3-masc.mp3"," ","","fala","","","",""
"","960","audio-keyboard-response","583","1050123","0.0-3.0-1.487","../audio/06-4-masc.mp3"," ","","do","","","",""
"","1109","audio-keyboard-response","584","1051499","0.0-3.0-1.488","../audio/06-5-masc.mp3"," ","","profeta","","","",""
"","819","audio-keyboard-response","585","1052587","0.0-3.0-1.489","../audio/06-6-masc.mp3"," ","","no","","","",""
"","1259","audio-keyboard-response","586","1054107","0.0-3.0-1.490","../audio/06-7-masc.mp3"," ","","púlpito","","","",""
"","1021","audio-keyboard-response","587","1055403","0.0-3.0-1.491","../audio/06-8-masc.mp3"," ","","da","","","",""
"","1000","audio-keyboard-response","588","1056667","0.0-3.0-1.492","../audio/06-9-masc.mp3"," ","","igreja.","","","",""
"","null","html-keyboard-response","589","1057920","0.0-3.0-0.493-0.493","<span style= ""font-size:30px; font-family: monospace"">+</span>","null","fixation","","","","",""
"","851","audio-keyboard-response","590","1059051","0.0-3.0-1.493","../audio/10-1-masc.mp3"," ","","O","","","",""
"","1139","audio-keyboard-response","591","1060459","0.0-3.0-1.494","../audio/10-2-masc.mp3"," ","","pássaro","","","",""
"","1408","audio-keyboard-response","592","1062138","0.0-3.0-1.495","../audio/10-3-masc.mp3"," ","","azul","","","",""
"","1280","audio-keyboard-response","593","1063690","0.0-3.0-1.496","../audio/10-4-masc.mp3"," ","","estava","","","",""
"","1019","audio-keyboard-response","594","1064986","0.0-3.0-1.497","../audio/10-5-masc.mp3"," ","","vivo","","","",""
"","891","audio-keyboard-response","595","1066154","0.0-3.0-1.498","../audio/10-6-masc.mp3"," ","","e","","","",""
"","971","audio-keyboard-response","596","1067386","0.0-3.0-1.499","../audio/10-7-masc.mp3"," ","","em","","","",""
"","2032","audio-keyboard-response","597","1069690","0.0-3.0-1.500","../audio/10-8-masc.mp3"," ","","segurança.","","","",""
"","12056","html-keyboard-response","598","1082010","0.0-3.0-2.500-0.500","<span style=""font-size:25px; font-family: monospace"">O pássaro vermelho estava em segurança?</span>","s","","","O pássaro vermelho estava em segurança?","null","exp-sent","false"
"","null","html-keyboard-response","599","1083535","0.0-3.0-0.501-0.501","<span style= ""font-size:30px; font-family: monospace"">+</span>","null","fixation","","","","",""
"","1251","audio-keyboard-response","600","1085066","0.0-3.0-1.501","../audio/36-1-fem.mp3"," ","","Meu","","","",""
"","760","audio-keyboard-response","601","1086090","0.0-3.0-1.502","../audio/36-2-fem.mp3"," ","","tio","","","",""
"","1109","audio-keyboard-response","602","1087466","0.0-3.0-1.503","../audio/36-3-fem.mp3"," ","","comprou","","","",""
"","731","audio-keyboard-response","603","1088474","0.0-3.0-1.504","../audio/36-4-fem.mp3"," ","","um","","","",""
"","1211","audio-keyboard-response","604","1089962","0.0-3.0-1.505","../audio/36-5-fem.mp3"," ","","filtro","","","",""
"","800","audio-keyboard-response","605","1091034","0.0-3.0-1.506","../audio/36-6-fem.mp3"," ","","de","","","",""
"","1011","audio-keyboard-response","606","1092314","0.0-3.0-1.507","../audio/36-7-fem.mp3"," ","","água","","","",""
"","1051","audio-keyboard-response","607","1093626","0.0-3.0-1.508","../audio/36-8-fem.mp3"," ","","hoje","","","",""
"","1131","audio-keyboard-response","608","1095034","0.0-3.0-1.509","../audio/36-9-fem.mp3"," ","","cedo.","","","",""
"","null","html-keyboard-response","609","1096299","0.0-3.0-0.510-0.510","<span style= ""font-size:30px; font-family: monospace"">+</span>","null","fixation","","","","",""
"","688","audio-keyboard-response","610","1097258","0.0-3.0-1.510","../audio/39-1-masc.mp3"," ","","O","","","",""
"","1032","audio-keyboard-response","611","1098570","0.0-3.0-1.511","../audio/39-2-masc.mp3"," ","","conselho","","","",""
"","851","audio-keyboard-response","612","1099690","0.0-3.0-1.512","../audio/39-3-masc.mp3"," ","","foi","","","",""
"","1029","audio-keyboard-response","613","1101002","0.0-3.0-1.513","../audio/39-4-masc.mp3"," ","","muito","","","",""
"","1011","audio-keyboard-response","614","1102282","0.0-3.0-1.514","../audio/39-5-masc.mp3"," ","","útil","","","",""
"","960","audio-keyboard-response","615","1103514","0.0-3.0-1.515","../audio/39-6-masc.mp3"," ","","para","","","",""
"","1069","audio-keyboard-response","616","1104858","0.0-3.0-1.516","../audio/39-7-masc.mp3"," ","","minha","","","",""
"","901","audio-keyboard-response","617","1106042","0.0-3.0-1.517","../audio/39-8-masc.mp3"," ","","tia.","","","",""
"","null","html-keyboard-response","618","1107295","0.0-3.0-0.518-0.518","<span style= ""font-size:30px; font-family: monospace"">+</span>","null","fixation","","","","",""
"","701","audio-keyboard-response","619","1108282","0.0-3.0-1.518","../audio/38-1-fem.mp3"," ","","A","","","",""
"","1280","audio-keyboard-response","620","1109834","0.0-3.0-1.519","../audio/38-2-fem.mp3"," ","","empresa","","","",""
"","1131","audio-keyboard-response","621","1111242","0.0-3.0-1.520","../audio/38-3-fem.mp3"," ","","criou","","","",""
"","920","audio-keyboard-response","622","1112442","0.0-3.0-1.521","../audio/38-4-fem.mp3"," ","","a","","","",""
"","1291","audio-keyboard-response","623","1114010","0.0-3.0-1.522","../audio/38-5-fem.mp3"," ","","patente","","","",""
"","899","audio-keyboard-response","624","1115178","0.0-3.0-1.523","../audio/38-6-fem.mp3"," ","","da","","","",""
"","1541","audio-keyboard-response","625","1117002","0.0-3.0-1.524","../audio/38-7-fem.mp3"," ","","frigideira.","","","",""
"","null","html-keyboard-response","626","1118281","0.0-3.0-0.525-0.525","<span style= ""font-size:30px; font-family: monospace"">+</span>","null","fixation","","","","",""
"","891","audio-keyboard-response","627","1119434","0.0-3.0-1.525","../audio/37-1-masc.mp3"," ","","Eu","","","",""
"","1011","audio-keyboard-response","628","1120730","0.0-3.0-1.526","../audio/37-2-masc.mp3"," ","","adoro","","","",""
"","968","audio-keyboard-response","629","1121978","0.0-3.0-1.527","../audio/37-3-masc.mp3"," ","","suco","","","",""
"","848","audio-keyboard-response","630","1123097","0.0-3.0-1.528","../audio/37-4-masc.mp3"," ","","de","","","",""
"","1040","audio-keyboard-response","631","1124410","0.0-3.0-1.529","../audio/37-5-masc.mp3"," ","","manga","","","",""
"","880","audio-keyboard-response","632","1125562","0.0-3.0-1.530","../audio/37-6-masc.mp3"," ","","com","","","",""
"","1099","audio-keyboard-response","633","1126937","0.0-3.0-1.531","../audio/37-7-masc.mp3"," ","","hortelã.","","","",""
"","null","html-keyboard-response","634","1128196","0.0-3.0-0.532-0.532","<span style= ""font-size:30px; font-family: monospace"">+</span>","null","fixation","","","","",""
"","789","audio-keyboard-response","635","1129257","0.0-3.0-1.532","../audio/40-1-masc.mp3"," ","","O","","","",""
"","1149","audio-keyboard-response","636","1130681","0.0-3.0-1.533","../audio/40-2-masc.mp3"," ","","jogo","","","",""
"","1229","audio-keyboard-response","637","1132185","0.0-3.0-1.534","../audio/40-3-masc.mp3"," ","","falava","","","",""
"","1051","audio-keyboard-response","638","1133513","0.0-3.0-1.535","../audio/40-4-masc.mp3"," ","","de","","","",""
"","1400","audio-keyboard-response","639","1135194","0.0-3.0-1.536","../audio/40-5-masc.mp3"," ","","fantasia","","","",""
"","920","audio-keyboard-response","640","1136378","0.0-3.0-1.537","../audio/40-6-masc.mp3"," ","","e","","","",""
"","840","audio-keyboard-response","641","1137481","0.0-3.0-1.538","../audio/40-7-masc.mp3"," ","","de","","","",""
"","1800","audio-keyboard-response","642","1139561","0.0-3.0-1.539","../audio/40-8-masc.mp3"," ","","aventura.","","","",""
"","8945","html-keyboard-response","643","1148762","0.0-3.0-2.539-0.539","<span style=""font-size:25px; font-family: monospace"">O jogo tinha fantasia e aventura?</span>","s","","","O jogo tinha fantasia e aventura?","null","exp-sent","false"
"","null","html-keyboard-response","644","1150277","0.0-3.0-0.540-0.540","<span style= ""font-size:30px; font-family: monospace"">+</span>","null","fixation","","","","",""
"","949","audio-keyboard-response","645","1151514","0.0-3.0-1.540","../audio/78-1-fem.mp3"," ","","Eles","","","",""
"","920","audio-keyboard-response","646","1152713","0.0-3.0-1.541","../audio/78-2-fem.mp3"," ","","trazem","","","",""
"","749","audio-keyboard-response","647","1153738","0.0-3.0-1.542","../audio/78-3-fem.mp3"," ","","um","","","",""
"","1168","audio-keyboard-response","648","1155178","0.0-3.0-1.543","../audio/78-4-fem.mp3"," ","","fato","","","",""
"","2019","audio-keyboard-response","649","1157465","0.0-3.0-1.544","../audio/78-5-fem.mp3"," ","","urgente","","","",""
"","1101","audio-keyboard-response","650","1158842","0.0-3.0-1.545","../audio/78-6-fem.mp3"," ","","todos","","","",""
"","1011","audio-keyboard-response","651","1160121","0.0-3.0-1.546","../audio/78-7-fem.mp3"," ","","os","","","",""
"","1200","audio-keyboard-response","652","1161593","0.0-3.0-1.547","../audio/78-8-fem.mp3"," ","","dias.","","","",""
"","null","html-keyboard-response","653","1162856","0.0-3.0-0.548-0.548","<span style= ""font-size:30px; font-family: monospace"">+</span>","null","fixation","","","","",""
"","739","audio-keyboard-response","654","1163865","0.0-3.0-1.548","../audio/76-1-masc.mp3"," ","","O","","","",""
"","1251","audio-keyboard-response","655","1165385","0.0-3.0-1.549","../audio/76-2-masc.mp3"," ","","bisavô","","","",""
"","1048","audio-keyboard-response","656","1166697","0.0-3.0-1.550","../audio/76-3-masc.mp3"," ","","comprou","","","",""
"","949","audio-keyboard-response","657","1167914","0.0-3.0-1.551","../audio/76-4-masc.mp3"," ","","um","","","",""
"","1192","audio-keyboard-response","658","1169370","0.0-3.0-1.552","../audio/76-5-masc.mp3"," ","","ralador","","","",""
"","939","audio-keyboard-response","659","1170586","0.0-3.0-1.553","../audio/76-6-masc.mp3"," ","","de","","","",""
"","1451","audio-keyboard-response","660","1172314","0.0-3.0-1.554","../audio/76-7-masc.mp3"," ","","queijo.","","","",""
"","null","html-keyboard-response","661","1173580","0.0-3.0-0.555-0.555","<span style= ""font-size:30px; font-family: monospace"">+</span>","null","fixation","","","","",""
"","981","audio-keyboard-response","662","1174842","0.0-3.0-1.555","../audio/79-1-masc.mp3"," ","","A","","","",""
"","1248","audio-keyboard-response","663","1176378","0.0-3.0-1.556","../audio/79-2-masc.mp3"," ","","médica","","","",""
"","1280","audio-keyboard-response","664","1177929","0.0-3.0-1.557","../audio/79-3-masc.mp3"," ","","verificou","","","",""
"","1069","audio-keyboard-response","665","1179273","0.0-3.0-1.558","../audio/79-4-masc.mp3"," ","","a","","","",""
"","1189","audio-keyboard-response","666","1180745","0.0-3.0-1.559","../audio/79-5-masc.mp3"," ","","gengiva","","","",""
"","971","audio-keyboard-response","667","1181994","0.0-3.0-1.560","../audio/79-6-masc.mp3"," ","","por","","","",""
"","1301","audio-keyboard-response","668","1183560","0.0-3.0-1.561","../audio/79-7-masc.mp3"," ","","último.","","","",""
"","null","html-keyboard-response","669","1184834","0.0-3.0-0.562-0.562","<span style= ""font-size:30px; font-family: monospace"">+</span>","null","fixation","","","","",""
"","869","audio-keyboard-response","670","1185992","0.0-3.0-1.562","../audio/77-1-masc.mp3"," ","","A","","","",""
"","1160","audio-keyboard-response","671","1187432","0.0-3.0-1.563","../audio/77-2-masc.mp3"," ","","criança","","","",""
"","1211","audio-keyboard-response","672","1188904","0.0-3.0-1.564","../audio/77-3-masc.mp3"," ","","ficou","","","",""
"","992","audio-keyboard-response","673","1190168","0.0-3.0-1.565","../audio/77-4-masc.mp3"," ","","muito","","","",""
"","1029","audio-keyboard-response","674","1191481","0.0-3.0-1.566","../audio/77-5-masc.mp3"," ","","feliz","","","",""
"","981","audio-keyboard-response","675","1192728","0.0-3.0-1.567","../audio/77-6-masc.mp3"," ","","com","","","",""
"","949","audio-keyboard-response","676","1193944","0.0-3.0-1.568","../audio/77-7-masc.mp3"," ","","o","","","",""
"","1128","audio-keyboard-response","677","1195336","0.0-3.0-1.569","../audio/77-8-masc.mp3"," ","","brinquedo.","","","",""
"","null","html-keyboard-response","678","1196605","0.0-3.0-0.570-0.570","<span style= ""font-size:30px; font-family: monospace"">+</span>","null","fixation","","","","",""
"","821","audio-keyboard-response","679","1197688","0.0-3.0-1.570","../audio/80-1-masc.mp3"," ","","Meu","","","",""
"","1048","audio-keyboard-response","680","1199016","0.0-3.0-1.571","../audio/80-2-masc.mp3"," ","","primo","","","",""
"","1139","audio-keyboard-response","681","1200424","0.0-3.0-1.572","../audio/80-3-masc.mp3"," ","","conheceu","","","",""
"","832","audio-keyboard-response","682","1201528","0.0-3.0-1.573","../audio/80-4-masc.mp3"," ","","um","","","",""
"","1128","audio-keyboard-response","683","1202936","0.0-3.0-1.574","../audio/80-5-masc.mp3"," ","","jovem","","","",""
"","1200","audio-keyboard-response","684","1204408","0.0-3.0-1.575","../audio/80-6-masc.mp3"," ","","amável","","","",""
"","869","audio-keyboard-response","685","1205544","0.0-3.0-1.576","../audio/80-7-masc.mp3"," ","","e","","","",""
"","1232","audio-keyboard-response","686","1207048","0.0-3.0-1.577","../audio/80-8-masc.mp3"," ","","confiante.","","","",""
"","14402","html-keyboard-response","687","1221704","0.0-3.0-2.577-0.577","<span style=""font-size:25px; font-family: monospace"">O primo conheceu um jovem irritante?</span>","s","","","O primo conheceu um jovem irritante?","null","exp-sent","false"
"","null","html-keyboard-response","688","1223210","0.0-3.0-0.578-0.578","<span style= ""font-size:30px; font-family: monospace"">+</span>","null","fixation","","","","",""
"","992","audio-keyboard-response","689","1224488","0.0-3.0-1.578","../audio/62-1-fem.mp3"," ","","As","","","",""
"","1069","audio-keyboard-response","690","1225832","0.0-3.0-1.579","../audio/62-2-fem.mp3"," ","","artesãs","","","",""
"","1240","audio-keyboard-response","691","1227336","0.0-3.0-1.580","../audio/62-3-fem.mp3"," ","","gostam","","","",""
"","819","audio-keyboard-response","692","1228424","0.0-3.0-1.581","../audio/62-4-fem.mp3"," ","","de","","","",""
"","1101","audio-keyboard-response","693","1229800","0.0-3.0-1.582","../audio/62-5-fem.mp3"," ","","maquiagem","","","",""
"","789","audio-keyboard-response","694","1230856","0.0-3.0-1.583","../audio/62-6-fem.mp3"," ","","e","","","",""
"","749","audio-keyboard-response","695","1231880","0.0-3.0-1.584","../audio/62-7-fem.mp3"," ","","de","","","",""
"","1051","audio-keyboard-response","696","1233209","0.0-3.0-1.585","../audio/62-8-fem.mp3"," ","","crochê.","","","",""
"","null","html-keyboard-response","697","1234468","0.0-3.0-0.586-0.586","<span style= ""font-size:30px; font-family: monospace"">+</span>","null","fixation","","","","",""
"","589","audio-keyboard-response","698","1235320","0.0-3.0-1.586","../audio/63-1-fem.mp3"," ","","A","","","",""
"","1061","audio-keyboard-response","699","1236648","0.0-3.0-1.587","../audio/63-2-fem.mp3"," ","","chuva","","","",""
"","1040","audio-keyboard-response","700","1237960","0.0-3.0-1.588","../audio/63-3-fem.mp3"," ","","entrou","","","",""
"","880","audio-keyboard-response","701","1239112","0.0-3.0-1.589","../audio/63-4-fem.mp3"," ","","pela","","","",""
"","1200","audio-keyboard-response","702","1240584","0.0-3.0-1.590","../audio/63-5-fem.mp3"," ","","abertura","","","",""
"","781","audio-keyboard-response","703","1241640","0.0-3.0-1.591","../audio/63-6-fem.mp3"," ","","na","","","",""
"","1091","audio-keyboard-response","704","1242999","0.0-3.0-1.592","../audio/63-7-fem.mp3"," ","","janela.","","","",""
"","null","html-keyboard-response","705","1244258","0.0-3.0-0.593-0.593","<span style= ""font-size:30px; font-family: monospace"">+</span>","null","fixation","","","","",""
"","1091","audio-keyboard-response","706","1245623","0.0-3.0-1.593","../audio/61-1-masc.mp3"," ","","Aquele","","","",""
"","971","audio-keyboard-response","707","1246871","0.0-3.0-1.594","../audio/61-2-masc.mp3"," ","","senhor","","","",""
"","872","audio-keyboard-response","708","1248007","0.0-3.0-1.595","../audio/61-3-masc.mp3"," ","","é","","","",""
"","1091","audio-keyboard-response","709","1249367","0.0-3.0-1.596","../audio/61-4-masc.mp3"," ","","muito","","","",""
"","1139","audio-keyboard-response","710","1250775","0.0-3.0-1.597","../audio/61-5-masc.mp3"," ","","sovina","","","",""
"","939","audio-keyboard-response","711","1251991","0.0-3.0-1.598","../audio/61-6-masc.mp3"," ","","e","","","",""
"","1501","audio-keyboard-response","712","1253767","0.0-3.0-1.599","../audio/61-7-masc.mp3"," ","","inflexível.","","","",""
"","null","html-keyboard-response","713","1255021","0.0-3.0-0.600-0.600","<span style= ""font-size:30px; font-family: monospace"">+</span>","null","fixation","","","","",""
"","661","audio-keyboard-response","714","1255959","0.0-3.0-1.600","../audio/64-1-masc.mp3"," ","","O","","","",""
"","840","audio-keyboard-response","715","1257079","0.0-3.0-1.601","../audio/64-2-masc.mp3"," ","","dia","","","",""
"","1091","audio-keyboard-response","716","1258439","0.0-3.0-1.602","../audio/64-3-masc.mp3"," ","","começou","","","",""
"","800","audio-keyboard-response","717","1259511","0.0-3.0-1.603","../audio/64-4-masc.mp3"," ","","com","","","",""
"","1069","audio-keyboard-response","718","1260855","0.0-3.0-1.604","../audio/64-5-masc.mp3"," ","","garoa","","","",""
"","1059","audio-keyboard-response","719","1262183","0.0-3.0-1.605","../audio/64-6-masc.mp3"," ","","gelada","","","",""
"","1000","audio-keyboard-response","720","1263447","0.0-3.0-1.606","../audio/64-7-masc.mp3"," ","","e","","","",""
"","1011","audio-keyboard-response","721","1264727","0.0-3.0-1.607","../audio/64-8-masc.mp3"," ","","leve.","","","",""
"","null","html-keyboard-response","722","1265998","0.0-3.0-0.608-0.608","<span style= ""font-size:30px; font-family: monospace"">+</span>","null","fixation","","","","",""
"","568","audio-keyboard-response","723","1266855","0.0-3.0-1.608","../audio/65-1-masc.mp3"," ","","O","","","",""
"","1179","audio-keyboard-response","724","1268311","0.0-3.0-1.609","../audio/65-2-masc.mp3"," ","","fantasma","","","",""
"","971","audio-keyboard-response","725","1269543","0.0-3.0-1.610","../audio/65-3-masc.mp3"," ","","veio","","","",""
"","840","audio-keyboard-response","726","1270647","0.0-3.0-1.611","../audio/65-4-masc.mp3"," ","","da","","","",""
"","1339","audio-keyboard-response","727","1272263","0.0-3.0-1.612","../audio/65-5-masc.mp3"," ","","escuridão","","","",""
"","880","audio-keyboard-response","728","1273415","0.0-3.0-1.613","../audio/65-6-masc.mp3"," ","","do","","","",""
"","1272","audio-keyboard-response","729","1274967","0.0-3.0-1.614","../audio/65-7-masc.mp3"," ","","armário.","","","",""
"","7047","html-keyboard-response","730","1282279","0.0-3.0-2.614-0.614","<span style=""font-size:25px; font-family: monospace"">O fantasma veio da escuridão do armário?</span>","s","","","O fantasma veio da escuridão do armário?","null","exp-sent","false"
"[{""page_index"":0,""viewing_time"":8402}]","8403","instructions","731","1291183","0.0-4.0","","","","","","","",""
