"view_history","rt","trial_type","trial_index","time_elapsed","internal_node_id","stimulus","response","portuguese","kreyol"
"[{""page_index"":0,""viewing_time"":35711}]","35712","instructions","0","35711","0.0-0.0","","","",""
"","null","html-keyboard-response","1","36314","0.0-1.0-0.0","+","null","",""
"","4472","audio-keyboard-response","2","40896","0.0-1.0-1.0","../audio/teste-vocab--71.mp3","s","caule","tij"
"","null","html-keyboard-response","3","41410","0.0-1.0-0.1","+","null","",""
"","2152","audio-keyboard-response","4","43583","0.0-1.0-1.1","../audio/teste-vocab--31.mp3","s","vazio","vid"
"","null","html-keyboard-response","5","44094","0.0-1.0-0.2","+","null","",""
"","2331","audio-keyboard-response","6","46447","0.0-1.0-1.2","../audio/teste-vocab--107.mp3","s","elo","emay"
"","null","html-keyboard-response","7","46958","0.0-1.0-0.3","+","null","",""
"","2069","audio-keyboard-response","8","49055","0.0-1.0-1.3","../audio/teste-vocab--116.mp3","s","vestuário","vestyè"
"","null","html-keyboard-response","9","49562","0.0-1.0-0.4","+","null","",""
"","1451","audio-keyboard-response","10","51039","0.0-1.0-1.4","../audio/teste-vocab--87.mp3","s","ave","zwazo"
"","null","html-keyboard-response","11","51554","0.0-1.0-0.5","+","null","",""
"","1339","audio-keyboard-response","12","52911","0.0-1.0-1.5","../audio/teste-vocab--18.mp3","s","abelha","myèl"
"","null","html-keyboard-response","13","53425","0.0-1.0-0.6","+","null","",""
"","1459","audio-keyboard-response","14","54911","0.0-1.0-1.6","../audio/teste-vocab--06.mp3","s","barco","bato"
"","null","html-keyboard-response","15","55424","0.0-1.0-0.7","+","null","",""
"","2091","audio-keyboard-response","16","57535","0.0-1.0-1.7","../audio/teste-vocab--93.mp3","s","felino","leopa"
"","null","html-keyboard-response","17","58039","0.0-1.0-0.8","+","null","",""
"","1600","audio-keyboard-response","18","59663","0.0-1.0-1.8","../audio/teste-vocab--07.mp3","s","abajur","lanp"
"","null","html-keyboard-response","19","60174","0.0-1.0-0.9","+","null","",""
"","3851","audio-keyboard-response","20","64047","0.0-1.0-1.9","../audio/teste-vocab--69.mp3","s","pingar","degoute"
"","null","html-keyboard-response","21","64553","0.0-1.0-0.10","+","null","",""
"","1299","audio-keyboard-response","22","65871","0.0-1.0-1.10","../audio/teste-vocab--14.mp3","s","ler","li"
"","null","html-keyboard-response","23","66372","0.0-1.0-0.11","+","null","",""
"","2491","audio-keyboard-response","24","68879","0.0-1.0-1.11","../audio/teste-vocab--124.mp3","n","obelisco","obelisk"
"","null","html-keyboard-response","25","69393","0.0-1.0-0.12","+","null","",""
"","2000","audio-keyboard-response","26","71423","0.0-1.0-1.12","../audio/teste-vocab--96.mp3","s","árido","sechrès"
"","null","html-keyboard-response","27","71935","0.0-1.0-0.13","+","null","",""
"","2101","audio-keyboard-response","28","74063","0.0-1.0-1.13","../audio/teste-vocab--129.mp3","s","elipse","elips"
"","null","html-keyboard-response","29","74572","0.0-1.0-0.14","+","null","",""
"","1472","audio-keyboard-response","30","76063","0.0-1.0-1.14","../audio/teste-vocab--12.mp3","s","jaula","kaj"
"","null","html-keyboard-response","31","76565","0.0-1.0-0.15","+","null","",""
"","1848","audio-keyboard-response","32","78431","0.0-1.0-1.15","../audio/teste-vocab--98.mp3","s","instruir","enstwi"
"","null","html-keyboard-response","33","78932","0.0-1.0-0.16","+","null","",""
"","1640","audio-keyboard-response","34","80591","0.0-1.0-1.16","../audio/teste-vocab--102.mp3","s","arrogante","arogan"
"","null","html-keyboard-response","35","81106","0.0-1.0-0.17","+","null","",""
"","1531","audio-keyboard-response","36","82655","0.0-1.0-1.17","../audio/teste-vocab--39.mp3","s","cobra","koulèv"
"","null","html-keyboard-response","37","83166","0.0-1.0-0.18","+","null","",""
"","1589","audio-keyboard-response","38","84799","0.0-1.0-1.18","../audio/teste-vocab--123.mp3","s","emissão","emisyon"
"","null","html-keyboard-response","39","85309","0.0-1.0-0.19","+","null","",""
"","1931","audio-keyboard-response","40","87263","0.0-1.0-1.19","../audio/teste-vocab--11.mp3","s","joelho","jenou"
"","null","html-keyboard-response","41","87770","0.0-1.0-0.20","+","null","",""
"","1520","audio-keyboard-response","42","89311","0.0-1.0-1.20","../audio/teste-vocab--24.mp3","s","acidente","aksidan"
"","null","html-keyboard-response","43","89819","0.0-1.0-0.21","+","null","",""
"","2011","audio-keyboard-response","44","91838","0.0-1.0-1.21","../audio/teste-vocab--42.mp3","s","isolamento","izòlman"
"","null","html-keyboard-response","45","92346","0.0-1.0-0.22","+","null","",""
"","1971","audio-keyboard-response","46","94334","0.0-1.0-1.22","../audio/teste-vocab--37.mp3","s","músico","mizisyen"
"","null","html-keyboard-response","47","94848","0.0-1.0-0.23","+","null","",""
"","1851","audio-keyboard-response","48","96718","0.0-1.0-1.23","../audio/teste-vocab--120.mp3","s","induzir","pwovoke"
"","null","html-keyboard-response","49","97223","0.0-1.0-0.24","+","null","",""
"","1509","audio-keyboard-response","50","98750","0.0-1.0-1.24","../audio/teste-vocab--16.mp3","s","pescoço","kou"
"","null","html-keyboard-response","51","99257","0.0-1.0-0.25","+","null","",""
"","1539","audio-keyboard-response","52","100830","0.0-1.0-1.25","../audio/teste-vocab--45.mp3","s","dentista","dantis"
"","null","html-keyboard-response","53","101335","0.0-1.0-0.26","+","null","",""
"","1331","audio-keyboard-response","54","102686","0.0-1.0-1.26","../audio/teste-vocab--41.mp3","s","médico","doktè,"
"","null","html-keyboard-response","55","103190","0.0-1.0-0.27","+","null","",""
"","1331","audio-keyboard-response","56","104542","0.0-1.0-1.27","../audio/teste-vocab--80.mp3","s","binóculo","longvi"
"","null","html-keyboard-response","57","105049","0.0-1.0-0.28","+","null","",""
"","1952","audio-keyboard-response","58","107022","0.0-1.0-1.28","../audio/teste-vocab--63.mp3","s","transparente","transparan"
"","null","html-keyboard-response","59","107529","0.0-1.0-0.29","+","null","",""
"","1520","audio-keyboard-response","60","109070","0.0-1.0-1.29","../audio/teste-vocab--58.mp3","s","nutritivo","nourisan"
"","null","html-keyboard-response","61","109573","0.0-1.0-0.30","+","null","",""
"","1240","audio-keyboard-response","62","110830","0.0-1.0-1.30","../audio/teste-vocab--108.mp3","s","moradia","kay"
"","null","html-keyboard-response","63","111333","0.0-1.0-0.31","+","null","",""
"","1720","audio-keyboard-response","64","113070","0.0-1.0-1.31","../audio/teste-vocab--09.mp3","s","vela","bouji"
"","null","html-keyboard-response","65","113585","0.0-1.0-0.32","+","null","",""
"","1341","audio-keyboard-response","66","114942","0.0-1.0-1.32","../audio/teste-vocab--10.mp3","s","corneta","kòn"
"","null","html-keyboard-response","67","115455","0.0-1.0-0.33","+","null","",""
"","1520","audio-keyboard-response","68","116990","0.0-1.0-1.33","../audio/teste-vocab--77.mp3","s","comércio","komès"
"","null","html-keyboard-response","69","117499","0.0-1.0-0.34","+","null","",""
"","1341","audio-keyboard-response","70","118862","0.0-1.0-1.34","../audio/teste-vocab--28.mp3","s","águia","èg"
"","null","html-keyboard-response","71","119363","0.0-1.0-0.35","+","null","",""
"","4728","audio-keyboard-response","72","124110","0.0-1.0-1.35","../audio/teste-vocab--67.mp3","s","corrimão","ranp"
"","null","html-keyboard-response","73","124612","0.0-1.0-0.36","+","null","",""
"","1581","audio-keyboard-response","74","126206","0.0-1.0-1.36","../audio/teste-vocab--54.mp3","s","arbusto","raje"
"","null","html-keyboard-response","75","126715","0.0-1.0-0.37","+","null","",""
"","1659","audio-keyboard-response","76","128398","0.0-1.0-1.37","../audio/teste-vocab--97.mp3","s","frágil","frajil"
"","null","html-keyboard-response","77","128903","0.0-1.0-0.38","+","null","",""
"","1491","audio-keyboard-response","78","130414","0.0-1.0-1.38","../audio/teste-vocab--13.mp3","s","ambulância","anbilans"
"","null","html-keyboard-response","79","130919","0.0-1.0-0.39","+","null","",""
"","1429","audio-keyboard-response","80","132366","0.0-1.0-1.39","../audio/teste-vocab--17.mp3","s","móvel","mobil"
"","null","html-keyboard-response","81","132874","0.0-1.0-0.40","+","null","",""
"","1720","audio-keyboard-response","82","134606","0.0-1.0-1.40","../audio/teste-vocab--53.mp3","s","orientar","oryante"
"","null","html-keyboard-response","83","135121","0.0-1.0-0.41","+","null","",""
"","1589","audio-keyboard-response","84","136734","0.0-1.0-1.41","../audio/teste-vocab--62.mp3","s","carretel","bobin"
"","null","html-keyboard-response","85","137250","0.0-1.0-0.42","+","null","",""
"","1691","audio-keyboard-response","86","138974","0.0-1.0-1.42","../audio/teste-vocab--95.mp3","s","submergir","plonje"
"","null","html-keyboard-response","87","139482","0.0-1.0-0.43","+","null","",""
"","1520","audio-keyboard-response","88","141022","0.0-1.0-1.43","../audio/teste-vocab--35.mp3","s","líquido","likid"
"","null","html-keyboard-response","89","141525","0.0-1.0-0.44","+","null","",""
"","1269","audio-keyboard-response","90","142814","0.0-1.0-1.44","../audio/teste-vocab--15.mp3","s","flecha","flèch"
"","null","html-keyboard-response","91","143317","0.0-1.0-0.45","+","null","",""
"","2309","audio-keyboard-response","92","145646","0.0-1.0-1.45","../audio/teste-vocab--75.mp3","s","carpinteiro","chapantye"
"","null","html-keyboard-response","93","146158","0.0-1.0-0.46","+","null","",""
"","1688","audio-keyboard-response","94","147870","0.0-1.0-1.46","../audio/teste-vocab--113.mp3","s","ascender","limen"
"","null","html-keyboard-response","95","148386","0.0-1.0-0.47","+","null","",""
"","1832","audio-keyboard-response","96","150222","0.0-1.0-1.47","../audio/teste-vocab--60.mp3","s","secretaria","sekretè"
"","null","html-keyboard-response","97","150724","0.0-1.0-0.48","+","null","",""
"","1680","audio-keyboard-response","98","152429","0.0-1.0-1.48","../audio/teste-vocab--83.mp3","s","morsa","mòs"
"","null","html-keyboard-response","99","152941","0.0-1.0-0.49","+","null","",""
"","1840","audio-keyboard-response","100","154797","0.0-1.0-1.49","../audio/teste-vocab--01.mp3","s","boneca","pope"
"","null","html-keyboard-response","101","155298","0.0-1.0-0.50","+","null","",""
"","1571","audio-keyboard-response","102","156893","0.0-1.0-1.50","../audio/teste-vocab--05.mp3","s","limpar","netwaye"
"","null","html-keyboard-response","103","157395","0.0-1.0-0.51","+","null","",""
"","15920","audio-keyboard-response","104","173341","0.0-1.0-1.51","../audio/teste-vocab--66.mp3","s","cooperação","koperasyon"
"","null","html-keyboard-response","105","173844","0.0-1.0-0.52","+","null","",""
"","1872","audio-keyboard-response","106","175741","0.0-1.0-1.52","../audio/teste-vocab--38.mp3","s","cerimônia","seremoni"
"","null","html-keyboard-response","107","177392","0.0-1.0-0.53","+","null","",""
"","1840","audio-keyboard-response","108","179245","0.0-1.0-1.53","../audio/teste-vocab--91.mp3","s","bússola","bousòl"
"","null","html-keyboard-response","109","179761","0.0-1.0-0.54","+","null","",""
"","1608","audio-keyboard-response","110","181389","0.0-1.0-1.54","../audio/teste-vocab--111.mp3","s","jubilosa","rejwisans"
"","null","html-keyboard-response","111","181897","0.0-1.0-0.55","+","null","",""
"","3491","audio-keyboard-response","112","185421","0.0-1.0-1.55","../audio/teste-vocab--101.mp3","n","incandescente","enkandesan"
"","null","html-keyboard-response","113","185936","0.0-1.0-0.56","+","null","",""
"","421","audio-keyboard-response","114","186381","0.0-1.0-1.56","../audio/teste-vocab--109.mp3","s","anfíbio","anfibyen"
"","null","html-keyboard-response","115","186886","0.0-1.0-0.57","+","null","",""
"","2621","audio-keyboard-response","116","189533","0.0-1.0-1.57","../audio/teste-vocab--126.mp3","s","ambulante","promennen"
"","null","html-keyboard-response","117","190045","0.0-1.0-0.58","+","null","",""
"","3229","audio-keyboard-response","118","193293","0.0-1.0-1.58","../audio/teste-vocab--70.mp3","s","funil","antónwa"
"","null","html-keyboard-response","119","193804","0.0-1.0-0.59","+","null","",""
"","1541","audio-keyboard-response","120","195373","0.0-1.0-1.59","../audio/teste-vocab--04.mp3","s","roda","wonn"
"","null","html-keyboard-response","121","195885","0.0-1.0-0.60","+","null","",""
"","5691","audio-keyboard-response","122","201597","0.0-1.0-1.60","../audio/teste-vocab--73.mp3","n","ângulo","ang"
"","null","html-keyboard-response","123","202102","0.0-1.0-0.61","+","null","",""
"","3469","audio-keyboard-response","124","205597","0.0-1.0-1.61","../audio/teste-vocab--103.mp3","n","utensílio","istansil"
"","null","html-keyboard-response","125","206109","0.0-1.0-0.62","+","null","",""
"","1451","audio-keyboard-response","126","207581","0.0-1.0-1.62","../audio/teste-vocab--03.mp3","s","balançar","balanse"
"","null","html-keyboard-response","127","208092","0.0-1.0-0.63","+","null","",""
"","3491","audio-keyboard-response","128","211597","0.0-1.0-1.63","../audio/teste-vocab--78.mp3","n","quarteto","qwatèt"
"","null","html-keyboard-response","129","212103","0.0-1.0-0.64","+","null","",""
"","2080","audio-keyboard-response","130","214204","0.0-1.0-1.64","../audio/teste-vocab--65.mp3","s","discussão","diskisyon"
"","null","html-keyboard-response","131","214709","0.0-1.0-0.65","+","null","",""
"","1749","audio-keyboard-response","132","216476","0.0-1.0-1.65","../audio/teste-vocab--88.mp3","s","portátil","pòtab"
"","null","html-keyboard-response","133","216985","0.0-1.0-0.66","+","null","",""
"","1499","audio-keyboard-response","134","218508","0.0-1.0-1.66","../audio/teste-vocab--46.mp3","s","ombro","zepòl"
"","null","html-keyboard-response","135","219010","0.0-1.0-0.67","+","null","",""
"","1701","audio-keyboard-response","136","220731","0.0-1.0-1.67","../audio/teste-vocab--106.mp3","s","lubrificar","grese"
"","null","html-keyboard-response","137","221243","0.0-1.0-0.68","+","null","",""
"","1781","audio-keyboard-response","138","223052","0.0-1.0-1.68","../audio/teste-vocab--51.mp3","s","recolher","kolekte"
"","null","html-keyboard-response","139","223562","0.0-1.0-0.69","+","null","",""
"","1328","audio-keyboard-response","140","224908","0.0-1.0-1.69","../audio/teste-vocab--117.mp3","s","córnea","kòn"
"","null","html-keyboard-response","141","225418","0.0-1.0-0.70","+","null","",""
"","1581","audio-keyboard-response","142","227020","0.0-1.0-1.70","../audio/teste-vocab--114.mp3","s","fragmentar","dechire"
"","null","html-keyboard-response","143","227527","0.0-1.0-0.71","+","null","",""
"","1851","audio-keyboard-response","144","229420","0.0-1.0-1.71","../audio/teste-vocab--72.mp3","s","ilha","zile"
"","null","html-keyboard-response","145","229929","0.0-1.0-0.72","+","null","",""
"","1571","audio-keyboard-response","146","231516","0.0-1.0-1.72","../audio/teste-vocab--20.mp3","s","medir","mezire"
"","null","html-keyboard-response","147","232017","0.0-1.0-0.73","+","null","",""
"","1509","audio-keyboard-response","148","233548","0.0-1.0-1.73","../audio/teste-vocab--48.mp3","s","joia","bijou"
"","null","html-keyboard-response","149","234063","0.0-1.0-0.74","+","null","",""
"","2019","audio-keyboard-response","150","236108","0.0-1.0-1.74","../audio/teste-vocab--81.mp3","s","judicial","jidisyè"
"","null","html-keyboard-response","151","236616","0.0-1.0-0.75","+","null","",""
"","1520","audio-keyboard-response","152","238156","0.0-1.0-1.75","../audio/teste-vocab--79.mp3","s","moldura"," chanbranl"
"","null","html-keyboard-response","153","238660","0.0-1.0-0.76","+","null","",""
"","2680","audio-keyboard-response","154","241356","0.0-1.0-1.76","../audio/teste-vocab--19.mp3","s","hora","è"
"","null","html-keyboard-response","155","241857","0.0-1.0-0.77","+","null","",""
"","2981","audio-keyboard-response","156","244860","0.0-1.0-1.77","../audio/teste-vocab--105.mp3","n","cítrico","sitrik"
"","null","html-keyboard-response","157","245370","0.0-1.0-0.78","+","null","",""
"","1752","audio-keyboard-response","158","247180","0.0-1.0-1.78","../audio/teste-vocab--57.mp3","s","raiz","rasin"
"","null","html-keyboard-response","159","247693","0.0-1.0-0.79","+","null","",""
"","1589","audio-keyboard-response","160","249308","0.0-1.0-1.79","../audio/teste-vocab--08.mp3","s","vaca","vach"
"","null","html-keyboard-response","161","249815","0.0-1.0-0.80","+","null","",""
"","1771","audio-keyboard-response","162","251612","0.0-1.0-1.80","../audio/teste-vocab--36.mp3","s","grupo","gwoup"
"","null","html-keyboard-response","163","252121","0.0-1.0-0.81","+","null","",""
"","1859","audio-keyboard-response","164","253995","0.0-1.0-1.81","../audio/teste-vocab--43.mp3","s","mecânico","mekanisyen"
"","null","html-keyboard-response","165","254507","0.0-1.0-0.82","+","null","",""
"","2379","audio-keyboard-response","166","256908","0.0-1.0-1.82","../audio/teste-vocab--115.mp3","s","perpendicular","pèpandikilè"
"","null","html-keyboard-response","167","257423","0.0-1.0-0.83","+","null","",""
"","1531","audio-keyboard-response","168","258972","0.0-1.0-1.83","../audio/teste-vocab--25.mp3","s","canguru","kanguwou"
"","null","html-keyboard-response","169","259473","0.0-1.0-0.84","+","null","",""
"","1499","audio-keyboard-response","170","260988","0.0-1.0-1.84","../audio/teste-vocab--84.mp3","s","confiar","konfye"
"","null","html-keyboard-response","171","261503","0.0-1.0-0.85","+","null","",""
"","1589","audio-keyboard-response","172","263116","0.0-1.0-1.85","../audio/teste-vocab--82.mp3","s","roer","ronje"
"","null","html-keyboard-response","173","263623","0.0-1.0-0.86","+","null","",""
"","1461","audio-keyboard-response","174","265100","0.0-1.0-1.86","../audio/teste-vocab--104.mp3","s","ira","pwal"
"","null","html-keyboard-response","175","265615","0.0-1.0-0.87","+","null","",""
"","2040","audio-keyboard-response","176","267676","0.0-1.0-1.87","../audio/teste-vocab--99.mp3","s","arqueólogo","akeyológ"
"","null","html-keyboard-response","177","268181","0.0-1.0-0.88","+","null","",""
"","2539","audio-keyboard-response","178","270748","0.0-1.0-1.88","../audio/teste-vocab--118.mp3","s","paralelogramo","paralelogram"
"","null","html-keyboard-response","179","271258","0.0-1.0-0.89","+","null","",""
"","1629","audio-keyboard-response","180","272908","0.0-1.0-1.89","../audio/teste-vocab--119.mp3","s","numeroso","anpil"
"","null","html-keyboard-response","181","273408","0.0-1.0-0.90","+","null","",""
"","2120","audio-keyboard-response","182","275547","0.0-1.0-1.90","../audio/teste-vocab--100.mp3","s","consumir","konsome"
"","null","html-keyboard-response","183","276050","0.0-1.0-0.91","+","null","",""
"","1781","audio-keyboard-response","184","277851","0.0-1.0-1.91","../audio/teste-vocab--56.mp3","s","agricultura","agrikilti"
"","null","html-keyboard-response","185","278354","0.0-1.0-0.92","+","null","",""
"","1549","audio-keyboard-response","186","279931","0.0-1.0-1.92","../audio/teste-vocab--50.mp3","s","artista","atis"
"","null","html-keyboard-response","187","280435","0.0-1.0-0.93","+","null","",""
"","1469","audio-keyboard-response","188","281931","0.0-1.0-1.93","../audio/teste-vocab--47.mp3","s","envelope","anvlope"
"","null","html-keyboard-response","189","282433","0.0-1.0-0.94","+","null","",""
"","1640","audio-keyboard-response","190","284091","0.0-1.0-1.94","../audio/teste-vocab--33.mp3","s","uniforme","inifòm"
"","null","html-keyboard-response","191","284593","0.0-1.0-0.95","+","null","",""
"","1600","audio-keyboard-response","192","286203","0.0-1.0-1.95","../audio/teste-vocab--76.mp3","s","arquivar","achive"
"","null","html-keyboard-response","193","286716","0.0-1.0-0.96","+","null","",""
"","1869","audio-keyboard-response","194","288603","0.0-1.0-1.96","../audio/teste-vocab--68.mp3","s","surpreendido","sezi"
"","null","html-keyboard-response","195","289112","0.0-1.0-0.97","+","null","",""
"","1480","audio-keyboard-response","196","290603","0.0-1.0-1.97","../audio/teste-vocab--21.mp3","s","baleia","balèn"
"","null","html-keyboard-response","197","291110","0.0-1.0-0.98","+","null","",""
"","1720","audio-keyboard-response","198","292843","0.0-1.0-1.98","../audio/teste-vocab--32.mp3","s","descascar","dekale"
"","null","html-keyboard-response","199","293357","0.0-1.0-0.99","+","null","",""
"","1480","audio-keyboard-response","200","294859","0.0-1.0-1.99","../audio/teste-vocab--27.mp3","s","rio","rivyè"
"","null","html-keyboard-response","201","295369","0.0-1.0-0.100","+","null","",""
"","1909","audio-keyboard-response","202","297307","0.0-1.0-1.100","../audio/teste-vocab--110.mp3","s","prodígio","pwodij"
"","null","html-keyboard-response","203","297822","0.0-1.0-0.101","+","null","",""
"","2349","audio-keyboard-response","204","300187","0.0-1.0-1.101","../audio/teste-vocab--112.mp3","s","aparição","aparisyon"
"","null","html-keyboard-response","205","300698","0.0-1.0-0.102","+","null","",""
"","1331","audio-keyboard-response","206","302043","0.0-1.0-1.102","../audio/teste-vocab--49.mp3","s","humano","moun"
"","null","html-keyboard-response","207","302543","0.0-1.0-0.103","+","null","",""
"","1341","audio-keyboard-response","208","303899","0.0-1.0-1.103","../audio/teste-vocab--92.mp3","s","esférico","won"
"","null","html-keyboard-response","209","304400","0.0-1.0-0.104","+","null","",""
"","1339","audio-keyboard-response","210","305755","0.0-1.0-1.104","../audio/teste-vocab--55.mp3","s","bosque","forè"
"","null","html-keyboard-response","211","306258","0.0-1.0-0.105","+","null","",""
"","1309","audio-keyboard-response","212","307595","0.0-1.0-1.105","../audio/teste-vocab--64.mp3","s","colher","kiyè"
"","null","html-keyboard-response","213","308102","0.0-1.0-0.106","+","null","",""
"","1771","audio-keyboard-response","214","309883","0.0-1.0-1.106","../audio/teste-vocab--125.mp3","s","lamaçal","labou"
"","null","html-keyboard-response","215","310384","0.0-1.0-0.107","+","null","",""
"","5731","audio-keyboard-response","216","316139","0.0-1.0-1.107","../audio/teste-vocab--128.mp3","n","incisivo","ensisiv"
"","null","html-keyboard-response","217","316650","0.0-1.0-0.108","+","null","",""
"","1712","audio-keyboard-response","218","318379","0.0-1.0-1.108","../audio/teste-vocab--23.mp3","s","acariciar","karese"
"","null","html-keyboard-response","219","318887","0.0-1.0-0.109","+","null","",""
"","1920","audio-keyboard-response","220","320827","0.0-1.0-1.109","../audio/teste-vocab--89.mp3","s","classificar","klasifika"
"","null","html-keyboard-response","221","321328","0.0-1.0-0.110","+","null","",""
"","1501","audio-keyboard-response","222","322843","0.0-1.0-1.110","../audio/teste-vocab--85.mp3","s","trio","trio"
"","null","html-keyboard-response","223","323354","0.0-1.0-0.111","+","null","",""
"","2160","audio-keyboard-response","224","325531","0.0-1.0-1.111","../audio/teste-vocab--130.mp3","s","gentil","dou"
"","null","html-keyboard-response","225","326046","0.0-1.0-0.112","+","null","",""
"","1672","audio-keyboard-response","226","327739","0.0-1.0-1.112","../audio/teste-vocab--122.mp3","s","transeunte","pasajè"
"","null","html-keyboard-response","227","328253","0.0-1.0-0.113","+","null","",""
"","1960","audio-keyboard-response","228","330235","0.0-1.0-1.113","../audio/teste-vocab--02.mp3","s","homem","gason"
"","null","html-keyboard-response","229","330737","0.0-1.0-0.114","+","null","",""
"","1560","audio-keyboard-response","230","332315","0.0-1.0-1.114","../audio/teste-vocab--22.mp3","s","quebrado","kraze"
"","null","html-keyboard-response","231","332818","0.0-1.0-0.115","+","null","",""
"","1891","audio-keyboard-response","232","334731","0.0-1.0-1.115","../audio/teste-vocab--30.mp3","s","pintor","pent"
"","null","html-keyboard-response","233","335234","0.0-1.0-0.116","+","null","",""
"","1789","audio-keyboard-response","234","337034","0.0-1.0-1.116","../audio/teste-vocab--94.mp3","s","paralelo","paralèl"
"","null","html-keyboard-response","235","337546","0.0-1.0-0.117","+","null","",""
"","1531","audio-keyboard-response","236","339098","0.0-1.0-1.117","../audio/teste-vocab--40.mp3","s","bebida","bwason"
"","null","html-keyboard-response","237","339603","0.0-1.0-0.118","+","null","",""
"","2000","audio-keyboard-response","238","341626","0.0-1.0-1.118","../audio/teste-vocab--44.mp3","s","premiar","rekonpanse"
"","null","html-keyboard-response","239","342135","0.0-1.0-0.119","+","null","",""
"","1491","audio-keyboard-response","240","343642","0.0-1.0-1.119","../audio/teste-vocab--86.mp3","s","pensar","panse"
"","null","html-keyboard-response","241","344148","0.0-1.0-0.120","+","null","",""
"","2360","audio-keyboard-response","242","346522","0.0-1.0-1.120","../audio/teste-vocab--74.mp3","s","desilusão","dezilizyon"
"","null","html-keyboard-response","243","347032","0.0-1.0-0.121","+","null","",""
"","1768","audio-keyboard-response","244","348826","0.0-1.0-1.121","../audio/teste-vocab--61.mp3","s","iluminação","iliminasyon"
"","null","html-keyboard-response","245","349330","0.0-1.0-0.122","+","null","",""
"","2141","audio-keyboard-response","246","351482","0.0-1.0-1.122","../audio/teste-vocab--34.mp3","s","tronco","twon"
"","null","html-keyboard-response","247","351985","0.0-1.0-0.123","+","null","",""
"","1891","audio-keyboard-response","248","353898","0.0-1.0-1.123","../audio/teste-vocab--52.mp3","s","construção","konstriksyon"
"","null","html-keyboard-response","249","354402","0.0-1.0-0.124","+","null","",""
"","9421","audio-keyboard-response","250","363850","0.0-1.0-1.124","../audio/teste-vocab--127.mp3","n","côncavo","konkav"
"","null","html-keyboard-response","251","364354","0.0-1.0-0.125","+","null","",""
"","349","audio-keyboard-response","252","364730","0.0-1.0-1.125","../audio/teste-vocab--26.mp3","s","cotovelo","koud"
"","null","html-keyboard-response","253","365242","0.0-1.0-0.126","+","null","",""
"","1549","audio-keyboard-response","254","366810","0.0-1.0-1.126","../audio/teste-vocab--29.mp3","s","rasgar","chire"
"","null","html-keyboard-response","255","367318","0.0-1.0-0.127","+","null","",""
"","2048","audio-keyboard-response","256","369386","0.0-1.0-1.127","../audio/teste-vocab--90.mp3","s","carniça","kanivò"
"","null","html-keyboard-response","257","369890","0.0-1.0-0.128","+","null","",""
"","1691","audio-keyboard-response","258","371610","0.0-1.0-1.128","../audio/teste-vocab--121.mp3","s","atônito","sezi"
"","null","html-keyboard-response","259","372122","0.0-1.0-0.129","+","null","",""
"","1949","audio-keyboard-response","260","374090","0.0-1.0-1.129","../audio/teste-vocab--59.mp3","s","par","pè"
