"view_history","rt","trial_type","trial_index","time_elapsed","internal_node_id","stimulus","response","class","status","answer","correct","trial","letters"
"[{""page_index"":0,""viewing_time"":26876}]","26876","instructions","0","26877","0.0-0.0","","","","","","","",""
"","null","html-keyboard-response","1","27499","0.0-1.0-0.0","+","null","","","","","",""
"","5346","html-keyboard-response","2","32845","0.0-1.0-1.0","oliva","s","null","cog","word","S","prac","null"
"","null","html-keyboard-response","3","33347","0.0-1.0-0.1","+","null","","","","","",""
"","3593","html-keyboard-response","4","36940","0.0-1.0-1.1","daja","n","null","noncog","pseudo","N","prac","null"
"","null","html-keyboard-response","5","37441","0.0-1.0-0.2","+","null","","","","","",""
"","3611","html-keyboard-response","6","41052","0.0-1.0-1.2","calmaria","s","null","noncog","word","S","prac","null"
"","null","html-keyboard-response","7","41553","0.0-1.0-0.3","+","null","","","","","",""
"","6123","html-keyboard-response","8","47677","0.0-1.0-1.3","chassi","n","null","cog","word","S","prac","null"
"","null","html-keyboard-response","9","48178","0.0-1.0-0.4","+","null","","","","","",""
"","2618","html-keyboard-response","10","50796","0.0-1.0-1.4","órgão","s","null","noncog","word","S","prac","null"
"","null","html-keyboard-response","11","51297","0.0-1.0-0.5","+","null","","","","","",""
"","4795","html-keyboard-response","12","56092","0.0-1.0-1.5","crante","s","null","noncog","pseudo","N","prac","null"
"","null","html-keyboard-response","13","56593","0.0-1.0-0.6","+","null","","","","","",""
"","5355","html-keyboard-response","14","61947","0.0-1.0-1.6","plibar","s","null","noncog","pseudo","N","prac","null"
"[{""page_index"":0,""viewing_time"":9080}]","9080","instructions","15","71028","0.0-2.0","","","","","","","",""
"","null","html-keyboard-response","16","71629","0.0-3.0-0.0","+","null","","","","","",""
"","3278","html-keyboard-response","17","74907","0.0-3.0-1.0","tela","s","n","noncog","word","S","exp","4"
"","null","html-keyboard-response","18","75410","0.0-3.0-0.1","+","null","","","","","",""
"","2136","html-keyboard-response","19","77547","0.0-3.0-1.1","multiplicar","s","v","cog","word","S","exp","11"
"","null","html-keyboard-response","20","78048","0.0-3.0-0.2","+","null","","","","","",""
"","3034","html-keyboard-response","21","81083","0.0-3.0-1.2","chorão","s","a","noncog","word","S","exp","6"
"","null","html-keyboard-response","22","81583","0.0-3.0-0.3","+","null","","","","","",""
"","3131","html-keyboard-response","23","84715","0.0-3.0-1.3","filme","s","n","cog","word","S","exp","5"
"","null","html-keyboard-response","24","85216","0.0-3.0-0.4","+","null","","","","","",""
"","3162","html-keyboard-response","25","88379","0.0-3.0-1.4","fasdas","s","null","noncog","pseudo","N","exp","null"
"","null","html-keyboard-response","26","88880","0.0-3.0-0.5","+","null","","","","","",""
"","2538","html-keyboard-response","27","91419","0.0-3.0-1.5","aparme","s","null","noncog","pseudo","N","exp","null"
"","null","html-keyboard-response","28","91919","0.0-3.0-0.6","+","null","","","","","",""
"","2107","html-keyboard-response","29","94027","0.0-3.0-1.6","verde","s","a","noncog","word","S","exp","5"
"","null","html-keyboard-response","30","94529","0.0-3.0-0.7","+","null","","","","","",""
"","5082","html-keyboard-response","31","99611","0.0-3.0-1.7","morno","s","a","noncog","word","S","exp","5"
"","null","html-keyboard-response","32","100112","0.0-3.0-0.8","+","null","","","","","",""
"","2618","html-keyboard-response","33","102731","0.0-3.0-1.8","verdade","s","n","cog","word","S","exp","7"
"","null","html-keyboard-response","34","103231","0.0-3.0-0.9","+","null","","","","","",""
"","2139","html-keyboard-response","35","105371","0.0-3.0-1.9","tinta","s","n","cog","word","S","exp","5"
"","null","html-keyboard-response","36","105872","0.0-3.0-0.10","+","null","","","","","",""
"","4347","html-keyboard-response","37","110219","0.0-3.0-1.10","berquesa","s","null","noncog","pseudo","N","exp","null"
"","null","html-keyboard-response","38","110720","0.0-3.0-0.11","+","null","","","","","",""
"","2170","html-keyboard-response","39","112891","0.0-3.0-1.11","liberal","s","a","cog","word","S","exp","7"
"","null","html-keyboard-response","40","113396","0.0-3.0-0.12","+","null","","","","","",""
"","2103","html-keyboard-response","41","115499","0.0-3.0-1.12","chato","s","n","noncog","word","S","exp","5"
"","null","html-keyboard-response","42","116000","0.0-3.0-0.13","+","null","","","","","",""
"","2314","html-keyboard-response","43","118315","0.0-3.0-1.13","grátis","s","a","cog","word","S","exp","6"
"","null","html-keyboard-response","44","118816","0.0-3.0-0.14","+","null","","","","","",""
"","2346","html-keyboard-response","45","121163","0.0-3.0-1.14","espionar","s","v","cog","word","S","exp","8"
"","null","html-keyboard-response","46","121664","0.0-3.0-0.15","+","null","","","","","",""
"","2378","html-keyboard-response","47","124042","0.0-3.0-1.15","sanque","s","null","noncog","pseudo","N","exp","null"
"","null","html-keyboard-response","48","124543","0.0-3.0-0.16","+","null","","","","","",""
"","2794","html-keyboard-response","49","127338","0.0-3.0-1.16","hébies","s","null","noncog","pseudo","N","exp","null"
"","null","html-keyboard-response","50","127838","0.0-3.0-0.17","+","null","","","","","",""
"","2459","html-keyboard-response","51","130298","0.0-3.0-1.17","extravagante","s","a","cog","word","S","exp","12"
"","null","html-keyboard-response","52","130799","0.0-3.0-0.18","+","null","","","","","",""
"","2315","html-keyboard-response","53","133114","0.0-3.0-1.18","adoçar","s","v","noncog","word","S","exp","6"
"","null","html-keyboard-response","54","133616","0.0-3.0-0.19","+","null","","","","","",""
"","2474","html-keyboard-response","55","136090","0.0-3.0-1.19","imitar","s","v","cog","word","S","exp","6"
"","null","html-keyboard-response","56","136591","0.0-3.0-0.20","+","null","","","","","",""
"","2139","html-keyboard-response","57","138730","0.0-3.0-1.20","espinho","s","n","noncog","word","S","exp","7"
"","null","html-keyboard-response","58","139233","0.0-3.0-0.21","+","null","","","","","",""
"","7512","html-keyboard-response","59","146746","0.0-3.0-1.21","alpica","n","null","noncog","pseudo","N","exp","null"
"","null","html-keyboard-response","60","147247","0.0-3.0-0.22","+","null","","","","","",""
"","5226","html-keyboard-response","61","152473","0.0-3.0-1.22","costra","s","null","noncog","pseudo","N","exp","null"
"","null","html-keyboard-response","62","152975","0.0-3.0-0.23","+","null","","","","","",""
"","2682","html-keyboard-response","63","155658","0.0-3.0-1.23","abieso","n","null","noncog","pseudo","N","exp","null"
"","null","html-keyboard-response","64","156158","0.0-3.0-0.24","+","null","","","","","",""
"","2347","html-keyboard-response","65","158506","0.0-3.0-1.24","risbos","s","null","noncog","pseudo","N","exp","null"
"","null","html-keyboard-response","66","159007","0.0-3.0-0.25","+","null","","","","","",""
"","2251","html-keyboard-response","67","161258","0.0-3.0-1.25","rédesa","s","null","noncog","pseudo","N","exp","null"
"","null","html-keyboard-response","68","161759","0.0-3.0-0.26","+","null","","","","","",""
"","4266","html-keyboard-response","69","166026","0.0-3.0-1.26","vervas","s","null","noncog","pseudo","N","exp","null"
"","null","html-keyboard-response","70","166526","0.0-3.0-0.27","+","null","","","","","",""
"","2523","html-keyboard-response","71","169050","0.0-3.0-1.27","atitro","s","null","noncog","pseudo","N","exp","null"
"","null","html-keyboard-response","72","169550","0.0-3.0-0.28","+","null","","","","","",""
"","2891","html-keyboard-response","73","172441","0.0-3.0-1.28","independente","s","a","noncog","word","S","exp","12"
"","null","html-keyboard-response","74","172943","0.0-3.0-0.29","+","null","","","","","",""
"","4031","html-keyboard-response","75","176974","0.0-3.0-1.29","bagunceira","n","a","noncog","word","S","exp","10"
"","null","html-keyboard-response","76","177475","0.0-3.0-0.30","+","null","","","","","",""
"","2262","html-keyboard-response","77","179738","0.0-3.0-1.30","socorro","s","n","noncog","word","S","exp","7"
"","null","html-keyboard-response","78","180239","0.0-3.0-0.31","+","null","","","","","",""
"","2442","html-keyboard-response","79","182681","0.0-3.0-1.31","aperor","s","null","noncog","pseudo","N","exp","null"
"","null","html-keyboard-response","80","183182","0.0-3.0-0.32","+","null","","","","","",""
"","2171","html-keyboard-response","81","185353","0.0-3.0-1.32","trair","s","v","cog","word","S","exp","5"
"","null","html-keyboard-response","82","185854","0.0-3.0-0.33","+","null","","","","","",""
"","2266","html-keyboard-response","83","188120","0.0-3.0-1.33","resmungar","s","v","noncog","word","S","exp","9"
"","null","html-keyboard-response","84","188621","0.0-3.0-0.34","+","null","","","","","",""
"","2267","html-keyboard-response","85","190888","0.0-3.0-1.34","motre","s","null","noncog","pseudo","N","exp","null"
"","null","html-keyboard-response","86","191390","0.0-3.0-0.35","+","null","","","","","",""
"","2586","html-keyboard-response","87","193976","0.0-3.0-1.35","montanha","s","n","cog","word","S","exp","8"
"","null","html-keyboard-response","88","194478","0.0-3.0-0.36","+","null","","","","","",""
"","2842","html-keyboard-response","89","197320","0.0-3.0-1.36","avenas","s","null","noncog","pseudo","N","exp","null"
"","null","html-keyboard-response","90","197821","0.0-3.0-0.37","+","null","","","","","",""
"","2507","html-keyboard-response","91","200328","0.0-3.0-1.37","telefone","s","n","cog","word","S","exp","8"
"","null","html-keyboard-response","92","200829","0.0-3.0-0.38","+","null","","","","","",""
"","2667","html-keyboard-response","93","203496","0.0-3.0-1.38","pangos","n","null","noncog","pseudo","N","exp","null"
"","null","html-keyboard-response","94","203998","0.0-3.0-0.39","+","null","","","","","",""
"","2714","html-keyboard-response","95","206712","0.0-3.0-1.39","bibarconato","s","null","noncog","pseudo","N","exp","null"
"","null","html-keyboard-response","96","207213","0.0-3.0-0.40","+","null","","","","","",""
"","2875","html-keyboard-response","97","210088","0.0-3.0-1.40","planalto","s","n","cog","word","S","exp","8"
"","null","html-keyboard-response","98","210589","0.0-3.0-0.41","+","null","","","","","",""
"","2363","html-keyboard-response","99","212952","0.0-3.0-1.41","undivídio","s","null","noncog","pseudo","N","exp","null"
"","null","html-keyboard-response","100","213454","0.0-3.0-0.42","+","null","","","","","",""
"","2569","html-keyboard-response","101","216024","0.0-3.0-1.42","dilheira","s","null","noncog","pseudo","N","exp","null"
"","null","html-keyboard-response","102","216526","0.0-3.0-0.43","+","null","","","","","",""
"","2442","html-keyboard-response","103","218968","0.0-3.0-1.43","gertas","n","null","noncog","pseudo","N","exp","null"
"","null","html-keyboard-response","104","219469","0.0-3.0-0.44","+","null","","","","","",""
"","2283","html-keyboard-response","105","221753","0.0-3.0-1.44","bracos","s","null","noncog","pseudo","N","exp","null"
"","null","html-keyboard-response","106","222254","0.0-3.0-0.45","+","null","","","","","",""
"","3386","html-keyboard-response","107","225640","0.0-3.0-1.45","bancada","s","n","noncog","word","S","exp","7"
"","null","html-keyboard-response","108","226141","0.0-3.0-0.46","+","null","","","","","",""
"","2283","html-keyboard-response","109","228424","0.0-3.0-1.46","beima","n","null","noncog","pseudo","N","exp","null"
"","null","html-keyboard-response","110","228935","0.0-3.0-0.47","+","null","","","","","",""
"","2305","html-keyboard-response","111","231240","0.0-3.0-1.47","ideisa","s","null","noncog","pseudo","N","exp","null"
"","null","html-keyboard-response","112","231742","0.0-3.0-0.48","+","null","","","","","",""
"","2122","html-keyboard-response","113","233864","0.0-3.0-1.48","trenos","s","null","noncog","pseudo","N","exp","null"
"","null","html-keyboard-response","114","234366","0.0-3.0-0.49","+","null","","","","","",""
"","3354","html-keyboard-response","115","237720","0.0-3.0-1.49","usnado","s","null","noncog","pseudo","N","exp","null"
"","null","html-keyboard-response","116","238221","0.0-3.0-0.50","+","null","","","","","",""
"","2603","html-keyboard-response","117","240824","0.0-3.0-1.50","garastia","s","null","noncog","pseudo","N","exp","null"
"","null","html-keyboard-response","118","241326","0.0-3.0-0.51","+","null","","","","","",""
"","2202","html-keyboard-response","119","243528","0.0-3.0-1.51","comércio","s","n","noncog","word","S","exp","8"
"","null","html-keyboard-response","120","244029","0.0-3.0-0.52","+","null","","","","","",""
"","2619","html-keyboard-response","121","246647","0.0-3.0-1.52","dencosto","s","null","noncog","pseudo","N","exp","null"
"","null","html-keyboard-response","122","247148","0.0-3.0-0.53","+","null","","","","","",""
"","2299","html-keyboard-response","123","249448","0.0-3.0-1.53","viver","s","v","cog","word","S","exp","5"
"","null","html-keyboard-response","124","249949","0.0-3.0-0.54","+","null","","","","","",""
"","2634","html-keyboard-response","125","252583","0.0-3.0-1.54","nivelado","s","a","cog","word","S","exp","8"
"","null","html-keyboard-response","126","253085","0.0-3.0-0.55","+","null","","","","","",""
"","3290","html-keyboard-response","127","256376","0.0-3.0-1.55","pritas","s","null","noncog","pseudo","N","exp","null"
"","null","html-keyboard-response","128","256877","0.0-3.0-0.56","+","null","","","","","",""
"","2939","html-keyboard-response","129","259816","0.0-3.0-1.56","delomir","n","null","noncog","pseudo","N","exp","null"
"","null","html-keyboard-response","130","260317","0.0-3.0-0.57","+","null","","","","","",""
"","2186","html-keyboard-response","131","262504","0.0-3.0-1.57","irratinte","s","null","noncog","pseudo","N","exp","null"
"","null","html-keyboard-response","132","263005","0.0-3.0-0.58","+","null","","","","","",""
"","2266","html-keyboard-response","133","265271","0.0-3.0-1.58","mudança","s","n","noncog","word","S","exp","7"
"","null","html-keyboard-response","134","265772","0.0-3.0-0.59","+","null","","","","","",""
"","2139","html-keyboard-response","135","267911","0.0-3.0-1.59","jantar","s","v","noncog","word","S","exp","6"
"","null","html-keyboard-response","136","268412","0.0-3.0-0.60","+","null","","","","","",""
"","2091","html-keyboard-response","137","270504","0.0-3.0-1.60","nacional","s","a","cog","word","S","exp","8"
"","null","html-keyboard-response","138","271004","0.0-3.0-0.61","+","null","","","","","",""
"","2875","html-keyboard-response","139","273879","0.0-3.0-1.61","frotes","s","null","noncog","pseudo","N","exp","null"
"","null","html-keyboard-response","140","274390","0.0-3.0-0.62","+","null","","","","","",""
"","2385","html-keyboard-response","141","276775","0.0-3.0-1.62","dipata","n","null","noncog","pseudo","N","exp","null"
"","null","html-keyboard-response","142","277276","0.0-3.0-0.63","+","null","","","","","",""
"","2171","html-keyboard-response","143","279448","0.0-3.0-1.63","deselegante","s","a","noncog","word","S","exp","11"
"","null","html-keyboard-response","144","279949","0.0-3.0-0.64","+","null","","","","","",""
"","2298","html-keyboard-response","145","282248","0.0-3.0-1.64","refletir","s","v","cog","word","S","exp","8"
"","null","html-keyboard-response","146","282748","0.0-3.0-0.65","+","null","","","","","",""
"","2139","html-keyboard-response","147","284887","0.0-3.0-1.65","taberia","s","null","noncog","pseudo","N","exp","null"
"","null","html-keyboard-response","148","285389","0.0-3.0-0.66","+","null","","","","","",""
"","14219","html-keyboard-response","149","299608","0.0-3.0-1.66","ronronar","n","v","cog","word","S","exp","8"
"","null","html-keyboard-response","150","300108","0.0-3.0-0.67","+","null","","","","","",""
"","3723","html-keyboard-response","151","303832","0.0-3.0-1.67","instruído","n","a","noncog","word","S","exp","9"
"","null","html-keyboard-response","152","304333","0.0-3.0-0.68","+","null","","","","","",""
"","3226","html-keyboard-response","153","307559","0.0-3.0-1.68","aivões","n","null","noncog","pseudo","N","exp","null"
"","null","html-keyboard-response","154","308060","0.0-3.0-0.69","+","null","","","","","",""
"","2570","html-keyboard-response","155","310631","0.0-3.0-1.69","âgnulo","n","null","noncog","pseudo","N","exp","null"
"","null","html-keyboard-response","156","311131","0.0-3.0-0.70","+","null","","","","","",""
"","5932","html-keyboard-response","157","317063","0.0-3.0-1.70","motros","n","null","noncog","pseudo","N","exp","null"
"","null","html-keyboard-response","158","317564","0.0-3.0-0.71","+","null","","","","","",""
"","2603","html-keyboard-response","159","320167","0.0-3.0-1.71","memória","n","n","cog","word","S","exp","7"
"","null","html-keyboard-response","160","320669","0.0-3.0-0.72","+","null","","","","","",""
"","2186","html-keyboard-response","161","322855","0.0-3.0-1.72","tartos","n","null","noncog","pseudo","N","exp","null"
"","null","html-keyboard-response","162","323356","0.0-3.0-0.73","+","null","","","","","",""
"","2091","html-keyboard-response","163","325447","0.0-3.0-1.73","ilhure","n","null","noncog","pseudo","N","exp","null"
"","null","html-keyboard-response","164","325948","0.0-3.0-0.74","+","null","","","","","",""
"","2139","html-keyboard-response","165","328087","0.0-3.0-1.74","fratos","n","null","noncog","pseudo","N","exp","null"
"","null","html-keyboard-response","166","328589","0.0-3.0-0.75","+","null","","","","","",""
"","2794","html-keyboard-response","167","331383","0.0-3.0-1.75","boreta","n","null","noncog","pseudo","N","exp","null"
"","null","html-keyboard-response","168","331884","0.0-3.0-0.76","+","null","","","","","",""
"","2122","html-keyboard-response","169","334007","0.0-3.0-1.76","gilha","n","null","noncog","pseudo","N","exp","null"
"","null","html-keyboard-response","170","334508","0.0-3.0-0.77","+","null","","","","","",""
"","2667","html-keyboard-response","171","337175","0.0-3.0-1.77","podilo","n","null","noncog","pseudo","N","exp","null"
"","null","html-keyboard-response","172","337686","0.0-3.0-0.78","+","null","","","","","",""
"","2592","html-keyboard-response","173","340279","0.0-3.0-1.78","ofreta","n","null","noncog","pseudo","N","exp","null"
"","null","html-keyboard-response","174","340780","0.0-3.0-0.79","+","null","","","","","",""
"","2522","html-keyboard-response","175","343303","0.0-3.0-1.79","glória","n","n","cog","word","S","exp","6"
"","null","html-keyboard-response","176","343805","0.0-3.0-0.80","+","null","","","","","",""
"","3146","html-keyboard-response","177","346951","0.0-3.0-1.80","distraído","n","a","cog","word","S","exp","9"
"","null","html-keyboard-response","178","347453","0.0-3.0-0.81","+","null","","","","","",""
"","2234","html-keyboard-response","179","349687","0.0-3.0-1.81","hedoru","n","null","noncog","pseudo","N","exp","null"
"","null","html-keyboard-response","180","350188","0.0-3.0-0.82","+","null","","","","","",""
"","2235","html-keyboard-response","181","352423","0.0-3.0-1.82","mabras","n","null","noncog","pseudo","N","exp","null"
"","null","html-keyboard-response","182","352925","0.0-3.0-0.83","+","null","","","","","",""
"","2170","html-keyboard-response","183","355095","0.0-3.0-1.83","apontar","n","v","noncog","word","S","exp","7"
"","null","html-keyboard-response","184","355601","0.0-3.0-0.84","+","null","","","","","",""
"","2149","html-keyboard-response","185","357751","0.0-3.0-1.84","pulmão","n","n","noncog","word","S","exp","6"
"","null","html-keyboard-response","186","358256","0.0-3.0-0.85","+","null","","","","","",""
"","2134","html-keyboard-response","187","360391","0.0-3.0-1.85","atapdar","n","null","noncog","pseudo","N","exp","null"
"","null","html-keyboard-response","188","360892","0.0-3.0-0.86","+","null","","","","","",""
"","2123","html-keyboard-response","189","363015","0.0-3.0-1.86","detative","n","null","noncog","pseudo","N","exp","null"
"","null","html-keyboard-response","190","363516","0.0-3.0-0.87","+","null","","","","","",""
"","2315","html-keyboard-response","191","365831","0.0-3.0-1.87","crolatário","n","null","noncog","pseudo","N","exp","null"
"","null","html-keyboard-response","192","366332","0.0-3.0-0.88","+","null","","","","","",""
"","2203","html-keyboard-response","193","368534","0.0-3.0-1.88","terdia","n","null","noncog","pseudo","N","exp","null"
"","null","html-keyboard-response","194","369035","0.0-3.0-0.89","+","null","","","","","",""
"","2266","html-keyboard-response","195","371302","0.0-3.0-1.89","salpicado","n","a","noncog","word","S","exp","9"
"","null","html-keyboard-response","196","371802","0.0-3.0-0.90","+","null","","","","","",""
"","2667","html-keyboard-response","197","374470","0.0-3.0-1.90","jastor","n","null","noncog","pseudo","N","exp","null"
"","null","html-keyboard-response","198","374971","0.0-3.0-0.91","+","null","","","","","",""
"","2091","html-keyboard-response","199","377062","0.0-3.0-1.91","escumo","n","null","noncog","pseudo","N","exp","null"
"","null","html-keyboard-response","200","377563","0.0-3.0-0.92","+","null","","","","","",""
"","6218","html-keyboard-response","201","383782","0.0-3.0-1.92","temperar","s","v","noncog","word","S","exp","8"
"","null","html-keyboard-response","202","384282","0.0-3.0-0.93","+","null","","","","","",""
"","2411","html-keyboard-response","203","386694","0.0-3.0-1.93","arranjar","n","v","cog","word","S","exp","8"
"","null","html-keyboard-response","204","387195","0.0-3.0-0.94","+","null","","","","","",""
"","2170","html-keyboard-response","205","389366","0.0-3.0-1.94","tatear","n","v","cog","word","S","exp","6"
"","null","html-keyboard-response","206","389868","0.0-3.0-0.95","+","null","","","","","",""
"","2649","html-keyboard-response","207","392517","0.0-3.0-1.95","revista","n","n","cog","word","S","exp","7"
"","null","html-keyboard-response","208","393019","0.0-3.0-0.96","+","null","","","","","",""
"","2027","html-keyboard-response","209","395046","0.0-3.0-1.96","aitrou","n","null","noncog","pseudo","N","exp","null"
"","null","html-keyboard-response","210","395547","0.0-3.0-0.97","+","null","","","","","",""
"","3034","html-keyboard-response","211","398582","0.0-3.0-1.97","promeção","n","null","noncog","pseudo","N","exp","null"
"","null","html-keyboard-response","212","399082","0.0-3.0-0.98","+","null","","","","","",""
"","2523","html-keyboard-response","213","401606","0.0-3.0-1.98","destino","n","n","cog","word","S","exp","7"
"","null","html-keyboard-response","214","402107","0.0-3.0-0.99","+","null","","","","","",""
"","2026","html-keyboard-response","215","404134","0.0-3.0-1.99","usfiga","n","null","noncog","pseudo","N","exp","null"
"","null","html-keyboard-response","216","404635","0.0-3.0-0.100","+","null","","","","","",""
"","2059","html-keyboard-response","217","406694","0.0-3.0-1.100","macras","n","null","noncog","pseudo","N","exp","null"
"","null","html-keyboard-response","218","407196","0.0-3.0-0.101","+","null","","","","","",""
"","2666","html-keyboard-response","219","409862","0.0-3.0-1.101","papai","n","n","cog","word","S","exp","5"
"","null","html-keyboard-response","220","410363","0.0-3.0-0.102","+","null","","","","","",""
"","2826","html-keyboard-response","221","413190","0.0-3.0-1.102","ocinto","n","null","noncog","pseudo","N","exp","null"
"","null","html-keyboard-response","222","413690","0.0-3.0-0.103","+","null","","","","","",""
"","1995","html-keyboard-response","223","415686","0.0-3.0-1.103","protas","n","null","noncog","pseudo","N","exp","null"
"","null","html-keyboard-response","224","416186","0.0-3.0-0.104","+","null","","","","","",""
"","1995","html-keyboard-response","225","418182","0.0-3.0-1.104","nevela","n","null","noncog","pseudo","N","exp","null"
"","null","html-keyboard-response","226","418683","0.0-3.0-0.105","+","null","","","","","",""
"","1978","html-keyboard-response","227","420662","0.0-3.0-1.105","incomodar","n","v","noncog","word","S","exp","9"
"","null","html-keyboard-response","228","421163","0.0-3.0-0.106","+","null","","","","","",""
"","3434","html-keyboard-response","229","424598","0.0-3.0-1.106","matinal","n","a","cog","word","S","exp","7"
"","null","html-keyboard-response","230","425098","0.0-3.0-0.107","+","null","","","","","",""
"","2235","html-keyboard-response","231","427334","0.0-3.0-1.107","perbas","n","null","noncog","pseudo","N","exp","null"
"","null","html-keyboard-response","232","427835","0.0-3.0-0.108","+","null","","","","","",""
"","2090","html-keyboard-response","233","429924","0.0-3.0-1.108","cápsula","n","n","noncog","word","S","exp","7"
"","null","html-keyboard-response","234","430425","0.0-3.0-0.109","+","null","","","","","",""
"","3786","html-keyboard-response","235","434212","0.0-3.0-1.109","parceter","n","null","noncog","pseudo","N","exp","null"
"","null","html-keyboard-response","236","434713","0.0-3.0-0.110","+","null","","","","","",""
"","1979","html-keyboard-response","237","436692","0.0-3.0-1.110","rovaz","n","null","noncog","pseudo","N","exp","null"
"","null","html-keyboard-response","238","437194","0.0-3.0-0.111","+","null","","","","","",""
"","3082","html-keyboard-response","239","440276","0.0-3.0-1.111","agravar","n","v","cog","word","S","exp","7"
"","null","html-keyboard-response","240","440778","0.0-3.0-0.112","+","null","","","","","",""
"","2074","html-keyboard-response","241","442852","0.0-3.0-1.112","carregar","n","v","noncog","word","S","exp","8"
"","null","html-keyboard-response","242","443353","0.0-3.0-0.113","+","null","","","","","",""
"","2043","html-keyboard-response","243","445396","0.0-3.0-1.113","oricia","n","null","noncog","pseudo","N","exp","null"
"","null","html-keyboard-response","244","445898","0.0-3.0-0.114","+","null","","","","","",""
"","2793","html-keyboard-response","245","448692","0.0-3.0-1.114","agressivo","s","a","cog","word","S","exp","9"
"","null","html-keyboard-response","246","449194","0.0-3.0-0.115","+","null","","","","","",""
"","2138","html-keyboard-response","247","451332","0.0-3.0-1.115","tronca","n","null","noncog","pseudo","N","exp","null"
"","null","html-keyboard-response","248","451833","0.0-3.0-0.116","+","null","","","","","",""
"","1979","html-keyboard-response","249","453812","0.0-3.0-1.116","prever","n","v","cog","word","S","exp","6"
"","null","html-keyboard-response","250","454313","0.0-3.0-0.117","+","null","","","","","",""
"","2155","html-keyboard-response","251","456468","0.0-3.0-1.117","revear","n","null","noncog","pseudo","N","exp","null"
"","null","html-keyboard-response","252","456969","0.0-3.0-0.118","+","null","","","","","",""
"","2011","html-keyboard-response","253","458980","0.0-3.0-1.118","areia","n","n","noncog","word","S","exp","5"
"","null","html-keyboard-response","254","459481","0.0-3.0-0.119","+","null","","","","","",""
"","2714","html-keyboard-response","255","462196","0.0-3.0-1.119","traduzir","n","v","cog","word","S","exp","8"
"","null","html-keyboard-response","256","462697","0.0-3.0-0.120","+","null","","","","","",""
"","2011","html-keyboard-response","257","464708","0.0-3.0-1.120","drama","n","n","cog","word","S","exp","5"
"","null","html-keyboard-response","258","465210","0.0-3.0-0.121","+","null","","","","","",""
"","2026","html-keyboard-response","259","467236","0.0-3.0-1.121","esfoce","n","null","noncog","pseudo","N","exp","null"
"","null","html-keyboard-response","260","467737","0.0-3.0-0.122","+","null","","","","","",""
"","2138","html-keyboard-response","261","469876","0.0-3.0-1.122","pega-pega","n","n","noncog","word","S","exp","8"
"","null","html-keyboard-response","262","470377","0.0-3.0-0.123","+","null","","","","","",""
"","3403","html-keyboard-response","263","473780","0.0-3.0-1.123","barco","n","n","cog","word","S","exp","5"
"","null","html-keyboard-response","264","474281","0.0-3.0-0.124","+","null","","","","","",""
"","2203","html-keyboard-response","265","476484","0.0-3.0-1.124","fino","n","a","cog","word","S","exp","4"
"","null","html-keyboard-response","266","476986","0.0-3.0-0.125","+","null","","","","","",""
"","3322","html-keyboard-response","267","480308","0.0-3.0-1.125","país","s","n","noncog","word","S","exp","4"
"","null","html-keyboard-response","268","480809","0.0-3.0-0.126","+","null","","","","","",""
"","8331","html-keyboard-response","269","489140","0.0-3.0-1.126","pneucania","n","null","noncog","pseudo","N","exp","null"
"","null","html-keyboard-response","270","489642","0.0-3.0-0.127","+","null","","","","","",""
"","3562","html-keyboard-response","271","493203","0.0-3.0-1.127","casuas","n","null","noncog","pseudo","N","exp","null"
"","null","html-keyboard-response","272","493704","0.0-3.0-0.128","+","null","","","","","",""
"","3739","html-keyboard-response","273","497443","0.0-3.0-1.128","lagras","n","null","noncog","pseudo","N","exp","null"
"","null","html-keyboard-response","274","497954","0.0-3.0-0.129","+","null","","","","","",""
"","2481","html-keyboard-response","275","500435","0.0-3.0-1.129","ênclio","n","null","noncog","pseudo","N","exp","null"
"","null","html-keyboard-response","276","500936","0.0-3.0-0.130","+","null","","","","","",""
"","2026","html-keyboard-response","277","502963","0.0-3.0-1.130","lorfaz","n","null","noncog","pseudo","N","exp","null"
"","null","html-keyboard-response","278","503464","0.0-3.0-0.131","+","null","","","","","",""
"","1995","html-keyboard-response","279","505459","0.0-3.0-1.131","oecano","n","null","noncog","pseudo","N","exp","null"
"","null","html-keyboard-response","280","505973","0.0-3.0-0.132","+","null","","","","","",""
"","3101","html-keyboard-response","281","509075","0.0-3.0-1.132","telafonir","n","null","noncog","pseudo","N","exp","null"
"","null","html-keyboard-response","282","509576","0.0-3.0-0.133","+","null","","","","","",""
"","3451","html-keyboard-response","283","513027","0.0-3.0-1.133","dobradiça","n","n","noncog","word","S","exp","9"
"","null","html-keyboard-response","284","513529","0.0-3.0-0.134","+","null","","","","","",""
"","3562","html-keyboard-response","285","517091","0.0-3.0-1.134","esperar","n","v","cog","word","S","exp","7"
"","null","html-keyboard-response","286","517592","0.0-3.0-0.135","+","null","","","","","",""
"","5723","html-keyboard-response","287","523315","0.0-3.0-1.135","encelhor","n","null","noncog","pseudo","N","exp","null"
"","null","html-keyboard-response","288","523816","0.0-3.0-0.136","+","null","","","","","",""
"","2715","html-keyboard-response","289","526532","0.0-3.0-1.136","reduzir","n","v","cog","word","S","exp","7"
"","null","html-keyboard-response","290","527033","0.0-3.0-0.137","+","null","","","","","",""
"","2506","html-keyboard-response","291","529539","0.0-3.0-1.137","tímido","n","a","cog","word","S","exp","6"
"","null","html-keyboard-response","292","530040","0.0-3.0-0.138","+","null","","","","","",""
"","2043","html-keyboard-response","293","532083","0.0-3.0-1.138","faínas","n","null","noncog","pseudo","N","exp","null"
"","null","html-keyboard-response","294","532584","0.0-3.0-0.139","+","null","","","","","",""
"","2267","html-keyboard-response","295","534851","0.0-3.0-1.139","senareta","n","null","noncog","pseudo","N","exp","null"
"","null","html-keyboard-response","296","535352","0.0-3.0-0.140","+","null","","","","","",""
"","3531","html-keyboard-response","297","538883","0.0-3.0-1.140","grótis","n","null","noncog","pseudo","N","exp","null"
"","null","html-keyboard-response","298","539384","0.0-3.0-0.141","+","null","","","","","",""
"","2187","html-keyboard-response","299","541571","0.0-3.0-1.141","cirado","n","null","noncog","pseudo","N","exp","null"
"","null","html-keyboard-response","300","542073","0.0-3.0-0.142","+","null","","","","","",""
"","3546","html-keyboard-response","301","545619","0.0-3.0-1.142","fusbão","n","null","noncog","pseudo","N","exp","null"
"","null","html-keyboard-response","302","546121","0.0-3.0-0.143","+","null","","","","","",""
"","2394","html-keyboard-response","303","548515","0.0-3.0-1.143","bambu","n","n","cog","word","S","exp","5"
"","null","html-keyboard-response","304","549016","0.0-3.0-0.144","+","null","","","","","",""
"","2779","html-keyboard-response","305","551795","0.0-3.0-1.144","enxerido","n","a","noncog","word","S","exp","8"
"","null","html-keyboard-response","306","552309","0.0-3.0-0.145","+","null","","","","","",""
"","1230","html-keyboard-response","307","553538","0.0-3.0-1.145","crutas","n","null","noncog","pseudo","N","exp","null"
"","null","html-keyboard-response","308","554039","0.0-3.0-0.146","+","null","","","","","",""
"","1067","html-keyboard-response","309","555106","0.0-3.0-1.146","mua","n","null","noncog","pseudo","N","exp","null"
"","null","html-keyboard-response","310","555608","0.0-3.0-0.147","+","null","","","","","",""
"","1146","html-keyboard-response","311","556754","0.0-3.0-1.147","suipestar","n","null","noncog","pseudo","N","exp","null"
"","null","html-keyboard-response","312","557255","0.0-3.0-0.148","+","null","","","","","",""
"","1547","html-keyboard-response","313","558802","0.0-3.0-1.148","tênis","n","n","cog","word","S","exp","5"
"","null","html-keyboard-response","314","559304","0.0-3.0-0.149","+","null","","","","","",""
"","1386","html-keyboard-response","315","560690","0.0-3.0-1.149","candifência","n","null","noncog","pseudo","N","exp","null"
"","null","html-keyboard-response","316","561191","0.0-3.0-0.150","+","null","","","","","",""
"","1531","html-keyboard-response","317","562722","0.0-3.0-1.150","promessa","n","n","noncog","word","S","exp","8"
"","null","html-keyboard-response","318","563224","0.0-3.0-0.151","+","null","","","","","",""
"","1402","html-keyboard-response","319","564626","0.0-3.0-1.151","cristal","n","n","cog","word","S","exp","7"
"","null","html-keyboard-response","320","565127","0.0-3.0-0.152","+","null","","","","","",""
"","1723","html-keyboard-response","321","566850","0.0-3.0-1.152","braras","n","null","noncog","pseudo","N","exp","null"
"","null","html-keyboard-response","322","567352","0.0-3.0-0.153","+","null","","","","","",""
"","1098","html-keyboard-response","323","568450","0.0-3.0-1.153","pedaço","n","n","noncog","word","S","exp","6"
"","null","html-keyboard-response","324","568951","0.0-3.0-0.154","+","null","","","","","",""
"","5563","html-keyboard-response","325","574514","0.0-3.0-1.154","pimada","n","null","noncog","pseudo","N","exp","null"
"","null","html-keyboard-response","326","575015","0.0-3.0-0.155","+","null","","","","","",""
"","2139","html-keyboard-response","327","577154","0.0-3.0-1.155","afonher","n","null","noncog","pseudo","N","exp","null"
"","null","html-keyboard-response","328","577655","0.0-3.0-0.156","+","null","","","","","",""
"","2250","html-keyboard-response","329","579906","0.0-3.0-1.156","animado","n","a","noncog","word","S","exp","7"
"","null","html-keyboard-response","330","580407","0.0-3.0-0.157","+","null","","","","","",""
"","2266","html-keyboard-response","331","582674","0.0-3.0-1.157","gruja","n","null","noncog","pseudo","N","exp","null"
"","null","html-keyboard-response","332","583176","0.0-3.0-0.158","+","null","","","","","",""
"","2282","html-keyboard-response","333","585458","0.0-3.0-1.158","mania","n","n","cog","word","S","exp","5"
"","null","html-keyboard-response","334","585971","0.0-3.0-0.159","+","null","","","","","",""
"","2367","html-keyboard-response","335","588338","0.0-3.0-1.159","cravo","n","n","noncog","word","S","exp","5"
"","null","html-keyboard-response","336","588841","0.0-3.0-0.160","+","null","","","","","",""
"","2249","html-keyboard-response","337","591090","0.0-3.0-1.160","cascata","n","n","noncog","word","S","exp","7"
"","null","html-keyboard-response","338","591592","0.0-3.0-0.161","+","null","","","","","",""
"","3050","html-keyboard-response","339","594642","0.0-3.0-1.161","nome","n","n","cog","word","S","exp","4"
"","null","html-keyboard-response","340","595144","0.0-3.0-0.162","+","null","","","","","",""
"","2058","html-keyboard-response","341","597202","0.0-3.0-1.162","enedro","n","null","noncog","pseudo","N","exp","null"
"","null","html-keyboard-response","342","597704","0.0-3.0-0.163","+","null","","","","","",""
"","2026","html-keyboard-response","343","599731","0.0-3.0-1.163","uçar","n","null","noncog","pseudo","N","exp","null"
"","null","html-keyboard-response","344","600232","0.0-3.0-0.164","+","null","","","","","",""
"","2202","html-keyboard-response","345","602434","0.0-3.0-1.164","aemaça","n","null","noncog","pseudo","N","exp","null"
"","null","html-keyboard-response","346","602936","0.0-3.0-0.165","+","null","","","","","",""
"","1994","html-keyboard-response","347","604931","0.0-3.0-1.165","selir","n","null","noncog","pseudo","N","exp","null"
"","null","html-keyboard-response","348","605432","0.0-3.0-0.166","+","null","","","","","",""
"","2554","html-keyboard-response","349","607986","0.0-3.0-1.166","hipócrita","n","a","noncog","word","S","exp","9"
"","null","html-keyboard-response","350","608487","0.0-3.0-0.167","+","null","","","","","",""
"","2106","html-keyboard-response","351","610594","0.0-3.0-1.167","sustentar","n","v","noncog","word","S","exp","9"
"","null","html-keyboard-response","352","611095","0.0-3.0-0.168","+","null","","","","","",""
"","2235","html-keyboard-response","353","613330","0.0-3.0-1.168","dia","s","n","noncog","word","S","exp","3"
"","null","html-keyboard-response","354","613831","0.0-3.0-0.169","+","null","","","","","",""
"","2330","html-keyboard-response","355","616162","0.0-3.0-1.169","prenas","n","null","noncog","pseudo","N","exp","null"
"","null","html-keyboard-response","356","616663","0.0-3.0-0.170","+","null","","","","","",""
"","2362","html-keyboard-response","357","619026","0.0-3.0-1.170","verceja","n","null","noncog","pseudo","N","exp","null"
"","null","html-keyboard-response","358","619527","0.0-3.0-0.171","+","null","","","","","",""
"","3178","html-keyboard-response","359","622706","0.0-3.0-1.171","árovre","s","null","noncog","pseudo","N","exp","null"
"","null","html-keyboard-response","360","623206","0.0-3.0-0.172","+","null","","","","","",""
"","827","html-keyboard-response","361","624034","0.0-3.0-1.172","prantal","n","null","noncog","pseudo","N","exp","null"
"","null","html-keyboard-response","362","624535","0.0-3.0-0.173","+","null","","","","","",""
"","1402","html-keyboard-response","363","625938","0.0-3.0-1.173","aletiê","n","null","noncog","pseudo","N","exp","null"
"","null","html-keyboard-response","364","626439","0.0-3.0-0.174","+","null","","","","","",""
"","3802","html-keyboard-response","365","630242","0.0-3.0-1.174","afual","n","null","noncog","pseudo","N","exp","null"
"","null","html-keyboard-response","366","630744","0.0-3.0-0.175","+","null","","","","","",""
"","2777","html-keyboard-response","367","633522","0.0-3.0-1.175","tio","s","n","noncog","word","S","exp","3"
"","null","html-keyboard-response","368","634023","0.0-3.0-0.176","+","null","","","","","",""
"","2634","html-keyboard-response","369","636658","0.0-3.0-1.176","carro","s","n","noncog","word","S","exp","5"
"","null","html-keyboard-response","370","637160","0.0-3.0-0.177","+","null","","","","","",""
"","2538","html-keyboard-response","371","639698","0.0-3.0-1.177","cinema","s","n","cog","word","S","exp","6"
"","null","html-keyboard-response","372","640198","0.0-3.0-0.178","+","null","","","","","",""
"","3019","html-keyboard-response","373","643218","0.0-3.0-1.178","delirar","n","v","noncog","word","S","exp","7"
"","null","html-keyboard-response","374","643719","0.0-3.0-0.179","+","null","","","","","",""
"","2426","html-keyboard-response","375","646146","0.0-3.0-1.179","convidado","s","n","noncog","word","S","exp","9"
"","null","html-keyboard-response","376","646647","0.0-3.0-0.180","+","null","","","","","",""
"","2474","html-keyboard-response","377","649122","0.0-3.0-1.180","civil","s","a","cog","word","S","exp","5"
"","null","html-keyboard-response","378","649623","0.0-3.0-0.181","+","null","","","","","",""
"","2266","html-keyboard-response","379","651890","0.0-3.0-1.181","cerca","n","n","noncog","word","S","exp","5"
"","null","html-keyboard-response","380","652391","0.0-3.0-0.182","+","null","","","","","",""
"","3995","html-keyboard-response","381","656386","0.0-3.0-1.182","grave","n","a","cog","word","S","exp","5"
"","null","html-keyboard-response","382","656886","0.0-3.0-0.183","+","null","","","","","",""
"","2731","html-keyboard-response","383","659618","0.0-3.0-1.183","azul","s","n","noncog","word","S","exp","4"
"","null","html-keyboard-response","384","660119","0.0-3.0-0.184","+","null","","","","","",""
"","2251","html-keyboard-response","385","662370","0.0-3.0-1.184","carona","n","n","noncog","word","S","exp","6"
"","null","html-keyboard-response","386","662871","0.0-3.0-0.185","+","null","","","","","",""
"","2459","html-keyboard-response","387","665330","0.0-3.0-1.185","pantufa","n","n","cog","word","S","exp","7"
"","null","html-keyboard-response","388","665832","0.0-3.0-0.186","+","null","","","","","",""
"","3850","html-keyboard-response","389","669682","0.0-3.0-1.186","pitada","s","n","noncog","word","S","exp","6"
"","null","html-keyboard-response","390","670183","0.0-3.0-0.187","+","null","","","","","",""
"","2922","html-keyboard-response","391","673106","0.0-3.0-1.187","mal","n","a","cog","word","S","exp","3"
"","null","html-keyboard-response","392","673606","0.0-3.0-0.188","+","null","","","","","",""
"","2731","html-keyboard-response","393","676336","0.0-3.0-1.188","gordo","s","a","noncog","word","S","exp","5"
"","null","html-keyboard-response","394","676837","0.0-3.0-0.189","+","null","","","","","",""
"","2522","html-keyboard-response","395","679360","0.0-3.0-1.189","cenada","n","null","noncog","pseudo","N","exp","null"
"","null","html-keyboard-response","396","679861","0.0-3.0-0.190","+","null","","","","","",""
"","2138","html-keyboard-response","397","682000","0.0-3.0-1.190","franda","n","null","noncog","pseudo","N","exp","null"
"","null","html-keyboard-response","398","682502","0.0-3.0-0.191","+","null","","","","","",""
"","2057","html-keyboard-response","399","684560","0.0-3.0-1.191","nervoso","n","a","noncog","word","S","exp","7"
"","null","html-keyboard-response","400","685061","0.0-3.0-0.192","+","null","","","","","",""
"","2218","html-keyboard-response","401","687280","0.0-3.0-1.192","loaco","n","null","noncog","pseudo","N","exp","null"
"","null","html-keyboard-response","402","687782","0.0-3.0-0.193","+","null","","","","","",""
"","2554","html-keyboard-response","403","690336","0.0-3.0-1.193","oper","n","null","noncog","pseudo","N","exp","null"
"","null","html-keyboard-response","404","690837","0.0-3.0-0.194","+","null","","","","","",""
"","2219","html-keyboard-response","405","693056","0.0-3.0-1.194","lagoa","n","n","cog","word","S","exp","5"
"","null","html-keyboard-response","406","693558","0.0-3.0-0.195","+","null","","","","","",""
"","2330","html-keyboard-response","407","695888","0.0-3.0-1.195","morar","s","v","noncog","word","S","exp","5"
"","null","html-keyboard-response","408","696390","0.0-3.0-0.196","+","null","","","","","",""
"","3514","html-keyboard-response","409","699904","0.0-3.0-1.196","vitrive","s","null","noncog","pseudo","N","exp","null"
"","null","html-keyboard-response","410","700406","0.0-3.0-0.197","+","null","","","","","",""
"","2202","html-keyboard-response","411","702608","0.0-3.0-1.197","brincar","s","v","noncog","word","S","exp","7"
"","null","html-keyboard-response","412","703110","0.0-3.0-0.198","+","null","","","","","",""
"","2474","html-keyboard-response","413","705584","0.0-3.0-1.198","medalha","n","n","cog","word","S","exp","7"
"","null","html-keyboard-response","414","706086","0.0-3.0-0.199","+","null","","","","","",""
"","2330","html-keyboard-response","415","708416","0.0-3.0-1.199","farcas","s","null","noncog","pseudo","N","exp","null"
"","null","html-keyboard-response","416","708929","0.0-3.0-0.200","+","null","","","","","",""
"","2447","html-keyboard-response","417","711376","0.0-3.0-1.200","orupas","n","null","noncog","pseudo","N","exp","null"
"","null","html-keyboard-response","418","711878","0.0-3.0-0.201","+","null","","","","","",""
"","3226","html-keyboard-response","419","715104","0.0-3.0-1.201","morija","n","null","noncog","pseudo","N","exp","null"
"","null","html-keyboard-response","420","715606","0.0-3.0-0.202","+","null","","","","","",""
"","2122","html-keyboard-response","421","717728","0.0-3.0-1.202","lapestra","n","null","noncog","pseudo","N","exp","null"
"","null","html-keyboard-response","422","718230","0.0-3.0-0.203","+","null","","","","","",""
"","2010","html-keyboard-response","423","720240","0.0-3.0-1.203","fogão","n","n","noncog","word","S","exp","5"
"","null","html-keyboard-response","424","720741","0.0-3.0-0.204","+","null","","","","","",""
"","2891","html-keyboard-response","425","723632","0.0-3.0-1.204","trabalhar","s","v","noncog","word","S","exp","9"
"","null","html-keyboard-response","426","724133","0.0-3.0-0.205","+","null","","","","","",""
"","2075","html-keyboard-response","427","726208","0.0-3.0-1.205","uchães","n","null","noncog","pseudo","N","exp","null"
"","null","html-keyboard-response","428","726709","0.0-3.0-0.206","+","null","","","","","",""
"","2011","html-keyboard-response","429","728720","0.0-3.0-1.206","sintonizar","n","v","noncog","word","S","exp","10"
"","null","html-keyboard-response","430","729222","0.0-3.0-0.207","+","null","","","","","",""
"","4874","html-keyboard-response","431","734096","0.0-3.0-1.207","francês","s","a","cog","word","S","exp","7"
"","null","html-keyboard-response","432","734597","0.0-3.0-0.208","+","null","","","","","",""
"","2875","html-keyboard-response","433","737471","0.0-3.0-1.208","perdão","s","n","noncog","word","S","exp","6"
"","null","html-keyboard-response","434","737972","0.0-3.0-0.209","+","null","","","","","",""
"","3018","html-keyboard-response","435","740991","0.0-3.0-1.209","especial","n","a","cog","word","S","exp","8"
"","null","html-keyboard-response","436","741493","0.0-3.0-0.210","+","null","","","","","",""
"","2698","html-keyboard-response","437","744191","0.0-3.0-1.210","bandido","n","n","cog","word","S","exp","7"
"","null","html-keyboard-response","438","744692","0.0-3.0-0.211","+","null","","","","","",""
"","3963","html-keyboard-response","439","748655","0.0-3.0-1.211","disbrituir","n","null","noncog","pseudo","N","exp","null"
"","null","html-keyboard-response","440","749156","0.0-3.0-0.212","+","null","","","","","",""
"","2170","html-keyboard-response","441","751327","0.0-3.0-1.212","quenzina","n","null","noncog","pseudo","N","exp","null"
"","null","html-keyboard-response","442","751828","0.0-3.0-0.213","+","null","","","","","",""
"","3274","html-keyboard-response","443","755103","0.0-3.0-1.213","fofo","n","a","noncog","word","S","exp","4"
"","null","html-keyboard-response","444","755604","0.0-3.0-0.214","+","null","","","","","",""
"","2411","html-keyboard-response","445","758015","0.0-3.0-1.214","ótimo","s","a","noncog","word","S","exp","5"
"","null","html-keyboard-response","446","758525","0.0-3.0-0.215","+","null","","","","","",""
"","3042","html-keyboard-response","447","761567","0.0-3.0-1.215","alfabeto","s","n","cog","word","S","exp","8"
"","null","html-keyboard-response","448","762069","0.0-3.0-0.216","+","null","","","","","",""
"","2506","html-keyboard-response","449","764575","0.0-3.0-1.216","preferir","n","v","cog","word","S","exp","8"
"","null","html-keyboard-response","450","765091","0.0-3.0-0.217","+","null","","","","","",""
"","2203","html-keyboard-response","451","767295","0.0-3.0-1.217","propaganda","n","n","cog","word","S","exp","10"
"","null","html-keyboard-response","452","767796","0.0-3.0-0.218","+","null","","","","","",""
"","2075","html-keyboard-response","453","769871","0.0-3.0-1.218","plinta","n","null","noncog","pseudo","N","exp","null"
"","null","html-keyboard-response","454","770372","0.0-3.0-0.219","+","null","","","","","",""
"","2107","html-keyboard-response","455","772479","0.0-3.0-1.219","ensuas","n","null","noncog","pseudo","N","exp","null"
"","null","html-keyboard-response","456","772980","0.0-3.0-0.220","+","null","","","","","",""
"","2667","html-keyboard-response","457","775647","0.0-3.0-1.220","livro","s","n","cog","word","S","exp","5"
"","null","html-keyboard-response","458","776148","0.0-3.0-0.221","+","null","","","","","",""
"","2139","html-keyboard-response","459","778287","0.0-3.0-1.221","ejerro","n","null","noncog","pseudo","N","exp","null"
"","null","html-keyboard-response","460","778788","0.0-3.0-0.222","+","null","","","","","",""
"","2187","html-keyboard-response","461","780975","0.0-3.0-1.222","manais","n","null","noncog","pseudo","N","exp","null"
"","null","html-keyboard-response","462","781485","0.0-3.0-0.223","+","null","","","","","",""
"","1954","html-keyboard-response","463","783439","0.0-3.0-1.223","liso","n","n","noncog","word","S","exp","4"
"","null","html-keyboard-response","464","783940","0.0-3.0-0.224","+","null","","","","","",""
"","2859","html-keyboard-response","465","786799","0.0-3.0-1.224","raspar","n","v","noncog","word","S","exp","6"
"","null","html-keyboard-response","466","787300","0.0-3.0-0.225","+","null","","","","","",""
"","2059","html-keyboard-response","467","789359","0.0-3.0-1.225","bachir","n","null","noncog","pseudo","N","exp","null"
"","null","html-keyboard-response","468","789860","0.0-3.0-0.226","+","null","","","","","",""
"","2522","html-keyboard-response","469","792383","0.0-3.0-1.226","sábio","n","n","noncog","word","S","exp","5"
"","null","html-keyboard-response","470","792885","0.0-3.0-0.227","+","null","","","","","",""
"","2666","html-keyboard-response","471","795551","0.0-3.0-1.227","filosofia","n","n","cog","word","S","exp","9"
"","null","html-keyboard-response","472","796052","0.0-3.0-0.228","+","null","","","","","",""
"","2171","html-keyboard-response","473","798222","0.0-3.0-1.228","conjerto","n","null","noncog","pseudo","N","exp","null"
"","null","html-keyboard-response","474","798723","0.0-3.0-0.229","+","null","","","","","",""
"","2091","html-keyboard-response","475","800814","0.0-3.0-1.229","burtos","n","null","noncog","pseudo","N","exp","null"
"","null","html-keyboard-response","476","801315","0.0-3.0-0.230","+","null","","","","","",""
"","1946","html-keyboard-response","477","803262","0.0-3.0-1.230","melão","n","n","cog","word","S","exp","5"
"","null","html-keyboard-response","478","803763","0.0-3.0-0.231","+","null","","","","","",""
"","2059","html-keyboard-response","479","805822","0.0-3.0-1.231","esprotiar","n","null","noncog","pseudo","N","exp","null"
"","null","html-keyboard-response","480","806323","0.0-3.0-0.232","+","null","","","","","",""
"","2315","html-keyboard-response","481","808638","0.0-3.0-1.232","espaço","s","n","cog","word","S","exp","6"
"","null","html-keyboard-response","482","809140","0.0-3.0-0.233","+","null","","","","","",""
"","2026","html-keyboard-response","483","811166","0.0-3.0-1.233","euorpa","n","null","noncog","pseudo","N","exp","null"
"","null","html-keyboard-response","484","811667","0.0-3.0-0.234","+","null","","","","","",""
"","2795","html-keyboard-response","485","814462","0.0-3.0-1.234","atrasar","n","v","noncog","word","S","exp","7"
"","null","html-keyboard-response","486","814967","0.0-3.0-0.235","+","null","","","","","",""
"","2711","html-keyboard-response","487","817678","0.0-3.0-1.235","dacada","n","null","noncog","pseudo","N","exp","null"
"","null","html-keyboard-response","488","818179","0.0-3.0-0.236","+","null","","","","","",""
"","2266","html-keyboard-response","489","820446","0.0-3.0-1.236","açúcar","n","n","noncog","word","S","exp","6"
"","null","html-keyboard-response","490","820947","0.0-3.0-0.237","+","null","","","","","",""
"","2026","html-keyboard-response","491","822974","0.0-3.0-1.237","manfa","n","null","noncog","pseudo","N","exp","null"
"","null","html-keyboard-response","492","823475","0.0-3.0-0.238","+","null","","","","","",""
"","2362","html-keyboard-response","493","825838","0.0-3.0-1.238","enxarto","n","null","noncog","pseudo","N","exp","null"
"","null","html-keyboard-response","494","826339","0.0-3.0-0.239","+","null","","","","","",""
"","2011","html-keyboard-response","495","828350","0.0-3.0-1.239","anjo","n","n","cog","word","S","exp","4"
