[
	{
		"view_history": [
			{
				"page_index": 0,
				"viewing_time": 3513
			}
		],
		"rt": 3513,
		"trial_type": "instructions",
		"trial_index": 0,
		"time_elapsed": 3514,
		"internal_node_id": "0.0-0.0"
	},
	{
		"rt": 15437,
		"response": {
			"tcle": "Concordo voluntariamente em participar da pesquisa conforme texto acima."
		},
		"question_order": [
			0
		],
		"trial_type": "survey-multi-choice",
		"trial_index": 1,
		"time_elapsed": 19155,
		"internal_node_id": "0.0-1.0"
	},
	{
		"rt": 15508,
		"response": {
			"email": "I4IIX"
		},
		"trial_type": "survey-text",
		"trial_index": 2,
		"time_elapsed": 35691,
		"internal_node_id": "0.0-2.0"
	}
]