"view_history","rt","trial_type","trial_index","time_elapsed","internal_node_id","stimulus","response","trial_part","trial","word","question","answer","accuracy"
"[{""page_index"":0,""viewing_time"":133301},{""page_index"":1,""viewing_time"":3864}]","137166","instructions","0","137165","0.0-0.0","","","","","","","",""
"","null","html-keyboard-response","1","138267","0.0-1.0-0.0-0.0","<span style= ""font-size:30px; font-family: monospace"">+</span>","null","fixation","","","","",""
"","12040","html-keyboard-response","2","150558","0.0-1.0-1.0","<span style=""font-size:30px; font-family: monospace"">O</span>"," ","","prac-sent","O","","",""
"","4916","html-keyboard-response","3","155725","0.0-1.0-1.1","<span style=""font-size:30px; font-family: monospace"">dia</span>"," ","","prac-sent","dia","","",""
"","18885","html-keyboard-response","4","174861","0.0-1.0-1.2","<span style=""font-size:30px; font-family: monospace"">estará</span>"," ","","prac-sent","estará","","",""
"","4485","html-keyboard-response","5","179597","0.0-1.0-1.3","<span style=""font-size:30px; font-family: monospace"">cheio</span>"," ","","prac-sent","cheio","","",""
"","6004","html-keyboard-response","6","185853","0.0-1.0-1.4","<span style=""font-size:30px; font-family: monospace"">de</span>"," ","","prac-sent","de","","",""
"","2806","html-keyboard-response","7","188909","0.0-1.0-1.5","<span style=""font-size:30px; font-family: monospace"">nuvens</span>"," ","","prac-sent","nuvens","","",""
"","4388","html-keyboard-response","8","193548","0.0-1.0-1.6","<span style=""font-size:30px; font-family: monospace"">hoje.</span>"," ","","prac-sent","hoje.","","",""
"","null","html-keyboard-response","9","194800","0.0-1.0-0.7-0.7","<span style= ""font-size:30px; font-family: monospace"">+</span>","null","fixation","","","","",""
"","2289","html-keyboard-response","10","197340","0.0-1.0-1.7","<span style=""font-size:30px; font-family: monospace"">A</span>"," ","","prac-sent","A","","",""
"","2148","html-keyboard-response","11","199740","0.0-1.0-1.8","<span style=""font-size:30px; font-family: monospace"">caneca</span>"," ","","prac-sent","caneca","","",""
"","1798","html-keyboard-response","12","201788","0.0-1.0-1.9","<span style=""font-size:30px; font-family: monospace"">colorida</span>"," ","","prac-sent","colorida","","",""
"","2117","html-keyboard-response","13","204156","0.0-1.0-1.10","<span style=""font-size:30px; font-family: monospace"">caiu</span>"," ","","prac-sent","caiu","","",""
"","2213","html-keyboard-response","14","206620","0.0-1.0-1.11","<span style=""font-size:30px; font-family: monospace"">da</span>"," ","","prac-sent","da","","",""
"","2598","html-keyboard-response","15","209469","0.0-1.0-1.12","<span style=""font-size:30px; font-family: monospace"">mesa</span>"," ","","prac-sent","mesa","","",""
"","2820","html-keyboard-response","16","212540","0.0-1.0-1.13","<span style=""font-size:30px; font-family: monospace"">de</span>"," ","","prac-sent","de","","",""
"","2180","html-keyboard-response","17","214972","0.0-1.0-1.14","<span style=""font-size:30px; font-family: monospace"">jantar.</span>"," ","","prac-comp","jantar.","","",""
"","32390","html-keyboard-response","18","247612","0.0-1.0-2.14-0.14","<span style=""font-size:30px; font-family: monospace"">A caneca permaneceu na mesa?</span>","n","","prac-comp","","A caneca permaneceu na mesa?","não","false"
"[{""page_index"":0,""viewing_time"":62595}]","62595","instructions","19","310709","0.0-2.0","","","","","","","",""
"","null","html-keyboard-response","20","311812","0.0-3.0-0.0-0.0","<span style= ""font-size:30px; font-family: monospace"">+</span>","null","fixation","","","","",""
"","5886","html-keyboard-response","21","317949","0.0-3.0-1.0","<span style=""font-size:30px; font-family: monospace"">O</span>"," ","","exp-sent","O","","",""
"","5557","html-keyboard-response","22","323757","0.0-3.0-1.1","<span style=""font-size:30px; font-family: monospace"">texto</span>"," ","","exp-sent","texto","","",""
"","6053","html-keyboard-response","23","330061","0.0-3.0-1.2","<span style=""font-size:30px; font-family: monospace"">trazia</span>"," ","","exp-sent","trazia","","",""
"","5669","html-keyboard-response","24","335981","0.0-3.0-1.3","<span style=""font-size:30px; font-family: monospace"">um</span>"," ","","exp-sent","um","","",""
"","15717","html-keyboard-response","25","351948","0.0-3.0-1.4","<span style=""font-size:30px; font-family: monospace"">argumento</span>"," ","","exp-sent","argumento","","",""
"","4710","html-keyboard-response","26","356908","0.0-3.0-1.5","<span style=""font-size:30px; font-family: monospace"">central</span>"," ","","exp-sent","central","","",""
"","34980","html-keyboard-response","27","392140","0.0-3.0-1.6","<span style=""font-size:30px; font-family: monospace"">para</span>"," ","","exp-sent","para","","",""
"","2965","html-keyboard-response","28","395355","0.0-3.0-1.7","<span style=""font-size:30px; font-family: monospace"">a</span>"," ","","exp-sent","a","","",""
"","16421","html-keyboard-response","29","412028","0.0-3.0-1.8","<span style=""font-size:30px; font-family: monospace"">conversa.</span>"," ","","exp-sent","conversa.","","",""
"","null","html-keyboard-response","30","413281","0.0-3.0-0.9-0.9","<span style= ""font-size:30px; font-family: monospace"">+</span>","null","fixation","","","","",""
"","1617","html-keyboard-response","31","415148","0.0-3.0-1.9","<span style=""font-size:30px; font-family: monospace"">Ontem</span>"," ","","exp-sent","Ontem","","",""
"","2293","html-keyboard-response","32","417692","0.0-3.0-1.10","<span style=""font-size:30px; font-family: monospace"">a</span>"," ","","exp-sent","a","","",""
"","25157","html-keyboard-response","33","443100","0.0-3.0-1.11","<span style=""font-size:30px; font-family: monospace"">temperatura</span>"," ","","exp-sent","temperatura","","",""
"","4805","html-keyboard-response","34","448156","0.0-3.0-1.12","<span style=""font-size:30px; font-family: monospace"">estava</span>"," ","","exp-sent","estava","","",""
"","3412","html-keyboard-response","35","451820","0.0-3.0-1.13","<span style=""font-size:30px; font-family: monospace"">amena</span>"," ","","exp-sent","amena","","",""
"","5301","html-keyboard-response","36","457372","0.0-3.0-1.14","<span style=""font-size:30px; font-family: monospace"">durante</span>"," ","","exp-sent","durante","","",""
"","7669","html-keyboard-response","37","465293","0.0-3.0-1.15","<span style=""font-size:30px; font-family: monospace"">o</span>"," ","","exp-sent","o","","",""
"","18005","html-keyboard-response","38","483547","0.0-3.0-1.16","<span style=""font-size:30px; font-family: monospace"">dia.</span>"," ","","exp-sent","dia.","","",""
"","null","html-keyboard-response","39","484800","0.0-3.0-0.17-0.17","<span style= ""font-size:30px; font-family: monospace"">+</span>","null","fixation","","","","",""
"","48800","html-keyboard-response","40","533851","0.0-3.0-1.17","<span style=""font-size:30px; font-family: monospace"">Havia</span>"," ","","exp-sent","Havia","","",""
"","3413","html-keyboard-response","41","537515","0.0-3.0-1.18","<span style=""font-size:30px; font-family: monospace"">um</span>"," ","","exp-sent","um","","",""
"","19093","html-keyboard-response","42","556859","0.0-3.0-1.19","<span style=""font-size:30px; font-family: monospace"">machucado</span>"," ","","exp-sent","machucado","","",""
"","3284","html-keyboard-response","43","560395","0.0-3.0-1.20","<span style=""font-size:30px; font-family: monospace"">no</span>"," ","","exp-sent","no","","",""
"","3669","html-keyboard-response","44","564315","0.0-3.0-1.21","<span style=""font-size:30px; font-family: monospace"">dedo</span>"," ","","exp-sent","dedo","","",""
"","15125","html-keyboard-response","45","579691","0.0-3.0-1.22","<span style=""font-size:30px; font-family: monospace"">da</span>"," ","","exp-sent","da","","",""
"","63796","html-keyboard-response","46","643739","0.0-3.0-1.23","<span style=""font-size:30px; font-family: monospace"">criança.</span>"," ","","exp-sent","criança.","","",""
"","null","html-keyboard-response","47","644992","0.0-3.0-0.24-0.24","<span style= ""font-size:30px; font-family: monospace"">+</span>","null","fixation","","","","",""
"","7552","html-keyboard-response","48","652795","0.0-3.0-1.24","<span style=""font-size:30px; font-family: monospace"">A</span>"," ","","exp-sent","A","","",""
"","6469","html-keyboard-response","49","659515","0.0-3.0-1.25","<span style=""font-size:30px; font-family: monospace"">borboleta</span>"," ","","exp-sent","borboleta","","",""
"","8261","html-keyboard-response","50","668027","0.0-3.0-1.26","<span style=""font-size:30px; font-family: monospace"">pousou</span>"," ","","exp-sent","pousou","","",""
"","3141","html-keyboard-response","51","671419","0.0-3.0-1.27","<span style=""font-size:30px; font-family: monospace"">no</span>"," ","","exp-sent","no","","",""
"","3494","html-keyboard-response","52","675163","0.0-3.0-1.28","<span style=""font-size:30px; font-family: monospace"">ombro</span>"," ","","exp-sent","ombro","","",""
"","7254","html-keyboard-response","53","682667","0.0-3.0-1.29","<span style=""font-size:30px; font-family: monospace"">daquela</span>"," ","","exp-sent","daquela","","",""
"","26580","html-keyboard-response","54","709498","0.0-3.0-1.30","<span style=""font-size:30px; font-family: monospace"">moça.</span>"," ","","exp-sent","moça.","","",""
"","null","html-keyboard-response","55","710751","0.0-3.0-0.31-0.31","<span style= ""font-size:30px; font-family: monospace"">+</span>","null","fixation","","","","",""
"","1776","html-keyboard-response","56","712778","0.0-3.0-1.31","<span style=""font-size:30px; font-family: monospace"">Eu</span>"," ","","exp-sent","Eu","","",""
"","4629","html-keyboard-response","57","717658","0.0-3.0-1.32","<span style=""font-size:30px; font-family: monospace"">quero</span>"," ","","exp-sent","quero","","",""
"","2869","html-keyboard-response","58","720778","0.0-3.0-1.33","<span style=""font-size:30px; font-family: monospace"">um</span>"," ","","exp-sent","um","","",""
"","4453","html-keyboard-response","59","725482","0.0-3.0-1.34","<span style=""font-size:30px; font-family: monospace"">namorado</span>"," ","","exp-sent","namorado","","",""
"","5573","html-keyboard-response","60","731306","0.0-3.0-1.35","<span style=""font-size:30px; font-family: monospace"">honesto</span>"," ","","exp-sent","honesto","","",""
"","3061","html-keyboard-response","61","734618","0.0-3.0-1.36","<span style=""font-size:30px; font-family: monospace"">e</span>"," ","","exp-sent","e","","",""
"","29510","html-keyboard-response","62","764378","0.0-3.0-1.37","<span style=""font-size:30px; font-family: monospace"">compreensivo.</span>"," ","","comp","compreensivo.","","",""
"","40997","html-keyboard-response","63","805626","0.0-3.0-2.37-0.37","<span style=""font-size:30px; font-family: monospace"">Eu quero um namorado honesto?</span>","s","","comp","","Eu quero um namorado honesto?","sim","false"
"","null","html-keyboard-response","64","807128","0.0-3.0-0.38-0.38","<span style= ""font-size:30px; font-family: monospace"">+</span>","null","fixation","","","","",""
"","10535","html-keyboard-response","65","817914","0.0-3.0-1.38","<span style=""font-size:30px; font-family: monospace"">Ursos</span>"," ","","exp-sent","Ursos","","",""
"","2997","html-keyboard-response","66","821162","0.0-3.0-1.39","<span style=""font-size:30px; font-family: monospace"">têm</span>"," ","","exp-sent","têm","","",""
"","2948","html-keyboard-response","67","824362","0.0-3.0-1.40","<span style=""font-size:30px; font-family: monospace"">uma</span>"," ","","exp-sent","uma","","",""
"","18885","html-keyboard-response","68","843498","0.0-3.0-1.41","<span style=""font-size:30px; font-family: monospace"">patada</span>"," ","","exp-sent","patada","","",""
"","8501","html-keyboard-response","69","852250","0.0-3.0-1.42","<span style=""font-size:30px; font-family: monospace"">brutal</span>"," ","","exp-sent","brutal","","",""
"","2900","html-keyboard-response","70","855402","0.0-3.0-1.43","<span style=""font-size:30px; font-family: monospace"">e</span>"," ","","exp-sent","e","","",""
"","51013","html-keyboard-response","71","906663","0.0-3.0-1.44","<span style=""font-size:30px; font-family: monospace"">poderosa.</span>"," ","","exp-sent","poderosa.","","",""
"","null","html-keyboard-response","72","907914","0.0-3.0-0.45-0.45","<span style= ""font-size:30px; font-family: monospace"">+</span>","null","fixation","","","","",""
"","3889","html-keyboard-response","73","912054","0.0-3.0-1.45","<span style=""font-size:30px; font-family: monospace"">Eu</span>"," ","","exp-sent","Eu","","",""
"","4245","html-keyboard-response","74","916550","0.0-3.0-1.46","<span style=""font-size:30px; font-family: monospace"">fiz</span>"," ","","exp-sent","fiz","","",""
"","3749","html-keyboard-response","75","920550","0.0-3.0-1.47","<span style=""font-size:30px; font-family: monospace"">aulas</span>"," ","","exp-sent","aulas","","",""
"","3189","html-keyboard-response","76","923990","0.0-3.0-1.48","<span style=""font-size:30px; font-family: monospace"">de</span>"," ","","exp-sent","de","","",""
"","4757","html-keyboard-response","77","928998","0.0-3.0-1.49","<span style=""font-size:30px; font-family: monospace"">espanhol</span>"," ","","exp-sent","espanhol","","",""
"","6405","html-keyboard-response","78","935654","0.0-3.0-1.50","<span style=""font-size:30px; font-family: monospace"">nesta</span>"," ","","exp-sent","nesta","","",""
"","16885","html-keyboard-response","79","952790","0.0-3.0-1.51","<span style=""font-size:30px; font-family: monospace"">cidade.</span>"," ","","exp-sent","cidade.","","",""
"","null","html-keyboard-response","80","954043","0.0-3.0-0.52-0.52","<span style= ""font-size:30px; font-family: monospace"">+</span>","null","fixation","","","","",""
"","5345","html-keyboard-response","81","959638","0.0-3.0-1.52","<span style=""font-size:30px; font-family: monospace"">Ele</span>"," ","","exp-sent","Ele","","",""
"","10773","html-keyboard-response","82","970662","0.0-3.0-1.53","<span style=""font-size:30px; font-family: monospace"">comprou</span>"," ","","exp-sent","comprou","","",""
"","3124","html-keyboard-response","83","974037","0.0-3.0-1.54","<span style=""font-size:30px; font-family: monospace"">mais</span>"," ","","exp-sent","mais","","",""
"","6469","html-keyboard-response","84","980758","0.0-3.0-1.55","<span style=""font-size:30px; font-family: monospace"">uma</span>"," ","","exp-sent","uma","","",""
"","6933","html-keyboard-response","85","987942","0.0-3.0-1.56","<span style=""font-size:30px; font-family: monospace"">esponja</span>"," ","","exp-sent","esponja","","",""
"","3493","html-keyboard-response","86","991685","0.0-3.0-1.57","<span style=""font-size:30px; font-family: monospace"">para</span>"," ","","exp-sent","para","","",""
"","2916","html-keyboard-response","87","994853","0.0-3.0-1.58","<span style=""font-size:30px; font-family: monospace"">a</span>"," ","","exp-sent","a","","",""
"","23963","html-keyboard-response","88","1019077","0.0-3.0-1.59","<span style=""font-size:30px; font-family: monospace"">cozinha.</span>"," ","","exp-sent","cozinha.","","",""
"","null","html-keyboard-response","89","1020330","0.0-3.0-0.60-0.60","<span style= ""font-size:30px; font-family: monospace"">+</span>","null","fixation","","","","",""
"","3665","html-keyboard-response","90","1024246","0.0-3.0-1.60","<span style=""font-size:30px; font-family: monospace"">Ele</span>"," ","","exp-sent","Ele","","",""
"","3188","html-keyboard-response","91","1027685","0.0-3.0-1.61","<span style=""font-size:30px; font-family: monospace"">teve</span>"," ","","exp-sent","teve","","",""
"","2933","html-keyboard-response","92","1030867","0.0-3.0-1.62","<span style=""font-size:30px; font-family: monospace"">um</span>"," ","","exp-sent","um","","",""
"","21685","html-keyboard-response","93","1052803","0.0-3.0-1.63","<span style=""font-size:30px; font-family: monospace"">sono</span>"," ","","exp-sent","sono","","",""
"","4565","html-keyboard-response","94","1057619","0.0-3.0-1.64","<span style=""font-size:30px; font-family: monospace"">bizarro</span>"," ","","exp-sent","bizarro","","",""
"","3093","html-keyboard-response","95","1060963","0.0-3.0-1.65","<span style=""font-size:30px; font-family: monospace"">sem</span>"," ","","exp-sent","sem","","",""
"","4405","html-keyboard-response","96","1065619","0.0-3.0-1.66","<span style=""font-size:30px; font-family: monospace"">nenhum</span>"," ","","exp-sent","nenhum","","",""
"","13090","html-keyboard-response","97","1078963","0.0-3.0-1.67","<span style=""font-size:30px; font-family: monospace"">motivo.</span>"," ","","exp-sent","motivo.","","",""
"","null","html-keyboard-response","98","1080215","0.0-3.0-0.68-0.68","<span style= ""font-size:30px; font-family: monospace"">+</span>","null","fixation","","","","",""
"","4225","html-keyboard-response","99","1084691","0.0-3.0-1.68","<span style=""font-size:30px; font-family: monospace"">A</span>"," ","","exp-sent","A","","",""
"","3780","html-keyboard-response","100","1088723","0.0-3.0-1.69","<span style=""font-size:30px; font-family: monospace"">moça</span>"," ","","exp-sent","moça","","",""
"","3365","html-keyboard-response","101","1092338","0.0-3.0-1.70","<span style=""font-size:30px; font-family: monospace"">comprou</span>"," ","","exp-sent","comprou","","",""
"","2806","html-keyboard-response","102","1095409","0.0-3.0-1.71","<span style=""font-size:30px; font-family: monospace"">um</span>"," ","","exp-sent","um","","",""
"","4074","html-keyboard-response","103","1099746","0.0-3.0-1.72","<span style=""font-size:30px; font-family: monospace"">diamante</span>"," ","","exp-sent","diamante","","",""
"","2901","html-keyboard-response","104","1102898","0.0-3.0-1.73","<span style=""font-size:30px; font-family: monospace"">para</span>"," ","","exp-sent","para","","",""
"","2880","html-keyboard-response","105","1106034","0.0-3.0-1.74","<span style=""font-size:30px; font-family: monospace"">sua</span>"," ","","exp-sent","sua","","",""
"","17989","html-keyboard-response","106","1124274","0.0-3.0-1.75","<span style=""font-size:30px; font-family: monospace"">prima.</span>"," ","","comp","prima.","","",""
"","13109","html-keyboard-response","107","1137634","0.0-3.0-2.75-0.75","<span style=""font-size:30px; font-family: monospace"">A moça comprou um diamante?</span>","s","","comp","","A moça comprou um diamante?","sim","false"
"","null","html-keyboard-response","108","1139136","0.0-3.0-0.76-0.76","<span style= ""font-size:30px; font-family: monospace"">+</span>","null","fixation","","","","",""
"","7399","html-keyboard-response","109","1146786","0.0-3.0-1.76","<span style=""font-size:30px; font-family: monospace"">Barulho</span>"," ","","exp-sent","Barulho","","",""
"","3061","html-keyboard-response","110","1150098","0.0-3.0-1.77","<span style=""font-size:30px; font-family: monospace"">de</span>"," ","","exp-sent","de","","",""
"","3268","html-keyboard-response","111","1153616","0.0-3.0-1.78","<span style=""font-size:30px; font-family: monospace"">carros</span>"," ","","exp-sent","carros","","",""
"","2628","html-keyboard-response","112","1156496","0.0-3.0-1.79","<span style=""font-size:30px; font-family: monospace"">é</span>"," ","","exp-sent","é","","",""
"","27647","html-keyboard-response","113","1184400","0.0-3.0-1.80","<span style=""font-size:30px; font-family: monospace"">irritante</span>"," ","","exp-sent","irritante","","",""
"","4069","html-keyboard-response","114","1188720","0.0-3.0-1.81","<span style=""font-size:30px; font-family: monospace"">para</span>"," ","","exp-sent","para","","",""
"","2886","html-keyboard-response","115","1191856","0.0-3.0-1.82","<span style=""font-size:30px; font-family: monospace"">a</span>"," ","","exp-sent","a","","",""
"","45445","html-keyboard-response","116","1237550","0.0-3.0-1.83","<span style=""font-size:30px; font-family: monospace"">moça.</span>"," ","","exp-sent","moça.","","",""
"","null","html-keyboard-response","117","1238801","0.0-3.0-0.84-0.84","<span style= ""font-size:30px; font-family: monospace"">+</span>","null","fixation","","","","",""
"","5953","html-keyboard-response","118","1245006","0.0-3.0-1.84","<span style=""font-size:30px; font-family: monospace"">A</span>"," ","","exp-sent","A","","",""
"","3285","html-keyboard-response","119","1248542","0.0-3.0-1.85","<span style=""font-size:30px; font-family: monospace"">loja</span>"," ","","exp-sent","loja","","",""
"","2853","html-keyboard-response","120","1251646","0.0-3.0-1.86","<span style=""font-size:30px; font-family: monospace"">também</span>"," ","","exp-sent","também","","",""
"","2980","html-keyboard-response","121","1254878","0.0-3.0-1.87","<span style=""font-size:30px; font-family: monospace"">vende</span>"," ","","exp-sent","vende","","",""
"","23621","html-keyboard-response","122","1278750","0.0-3.0-1.88","<span style=""font-size:30px; font-family: monospace"">taça</span>"," ","","exp-sent","taça","","",""
"","2853","html-keyboard-response","123","1281854","0.0-3.0-1.89","<span style=""font-size:30px; font-family: monospace"">de</span>"," ","","exp-sent","de","","",""
"","7188","html-keyboard-response","124","1289294","0.0-3.0-1.90","<span style=""font-size:30px; font-family: monospace"">vinho</span>"," ","","exp-sent","vinho","","",""
"","3126","html-keyboard-response","125","1292670","0.0-3.0-1.91","<span style=""font-size:30px; font-family: monospace"">e</span>"," ","","exp-sent","e","","",""
"","34597","html-keyboard-response","126","1327516","0.0-3.0-1.92","<span style=""font-size:30px; font-family: monospace"">espumante.</span>"," ","","exp-sent","espumante.","","",""
"","null","html-keyboard-response","127","1328768","0.0-3.0-0.93-0.93","<span style= ""font-size:30px; font-family: monospace"">+</span>","null","fixation","","","","",""
"","6577","html-keyboard-response","128","1335596","0.0-3.0-1.93","<span style=""font-size:30px; font-family: monospace"">A</span>"," ","","exp-sent","A","","",""
"","3013","html-keyboard-response","129","1338860","0.0-3.0-1.94","<span style=""font-size:30px; font-family: monospace"">bruxa</span>"," ","","exp-sent","bruxa","","",""
"","2500","html-keyboard-response","130","1341612","0.0-3.0-1.95","<span style=""font-size:30px; font-family: monospace"">tinha</span>"," ","","exp-sent","tinha","","",""
"","2293","html-keyboard-response","131","1344156","0.0-3.0-1.96","<span style=""font-size:30px; font-family: monospace"">uma</span>"," ","","exp-sent","uma","","",""
"","2741","html-keyboard-response","132","1347148","0.0-3.0-1.97","<span style=""font-size:30px; font-family: monospace"">vassoura</span>"," ","","exp-sent","vassoura","","",""
"","2260","html-keyboard-response","133","1349660","0.0-3.0-1.98","<span style=""font-size:30px; font-family: monospace"">e</span>"," ","","exp-sent","e","","",""
"","2565","html-keyboard-response","134","1352476","0.0-3.0-1.99","<span style=""font-size:30px; font-family: monospace"">um</span>"," ","","exp-sent","um","","",""
"","7989","html-keyboard-response","135","1360716","0.0-3.0-1.100","<span style=""font-size:30px; font-family: monospace"">gato.</span>"," ","","exp-sent","gato.","","",""
"","null","html-keyboard-response","136","1361967","0.0-3.0-0.101-0.101","<span style= ""font-size:30px; font-family: monospace"">+</span>","null","fixation","","","","",""
"","3586","html-keyboard-response","137","1365804","0.0-3.0-1.101","<span style=""font-size:30px; font-family: monospace"">Eu</span>"," ","","exp-sent","Eu","","",""
"","2405","html-keyboard-response","138","1368460","0.0-3.0-1.102","<span style=""font-size:30px; font-family: monospace"">me</span>"," ","","exp-sent","me","","",""
"","4165","html-keyboard-response","139","1372876","0.0-3.0-1.103","<span style=""font-size:30px; font-family: monospace"">divirto</span>"," ","","exp-sent","divirto","","",""
"","2453","html-keyboard-response","140","1375580","0.0-3.0-1.104","<span style=""font-size:30px; font-family: monospace"">em</span>"," ","","exp-sent","em","","",""
"","4805","html-keyboard-response","141","1380636","0.0-3.0-1.105","<span style=""font-size:30px; font-family: monospace"">festas</span>"," ","","exp-sent","festas","","",""
"","2500","html-keyboard-response","142","1383388","0.0-3.0-1.106","<span style=""font-size:30px; font-family: monospace"">de</span>"," ","","exp-sent","de","","",""
"","7733","html-keyboard-response","143","1391370","0.0-3.0-1.107","<span style=""font-size:30px; font-family: monospace"">criança.</span>"," ","","exp-sent","criança.","","",""
"","null","html-keyboard-response","144","1392622","0.0-3.0-0.108-0.108","<span style= ""font-size:30px; font-family: monospace"">+</span>","null","fixation","","","","",""
"","10465","html-keyboard-response","145","1403338","0.0-3.0-1.108","<span style=""font-size:30px; font-family: monospace"">A</span>"," ","","exp-sent","A","","",""
"","2901","html-keyboard-response","146","1406490","0.0-3.0-1.109","<span style=""font-size:30px; font-family: monospace"">janela</span>"," ","","exp-sent","janela","","",""
"","2643","html-keyboard-response","147","1409386","0.0-3.0-1.110","<span style=""font-size:30px; font-family: monospace"">alta</span>"," ","","exp-sent","alta","","",""
"","2438","html-keyboard-response","148","1412075","0.0-3.0-1.111","<span style=""font-size:30px; font-family: monospace"">estava</span>"," ","","exp-sent","estava","","",""
"","3684","html-keyboard-response","149","1416010","0.0-3.0-1.112","<span style=""font-size:30px; font-family: monospace"">quebrada</span>"," ","","exp-sent","quebrada","","",""
"","2389","html-keyboard-response","150","1418650","0.0-3.0-1.113","<span style=""font-size:30px; font-family: monospace"">desde</span>"," ","","exp-sent","desde","","",""
"","2293","html-keyboard-response","151","1421194","0.0-3.0-1.114","<span style=""font-size:30px; font-family: monospace"">ontem.</span>"," ","","comp","ontem.","","",""
"","44214","html-keyboard-response","152","1465656","0.0-3.0-2.114-0.114","<span style=""font-size:30px; font-family: monospace"">A janela alta estava quebrada?</span>","s","","comp","","A janela alta estava quebrada?","sim","false"
"","null","html-keyboard-response","153","1467157","0.0-3.0-0.115-0.115","<span style= ""font-size:30px; font-family: monospace"">+</span>","null","fixation","","","","",""
"","6071","html-keyboard-response","154","1473480","0.0-3.0-1.115","<span style=""font-size:30px; font-family: monospace"">A</span>"," ","","exp-sent","A","","",""
"","3541","html-keyboard-response","155","1477272","0.0-3.0-1.116","<span style=""font-size:30px; font-family: monospace"">força</span>"," ","","exp-sent","força","","",""
"","3093","html-keyboard-response","156","1480616","0.0-3.0-1.117","<span style=""font-size:30px; font-family: monospace"">d'água</span>"," ","","exp-sent","d'água","","",""
"","2564","html-keyboard-response","157","1483432","0.0-3.0-1.118","<span style=""font-size:30px; font-family: monospace"">estava</span>"," ","","exp-sent","estava","","",""
"","2678","html-keyboard-response","158","1486360","0.0-3.0-1.119","<span style=""font-size:30px; font-family: monospace"">normal</span>"," ","","exp-sent","normal","","",""
"","3477","html-keyboard-response","159","1490088","0.0-3.0-1.120","<span style=""font-size:30px; font-family: monospace"">naquele</span>"," ","","exp-sent","naquele","","",""
"","3060","html-keyboard-response","160","1493400","0.0-3.0-1.121","<span style=""font-size:30px; font-family: monospace"">dia.</span>"," ","","exp-sent","dia.","","",""
"","null","html-keyboard-response","161","1494651","0.0-3.0-0.122-0.122","<span style= ""font-size:30px; font-family: monospace"">+</span>","null","fixation","","","","",""
"","8466","html-keyboard-response","162","1503368","0.0-3.0-1.122","<span style=""font-size:30px; font-family: monospace"">A</span>"," ","","exp-sent","A","","",""
"","3333","html-keyboard-response","163","1506952","0.0-3.0-1.123","<span style=""font-size:30px; font-family: monospace"">médica</span>"," ","","exp-sent","médica","","",""
"","5013","html-keyboard-response","164","1512216","0.0-3.0-1.124","<span style=""font-size:30px; font-family: monospace"">ofereceu</span>"," ","","exp-sent","ofereceu","","",""
"","2774","html-keyboard-response","165","1515240","0.0-3.0-1.125","<span style=""font-size:30px; font-family: monospace"">a</span>"," ","","exp-sent","a","","",""
"","4133","html-keyboard-response","166","1519624","0.0-3.0-1.126","<span style=""font-size:30px; font-family: monospace"">pomada</span>"," ","","exp-sent","pomada","","",""
"","2613","html-keyboard-response","167","1522488","0.0-3.0-1.127","<span style=""font-size:30px; font-family: monospace"">para</span>"," ","","exp-sent","para","","",""
"","2310","html-keyboard-response","168","1525048","0.0-3.0-1.128","<span style=""font-size:30px; font-family: monospace"">o</span>"," ","","exp-sent","o","","",""
"","6549","html-keyboard-response","169","1531846","0.0-3.0-1.129","<span style=""font-size:30px; font-family: monospace"">avô.</span>"," ","","exp-sent","avô.","","",""
"","null","html-keyboard-response","170","1533099","0.0-3.0-0.130-0.130","<span style= ""font-size:30px; font-family: monospace"">+</span>","null","fixation","","","","",""
"","3857","html-keyboard-response","171","1537206","0.0-3.0-1.130","<span style=""font-size:30px; font-family: monospace"">Ele</span>"," ","","exp-sent","Ele","","",""
"","3166","html-keyboard-response","172","1540631","0.0-3.0-1.131","<span style=""font-size:30px; font-family: monospace"">conversou</span>"," ","","exp-sent","conversou","","",""
"","3556","html-keyboard-response","173","1544438","0.0-3.0-1.132","<span style=""font-size:30px; font-family: monospace"">com</span>"," ","","exp-sent","com","","",""
"","3028","html-keyboard-response","174","1547718","0.0-3.0-1.133","<span style=""font-size:30px; font-family: monospace"">o</span>"," ","","exp-sent","o","","",""
"","3462","html-keyboard-response","175","1551431","0.0-3.0-1.134","<span style=""font-size:30px; font-family: monospace"">patrão</span>"," ","","exp-sent","patrão","","",""
"","2805","html-keyboard-response","176","1554486","0.0-3.0-1.135","<span style=""font-size:30px; font-family: monospace"">durante</span>"," ","","exp-sent","durante","","",""
"","3381","html-keyboard-response","177","1558118","0.0-3.0-1.136","<span style=""font-size:30px; font-family: monospace"">a</span>"," ","","exp-sent","a","","",""
"","13572","html-keyboard-response","178","1571942","0.0-3.0-1.137","<span style=""font-size:30px; font-family: monospace"">tarde.</span>"," ","","exp-sent","tarde.","","",""
"","null","html-keyboard-response","179","1573194","0.0-3.0-0.138-0.138","<span style= ""font-size:30px; font-family: monospace"">+</span>","null","fixation","","","","",""
"","6417","html-keyboard-response","180","1579863","0.0-3.0-1.138","<span style=""font-size:30px; font-family: monospace"">Algumas</span>"," ","","exp-sent","Algumas","","",""
"","2740","html-keyboard-response","181","1582854","0.0-3.0-1.139","<span style=""font-size:30px; font-family: monospace"">pessoas</span>"," ","","exp-sent","pessoas","","",""
"","3397","html-keyboard-response","182","1586502","0.0-3.0-1.140","<span style=""font-size:30px; font-family: monospace"">acreditam</span>"," ","","exp-sent","acreditam","","",""
"","2421","html-keyboard-response","183","1589174","0.0-3.0-1.141","<span style=""font-size:30px; font-family: monospace"">em</span>"," ","","exp-sent","em","","",""
"","3700","html-keyboard-response","184","1593125","0.0-3.0-1.142","<span style=""font-size:30px; font-family: monospace"">espíritos</span>"," ","","exp-sent","espíritos","","",""
"","2740","html-keyboard-response","185","1596117","0.0-3.0-1.143","<span style=""font-size:30px; font-family: monospace"">e</span>"," ","","exp-sent","e","","",""
"","2452","html-keyboard-response","186","1598821","0.0-3.0-1.144","<span style=""font-size:30px; font-family: monospace"">em</span>"," ","","exp-sent","em","","",""
"","2692","html-keyboard-response","187","1601765","0.0-3.0-1.145","<span style=""font-size:30px; font-family: monospace"">outras</span>"," ","","exp-sent","outras","","",""
"","8100","html-keyboard-response","188","1610117","0.0-3.0-1.146","<span style=""font-size:30px; font-family: monospace"">vidas.</span>"," ","","exp-sent","vidas.","","",""
"","null","html-keyboard-response","189","1611368","0.0-3.0-0.147-0.147","<span style= ""font-size:30px; font-family: monospace"">+</span>","null","fixation","","","","",""
"","3506","html-keyboard-response","190","1615125","0.0-3.0-1.147","<span style=""font-size:30px; font-family: monospace"">Ela</span>"," ","","exp-sent","Ela","","",""
"","2997","html-keyboard-response","191","1618373","0.0-3.0-1.148","<span style=""font-size:30px; font-family: monospace"">gosta</span>"," ","","exp-sent","gosta","","",""
"","2404","html-keyboard-response","192","1621029","0.0-3.0-1.149","<span style=""font-size:30px; font-family: monospace"">de</span>"," ","","exp-sent","de","","",""
"","3060","html-keyboard-response","193","1624341","0.0-3.0-1.150","<span style=""font-size:30px; font-family: monospace"">estudar</span>"," ","","exp-sent","estudar","","",""
"","2821","html-keyboard-response","194","1627413","0.0-3.0-1.151","<span style=""font-size:30px; font-family: monospace"">matemática</span>"," ","","exp-sent","matemática","","",""
"","2341","html-keyboard-response","195","1630005","0.0-3.0-1.152","<span style=""font-size:30px; font-family: monospace"">com</span>"," ","","exp-sent","com","","",""
"","11333","html-keyboard-response","196","1641589","0.0-3.0-1.153","<span style=""font-size:30px; font-family: monospace"">colegas.</span>"," ","","comp","colegas.","","",""
"","10501","html-keyboard-response","197","1652341","0.0-3.0-2.153-0.153","<span style=""font-size:30px; font-family: monospace"">Ela gosta de estudar física?</span>","n","","comp","","Ela gosta de estudar física?","não","false"
"","null","html-keyboard-response","198","1653842","0.0-3.0-0.154-0.154","<span style= ""font-size:30px; font-family: monospace"">+</span>","null","fixation","","","","",""
"","1591","html-keyboard-response","199","1655684","0.0-3.0-1.154","<span style=""font-size:30px; font-family: monospace"">Ele</span>"," ","","exp-sent","Ele","","",""
"","4485","html-keyboard-response","200","1660420","0.0-3.0-1.155","<span style=""font-size:30px; font-family: monospace"">é</span>"," ","","exp-sent","é","","",""
"","5508","html-keyboard-response","201","1666180","0.0-3.0-1.156","<span style=""font-size:30px; font-family: monospace"">um</span>"," ","","exp-sent","um","","",""
"","4213","html-keyboard-response","202","1670644","0.0-3.0-1.157","<span style=""font-size:30px; font-family: monospace"">pai</span>"," ","","exp-sent","pai","","",""
"","4868","html-keyboard-response","203","1675764","0.0-3.0-1.158","<span style=""font-size:30px; font-family: monospace"">ausente</span>"," ","","exp-sent","ausente","","",""
"","4645","html-keyboard-response","204","1680660","0.0-3.0-1.159","<span style=""font-size:30px; font-family: monospace"">e</span>"," ","","exp-sent","e","","",""
"","3252","html-keyboard-response","205","1684164","0.0-3.0-1.160","<span style=""font-size:30px; font-family: monospace"">muito</span>"," ","","exp-sent","muito","","",""
"","19781","html-keyboard-response","206","1704196","0.0-3.0-1.161","<span style=""font-size:30px; font-family: monospace"">fofoqueiro.</span>"," ","","exp-sent","fofoqueiro.","","",""
"","null","html-keyboard-response","207","1705448","0.0-3.0-0.162-0.162","<span style= ""font-size:30px; font-family: monospace"">+</span>","null","fixation","","","","",""
"","6545","html-keyboard-response","208","1712244","0.0-3.0-1.162","<span style=""font-size:30px; font-family: monospace"">O</span>"," ","","exp-sent","O","","",""
"","4309","html-keyboard-response","209","1716802","0.0-3.0-1.163","<span style=""font-size:30px; font-family: monospace"">filho</span>"," ","","exp-sent","filho","","",""
"","2741","html-keyboard-response","210","1719794","0.0-3.0-1.164","<span style=""font-size:30px; font-family: monospace"">lavou</span>"," ","","exp-sent","lavou","","",""
"","2804","html-keyboard-response","211","1722850","0.0-3.0-1.165","<span style=""font-size:30px; font-family: monospace"">a</span>"," ","","exp-sent","a","","",""
"","2597","html-keyboard-response","212","1725698","0.0-3.0-1.166","<span style=""font-size:30px; font-family: monospace"">roupa</span>"," ","","exp-sent","roupa","","",""
"","2485","html-keyboard-response","213","1728434","0.0-3.0-1.167","<span style=""font-size:30px; font-family: monospace"">sem</span>"," ","","exp-sent","sem","","",""
"","3541","html-keyboard-response","214","1732226","0.0-3.0-1.168","<span style=""font-size:30px; font-family: monospace"">nenhuma</span>"," ","","exp-sent","nenhuma","","",""
"","8437","html-keyboard-response","215","1740914","0.0-3.0-1.169","<span style=""font-size:30px; font-family: monospace"">ajuda.</span>"," ","","exp-sent","ajuda.","","",""
"","null","html-keyboard-response","216","1742166","0.0-3.0-0.170-0.170","<span style= ""font-size:30px; font-family: monospace"">+</span>","null","fixation","","","","",""
"","5922","html-keyboard-response","217","1748338","0.0-3.0-1.170","<span style=""font-size:30px; font-family: monospace"">O</span>"," ","","exp-sent","O","","",""
"","2837","html-keyboard-response","218","1751426","0.0-3.0-1.171","<span style=""font-size:30px; font-family: monospace"">menino</span>"," ","","exp-sent","menino","","",""
"","3732","html-keyboard-response","219","1755411","0.0-3.0-1.172","<span style=""font-size:30px; font-family: monospace"">quebrou</span>"," ","","exp-sent","quebrou","","",""
"","2852","html-keyboard-response","220","1758514","0.0-3.0-1.173","<span style=""font-size:30px; font-family: monospace"">a</span>"," ","","exp-sent","a","","",""
"","6710","html-keyboard-response","221","1765474","0.0-3.0-1.174","<span style=""font-size:30px; font-family: monospace"">perna</span>"," ","","exp-sent","perna","","",""
"","2357","html-keyboard-response","222","1768082","0.0-3.0-1.175","<span style=""font-size:30px; font-family: monospace"">nos</span>"," ","","exp-sent","nos","","",""
"","30244","html-keyboard-response","223","1798576","0.0-3.0-1.176","<span style=""font-size:30px; font-family: monospace"">esportes.</span>"," ","","exp-sent","esportes.","","",""
"","null","html-keyboard-response","224","1799828","0.0-3.0-0.177-0.177","<span style= ""font-size:30px; font-family: monospace"">+</span>","null","fixation","","","","",""
"","3761","html-keyboard-response","225","1803840","0.0-3.0-1.177","<span style=""font-size:30px; font-family: monospace"">Ela</span>"," ","","exp-sent","Ela","","",""
"","3525","html-keyboard-response","226","1807617","0.0-3.0-1.178","<span style=""font-size:30px; font-family: monospace"">brincou</span>"," ","","exp-sent","brincou","","",""
"","2581","html-keyboard-response","227","1810448","0.0-3.0-1.179","<span style=""font-size:30px; font-family: monospace"">com</span>"," ","","exp-sent","com","","",""
"","4101","html-keyboard-response","228","1814800","0.0-3.0-1.180","<span style=""font-size:30px; font-family: monospace"">uma</span>"," ","","exp-sent","uma","","",""
"","2965","html-keyboard-response","229","1818017","0.0-3.0-1.181","<span style=""font-size:30px; font-family: monospace"">menina</span>"," ","","exp-sent","menina","","",""
"","2565","html-keyboard-response","230","1820833","0.0-3.0-1.182","<span style=""font-size:30px; font-family: monospace"">da</span>"," ","","exp-sent","da","","",""
"","10981","html-keyboard-response","231","1832064","0.0-3.0-1.183","<span style=""font-size:30px; font-family: monospace"">turma.</span>"," ","","exp-sent","turma.","","",""
"","null","html-keyboard-response","232","1833316","0.0-3.0-0.184-0.184","<span style= ""font-size:30px; font-family: monospace"">+</span>","null","fixation","","","","",""
"","5762","html-keyboard-response","233","1839328","0.0-3.0-1.184","<span style=""font-size:30px; font-family: monospace"">Ele</span>"," ","","exp-sent","Ele","","",""
"","5445","html-keyboard-response","234","1845024","0.0-3.0-1.185","<span style=""font-size:30px; font-family: monospace"">esteve</span>"," ","","exp-sent","esteve","","",""
"","3734","html-keyboard-response","235","1849009","0.0-3.0-1.186","<span style=""font-size:30px; font-family: monospace"">no</span>"," ","","exp-sent","no","","",""
"","15557","html-keyboard-response","236","1864814","0.0-3.0-1.187","<span style=""font-size:30px; font-family: monospace"">escritório</span>"," ","","exp-sent","escritório","","",""
"","2532","html-keyboard-response","237","1867598","0.0-3.0-1.188","<span style=""font-size:30px; font-family: monospace"">o</span>"," ","","exp-sent","o","","",""
"","3045","html-keyboard-response","238","1870894","0.0-3.0-1.189","<span style=""font-size:30px; font-family: monospace"">dia</span>"," ","","exp-sent","dia","","",""
"","11156","html-keyboard-response","239","1882302","0.0-3.0-1.190","<span style=""font-size:30px; font-family: monospace"">inteiro.</span>"," ","","comp","inteiro.","","",""
"","24837","html-keyboard-response","240","1907390","0.0-3.0-2.190-0.190","<span style=""font-size:30px; font-family: monospace"">Ele esteve no parque o dia inteiro?</span>","n","","comp","","Ele esteve no parque o dia inteiro?","não","false"
"","null","html-keyboard-response","241","1908892","0.0-3.0-0.191-0.191","<span style= ""font-size:30px; font-family: monospace"">+</span>","null","fixation","","","","",""
"","3671","html-keyboard-response","242","1912814","0.0-3.0-1.191","<span style=""font-size:30px; font-family: monospace"">A</span>"," ","","exp-sent","A","","",""
"","5189","html-keyboard-response","243","1918254","0.0-3.0-1.192","<span style=""font-size:30px; font-family: monospace"">motorista</span>"," ","","exp-sent","motorista","","",""
"","3141","html-keyboard-response","244","1921646","0.0-3.0-1.193","<span style=""font-size:30px; font-family: monospace"">fez</span>"," ","","exp-sent","fez","","",""
"","2645","html-keyboard-response","245","1924542","0.0-3.0-1.194","<span style=""font-size:30px; font-family: monospace"">o</span>"," ","","exp-sent","o","","",""
"","4533","html-keyboard-response","246","1929325","0.0-3.0-1.195","<span style=""font-size:30px; font-family: monospace"">retorno</span>"," ","","exp-sent","retorno","","",""
"","2837","html-keyboard-response","247","1932413","0.0-3.0-1.196","<span style=""font-size:30px; font-family: monospace"">com</span>"," ","","exp-sent","com","","",""
"","9669","html-keyboard-response","248","1942333","0.0-3.0-1.197","<span style=""font-size:30px; font-family: monospace"">cuidado.</span>"," ","","exp-sent","cuidado.","","",""
"","null","html-keyboard-response","249","1943585","0.0-3.0-0.198-0.198","<span style= ""font-size:30px; font-family: monospace"">+</span>","null","fixation","","","","",""
"","4818","html-keyboard-response","250","1948653","0.0-3.0-1.198","<span style=""font-size:30px; font-family: monospace"">Contos</span>"," ","","exp-sent","Contos","","",""
"","2933","html-keyboard-response","251","1951837","0.0-3.0-1.199","<span style=""font-size:30px; font-family: monospace"">de</span>"," ","","exp-sent","de","","",""
"","3861","html-keyboard-response","252","1955949","0.0-3.0-1.200","<span style=""font-size:30px; font-family: monospace"">ação</span>"," ","","exp-sent","ação","","",""
"","22197","html-keyboard-response","253","1978397","0.0-3.0-1.201","<span style=""font-size:30px; font-family: monospace"">têm</span>"," ","","exp-sent","têm","","",""
"","5428","html-keyboard-response","254","1984077","0.0-3.0-1.202","<span style=""font-size:30px; font-family: monospace"">chantagem</span>"," ","","exp-sent","chantagem","","",""
"","2405","html-keyboard-response","255","1986733","0.0-3.0-1.203","<span style=""font-size:30px; font-family: monospace"">e</span>"," ","","exp-sent","e","","",""
"","2261","html-keyboard-response","256","1989245","0.0-3.0-1.204","<span style=""font-size:30px; font-family: monospace"">muita</span>"," ","","exp-sent","muita","","",""
"","2292","html-keyboard-response","257","1991788","0.0-3.0-1.205","<span style=""font-size:30px; font-family: monospace"">luta.</span>"," ","","exp-sent","luta.","","",""
"","null","html-keyboard-response","258","1993040","0.0-3.0-0.206-0.206","<span style= ""font-size:30px; font-family: monospace"">+</span>","null","fixation","","","","",""
"","5073","html-keyboard-response","259","1998364","0.0-3.0-1.206","<span style=""font-size:30px; font-family: monospace"">A</span>"," ","","exp-sent","A","","",""
"","2805","html-keyboard-response","260","2001420","0.0-3.0-1.207","<span style=""font-size:30px; font-family: monospace"">bisavó</span>"," ","","exp-sent","bisavó","","",""
"","2965","html-keyboard-response","261","2004636","0.0-3.0-1.208","<span style=""font-size:30px; font-family: monospace"">recebeu</span>"," ","","exp-sent","recebeu","","",""
"","2757","html-keyboard-response","262","2007644","0.0-3.0-1.209","<span style=""font-size:30px; font-family: monospace"">um</span>"," ","","exp-sent","um","","",""
"","3237","html-keyboard-response","263","2011132","0.0-3.0-1.210","<span style=""font-size:30px; font-family: monospace"">benefício</span>"," ","","exp-sent","benefício","","",""
"","5077","html-keyboard-response","264","2016460","0.0-3.0-1.211","<span style=""font-size:30px; font-family: monospace"">temporário</span>"," ","","exp-sent","temporário","","",""
"","6260","html-keyboard-response","265","2022972","0.0-3.0-1.212","<span style=""font-size:30px; font-family: monospace"">do</span>"," ","","exp-sent","do","","",""
"","7365","html-keyboard-response","266","2030588","0.0-3.0-1.213","<span style=""font-size:30px; font-family: monospace"">governo.</span>"," ","","exp-sent","governo.","","",""
"","null","html-keyboard-response","267","2031840","0.0-3.0-0.214-0.214","<span style= ""font-size:30px; font-family: monospace"">+</span>","null","fixation","","","","",""
"","1137","html-keyboard-response","268","2033228","0.0-3.0-1.214","<span style=""font-size:30px; font-family: monospace"">As</span>"," ","","exp-sent","As","","",""
"","1813","html-keyboard-response","269","2035292","0.0-3.0-1.215","<span style=""font-size:30px; font-family: monospace"">crianças</span>"," ","","exp-sent","crianças","","",""
"","3301","html-keyboard-response","270","2038844","0.0-3.0-1.216","<span style=""font-size:30px; font-family: monospace"">brincaram</span>"," ","","exp-sent","brincaram","","",""
"","2613","html-keyboard-response","271","2041708","0.0-3.0-1.217","<span style=""font-size:30px; font-family: monospace"">no</span>"," ","","exp-sent","no","","",""
"","2565","html-keyboard-response","272","2044524","0.0-3.0-1.218","<span style=""font-size:30px; font-family: monospace"">balanço</span>"," ","","exp-sent","balanço","","",""
"","2469","html-keyboard-response","273","2047244","0.0-3.0-1.219","<span style=""font-size:30px; font-family: monospace"">a</span>"," ","","exp-sent","a","","",""
"","4149","html-keyboard-response","274","2051642","0.0-3.0-1.220","<span style=""font-size:30px; font-family: monospace"">tarde</span>"," ","","exp-sent","tarde","","",""
"","7252","html-keyboard-response","275","2059146","0.0-3.0-1.221","<span style=""font-size:30px; font-family: monospace"">toda.</span>"," ","","exp-sent","toda.","","",""
"","null","html-keyboard-response","276","2060398","0.0-3.0-0.222-0.222","<span style= ""font-size:30px; font-family: monospace"">+</span>","null","fixation","","","","",""
"","5825","html-keyboard-response","277","2066474","0.0-3.0-1.222","<span style=""font-size:30px; font-family: monospace"">Ela</span>"," ","","exp-sent","Ela","","",""
"","3077","html-keyboard-response","278","2069802","0.0-3.0-1.223","<span style=""font-size:30px; font-family: monospace"">gosta</span>"," ","","exp-sent","gosta","","",""
"","2404","html-keyboard-response","279","2072458","0.0-3.0-1.224","<span style=""font-size:30px; font-family: monospace"">de</span>"," ","","exp-sent","de","","",""
"","2932","html-keyboard-response","280","2075642","0.0-3.0-1.225","<span style=""font-size:30px; font-family: monospace"">comida</span>"," ","","exp-sent","comida","","",""
"","3093","html-keyboard-response","281","2078986","0.0-3.0-1.226","<span style=""font-size:30px; font-family: monospace"">natural</span>"," ","","exp-sent","natural","","",""
"","2677","html-keyboard-response","282","2081914","0.0-3.0-1.227","<span style=""font-size:30px; font-family: monospace"">no</span>"," ","","exp-sent","no","","",""
"","10853","html-keyboard-response","283","2093018","0.0-3.0-1.228","<span style=""font-size:30px; font-family: monospace"">almoço.</span>"," ","","comp","almoço.","","",""
"","4837","html-keyboard-response","284","2098106","0.0-3.0-2.228-0.228","<span style=""font-size:30px; font-family: monospace"">Ela gosta de comida natural no almoço?</span>","s","","comp","","Ela gosta de comida natural no almoço?","sim","false"
"","null","html-keyboard-response","285","2099608","0.0-3.0-0.229-0.229","<span style= ""font-size:30px; font-family: monospace"">+</span>","null","fixation","","","","",""
"","5623","html-keyboard-response","286","2105482","0.0-3.0-1.229","<span style=""font-size:30px; font-family: monospace"">Este</span>"," ","","exp-sent","Este","","",""
"","2788","html-keyboard-response","287","2108522","0.0-3.0-1.230","<span style=""font-size:30px; font-family: monospace"">conto</span>"," ","","exp-sent","conto","","",""
"","2884","html-keyboard-response","288","2111656","0.0-3.0-1.231","<span style=""font-size:30px; font-family: monospace"">tem</span>"," ","","exp-sent","tem","","",""
"","2628","html-keyboard-response","289","2114536","0.0-3.0-1.232","<span style=""font-size:30px; font-family: monospace"">um</span>"," ","","exp-sent","um","","",""
"","3301","html-keyboard-response","290","2118088","0.0-3.0-1.233","<span style=""font-size:30px; font-family: monospace"">final</span>"," ","","exp-sent","final","","",""
"","3621","html-keyboard-response","291","2121960","0.0-3.0-1.234","<span style=""font-size:30px; font-family: monospace"">perfeito.</span>"," ","","exp-sent","perfeito.","","",""
"","null","html-keyboard-response","292","2123212","0.0-3.0-0.235-0.235","<span style= ""font-size:30px; font-family: monospace"">+</span>","null","fixation","","","","",""
"","5394","html-keyboard-response","293","2128856","0.0-3.0-1.235","<span style=""font-size:30px; font-family: monospace"">Ele</span>"," ","","exp-sent","Ele","","",""
"","4164","html-keyboard-response","294","2133272","0.0-3.0-1.236","<span style=""font-size:30px; font-family: monospace"">precisa</span>"," ","","exp-sent","precisa","","",""
"","2533","html-keyboard-response","295","2136056","0.0-3.0-1.237","<span style=""font-size:30px; font-family: monospace"">de</span>"," ","","exp-sent","de","","",""
"","2645","html-keyboard-response","296","2138952","0.0-3.0-1.238","<span style=""font-size:30px; font-family: monospace"">um</span>"," ","","exp-sent","um","","",""
"","4101","html-keyboard-response","297","2143304","0.0-3.0-1.239","<span style=""font-size:30px; font-family: monospace"">protetor</span>"," ","","exp-sent","protetor","","",""
"","10085","html-keyboard-response","298","2153640","0.0-3.0-1.240","<span style=""font-size:30px; font-family: monospace"">de</span>"," ","","exp-sent","de","","",""
"","5253","html-keyboard-response","299","2159144","0.0-3.0-1.241","<span style=""font-size:30px; font-family: monospace"">ouvido.</span>"," ","","exp-sent","ouvido.","","",""
"","null","html-keyboard-response","300","2160396","0.0-3.0-0.242-0.242","<span style= ""font-size:30px; font-family: monospace"">+</span>","null","fixation","","","","",""
"","4130","html-keyboard-response","301","2164776","0.0-3.0-1.242","<span style=""font-size:30px; font-family: monospace"">Os</span>"," ","","exp-sent","Os","","",""
"","4725","html-keyboard-response","302","2169752","0.0-3.0-1.243","<span style=""font-size:30px; font-family: monospace"">hábitos</span>"," ","","exp-sent","hábitos","","",""
"","3397","html-keyboard-response","303","2173399","0.0-3.0-1.244","<span style=""font-size:30px; font-family: monospace"">de</span>"," ","","exp-sent","de","","",""
"","3989","html-keyboard-response","304","2177639","0.0-3.0-1.245","<span style=""font-size:30px; font-family: monospace"">lugares</span>"," ","","exp-sent","lugares","","",""
"","2773","html-keyboard-response","305","2180663","0.0-3.0-1.246","<span style=""font-size:30px; font-family: monospace"">diferentes</span>"," ","","exp-sent","diferentes","","",""
"","2646","html-keyboard-response","306","2183559","0.0-3.0-1.247","<span style=""font-size:30px; font-family: monospace"">são</span>"," ","","exp-sent","são","","",""
"","2501","html-keyboard-response","307","2186311","0.0-3.0-1.248","<span style=""font-size:30px; font-family: monospace"">muito</span>"," ","","exp-sent","muito","","",""
"","8453","html-keyboard-response","308","2195015","0.0-3.0-1.249","<span style=""font-size:30px; font-family: monospace"">lindos.</span>"," ","","exp-sent","lindos.","","",""
"","null","html-keyboard-response","309","2196266","0.0-3.0-0.250-0.250","<span style= ""font-size:30px; font-family: monospace"">+</span>","null","fixation","","","","",""
"","4529","html-keyboard-response","310","2201047","0.0-3.0-1.250","<span style=""font-size:30px; font-family: monospace"">O</span>"," ","","exp-sent","O","","",""
"","2293","html-keyboard-response","311","2203591","0.0-3.0-1.251","<span style=""font-size:30px; font-family: monospace"">médico</span>"," ","","exp-sent","médico","","",""
"","2374","html-keyboard-response","312","2206215","0.0-3.0-1.252","<span style=""font-size:30px; font-family: monospace"">corrigiu</span>"," ","","exp-sent","corrigiu","","",""
"","2437","html-keyboard-response","313","2208903","0.0-3.0-1.253","<span style=""font-size:30px; font-family: monospace"">a</span>"," ","","exp-sent","a","","",""
"","2277","html-keyboard-response","314","2211431","0.0-3.0-1.254","<span style=""font-size:30px; font-family: monospace"">postura</span>"," ","","exp-sent","postura","","",""
"","2181","html-keyboard-response","315","2213863","0.0-3.0-1.255","<span style=""font-size:30px; font-family: monospace"">das</span>"," ","","exp-sent","das","","",""
"","2245","html-keyboard-response","316","2216359","0.0-3.0-1.256","<span style=""font-size:30px; font-family: monospace"">costas</span>"," ","","exp-sent","costas","","",""
"","2325","html-keyboard-response","317","2218935","0.0-3.0-1.257","<span style=""font-size:30px; font-family: monospace"">da</span>"," ","","exp-sent","da","","",""
"","3365","html-keyboard-response","318","2222551","0.0-3.0-1.258","<span style=""font-size:30px; font-family: monospace"">pessoa.</span>"," ","","exp-sent","pessoa.","","",""
"","null","html-keyboard-response","319","2223802","0.0-3.0-0.259-0.259","<span style= ""font-size:30px; font-family: monospace"">+</span>","null","fixation","","","","",""
"","3874","html-keyboard-response","320","2227927","0.0-3.0-1.259","<span style=""font-size:30px; font-family: monospace"">Aquele</span>"," ","","exp-sent","Aquele","","",""
"","5269","html-keyboard-response","321","2233446","0.0-3.0-1.260","<span style=""font-size:30px; font-family: monospace"">era</span>"," ","","exp-sent","era","","",""
"","2389","html-keyboard-response","322","2236086","0.0-3.0-1.261","<span style=""font-size:30px; font-family: monospace"">um</span>"," ","","exp-sent","um","","",""
"","2293","html-keyboard-response","323","2238630","0.0-3.0-1.262","<span style=""font-size:30px; font-family: monospace"">caso</span>"," ","","exp-sent","caso","","",""
"","2885","html-keyboard-response","324","2241766","0.0-3.0-1.263","<span style=""font-size:30px; font-family: monospace"">real</span>"," ","","exp-sent","real","","",""
"","2261","html-keyboard-response","325","2244278","0.0-3.0-1.264","<span style=""font-size:30px; font-family: monospace"">de</span>"," ","","exp-sent","de","","",""
"","3525","html-keyboard-response","326","2248053","0.0-3.0-1.265","<span style=""font-size:30px; font-family: monospace"">sequestro</span>"," ","","exp-sent","sequestro","","",""
"","4885","html-keyboard-response","327","2253190","0.0-3.0-1.266","<span style=""font-size:30px; font-family: monospace"">premeditado.</span>"," ","","comp","premeditado.","","",""
"","6616","html-keyboard-response","328","2260070","0.0-3.0-2.266-0.266","<span style=""font-size:30px; font-family: monospace"">Aquele era um caso real de roubo?</span>","n","","comp","","Aquele era um caso real de roubo?","não","false"
"","null","html-keyboard-response","329","2261570","0.0-3.0-0.267-0.267","<span style= ""font-size:30px; font-family: monospace"">+</span>","null","fixation","","","","",""
"","1208","html-keyboard-response","330","2263030","0.0-3.0-1.267","<span style=""font-size:30px; font-family: monospace"">A</span>"," ","","exp-sent","A","","",""
"","1764","html-keyboard-response","331","2265046","0.0-3.0-1.268","<span style=""font-size:30px; font-family: monospace"">senhora</span>"," ","","exp-sent","senhora","","",""
"","4468","html-keyboard-response","332","2269765","0.0-3.0-1.269","<span style=""font-size:30px; font-family: monospace"">cumprimentou</span>"," ","","exp-sent","cumprimentou","","",""
"","2661","html-keyboard-response","333","2272677","0.0-3.0-1.270","<span style=""font-size:30px; font-family: monospace"">o</span>"," ","","exp-sent","o","","",""
"","5701","html-keyboard-response","334","2278630","0.0-3.0-1.271","<span style=""font-size:30px; font-family: monospace"">operador</span>"," ","","exp-sent","operador","","",""
"","2468","html-keyboard-response","335","2281349","0.0-3.0-1.272","<span style=""font-size:30px; font-family: monospace"">de</span>"," ","","exp-sent","de","","",""
"","3162","html-keyboard-response","336","2284774","0.0-3.0-1.273","<span style=""font-size:30px; font-family: monospace"">caixa.</span>"," ","","exp-sent","caixa.","","",""
"","null","html-keyboard-response","337","2286026","0.0-3.0-0.274-0.274","<span style= ""font-size:30px; font-family: monospace"">+</span>","null","fixation","","","","",""
"","3552","html-keyboard-response","338","2289830","0.0-3.0-1.274","<span style=""font-size:30px; font-family: monospace"">A</span>"," ","","exp-sent","A","","",""
"","2724","html-keyboard-response","339","2292805","0.0-3.0-1.275","<span style=""font-size:30px; font-family: monospace"">gente</span>"," ","","exp-sent","gente","","",""
"","2517","html-keyboard-response","340","2295572","0.0-3.0-1.276","<span style=""font-size:30px; font-family: monospace"">viu</span>"," ","","exp-sent","viu","","",""
"","2517","html-keyboard-response","341","2298340","0.0-3.0-1.277","<span style=""font-size:30px; font-family: monospace"">o</span>"," ","","exp-sent","o","","",""
"","2708","html-keyboard-response","342","2301300","0.0-3.0-1.278","<span style=""font-size:30px; font-family: monospace"">eclipse</span>"," ","","exp-sent","eclipse","","",""
"","2549","html-keyboard-response","343","2304100","0.0-3.0-1.279","<span style=""font-size:30px; font-family: monospace"">lunar</span>"," ","","exp-sent","lunar","","",""
"","2374","html-keyboard-response","344","2306724","0.0-3.0-1.280","<span style=""font-size:30px; font-family: monospace"">durante</span>"," ","","exp-sent","durante","","",""
"","2710","html-keyboard-response","345","2309685","0.0-3.0-1.281","<span style=""font-size:30px; font-family: monospace"">o</span>"," ","","exp-sent","o","","",""
"","2837","html-keyboard-response","346","2312772","0.0-3.0-1.282","<span style=""font-size:30px; font-family: monospace"">dia.</span>"," ","","exp-sent","dia.","","",""
"","null","html-keyboard-response","347","2314026","0.0-3.0-0.283-0.283","<span style= ""font-size:30px; font-family: monospace"">+</span>","null","fixation","","","","",""
"","5504","html-keyboard-response","348","2319780","0.0-3.0-1.283","<span style=""font-size:30px; font-family: monospace"">A</span>"," ","","exp-sent","A","","",""
"","3476","html-keyboard-response","349","2323508","0.0-3.0-1.284","<span style=""font-size:30px; font-family: monospace"">mordida</span>"," ","","exp-sent","mordida","","",""
"","2384","html-keyboard-response","350","2326148","0.0-3.0-1.285","<span style=""font-size:30px; font-family: monospace"">do</span>"," ","","exp-sent","do","","",""
"","2896","html-keyboard-response","351","2329300","0.0-3.0-1.286","<span style=""font-size:30px; font-family: monospace"">cachorro</span>"," ","","exp-sent","cachorro","","",""
"","5829","html-keyboard-response","352","2335381","0.0-3.0-1.287","<span style=""font-size:30px; font-family: monospace"">voraz</span>"," ","","exp-sent","voraz","","",""
"","2629","html-keyboard-response","353","2338260","0.0-3.0-1.288","<span style=""font-size:30px; font-family: monospace"">causou</span>"," ","","exp-sent","causou","","",""
"","2821","html-keyboard-response","354","2341332","0.0-3.0-1.289","<span style=""font-size:30px; font-family: monospace"">uma</span>"," ","","exp-sent","uma","","",""
"","3301","html-keyboard-response","355","2344884","0.0-3.0-1.290","<span style=""font-size:30px; font-family: monospace"">cicatriz.</span>"," ","","exp-sent","cicatriz.","","",""
"","null","html-keyboard-response","356","2346137","0.0-3.0-0.291-0.291","<span style= ""font-size:30px; font-family: monospace"">+</span>","null","fixation","","","","",""
"","3521","html-keyboard-response","357","2349908","0.0-3.0-1.291","<span style=""font-size:30px; font-family: monospace"">Elas</span>"," ","","exp-sent","Elas","","",""
"","2821","html-keyboard-response","358","2352980","0.0-3.0-1.292","<span style=""font-size:30px; font-family: monospace"">não</span>"," ","","exp-sent","não","","",""
"","3092","html-keyboard-response","359","2356323","0.0-3.0-1.293","<span style=""font-size:30px; font-family: monospace"">viram</span>"," ","","exp-sent","viram","","",""
"","2981","html-keyboard-response","360","2359555","0.0-3.0-1.294","<span style=""font-size:30px; font-family: monospace"">nenhuma</span>"," ","","exp-sent","nenhuma","","",""
"","2868","html-keyboard-response","361","2362675","0.0-3.0-1.295","<span style=""font-size:30px; font-family: monospace"">diferença</span>"," ","","exp-sent","diferença","","",""
"","2645","html-keyboard-response","362","2365571","0.0-3.0-1.296","<span style=""font-size:30px; font-family: monospace"">entre</span>"," ","","exp-sent","entre","","",""
"","2757","html-keyboard-response","363","2368579","0.0-3.0-1.297","<span style=""font-size:30px; font-family: monospace"">os</span>"," ","","exp-sent","os","","",""
"","2868","html-keyboard-response","364","2371698","0.0-3.0-1.298","<span style=""font-size:30px; font-family: monospace"">textos.</span>"," ","","exp-sent","textos.","","",""
"","null","html-keyboard-response","365","2372950","0.0-3.0-0.299-0.299","<span style= ""font-size:30px; font-family: monospace"">+</span>","null","fixation","","","","",""
"","4354","html-keyboard-response","366","2377555","0.0-3.0-1.299","<span style=""font-size:30px; font-family: monospace"">Amanhã</span>"," ","","exp-sent","Amanhã","","",""
"","2660","html-keyboard-response","367","2380467","0.0-3.0-1.300","<span style=""font-size:30px; font-family: monospace"">vai</span>"," ","","exp-sent","vai","","",""
"","2228","html-keyboard-response","368","2382946","0.0-3.0-1.301","<span style=""font-size:30px; font-family: monospace"">ter</span>"," ","","exp-sent","ter","","",""
"","2207","html-keyboard-response","369","2385411","0.0-3.0-1.302","<span style=""font-size:30px; font-family: monospace"">um</span>"," ","","exp-sent","um","","",""
"","2469","html-keyboard-response","370","2388131","0.0-3.0-1.303","<span style=""font-size:30px; font-family: monospace"">bazar</span>"," ","","exp-sent","bazar","","",""
"","2421","html-keyboard-response","371","2390803","0.0-3.0-1.304","<span style=""font-size:30px; font-family: monospace"">no</span>"," ","","exp-sent","no","","",""
"","4421","html-keyboard-response","372","2395475","0.0-3.0-1.305","<span style=""font-size:30px; font-family: monospace"">bairro.</span>"," ","","comp","bairro.","","",""
"","12485","html-keyboard-response","373","2408211","0.0-3.0-2.305-0.305","<span style=""font-size:30px; font-family: monospace"">Amanhã vai acontecer um bazar no bairro?</span>","s","","comp","","Amanhã vai acontecer um bazar no bairro?","sim","false"
"","null","html-keyboard-response","374","2409713","0.0-3.0-0.306-0.306","<span style= ""font-size:30px; font-family: monospace"">+</span>","null","fixation","","","","",""
"","3943","html-keyboard-response","375","2413907","0.0-3.0-1.306","<span style=""font-size:30px; font-family: monospace"">O</span>"," ","","exp-sent","O","","",""
"","3285","html-keyboard-response","376","2417442","0.0-3.0-1.307","<span style=""font-size:30px; font-family: monospace"">travesseiro</span>"," ","","exp-sent","travesseiro","","",""
"","2366","html-keyboard-response","377","2420066","0.0-3.0-1.308","<span style=""font-size:30px; font-family: monospace"">era</span>"," ","","exp-sent","era","","",""
"","2608","html-keyboard-response","378","2422930","0.0-3.0-1.309","<span style=""font-size:30px; font-family: monospace"">muito</span>"," ","","exp-sent","muito","","",""
"","2469","html-keyboard-response","379","2425650","0.0-3.0-1.310","<span style=""font-size:30px; font-family: monospace"">macio</span>"," ","","exp-sent","macio","","",""
"","2965","html-keyboard-response","380","2428866","0.0-3.0-1.311","<span style=""font-size:30px; font-family: monospace"">e</span>"," ","","exp-sent","e","","",""
"","3379","html-keyboard-response","381","2432498","0.0-3.0-1.312","<span style=""font-size:30px; font-family: monospace"">confortável.</span>"," ","","exp-sent","confortável.","","",""
"","null","html-keyboard-response","382","2433750","0.0-3.0-0.313-0.313","<span style= ""font-size:30px; font-family: monospace"">+</span>","null","fixation","","","","",""
"","4961","html-keyboard-response","383","2438962","0.0-3.0-1.313","<span style=""font-size:30px; font-family: monospace"">Hoje</span>"," ","","exp-sent","Hoje","","",""
"","3701","html-keyboard-response","384","2442914","0.0-3.0-1.314","<span style=""font-size:30px; font-family: monospace"">a</span>"," ","","exp-sent","a","","",""
"","3332","html-keyboard-response","385","2446498","0.0-3.0-1.315","<span style=""font-size:30px; font-family: monospace"">atendente</span>"," ","","exp-sent","atendente","","",""
"","3973","html-keyboard-response","386","2450722","0.0-3.0-1.316","<span style=""font-size:30px; font-family: monospace"">estava</span>"," ","","exp-sent","estava","","",""
"","3077","html-keyboard-response","387","2454050","0.0-3.0-1.317","<span style=""font-size:30px; font-family: monospace"">furiosa</span>"," ","","exp-sent","furiosa","","",""
"","2196","html-keyboard-response","388","2456498","0.0-3.0-1.318","<span style=""font-size:30px; font-family: monospace"">com</span>"," ","","exp-sent","com","","",""
"","2133","html-keyboard-response","389","2458882","0.0-3.0-1.319","<span style=""font-size:30px; font-family: monospace"">o</span>"," ","","exp-sent","o","","",""
"","2612","html-keyboard-response","390","2461746","0.0-3.0-1.320","<span style=""font-size:30px; font-family: monospace"">cliente.</span>"," ","","exp-sent","cliente.","","",""
"","null","html-keyboard-response","391","2462998","0.0-3.0-0.321-0.321","<span style= ""font-size:30px; font-family: monospace"">+</span>","null","fixation","","","","",""
"","5842","html-keyboard-response","392","2469090","0.0-3.0-1.321","<span style=""font-size:30px; font-family: monospace"">O</span>"," ","","exp-sent","O","","",""
"","2741","html-keyboard-response","393","2472082","0.0-3.0-1.322","<span style=""font-size:30px; font-family: monospace"">vizinho</span>"," ","","exp-sent","vizinho","","",""
"","2165","html-keyboard-response","394","2474498","0.0-3.0-1.323","<span style=""font-size:30px; font-family: monospace"">é</span>"," ","","exp-sent","é","","",""
"","2197","html-keyboard-response","395","2476946","0.0-3.0-1.324","<span style=""font-size:30px; font-family: monospace"">um</span>"," ","","exp-sent","um","","",""
"","2884","html-keyboard-response","396","2480080","0.0-3.0-1.325","<span style=""font-size:30px; font-family: monospace"">arquiteto</span>"," ","","exp-sent","arquiteto","","",""
"","2421","html-keyboard-response","397","2482752","0.0-3.0-1.326","<span style=""font-size:30px; font-family: monospace"">muito</span>"," ","","exp-sent","muito","","",""
"","3093","html-keyboard-response","398","2486096","0.0-3.0-1.327","<span style=""font-size:30px; font-family: monospace"">excêntrico.</span>"," ","","exp-sent","excêntrico.","","",""
"","null","html-keyboard-response","399","2487347","0.0-3.0-0.328-0.328","<span style= ""font-size:30px; font-family: monospace"">+</span>","null","fixation","","","","",""
"","4450","html-keyboard-response","400","2492048","0.0-3.0-1.328","<span style=""font-size:30px; font-family: monospace"">A</span>"," ","","exp-sent","A","","",""
"","2325","html-keyboard-response","401","2494624","0.0-3.0-1.329","<span style=""font-size:30px; font-family: monospace"">nossa</span>"," ","","exp-sent","nossa","","",""
"","3414","html-keyboard-response","402","2498288","0.0-3.0-1.330","<span style=""font-size:30px; font-family: monospace"">colega</span>"," ","","exp-sent","colega","","",""
"","2517","html-keyboard-response","403","2501056","0.0-3.0-1.331","<span style=""font-size:30px; font-family: monospace"">foi</span>"," ","","exp-sent","foi","","",""
"","2293","html-keyboard-response","404","2503600","0.0-3.0-1.332","<span style=""font-size:30px; font-family: monospace"">má</span>"," ","","exp-sent","má","","",""
"","2213","html-keyboard-response","405","2506064","0.0-3.0-1.333","<span style=""font-size:30px; font-family: monospace"">com</span>"," ","","exp-sent","com","","",""
"","2261","html-keyboard-response","406","2508576","0.0-3.0-1.334","<span style=""font-size:30px; font-family: monospace"">as</span>"," ","","exp-sent","as","","",""
"","2805","html-keyboard-response","407","2511632","0.0-3.0-1.335","<span style=""font-size:30px; font-family: monospace"">crianças.</span>"," ","","exp-sent","crianças.","","",""
"","null","html-keyboard-response","408","2512883","0.0-3.0-0.336-0.336","<span style= ""font-size:30px; font-family: monospace"">+</span>","null","fixation","","","","",""
"","3874","html-keyboard-response","409","2517008","0.0-3.0-1.336","<span style=""font-size:30px; font-family: monospace"">Virtudes</span>"," ","","exp-sent","Virtudes","","",""
"","3220","html-keyboard-response","410","2520480","0.0-3.0-1.337","<span style=""font-size:30px; font-family: monospace"">não</span>"," ","","exp-sent","não","","",""
"","3141","html-keyboard-response","411","2523872","0.0-3.0-1.338","<span style=""font-size:30px; font-family: monospace"">são</span>"," ","","exp-sent","são","","",""
"","3125","html-keyboard-response","412","2527248","0.0-3.0-1.339","<span style=""font-size:30px; font-family: monospace"">preguiça,</span>"," ","","exp-sent","preguiça,","","",""
"","3397","html-keyboard-response","413","2530896","0.0-3.0-1.340","<span style=""font-size:30px; font-family: monospace"">gula</span>"," ","","exp-sent","gula","","",""
"","2278","html-keyboard-response","414","2533424","0.0-3.0-1.341","<span style=""font-size:30px; font-family: monospace"">nem</span>"," ","","exp-sent","nem","","",""
"","3029","html-keyboard-response","415","2536704","0.0-3.0-1.342","<span style=""font-size:30px; font-family: monospace"">ganância.</span>"," ","","comp","ganância.","","",""
"","14324","html-keyboard-response","416","2551278","0.0-3.0-2.342-0.342","<span style=""font-size:30px; font-family: monospace"">Preguiça é uma virtude?</span>","s","","comp","","Preguiça é uma virtude?","não","false"
"","null","html-keyboard-response","417","2552781","0.0-3.0-0.343-0.343","<span style= ""font-size:30px; font-family: monospace"">+</span>","null","fixation","","","","",""
"","2933","html-keyboard-response","418","2555966","0.0-3.0-1.343","<span style=""font-size:30px; font-family: monospace"">O</span>"," ","","exp-sent","O","","",""
"","2549","html-keyboard-response","419","2558766","0.0-3.0-1.344","<span style=""font-size:30px; font-family: monospace"">moço</span>"," ","","exp-sent","moço","","",""
"","2341","html-keyboard-response","420","2561359","0.0-3.0-1.345","<span style=""font-size:30px; font-family: monospace"">usou</span>"," ","","exp-sent","usou","","",""
"","2484","html-keyboard-response","421","2564094","0.0-3.0-1.346","<span style=""font-size:30px; font-family: monospace"">várias</span>"," ","","exp-sent","várias","","",""
"","2485","html-keyboard-response","422","2566830","0.0-3.0-1.347","<span style=""font-size:30px; font-family: monospace"">velas</span>"," ","","exp-sent","velas","","",""
"","2453","html-keyboard-response","423","2569534","0.0-3.0-1.348","<span style=""font-size:30px; font-family: monospace"">no</span>"," ","","exp-sent","no","","",""
"","2388","html-keyboard-response","424","2572174","0.0-3.0-1.349","<span style=""font-size:30px; font-family: monospace"">enfeite</span>"," ","","exp-sent","enfeite","","",""
"","2326","html-keyboard-response","425","2574750","0.0-3.0-1.350","<span style=""font-size:30px; font-family: monospace"">de</span>"," ","","exp-sent","de","","",""
"","2405","html-keyboard-response","426","2577406","0.0-3.0-1.351","<span style=""font-size:30px; font-family: monospace"">mesa.</span>"," ","","exp-sent","mesa.","","",""
"","null","html-keyboard-response","427","2578659","0.0-3.0-0.352-0.352","<span style= ""font-size:30px; font-family: monospace"">+</span>","null","fixation","","","","",""
"","4240","html-keyboard-response","428","2583150","0.0-3.0-1.352","<span style=""font-size:30px; font-family: monospace"">Gostamos</span>"," ","","exp-sent","Gostamos","","",""
"","2437","html-keyboard-response","429","2585838","0.0-3.0-1.353","<span style=""font-size:30px; font-family: monospace"">de</span>"," ","","exp-sent","de","","",""
"","2741","html-keyboard-response","430","2588830","0.0-3.0-1.354","<span style=""font-size:30px; font-family: monospace"">suco</span>"," ","","exp-sent","suco","","",""
"","2757","html-keyboard-response","431","2591838","0.0-3.0-1.355","<span style=""font-size:30px; font-family: monospace"">em</span>"," ","","exp-sent","em","","",""
"","5751","html-keyboard-response","432","2597854","0.0-3.0-1.356","<span style=""font-size:30px; font-family: monospace"">garrafa</span>"," ","","exp-sent","garrafa","","",""
"","2501","html-keyboard-response","433","2600606","0.0-3.0-1.357","<span style=""font-size:30px; font-family: monospace"">de</span>"," ","","exp-sent","de","","",""
"","2757","html-keyboard-response","434","2603614","0.0-3.0-1.358","<span style=""font-size:30px; font-family: monospace"">tamanho</span>"," ","","exp-sent","tamanho","","",""
"","2917","html-keyboard-response","435","2606782","0.0-3.0-1.359","<span style=""font-size:30px; font-family: monospace"">pequeno.</span>"," ","","exp-sent","pequeno.","","",""
"","null","html-keyboard-response","436","2608034","0.0-3.0-0.360-0.360","<span style= ""font-size:30px; font-family: monospace"">+</span>","null","fixation","","","","",""
"","3665","html-keyboard-response","437","2611949","0.0-3.0-1.360","<span style=""font-size:30px; font-family: monospace"">Sua</span>"," ","","exp-sent","Sua","","",""
"","4292","html-keyboard-response","438","2616493","0.0-3.0-1.361","<span style=""font-size:30px; font-family: monospace"">filha</span>"," ","","exp-sent","filha","","",""
"","2501","html-keyboard-response","439","2619245","0.0-3.0-1.362","<span style=""font-size:30px; font-family: monospace"">é</span>"," ","","exp-sent","é","","",""
"","2310","html-keyboard-response","440","2621805","0.0-3.0-1.363","<span style=""font-size:30px; font-family: monospace"">muito</span>"," ","","exp-sent","muito","","",""
"","2389","html-keyboard-response","441","2624445","0.0-3.0-1.364","<span style=""font-size:30px; font-family: monospace"">capaz</span>"," ","","exp-sent","capaz","","",""
"","2405","html-keyboard-response","442","2627101","0.0-3.0-1.365","<span style=""font-size:30px; font-family: monospace"">e</span>"," ","","exp-sent","e","","",""
"","4930","html-keyboard-response","443","2632285","0.0-3.0-1.366","<span style=""font-size:30px; font-family: monospace"">esforçada.</span>"," ","","exp-sent","esforçada.","","",""
"","null","html-keyboard-response","444","2633537","0.0-3.0-0.367-0.367","<span style= ""font-size:30px; font-family: monospace"">+</span>","null","fixation","","","","",""
"","3633","html-keyboard-response","445","2637421","0.0-3.0-1.367","<span style=""font-size:30px; font-family: monospace"">A</span>"," ","","exp-sent","A","","",""
"","3541","html-keyboard-response","446","2641213","0.0-3.0-1.368","<span style=""font-size:30px; font-family: monospace"">batida</span>"," ","","exp-sent","batida","","",""
"","2470","html-keyboard-response","447","2643933","0.0-3.0-1.369","<span style=""font-size:30px; font-family: monospace"">causou</span>"," ","","exp-sent","causou","","",""
"","2213","html-keyboard-response","448","2646397","0.0-3.0-1.370","<span style=""font-size:30px; font-family: monospace"">muita</span>"," ","","exp-sent","muita","","",""
"","2390","html-keyboard-response","449","2649037","0.0-3.0-1.371","<span style=""font-size:30px; font-family: monospace"">confusão</span>"," ","","exp-sent","confusão","","",""
"","2389","html-keyboard-response","450","2651677","0.0-3.0-1.372","<span style=""font-size:30px; font-family: monospace"">na</span>"," ","","exp-sent","na","","",""
"","3430","html-keyboard-response","451","2655357","0.0-3.0-1.373","<span style=""font-size:30px; font-family: monospace"">estrada.</span>"," ","","exp-sent","estrada.","","",""
"","null","html-keyboard-response","452","2656610","0.0-3.0-0.374-0.374","<span style= ""font-size:30px; font-family: monospace"">+</span>","null","fixation","","","","",""
"","3519","html-keyboard-response","453","2660381","0.0-3.0-1.374","<span style=""font-size:30px; font-family: monospace"">Eu</span>"," ","","exp-sent","Eu","","",""
"","2501","html-keyboard-response","454","2663133","0.0-3.0-1.375","<span style=""font-size:30px; font-family: monospace"">cozinhei</span>"," ","","exp-sent","cozinhei","","",""
"","2389","html-keyboard-response","455","2665773","0.0-3.0-1.376","<span style=""font-size:30px; font-family: monospace"">um</span>"," ","","exp-sent","um","","",""
"","2549","html-keyboard-response","456","2668573","0.0-3.0-1.377","<span style=""font-size:30px; font-family: monospace"">almoço</span>"," ","","exp-sent","almoço","","",""
"","3669","html-keyboard-response","457","2672491","0.0-3.0-1.378","<span style=""font-size:30px; font-family: monospace"">nutritivo</span>"," ","","exp-sent","nutritivo","","",""
"","2565","html-keyboard-response","458","2675307","0.0-3.0-1.379","<span style=""font-size:30px; font-family: monospace"">para</span>"," ","","exp-sent","para","","",""
"","3764","html-keyboard-response","459","2679323","0.0-3.0-1.380","<span style=""font-size:30px; font-family: monospace"">hoje.</span>"," ","","comp","hoje.","","",""
"","7493","html-keyboard-response","460","2687068","0.0-3.0-2.380-0.380","<span style=""font-size:30px; font-family: monospace"">O almoço era nutritivo?</span>","s","","comp","","O almoço era nutritivo?","sim","false"
"","null","html-keyboard-response","461","2688570","0.0-3.0-0.381-0.381","<span style= ""font-size:30px; font-family: monospace"">+</span>","null","fixation","","","","",""
"","3254","html-keyboard-response","462","2692075","0.0-3.0-1.381","<span style=""font-size:30px; font-family: monospace"">No</span>"," ","","exp-sent","No","","",""
"","2997","html-keyboard-response","463","2695323","0.0-3.0-1.382","<span style=""font-size:30px; font-family: monospace"">passado</span>"," ","","exp-sent","passado","","",""
"","2390","html-keyboard-response","464","2697963","0.0-3.0-1.383","<span style=""font-size:30px; font-family: monospace"">houve</span>"," ","","exp-sent","houve","","",""
"","3365","html-keyboard-response","465","2701580","0.0-3.0-1.384","<span style=""font-size:30px; font-family: monospace"">uma</span>"," ","","exp-sent","uma","","",""
"","2500","html-keyboard-response","466","2704331","0.0-3.0-1.385","<span style=""font-size:30px; font-family: monospace"">rebelião</span>"," ","","exp-sent","rebelião","","",""
"","2325","html-keyboard-response","467","2706907","0.0-3.0-1.386","<span style=""font-size:30px; font-family: monospace"">nesta</span>"," ","","exp-sent","nesta","","",""
"","2838","html-keyboard-response","468","2709995","0.0-3.0-1.387","<span style=""font-size:30px; font-family: monospace"">cidade.</span>"," ","","exp-sent","cidade.","","",""
"","null","html-keyboard-response","469","2711247","0.0-3.0-0.388-0.388","<span style= ""font-size:30px; font-family: monospace"">+</span>","null","fixation","","","","",""
"","3041","html-keyboard-response","470","2714539","0.0-3.0-1.388","<span style=""font-size:30px; font-family: monospace"">Ele</span>"," ","","exp-sent","Ele","","",""
"","2261","html-keyboard-response","471","2717051","0.0-3.0-1.389","<span style=""font-size:30px; font-family: monospace"">fundou</span>"," ","","exp-sent","fundou","","",""
"","2213","html-keyboard-response","472","2719516","0.0-3.0-1.390","<span style=""font-size:30px; font-family: monospace"">uma</span>"," ","","exp-sent","uma","","",""
"","2309","html-keyboard-response","473","2722076","0.0-3.0-1.391","<span style=""font-size:30px; font-family: monospace"">empresa</span>"," ","","exp-sent","empresa","","",""
"","2260","html-keyboard-response","474","2724587","0.0-3.0-1.392","<span style=""font-size:30px; font-family: monospace"">privada</span>"," ","","exp-sent","privada","","",""
"","2245","html-keyboard-response","475","2727083","0.0-3.0-1.393","<span style=""font-size:30px; font-family: monospace"">sem</span>"," ","","exp-sent","sem","","",""
"","3189","html-keyboard-response","476","2730523","0.0-3.0-1.394","<span style=""font-size:30px; font-family: monospace"">ajuda.</span>"," ","","exp-sent","ajuda.","","",""
"","null","html-keyboard-response","477","2731775","0.0-3.0-0.395-0.395","<span style= ""font-size:30px; font-family: monospace"">+</span>","null","fixation","","","","",""
"","2418","html-keyboard-response","478","2734443","0.0-3.0-1.395","<span style=""font-size:30px; font-family: monospace"">As</span>"," ","","exp-sent","As","","",""
"","2245","html-keyboard-response","479","2736939","0.0-3.0-1.396","<span style=""font-size:30px; font-family: monospace"">meninas</span>"," ","","exp-sent","meninas","","",""
"","2901","html-keyboard-response","480","2740091","0.0-3.0-1.397","<span style=""font-size:30px; font-family: monospace"">encontraram</span>"," ","","exp-sent","encontraram","","",""
"","2293","html-keyboard-response","481","2742635","0.0-3.0-1.398","<span style=""font-size:30px; font-family: monospace"">um</span>"," ","","exp-sent","um","","",""
"","2293","html-keyboard-response","482","2745179","0.0-3.0-1.399","<span style=""font-size:30px; font-family: monospace"">rato</span>"," ","","exp-sent","rato","","",""
"","2292","html-keyboard-response","483","2747723","0.0-3.0-1.400","<span style=""font-size:30px; font-family: monospace"">dentro</span>"," ","","exp-sent","dentro","","",""
"","2229","html-keyboard-response","484","2750203","0.0-3.0-1.401","<span style=""font-size:30px; font-family: monospace"">de</span>"," ","","exp-sent","de","","",""
"","2485","html-keyboard-response","485","2752939","0.0-3.0-1.402","<span style=""font-size:30px; font-family: monospace"">casa.</span>"," ","","exp-sent","casa.","","",""
"","null","html-keyboard-response","486","2754191","0.0-3.0-0.403-0.403","<span style= ""font-size:30px; font-family: monospace"">+</span>","null","fixation","","","","",""
"","3425","html-keyboard-response","487","2757867","0.0-3.0-1.403","<span style=""font-size:30px; font-family: monospace"">O</span>"," ","","exp-sent","O","","",""
"","2437","html-keyboard-response","488","2760555","0.0-3.0-1.404","<span style=""font-size:30px; font-family: monospace"">texto</span>"," ","","exp-sent","texto","","",""
"","2404","html-keyboard-response","489","2763211","0.0-3.0-1.405","<span style=""font-size:30px; font-family: monospace"">tinha</span>"," ","","exp-sent","tinha","","",""
"","2501","html-keyboard-response","490","2765963","0.0-3.0-1.406","<span style=""font-size:30px; font-family: monospace"">ideias</span>"," ","","exp-sent","ideias","","",""
"","2324","html-keyboard-response","491","2768539","0.0-3.0-1.407","<span style=""font-size:30px; font-family: monospace"">vagas</span>"," ","","exp-sent","vagas","","",""
"","2261","html-keyboard-response","492","2771051","0.0-3.0-1.408","<span style=""font-size:30px; font-family: monospace"">e</span>"," ","","exp-sent","e","","",""
"","2773","html-keyboard-response","493","2774075","0.0-3.0-1.409","<span style=""font-size:30px; font-family: monospace"">confusas.</span>"," ","","exp-sent","confusas.","","",""
"","null","html-keyboard-response","494","2775327","0.0-3.0-0.410-0.410","<span style= ""font-size:30px; font-family: monospace"">+</span>","null","fixation","","","","",""
"","3632","html-keyboard-response","495","2779211","0.0-3.0-1.410","<span style=""font-size:30px; font-family: monospace"">As</span>"," ","","exp-sent","As","","",""
"","2517","html-keyboard-response","496","2781979","0.0-3.0-1.411","<span style=""font-size:30px; font-family: monospace"">crianças</span>"," ","","exp-sent","crianças","","",""
"","2260","html-keyboard-response","497","2784491","0.0-3.0-1.412","<span style=""font-size:30px; font-family: monospace"">viram</span>"," ","","exp-sent","viram","","",""
"","2453","html-keyboard-response","498","2787195","0.0-3.0-1.413","<span style=""font-size:30px; font-family: monospace"">a</span>"," ","","exp-sent","a","","",""
"","2293","html-keyboard-response","499","2789739","0.0-3.0-1.414","<span style=""font-size:30px; font-family: monospace"">acrobata</span>"," ","","exp-sent","acrobata","","",""
"","2629","html-keyboard-response","500","2792617","0.0-3.0-1.415","<span style=""font-size:30px; font-family: monospace"">talentosa</span>"," ","","exp-sent","talentosa","","",""
"","2436","html-keyboard-response","501","2795305","0.0-3.0-1.416","<span style=""font-size:30px; font-family: monospace"">no</span>"," ","","exp-sent","no","","",""
"","3157","html-keyboard-response","502","2798713","0.0-3.0-1.417","<span style=""font-size:30px; font-family: monospace"">circo.</span>"," ","","comp","circo.","","",""
"","6709","html-keyboard-response","503","2805673","0.0-3.0-2.417-0.417","<span style=""font-size:30px; font-family: monospace"">As crianças viram o palhaço no circo?</span>","n","","comp","","As crianças viram o palhaço no circo?","não","false"
"","null","html-keyboard-response","504","2807175","0.0-3.0-0.418-0.418","<span style= ""font-size:30px; font-family: monospace"">+</span>","null","fixation","","","","",""
"","776","html-keyboard-response","505","2808201","0.0-3.0-1.418","<span style=""font-size:30px; font-family: monospace"">Minha</span>"," ","","exp-sent","Minha","","",""
"","2181","html-keyboard-response","506","2810633","0.0-3.0-1.419","<span style=""font-size:30px; font-family: monospace"">prima</span>"," ","","exp-sent","prima","","",""
"","2405","html-keyboard-response","507","2813289","0.0-3.0-1.420","<span style=""font-size:30px; font-family: monospace"">trocou</span>"," ","","exp-sent","trocou","","",""
"","3397","html-keyboard-response","508","2816937","0.0-3.0-1.421","<span style=""font-size:30px; font-family: monospace"">a</span>"," ","","exp-sent","a","","",""
"","2437","html-keyboard-response","509","2819625","0.0-3.0-1.422","<span style=""font-size:30px; font-family: monospace"">tela</span>"," ","","exp-sent","tela","","",""
"","2197","html-keyboard-response","510","2822073","0.0-3.0-1.423","<span style=""font-size:30px; font-family: monospace"">do</span>"," ","","exp-sent","do","","",""
"","2308","html-keyboard-response","511","2824633","0.0-3.0-1.424","<span style=""font-size:30px; font-family: monospace"">celular</span>"," ","","exp-sent","celular","","",""
"","2372","html-keyboard-response","512","2827257","0.0-3.0-1.425","<span style=""font-size:30px; font-family: monospace"">duas</span>"," ","","exp-sent","duas","","",""
"","2517","html-keyboard-response","513","2830025","0.0-3.0-1.426","<span style=""font-size:30px; font-family: monospace"">vezes.</span>"," ","","exp-sent","vezes.","","",""
"","null","html-keyboard-response","514","2831277","0.0-3.0-0.427-0.427","<span style= ""font-size:30px; font-family: monospace"">+</span>","null","fixation","","","","",""
"","3184","html-keyboard-response","515","2834713","0.0-3.0-1.427","<span style=""font-size:30px; font-family: monospace"">Agora</span>"," ","","exp-sent","Agora","","",""
"","2357","html-keyboard-response","516","2837321","0.0-3.0-1.428","<span style=""font-size:30px; font-family: monospace"">a</span>"," ","","exp-sent","a","","",""
"","2405","html-keyboard-response","517","2839977","0.0-3.0-1.429","<span style=""font-size:30px; font-family: monospace"">minha</span>"," ","","exp-sent","minha","","",""
"","2437","html-keyboard-response","518","2842665","0.0-3.0-1.430","<span style=""font-size:30px; font-family: monospace"">única</span>"," ","","exp-sent","única","","",""
"","2629","html-keyboard-response","519","2845545","0.0-3.0-1.431","<span style=""font-size:30px; font-family: monospace"">preocupação</span>"," ","","exp-sent","preocupação","","",""
"","2261","html-keyboard-response","520","2848057","0.0-3.0-1.432","<span style=""font-size:30px; font-family: monospace"">é</span>"," ","","exp-sent","é","","",""
"","2233","html-keyboard-response","521","2850553","0.0-3.0-1.433","<span style=""font-size:30px; font-family: monospace"">um</span>"," ","","exp-sent","um","","",""
"","2453","html-keyboard-response","522","2853256","0.0-3.0-1.434","<span style=""font-size:30px; font-family: monospace"">descanso</span>"," ","","exp-sent","descanso","","",""
"","2837","html-keyboard-response","523","2856344","0.0-3.0-1.435","<span style=""font-size:30px; font-family: monospace"">tranquilo.</span>"," ","","exp-sent","tranquilo.","","",""
"","null","html-keyboard-response","524","2857596","0.0-3.0-0.436-0.436","<span style= ""font-size:30px; font-family: monospace"">+</span>","null","fixation","","","","",""
"","3280","html-keyboard-response","525","2861128","0.0-3.0-1.436","<span style=""font-size:30px; font-family: monospace"">A</span>"," ","","exp-sent","A","","",""
"","2261","html-keyboard-response","526","2863640","0.0-3.0-1.437","<span style=""font-size:30px; font-family: monospace"">criança</span>"," ","","exp-sent","criança","","",""
"","2389","html-keyboard-response","527","2866280","0.0-3.0-1.438","<span style=""font-size:30px; font-family: monospace"">ganhou</span>"," ","","exp-sent","ganhou","","",""
"","2165","html-keyboard-response","528","2868696","0.0-3.0-1.439","<span style=""font-size:30px; font-family: monospace"">um</span>"," ","","exp-sent","um","","",""
"","3237","html-keyboard-response","529","2872184","0.0-3.0-1.440","<span style=""font-size:30px; font-family: monospace"">presente</span>"," ","","exp-sent","presente","","",""
"","3636","html-keyboard-response","530","2876072","0.0-3.0-1.441","<span style=""font-size:30px; font-family: monospace"">maravilhoso.</span>"," ","","exp-sent","maravilhoso.","","",""
"","null","html-keyboard-response","531","2877325","0.0-3.0-0.442-0.442","<span style= ""font-size:30px; font-family: monospace"">+</span>","null","fixation","","","","",""
"","3120","html-keyboard-response","532","2880696","0.0-3.0-1.442","<span style=""font-size:30px; font-family: monospace"">Os</span>"," ","","exp-sent","Os","","",""
"","2196","html-keyboard-response","533","2883144","0.0-3.0-1.443","<span style=""font-size:30px; font-family: monospace"">bichos</span>"," ","","exp-sent","bichos","","",""
"","2437","html-keyboard-response","534","2885832","0.0-3.0-1.444","<span style=""font-size:30px; font-family: monospace"">têm</span>"," ","","exp-sent","têm","","",""
"","2197","html-keyboard-response","535","2888280","0.0-3.0-1.445","<span style=""font-size:30px; font-family: monospace"">um</span>"," ","","exp-sent","um","","",""
"","2501","html-keyboard-response","536","2891032","0.0-3.0-1.446","<span style=""font-size:30px; font-family: monospace"">instinto</span>"," ","","exp-sent","instinto","","",""
"","2341","html-keyboard-response","537","2893624","0.0-3.0-1.447","<span style=""font-size:30px; font-family: monospace"">de</span>"," ","","exp-sent","de","","",""
"","3477","html-keyboard-response","538","2897352","0.0-3.0-1.448","<span style=""font-size:30px; font-family: monospace"">sobrevivência</span>"," ","","exp-sent","sobrevivência","","",""
"","2389","html-keyboard-response","539","2899992","0.0-3.0-1.449","<span style=""font-size:30px; font-family: monospace"">forte.</span>"," ","","exp-sent","forte.","","",""
"","null","html-keyboard-response","540","2901244","0.0-3.0-0.450-0.450","<span style= ""font-size:30px; font-family: monospace"">+</span>","null","fixation","","","","",""
"","3329","html-keyboard-response","541","2904824","0.0-3.0-1.450","<span style=""font-size:30px; font-family: monospace"">Aquele</span>"," ","","exp-sent","Aquele","","",""
"","2420","html-keyboard-response","542","2907496","0.0-3.0-1.451","<span style=""font-size:30px; font-family: monospace"">menino</span>"," ","","exp-sent","menino","","",""
"","2276","html-keyboard-response","543","2910024","0.0-3.0-1.452","<span style=""font-size:30px; font-family: monospace"">alto</span>"," ","","exp-sent","alto","","",""
"","2485","html-keyboard-response","544","2912760","0.0-3.0-1.453","<span style=""font-size:30px; font-family: monospace"">é</span>"," ","","exp-sent","é","","",""
"","3652","html-keyboard-response","545","2916662","0.0-3.0-1.454","<span style=""font-size:30px; font-family: monospace"">exibido</span>"," ","","exp-sent","exibido","","",""
"","2244","html-keyboard-response","546","2919158","0.0-3.0-1.455","<span style=""font-size:30px; font-family: monospace"">e</span>"," ","","exp-sent","e","","",""
"","3493","html-keyboard-response","547","2922902","0.0-3.0-1.456","<span style=""font-size:30px; font-family: monospace"">sovina.</span>"," ","","comp","sovina.","","",""
"","4678","html-keyboard-response","548","2927830","0.0-3.0-2.456-0.456","<span style=""font-size:30px; font-family: monospace"">Aquele menino é humilde?</span>","n","","comp","","Aquele menino é humilde?","não","false"
"","null","html-keyboard-response","549","2929331","0.0-3.0-0.457-0.457","<span style= ""font-size:30px; font-family: monospace"">+</span>","null","fixation","","","","",""
"","823","html-keyboard-response","550","2930406","0.0-3.0-1.457","<span style=""font-size:30px; font-family: monospace"">Ganhamos</span>"," ","","exp-sent","Ganhamos","","",""
"","4581","html-keyboard-response","551","2935238","0.0-3.0-1.458","<span style=""font-size:30px; font-family: monospace"">passagem</span>"," ","","exp-sent","passagem","","",""
"","2293","html-keyboard-response","552","2937782","0.0-3.0-1.459","<span style=""font-size:30px; font-family: monospace"">para</span>"," ","","exp-sent","para","","",""
"","2229","html-keyboard-response","553","2940262","0.0-3.0-1.460","<span style=""font-size:30px; font-family: monospace"">uma</span>"," ","","exp-sent","uma","","",""
"","2245","html-keyboard-response","554","2942758","0.0-3.0-1.461","<span style=""font-size:30px; font-family: monospace"">viagem</span>"," ","","exp-sent","viagem","","",""
"","2260","html-keyboard-response","555","2945270","0.0-3.0-1.462","<span style=""font-size:30px; font-family: monospace"">de</span>"," ","","exp-sent","de","","",""
"","2789","html-keyboard-response","556","2948310","0.0-3.0-1.463","<span style=""font-size:30px; font-family: monospace"">férias.</span>"," ","","exp-sent","férias.","","",""
"","null","html-keyboard-response","557","2949562","0.0-3.0-0.464-0.464","<span style= ""font-size:30px; font-family: monospace"">+</span>","null","fixation","","","","",""
"","2897","html-keyboard-response","558","2952710","0.0-3.0-1.464","<span style=""font-size:30px; font-family: monospace"">Caiu</span>"," ","","exp-sent","Caiu","","",""
"","2149","html-keyboard-response","559","2955110","0.0-3.0-1.465","<span style=""font-size:30px; font-family: monospace"">algo</span>"," ","","exp-sent","algo","","",""
"","2196","html-keyboard-response","560","2957558","0.0-3.0-1.466","<span style=""font-size:30px; font-family: monospace"">no</span>"," ","","exp-sent","no","","",""
"","2453","html-keyboard-response","561","2960262","0.0-3.0-1.467","<span style=""font-size:30px; font-family: monospace"">meu</span>"," ","","exp-sent","meu","","",""
"","2501","html-keyboard-response","562","2963014","0.0-3.0-1.468","<span style=""font-size:30px; font-family: monospace"">olho</span>"," ","","exp-sent","olho","","",""
"","2681","html-keyboard-response","563","2965958","0.0-3.0-1.469","<span style=""font-size:30px; font-family: monospace"">ontem</span>"," ","","exp-sent","ontem","","",""
"","2213","html-keyboard-response","564","2968422","0.0-3.0-1.470","<span style=""font-size:30px; font-family: monospace"">de</span>"," ","","exp-sent","de","","",""
"","2741","html-keyboard-response","565","2971414","0.0-3.0-1.471","<span style=""font-size:30px; font-family: monospace"">tarde.</span>"," ","","exp-sent","tarde.","","",""
"","null","html-keyboard-response","566","2972671","0.0-3.0-0.472-0.472","<span style= ""font-size:30px; font-family: monospace"">+</span>","null","fixation","","","","",""
"","3277","html-keyboard-response","567","2976198","0.0-3.0-1.472","<span style=""font-size:30px; font-family: monospace"">Não</span>"," ","","exp-sent","Não","","",""
"","3157","html-keyboard-response","568","2979605","0.0-3.0-1.473","<span style=""font-size:30px; font-family: monospace"">havia</span>"," ","","exp-sent","havia","","",""
"","2230","html-keyboard-response","569","2982085","0.0-3.0-1.474","<span style=""font-size:30px; font-family: monospace"">mais</span>"," ","","exp-sent","mais","","",""
"","2276","html-keyboard-response","570","2984613","0.0-3.0-1.475","<span style=""font-size:30px; font-family: monospace"">nenhum</span>"," ","","exp-sent","nenhum","","",""
"","2352","html-keyboard-response","571","2987221","0.0-3.0-1.476","<span style=""font-size:30px; font-family: monospace"">ingresso</span>"," ","","exp-sent","ingresso","","",""
"","2308","html-keyboard-response","572","2989781","0.0-3.0-1.477","<span style=""font-size:30px; font-family: monospace"">para</span>"," ","","exp-sent","para","","",""
"","2148","html-keyboard-response","573","2992181","0.0-3.0-1.478","<span style=""font-size:30px; font-family: monospace"">o</span>"," ","","exp-sent","o","","",""
"","2162","html-keyboard-response","574","2994597","0.0-3.0-1.479","<span style=""font-size:30px; font-family: monospace"">evento.</span>"," ","","exp-sent","evento.","","",""
"","null","html-keyboard-response","575","2995849","0.0-3.0-0.480-0.480","<span style= ""font-size:30px; font-family: monospace"">+</span>","null","fixation","","","","",""
"","3408","html-keyboard-response","576","2999509","0.0-3.0-1.480","<span style=""font-size:30px; font-family: monospace"">A</span>"," ","","exp-sent","A","","",""
"","2213","html-keyboard-response","577","3001973","0.0-3.0-1.481","<span style=""font-size:30px; font-family: monospace"">médica</span>"," ","","exp-sent","médica","","",""
"","2228","html-keyboard-response","578","3004453","0.0-3.0-1.482","<span style=""font-size:30px; font-family: monospace"">descobriu</span>"," ","","exp-sent","descobriu","","",""
