[
	{
		"view_history": [
			{
				"page_index": 0,
				"viewing_time": 35711
			}
		],
		"rt": 35712,
		"trial_type": "instructions",
		"trial_index": 0,
		"time_elapsed": 35711,
		"internal_node_id": "0.0-0.0"
	},
	{
		"rt": null,
		"stimulus": "+",
		"response": null,
		"trial_type": "html-keyboard-response",
		"trial_index": 1,
		"time_elapsed": 36314,
		"internal_node_id": "0.0-1.0-0.0"
	},
	{
		"rt": 4472,
		"stimulus": "../audio/teste-vocab--71.mp3",
		"response": "s",
		"portuguese": "caule",
		"kreyol": "tij",
		"trial_type": "audio-keyboard-response",
		"trial_index": 2,
		"time_elapsed": 40896,
		"internal_node_id": "0.0-1.0-1.0"
	},
	{
		"rt": null,
		"stimulus": "+",
		"response": null,
		"trial_type": "html-keyboard-response",
		"trial_index": 3,
		"time_elapsed": 41410,
		"internal_node_id": "0.0-1.0-0.1"
	},
	{
		"rt": 2152,
		"stimulus": "../audio/teste-vocab--31.mp3",
		"response": "s",
		"portuguese": "vazio",
		"kreyol": "vid",
		"trial_type": "audio-keyboard-response",
		"trial_index": 4,
		"time_elapsed": 43583,
		"internal_node_id": "0.0-1.0-1.1"
	},
	{
		"rt": null,
		"stimulus": "+",
		"response": null,
		"trial_type": "html-keyboard-response",
		"trial_index": 5,
		"time_elapsed": 44094,
		"internal_node_id": "0.0-1.0-0.2"
	},
	{
		"rt": 2331,
		"stimulus": "../audio/teste-vocab--107.mp3",
		"response": "s",
		"portuguese": "elo",
		"kreyol": "emay",
		"trial_type": "audio-keyboard-response",
		"trial_index": 6,
		"time_elapsed": 46447,
		"internal_node_id": "0.0-1.0-1.2"
	},
	{
		"rt": null,
		"stimulus": "+",
		"response": null,
		"trial_type": "html-keyboard-response",
		"trial_index": 7,
		"time_elapsed": 46958,
		"internal_node_id": "0.0-1.0-0.3"
	},
	{
		"rt": 2069,
		"stimulus": "../audio/teste-vocab--116.mp3",
		"response": "s",
		"portuguese": "vestuário",
		"kreyol": "vestyè",
		"trial_type": "audio-keyboard-response",
		"trial_index": 8,
		"time_elapsed": 49055,
		"internal_node_id": "0.0-1.0-1.3"
	},
	{
		"rt": null,
		"stimulus": "+",
		"response": null,
		"trial_type": "html-keyboard-response",
		"trial_index": 9,
		"time_elapsed": 49562,
		"internal_node_id": "0.0-1.0-0.4"
	},
	{
		"rt": 1451,
		"stimulus": "../audio/teste-vocab--87.mp3",
		"response": "s",
		"portuguese": "ave",
		"kreyol": "zwazo",
		"trial_type": "audio-keyboard-response",
		"trial_index": 10,
		"time_elapsed": 51039,
		"internal_node_id": "0.0-1.0-1.4"
	},
	{
		"rt": null,
		"stimulus": "+",
		"response": null,
		"trial_type": "html-keyboard-response",
		"trial_index": 11,
		"time_elapsed": 51554,
		"internal_node_id": "0.0-1.0-0.5"
	},
	{
		"rt": 1339,
		"stimulus": "../audio/teste-vocab--18.mp3",
		"response": "s",
		"portuguese": "abelha",
		"kreyol": "myèl",
		"trial_type": "audio-keyboard-response",
		"trial_index": 12,
		"time_elapsed": 52911,
		"internal_node_id": "0.0-1.0-1.5"
	},
	{
		"rt": null,
		"stimulus": "+",
		"response": null,
		"trial_type": "html-keyboard-response",
		"trial_index": 13,
		"time_elapsed": 53425,
		"internal_node_id": "0.0-1.0-0.6"
	},
	{
		"rt": 1459,
		"stimulus": "../audio/teste-vocab--06.mp3",
		"response": "s",
		"portuguese": "barco",
		"kreyol": "bato",
		"trial_type": "audio-keyboard-response",
		"trial_index": 14,
		"time_elapsed": 54911,
		"internal_node_id": "0.0-1.0-1.6"
	},
	{
		"rt": null,
		"stimulus": "+",
		"response": null,
		"trial_type": "html-keyboard-response",
		"trial_index": 15,
		"time_elapsed": 55424,
		"internal_node_id": "0.0-1.0-0.7"
	},
	{
		"rt": 2091,
		"stimulus": "../audio/teste-vocab--93.mp3",
		"response": "s",
		"portuguese": "felino",
		"kreyol": "leopa",
		"trial_type": "audio-keyboard-response",
		"trial_index": 16,
		"time_elapsed": 57535,
		"internal_node_id": "0.0-1.0-1.7"
	},
	{
		"rt": null,
		"stimulus": "+",
		"response": null,
		"trial_type": "html-keyboard-response",
		"trial_index": 17,
		"time_elapsed": 58039,
		"internal_node_id": "0.0-1.0-0.8"
	},
	{
		"rt": 1600,
		"stimulus": "../audio/teste-vocab--07.mp3",
		"response": "s",
		"portuguese": "abajur",
		"kreyol": "lanp",
		"trial_type": "audio-keyboard-response",
		"trial_index": 18,
		"time_elapsed": 59663,
		"internal_node_id": "0.0-1.0-1.8"
	},
	{
		"rt": null,
		"stimulus": "+",
		"response": null,
		"trial_type": "html-keyboard-response",
		"trial_index": 19,
		"time_elapsed": 60174,
		"internal_node_id": "0.0-1.0-0.9"
	},
	{
		"rt": 3851,
		"stimulus": "../audio/teste-vocab--69.mp3",
		"response": "s",
		"portuguese": "pingar",
		"kreyol": "degoute",
		"trial_type": "audio-keyboard-response",
		"trial_index": 20,
		"time_elapsed": 64047,
		"internal_node_id": "0.0-1.0-1.9"
	},
	{
		"rt": null,
		"stimulus": "+",
		"response": null,
		"trial_type": "html-keyboard-response",
		"trial_index": 21,
		"time_elapsed": 64553,
		"internal_node_id": "0.0-1.0-0.10"
	},
	{
		"rt": 1299,
		"stimulus": "../audio/teste-vocab--14.mp3",
		"response": "s",
		"portuguese": "ler",
		"kreyol": "li",
		"trial_type": "audio-keyboard-response",
		"trial_index": 22,
		"time_elapsed": 65871,
		"internal_node_id": "0.0-1.0-1.10"
	},
	{
		"rt": null,
		"stimulus": "+",
		"response": null,
		"trial_type": "html-keyboard-response",
		"trial_index": 23,
		"time_elapsed": 66372,
		"internal_node_id": "0.0-1.0-0.11"
	},
	{
		"rt": 2491,
		"stimulus": "../audio/teste-vocab--124.mp3",
		"response": "n",
		"portuguese": "obelisco",
		"kreyol": "obelisk",
		"trial_type": "audio-keyboard-response",
		"trial_index": 24,
		"time_elapsed": 68879,
		"internal_node_id": "0.0-1.0-1.11"
	},
	{
		"rt": null,
		"stimulus": "+",
		"response": null,
		"trial_type": "html-keyboard-response",
		"trial_index": 25,
		"time_elapsed": 69393,
		"internal_node_id": "0.0-1.0-0.12"
	},
	{
		"rt": 2000,
		"stimulus": "../audio/teste-vocab--96.mp3",
		"response": "s",
		"portuguese": "árido",
		"kreyol": "sechrès",
		"trial_type": "audio-keyboard-response",
		"trial_index": 26,
		"time_elapsed": 71423,
		"internal_node_id": "0.0-1.0-1.12"
	},
	{
		"rt": null,
		"stimulus": "+",
		"response": null,
		"trial_type": "html-keyboard-response",
		"trial_index": 27,
		"time_elapsed": 71935,
		"internal_node_id": "0.0-1.0-0.13"
	},
	{
		"rt": 2101,
		"stimulus": "../audio/teste-vocab--129.mp3",
		"response": "s",
		"portuguese": "elipse",
		"kreyol": "elips",
		"trial_type": "audio-keyboard-response",
		"trial_index": 28,
		"time_elapsed": 74063,
		"internal_node_id": "0.0-1.0-1.13"
	},
	{
		"rt": null,
		"stimulus": "+",
		"response": null,
		"trial_type": "html-keyboard-response",
		"trial_index": 29,
		"time_elapsed": 74572,
		"internal_node_id": "0.0-1.0-0.14"
	},
	{
		"rt": 1472,
		"stimulus": "../audio/teste-vocab--12.mp3",
		"response": "s",
		"portuguese": "jaula",
		"kreyol": "kaj",
		"trial_type": "audio-keyboard-response",
		"trial_index": 30,
		"time_elapsed": 76063,
		"internal_node_id": "0.0-1.0-1.14"
	},
	{
		"rt": null,
		"stimulus": "+",
		"response": null,
		"trial_type": "html-keyboard-response",
		"trial_index": 31,
		"time_elapsed": 76565,
		"internal_node_id": "0.0-1.0-0.15"
	},
	{
		"rt": 1848,
		"stimulus": "../audio/teste-vocab--98.mp3",
		"response": "s",
		"portuguese": "instruir",
		"kreyol": "enstwi",
		"trial_type": "audio-keyboard-response",
		"trial_index": 32,
		"time_elapsed": 78431,
		"internal_node_id": "0.0-1.0-1.15"
	},
	{
		"rt": null,
		"stimulus": "+",
		"response": null,
		"trial_type": "html-keyboard-response",
		"trial_index": 33,
		"time_elapsed": 78932,
		"internal_node_id": "0.0-1.0-0.16"
	},
	{
		"rt": 1640,
		"stimulus": "../audio/teste-vocab--102.mp3",
		"response": "s",
		"portuguese": "arrogante",
		"kreyol": "arogan",
		"trial_type": "audio-keyboard-response",
		"trial_index": 34,
		"time_elapsed": 80591,
		"internal_node_id": "0.0-1.0-1.16"
	},
	{
		"rt": null,
		"stimulus": "+",
		"response": null,
		"trial_type": "html-keyboard-response",
		"trial_index": 35,
		"time_elapsed": 81106,
		"internal_node_id": "0.0-1.0-0.17"
	},
	{
		"rt": 1531,
		"stimulus": "../audio/teste-vocab--39.mp3",
		"response": "s",
		"portuguese": "cobra",
		"kreyol": "koulèv",
		"trial_type": "audio-keyboard-response",
		"trial_index": 36,
		"time_elapsed": 82655,
		"internal_node_id": "0.0-1.0-1.17"
	},
	{
		"rt": null,
		"stimulus": "+",
		"response": null,
		"trial_type": "html-keyboard-response",
		"trial_index": 37,
		"time_elapsed": 83166,
		"internal_node_id": "0.0-1.0-0.18"
	},
	{
		"rt": 1589,
		"stimulus": "../audio/teste-vocab--123.mp3",
		"response": "s",
		"portuguese": "emissão",
		"kreyol": "emisyon",
		"trial_type": "audio-keyboard-response",
		"trial_index": 38,
		"time_elapsed": 84799,
		"internal_node_id": "0.0-1.0-1.18"
	},
	{
		"rt": null,
		"stimulus": "+",
		"response": null,
		"trial_type": "html-keyboard-response",
		"trial_index": 39,
		"time_elapsed": 85309,
		"internal_node_id": "0.0-1.0-0.19"
	},
	{
		"rt": 1931,
		"stimulus": "../audio/teste-vocab--11.mp3",
		"response": "s",
		"portuguese": "joelho",
		"kreyol": "jenou",
		"trial_type": "audio-keyboard-response",
		"trial_index": 40,
		"time_elapsed": 87263,
		"internal_node_id": "0.0-1.0-1.19"
	},
	{
		"rt": null,
		"stimulus": "+",
		"response": null,
		"trial_type": "html-keyboard-response",
		"trial_index": 41,
		"time_elapsed": 87770,
		"internal_node_id": "0.0-1.0-0.20"
	},
	{
		"rt": 1520,
		"stimulus": "../audio/teste-vocab--24.mp3",
		"response": "s",
		"portuguese": "acidente",
		"kreyol": "aksidan",
		"trial_type": "audio-keyboard-response",
		"trial_index": 42,
		"time_elapsed": 89311,
		"internal_node_id": "0.0-1.0-1.20"
	},
	{
		"rt": null,
		"stimulus": "+",
		"response": null,
		"trial_type": "html-keyboard-response",
		"trial_index": 43,
		"time_elapsed": 89819,
		"internal_node_id": "0.0-1.0-0.21"
	},
	{
		"rt": 2011,
		"stimulus": "../audio/teste-vocab--42.mp3",
		"response": "s",
		"portuguese": "isolamento",
		"kreyol": "izòlman",
		"trial_type": "audio-keyboard-response",
		"trial_index": 44,
		"time_elapsed": 91838,
		"internal_node_id": "0.0-1.0-1.21"
	},
	{
		"rt": null,
		"stimulus": "+",
		"response": null,
		"trial_type": "html-keyboard-response",
		"trial_index": 45,
		"time_elapsed": 92346,
		"internal_node_id": "0.0-1.0-0.22"
	},
	{
		"rt": 1971,
		"stimulus": "../audio/teste-vocab--37.mp3",
		"response": "s",
		"portuguese": "músico",
		"kreyol": "mizisyen",
		"trial_type": "audio-keyboard-response",
		"trial_index": 46,
		"time_elapsed": 94334,
		"internal_node_id": "0.0-1.0-1.22"
	},
	{
		"rt": null,
		"stimulus": "+",
		"response": null,
		"trial_type": "html-keyboard-response",
		"trial_index": 47,
		"time_elapsed": 94848,
		"internal_node_id": "0.0-1.0-0.23"
	},
	{
		"rt": 1851,
		"stimulus": "../audio/teste-vocab--120.mp3",
		"response": "s",
		"portuguese": "induzir",
		"kreyol": "pwovoke",
		"trial_type": "audio-keyboard-response",
		"trial_index": 48,
		"time_elapsed": 96718,
		"internal_node_id": "0.0-1.0-1.23"
	},
	{
		"rt": null,
		"stimulus": "+",
		"response": null,
		"trial_type": "html-keyboard-response",
		"trial_index": 49,
		"time_elapsed": 97223,
		"internal_node_id": "0.0-1.0-0.24"
	},
	{
		"rt": 1509,
		"stimulus": "../audio/teste-vocab--16.mp3",
		"response": "s",
		"portuguese": "pescoço",
		"kreyol": "kou",
		"trial_type": "audio-keyboard-response",
		"trial_index": 50,
		"time_elapsed": 98750,
		"internal_node_id": "0.0-1.0-1.24"
	},
	{
		"rt": null,
		"stimulus": "+",
		"response": null,
		"trial_type": "html-keyboard-response",
		"trial_index": 51,
		"time_elapsed": 99257,
		"internal_node_id": "0.0-1.0-0.25"
	},
	{
		"rt": 1539,
		"stimulus": "../audio/teste-vocab--45.mp3",
		"response": "s",
		"portuguese": "dentista",
		"kreyol": "dantis",
		"trial_type": "audio-keyboard-response",
		"trial_index": 52,
		"time_elapsed": 100830,
		"internal_node_id": "0.0-1.0-1.25"
	},
	{
		"rt": null,
		"stimulus": "+",
		"response": null,
		"trial_type": "html-keyboard-response",
		"trial_index": 53,
		"time_elapsed": 101335,
		"internal_node_id": "0.0-1.0-0.26"
	},
	{
		"rt": 1331,
		"stimulus": "../audio/teste-vocab--41.mp3",
		"response": "s",
		"portuguese": "médico",
		"kreyol": "doktè,",
		"trial_type": "audio-keyboard-response",
		"trial_index": 54,
		"time_elapsed": 102686,
		"internal_node_id": "0.0-1.0-1.26"
	},
	{
		"rt": null,
		"stimulus": "+",
		"response": null,
		"trial_type": "html-keyboard-response",
		"trial_index": 55,
		"time_elapsed": 103190,
		"internal_node_id": "0.0-1.0-0.27"
	},
	{
		"rt": 1331,
		"stimulus": "../audio/teste-vocab--80.mp3",
		"response": "s",
		"portuguese": "binóculo",
		"kreyol": "longvi",
		"trial_type": "audio-keyboard-response",
		"trial_index": 56,
		"time_elapsed": 104542,
		"internal_node_id": "0.0-1.0-1.27"
	},
	{
		"rt": null,
		"stimulus": "+",
		"response": null,
		"trial_type": "html-keyboard-response",
		"trial_index": 57,
		"time_elapsed": 105049,
		"internal_node_id": "0.0-1.0-0.28"
	},
	{
		"rt": 1952,
		"stimulus": "../audio/teste-vocab--63.mp3",
		"response": "s",
		"portuguese": "transparente",
		"kreyol": "transparan",
		"trial_type": "audio-keyboard-response",
		"trial_index": 58,
		"time_elapsed": 107022,
		"internal_node_id": "0.0-1.0-1.28"
	},
	{
		"rt": null,
		"stimulus": "+",
		"response": null,
		"trial_type": "html-keyboard-response",
		"trial_index": 59,
		"time_elapsed": 107529,
		"internal_node_id": "0.0-1.0-0.29"
	},
	{
		"rt": 1520,
		"stimulus": "../audio/teste-vocab--58.mp3",
		"response": "s",
		"portuguese": "nutritivo",
		"kreyol": "nourisan",
		"trial_type": "audio-keyboard-response",
		"trial_index": 60,
		"time_elapsed": 109070,
		"internal_node_id": "0.0-1.0-1.29"
	},
	{
		"rt": null,
		"stimulus": "+",
		"response": null,
		"trial_type": "html-keyboard-response",
		"trial_index": 61,
		"time_elapsed": 109573,
		"internal_node_id": "0.0-1.0-0.30"
	},
	{
		"rt": 1240,
		"stimulus": "../audio/teste-vocab--108.mp3",
		"response": "s",
		"portuguese": "moradia",
		"kreyol": "kay",
		"trial_type": "audio-keyboard-response",
		"trial_index": 62,
		"time_elapsed": 110830,
		"internal_node_id": "0.0-1.0-1.30"
	},
	{
		"rt": null,
		"stimulus": "+",
		"response": null,
		"trial_type": "html-keyboard-response",
		"trial_index": 63,
		"time_elapsed": 111333,
		"internal_node_id": "0.0-1.0-0.31"
	},
	{
		"rt": 1720,
		"stimulus": "../audio/teste-vocab--09.mp3",
		"response": "s",
		"portuguese": "vela",
		"kreyol": "bouji",
		"trial_type": "audio-keyboard-response",
		"trial_index": 64,
		"time_elapsed": 113070,
		"internal_node_id": "0.0-1.0-1.31"
	},
	{
		"rt": null,
		"stimulus": "+",
		"response": null,
		"trial_type": "html-keyboard-response",
		"trial_index": 65,
		"time_elapsed": 113585,
		"internal_node_id": "0.0-1.0-0.32"
	},
	{
		"rt": 1341,
		"stimulus": "../audio/teste-vocab--10.mp3",
		"response": "s",
		"portuguese": "corneta",
		"kreyol": "kòn",
		"trial_type": "audio-keyboard-response",
		"trial_index": 66,
		"time_elapsed": 114942,
		"internal_node_id": "0.0-1.0-1.32"
	},
	{
		"rt": null,
		"stimulus": "+",
		"response": null,
		"trial_type": "html-keyboard-response",
		"trial_index": 67,
		"time_elapsed": 115455,
		"internal_node_id": "0.0-1.0-0.33"
	},
	{
		"rt": 1520,
		"stimulus": "../audio/teste-vocab--77.mp3",
		"response": "s",
		"portuguese": "comércio",
		"kreyol": "komès",
		"trial_type": "audio-keyboard-response",
		"trial_index": 68,
		"time_elapsed": 116990,
		"internal_node_id": "0.0-1.0-1.33"
	},
	{
		"rt": null,
		"stimulus": "+",
		"response": null,
		"trial_type": "html-keyboard-response",
		"trial_index": 69,
		"time_elapsed": 117499,
		"internal_node_id": "0.0-1.0-0.34"
	},
	{
		"rt": 1341,
		"stimulus": "../audio/teste-vocab--28.mp3",
		"response": "s",
		"portuguese": "águia",
		"kreyol": "èg",
		"trial_type": "audio-keyboard-response",
		"trial_index": 70,
		"time_elapsed": 118862,
		"internal_node_id": "0.0-1.0-1.34"
	},
	{
		"rt": null,
		"stimulus": "+",
		"response": null,
		"trial_type": "html-keyboard-response",
		"trial_index": 71,
		"time_elapsed": 119363,
		"internal_node_id": "0.0-1.0-0.35"
	},
	{
		"rt": 4728,
		"stimulus": "../audio/teste-vocab--67.mp3",
		"response": "s",
		"portuguese": "corrimão",
		"kreyol": "ranp",
		"trial_type": "audio-keyboard-response",
		"trial_index": 72,
		"time_elapsed": 124110,
		"internal_node_id": "0.0-1.0-1.35"
	},
	{
		"rt": null,
		"stimulus": "+",
		"response": null,
		"trial_type": "html-keyboard-response",
		"trial_index": 73,
		"time_elapsed": 124612,
		"internal_node_id": "0.0-1.0-0.36"
	},
	{
		"rt": 1581,
		"stimulus": "../audio/teste-vocab--54.mp3",
		"response": "s",
		"portuguese": "arbusto",
		"kreyol": "raje",
		"trial_type": "audio-keyboard-response",
		"trial_index": 74,
		"time_elapsed": 126206,
		"internal_node_id": "0.0-1.0-1.36"
	},
	{
		"rt": null,
		"stimulus": "+",
		"response": null,
		"trial_type": "html-keyboard-response",
		"trial_index": 75,
		"time_elapsed": 126715,
		"internal_node_id": "0.0-1.0-0.37"
	},
	{
		"rt": 1659,
		"stimulus": "../audio/teste-vocab--97.mp3",
		"response": "s",
		"portuguese": "frágil",
		"kreyol": "frajil",
		"trial_type": "audio-keyboard-response",
		"trial_index": 76,
		"time_elapsed": 128398,
		"internal_node_id": "0.0-1.0-1.37"
	},
	{
		"rt": null,
		"stimulus": "+",
		"response": null,
		"trial_type": "html-keyboard-response",
		"trial_index": 77,
		"time_elapsed": 128903,
		"internal_node_id": "0.0-1.0-0.38"
	},
	{
		"rt": 1491,
		"stimulus": "../audio/teste-vocab--13.mp3",
		"response": "s",
		"portuguese": "ambulância",
		"kreyol": "anbilans",
		"trial_type": "audio-keyboard-response",
		"trial_index": 78,
		"time_elapsed": 130414,
		"internal_node_id": "0.0-1.0-1.38"
	},
	{
		"rt": null,
		"stimulus": "+",
		"response": null,
		"trial_type": "html-keyboard-response",
		"trial_index": 79,
		"time_elapsed": 130919,
		"internal_node_id": "0.0-1.0-0.39"
	},
	{
		"rt": 1429,
		"stimulus": "../audio/teste-vocab--17.mp3",
		"response": "s",
		"portuguese": "móvel",
		"kreyol": "mobil",
		"trial_type": "audio-keyboard-response",
		"trial_index": 80,
		"time_elapsed": 132366,
		"internal_node_id": "0.0-1.0-1.39"
	},
	{
		"rt": null,
		"stimulus": "+",
		"response": null,
		"trial_type": "html-keyboard-response",
		"trial_index": 81,
		"time_elapsed": 132874,
		"internal_node_id": "0.0-1.0-0.40"
	},
	{
		"rt": 1720,
		"stimulus": "../audio/teste-vocab--53.mp3",
		"response": "s",
		"portuguese": "orientar",
		"kreyol": "oryante",
		"trial_type": "audio-keyboard-response",
		"trial_index": 82,
		"time_elapsed": 134606,
		"internal_node_id": "0.0-1.0-1.40"
	},
	{
		"rt": null,
		"stimulus": "+",
		"response": null,
		"trial_type": "html-keyboard-response",
		"trial_index": 83,
		"time_elapsed": 135121,
		"internal_node_id": "0.0-1.0-0.41"
	},
	{
		"rt": 1589,
		"stimulus": "../audio/teste-vocab--62.mp3",
		"response": "s",
		"portuguese": "carretel",
		"kreyol": "bobin",
		"trial_type": "audio-keyboard-response",
		"trial_index": 84,
		"time_elapsed": 136734,
		"internal_node_id": "0.0-1.0-1.41"
	},
	{
		"rt": null,
		"stimulus": "+",
		"response": null,
		"trial_type": "html-keyboard-response",
		"trial_index": 85,
		"time_elapsed": 137250,
		"internal_node_id": "0.0-1.0-0.42"
	},
	{
		"rt": 1691,
		"stimulus": "../audio/teste-vocab--95.mp3",
		"response": "s",
		"portuguese": "submergir",
		"kreyol": "plonje",
		"trial_type": "audio-keyboard-response",
		"trial_index": 86,
		"time_elapsed": 138974,
		"internal_node_id": "0.0-1.0-1.42"
	},
	{
		"rt": null,
		"stimulus": "+",
		"response": null,
		"trial_type": "html-keyboard-response",
		"trial_index": 87,
		"time_elapsed": 139482,
		"internal_node_id": "0.0-1.0-0.43"
	},
	{
		"rt": 1520,
		"stimulus": "../audio/teste-vocab--35.mp3",
		"response": "s",
		"portuguese": "líquido",
		"kreyol": "likid",
		"trial_type": "audio-keyboard-response",
		"trial_index": 88,
		"time_elapsed": 141022,
		"internal_node_id": "0.0-1.0-1.43"
	},
	{
		"rt": null,
		"stimulus": "+",
		"response": null,
		"trial_type": "html-keyboard-response",
		"trial_index": 89,
		"time_elapsed": 141525,
		"internal_node_id": "0.0-1.0-0.44"
	},
	{
		"rt": 1269,
		"stimulus": "../audio/teste-vocab--15.mp3",
		"response": "s",
		"portuguese": "flecha",
		"kreyol": "flèch",
		"trial_type": "audio-keyboard-response",
		"trial_index": 90,
		"time_elapsed": 142814,
		"internal_node_id": "0.0-1.0-1.44"
	},
	{
		"rt": null,
		"stimulus": "+",
		"response": null,
		"trial_type": "html-keyboard-response",
		"trial_index": 91,
		"time_elapsed": 143317,
		"internal_node_id": "0.0-1.0-0.45"
	},
	{
		"rt": 2309,
		"stimulus": "../audio/teste-vocab--75.mp3",
		"response": "s",
		"portuguese": "carpinteiro",
		"kreyol": "chapantye",
		"trial_type": "audio-keyboard-response",
		"trial_index": 92,
		"time_elapsed": 145646,
		"internal_node_id": "0.0-1.0-1.45"
	},
	{
		"rt": null,
		"stimulus": "+",
		"response": null,
		"trial_type": "html-keyboard-response",
		"trial_index": 93,
		"time_elapsed": 146158,
		"internal_node_id": "0.0-1.0-0.46"
	},
	{
		"rt": 1688,
		"stimulus": "../audio/teste-vocab--113.mp3",
		"response": "s",
		"portuguese": "ascender",
		"kreyol": "limen",
		"trial_type": "audio-keyboard-response",
		"trial_index": 94,
		"time_elapsed": 147870,
		"internal_node_id": "0.0-1.0-1.46"
	},
	{
		"rt": null,
		"stimulus": "+",
		"response": null,
		"trial_type": "html-keyboard-response",
		"trial_index": 95,
		"time_elapsed": 148386,
		"internal_node_id": "0.0-1.0-0.47"
	},
	{
		"rt": 1832,
		"stimulus": "../audio/teste-vocab--60.mp3",
		"response": "s",
		"portuguese": "secretaria",
		"kreyol": "sekretè",
		"trial_type": "audio-keyboard-response",
		"trial_index": 96,
		"time_elapsed": 150222,
		"internal_node_id": "0.0-1.0-1.47"
	},
	{
		"rt": null,
		"stimulus": "+",
		"response": null,
		"trial_type": "html-keyboard-response",
		"trial_index": 97,
		"time_elapsed": 150724,
		"internal_node_id": "0.0-1.0-0.48"
	},
	{
		"rt": 1680,
		"stimulus": "../audio/teste-vocab--83.mp3",
		"response": "s",
		"portuguese": "morsa",
		"kreyol": "mòs",
		"trial_type": "audio-keyboard-response",
		"trial_index": 98,
		"time_elapsed": 152429,
		"internal_node_id": "0.0-1.0-1.48"
	},
	{
		"rt": null,
		"stimulus": "+",
		"response": null,
		"trial_type": "html-keyboard-response",
		"trial_index": 99,
		"time_elapsed": 152941,
		"internal_node_id": "0.0-1.0-0.49"
	},
	{
		"rt": 1840,
		"stimulus": "../audio/teste-vocab--01.mp3",
		"response": "s",
		"portuguese": "boneca",
		"kreyol": "pope",
		"trial_type": "audio-keyboard-response",
		"trial_index": 100,
		"time_elapsed": 154797,
		"internal_node_id": "0.0-1.0-1.49"
	},
	{
		"rt": null,
		"stimulus": "+",
		"response": null,
		"trial_type": "html-keyboard-response",
		"trial_index": 101,
		"time_elapsed": 155298,
		"internal_node_id": "0.0-1.0-0.50"
	},
	{
		"rt": 1571,
		"stimulus": "../audio/teste-vocab--05.mp3",
		"response": "s",
		"portuguese": "limpar",
		"kreyol": "netwaye",
		"trial_type": "audio-keyboard-response",
		"trial_index": 102,
		"time_elapsed": 156893,
		"internal_node_id": "0.0-1.0-1.50"
	},
	{
		"rt": null,
		"stimulus": "+",
		"response": null,
		"trial_type": "html-keyboard-response",
		"trial_index": 103,
		"time_elapsed": 157395,
		"internal_node_id": "0.0-1.0-0.51"
	},
	{
		"rt": 15920,
		"stimulus": "../audio/teste-vocab--66.mp3",
		"response": "s",
		"portuguese": "cooperação",
		"kreyol": "koperasyon",
		"trial_type": "audio-keyboard-response",
		"trial_index": 104,
		"time_elapsed": 173341,
		"internal_node_id": "0.0-1.0-1.51"
	},
	{
		"rt": null,
		"stimulus": "+",
		"response": null,
		"trial_type": "html-keyboard-response",
		"trial_index": 105,
		"time_elapsed": 173844,
		"internal_node_id": "0.0-1.0-0.52"
	},
	{
		"rt": 1872,
		"stimulus": "../audio/teste-vocab--38.mp3",
		"response": "s",
		"portuguese": "cerimônia",
		"kreyol": "seremoni",
		"trial_type": "audio-keyboard-response",
		"trial_index": 106,
		"time_elapsed": 175741,
		"internal_node_id": "0.0-1.0-1.52"
	},
	{
		"rt": null,
		"stimulus": "+",
		"response": null,
		"trial_type": "html-keyboard-response",
		"trial_index": 107,
		"time_elapsed": 177392,
		"internal_node_id": "0.0-1.0-0.53"
	},
	{
		"rt": 1840,
		"stimulus": "../audio/teste-vocab--91.mp3",
		"response": "s",
		"portuguese": "bússola",
		"kreyol": "bousòl",
		"trial_type": "audio-keyboard-response",
		"trial_index": 108,
		"time_elapsed": 179245,
		"internal_node_id": "0.0-1.0-1.53"
	},
	{
		"rt": null,
		"stimulus": "+",
		"response": null,
		"trial_type": "html-keyboard-response",
		"trial_index": 109,
		"time_elapsed": 179761,
		"internal_node_id": "0.0-1.0-0.54"
	},
	{
		"rt": 1608,
		"stimulus": "../audio/teste-vocab--111.mp3",
		"response": "s",
		"portuguese": "jubilosa",
		"kreyol": "rejwisans",
		"trial_type": "audio-keyboard-response",
		"trial_index": 110,
		"time_elapsed": 181389,
		"internal_node_id": "0.0-1.0-1.54"
	},
	{
		"rt": null,
		"stimulus": "+",
		"response": null,
		"trial_type": "html-keyboard-response",
		"trial_index": 111,
		"time_elapsed": 181897,
		"internal_node_id": "0.0-1.0-0.55"
	},
	{
		"rt": 3491,
		"stimulus": "../audio/teste-vocab--101.mp3",
		"response": "n",
		"portuguese": "incandescente",
		"kreyol": "enkandesan",
		"trial_type": "audio-keyboard-response",
		"trial_index": 112,
		"time_elapsed": 185421,
		"internal_node_id": "0.0-1.0-1.55"
	},
	{
		"rt": null,
		"stimulus": "+",
		"response": null,
		"trial_type": "html-keyboard-response",
		"trial_index": 113,
		"time_elapsed": 185936,
		"internal_node_id": "0.0-1.0-0.56"
	},
	{
		"rt": 421,
		"stimulus": "../audio/teste-vocab--109.mp3",
		"response": "s",
		"portuguese": "anfíbio",
		"kreyol": "anfibyen",
		"trial_type": "audio-keyboard-response",
		"trial_index": 114,
		"time_elapsed": 186381,
		"internal_node_id": "0.0-1.0-1.56"
	},
	{
		"rt": null,
		"stimulus": "+",
		"response": null,
		"trial_type": "html-keyboard-response",
		"trial_index": 115,
		"time_elapsed": 186886,
		"internal_node_id": "0.0-1.0-0.57"
	},
	{
		"rt": 2621,
		"stimulus": "../audio/teste-vocab--126.mp3",
		"response": "s",
		"portuguese": "ambulante",
		"kreyol": "promennen",
		"trial_type": "audio-keyboard-response",
		"trial_index": 116,
		"time_elapsed": 189533,
		"internal_node_id": "0.0-1.0-1.57"
	},
	{
		"rt": null,
		"stimulus": "+",
		"response": null,
		"trial_type": "html-keyboard-response",
		"trial_index": 117,
		"time_elapsed": 190045,
		"internal_node_id": "0.0-1.0-0.58"
	},
	{
		"rt": 3229,
		"stimulus": "../audio/teste-vocab--70.mp3",
		"response": "s",
		"portuguese": "funil",
		"kreyol": "antónwa",
		"trial_type": "audio-keyboard-response",
		"trial_index": 118,
		"time_elapsed": 193293,
		"internal_node_id": "0.0-1.0-1.58"
	},
	{
		"rt": null,
		"stimulus": "+",
		"response": null,
		"trial_type": "html-keyboard-response",
		"trial_index": 119,
		"time_elapsed": 193804,
		"internal_node_id": "0.0-1.0-0.59"
	},
	{
		"rt": 1541,
		"stimulus": "../audio/teste-vocab--04.mp3",
		"response": "s",
		"portuguese": "roda",
		"kreyol": "wonn",
		"trial_type": "audio-keyboard-response",
		"trial_index": 120,
		"time_elapsed": 195373,
		"internal_node_id": "0.0-1.0-1.59"
	},
	{
		"rt": null,
		"stimulus": "+",
		"response": null,
		"trial_type": "html-keyboard-response",
		"trial_index": 121,
		"time_elapsed": 195885,
		"internal_node_id": "0.0-1.0-0.60"
	},
	{
		"rt": 5691,
		"stimulus": "../audio/teste-vocab--73.mp3",
		"response": "n",
		"portuguese": "ângulo",
		"kreyol": "ang",
		"trial_type": "audio-keyboard-response",
		"trial_index": 122,
		"time_elapsed": 201597,
		"internal_node_id": "0.0-1.0-1.60"
	},
	{
		"rt": null,
		"stimulus": "+",
		"response": null,
		"trial_type": "html-keyboard-response",
		"trial_index": 123,
		"time_elapsed": 202102,
		"internal_node_id": "0.0-1.0-0.61"
	},
	{
		"rt": 3469,
		"stimulus": "../audio/teste-vocab--103.mp3",
		"response": "n",
		"portuguese": "utensílio",
		"kreyol": "istansil",
		"trial_type": "audio-keyboard-response",
		"trial_index": 124,
		"time_elapsed": 205597,
		"internal_node_id": "0.0-1.0-1.61"
	},
	{
		"rt": null,
		"stimulus": "+",
		"response": null,
		"trial_type": "html-keyboard-response",
		"trial_index": 125,
		"time_elapsed": 206109,
		"internal_node_id": "0.0-1.0-0.62"
	},
	{
		"rt": 1451,
		"stimulus": "../audio/teste-vocab--03.mp3",
		"response": "s",
		"portuguese": "balançar",
		"kreyol": "balanse",
		"trial_type": "audio-keyboard-response",
		"trial_index": 126,
		"time_elapsed": 207581,
		"internal_node_id": "0.0-1.0-1.62"
	},
	{
		"rt": null,
		"stimulus": "+",
		"response": null,
		"trial_type": "html-keyboard-response",
		"trial_index": 127,
		"time_elapsed": 208092,
		"internal_node_id": "0.0-1.0-0.63"
	},
	{
		"rt": 3491,
		"stimulus": "../audio/teste-vocab--78.mp3",
		"response": "n",
		"portuguese": "quarteto",
		"kreyol": "qwatèt",
		"trial_type": "audio-keyboard-response",
		"trial_index": 128,
		"time_elapsed": 211597,
		"internal_node_id": "0.0-1.0-1.63"
	},
	{
		"rt": null,
		"stimulus": "+",
		"response": null,
		"trial_type": "html-keyboard-response",
		"trial_index": 129,
		"time_elapsed": 212103,
		"internal_node_id": "0.0-1.0-0.64"
	},
	{
		"rt": 2080,
		"stimulus": "../audio/teste-vocab--65.mp3",
		"response": "s",
		"portuguese": "discussão",
		"kreyol": "diskisyon",
		"trial_type": "audio-keyboard-response",
		"trial_index": 130,
		"time_elapsed": 214204,
		"internal_node_id": "0.0-1.0-1.64"
	},
	{
		"rt": null,
		"stimulus": "+",
		"response": null,
		"trial_type": "html-keyboard-response",
		"trial_index": 131,
		"time_elapsed": 214709,
		"internal_node_id": "0.0-1.0-0.65"
	},
	{
		"rt": 1749,
		"stimulus": "../audio/teste-vocab--88.mp3",
		"response": "s",
		"portuguese": "portátil",
		"kreyol": "pòtab",
		"trial_type": "audio-keyboard-response",
		"trial_index": 132,
		"time_elapsed": 216476,
		"internal_node_id": "0.0-1.0-1.65"
	},
	{
		"rt": null,
		"stimulus": "+",
		"response": null,
		"trial_type": "html-keyboard-response",
		"trial_index": 133,
		"time_elapsed": 216985,
		"internal_node_id": "0.0-1.0-0.66"
	},
	{
		"rt": 1499,
		"stimulus": "../audio/teste-vocab--46.mp3",
		"response": "s",
		"portuguese": "ombro",
		"kreyol": "zepòl",
		"trial_type": "audio-keyboard-response",
		"trial_index": 134,
		"time_elapsed": 218508,
		"internal_node_id": "0.0-1.0-1.66"
	},
	{
		"rt": null,
		"stimulus": "+",
		"response": null,
		"trial_type": "html-keyboard-response",
		"trial_index": 135,
		"time_elapsed": 219010,
		"internal_node_id": "0.0-1.0-0.67"
	},
	{
		"rt": 1701,
		"stimulus": "../audio/teste-vocab--106.mp3",
		"response": "s",
		"portuguese": "lubrificar",
		"kreyol": "grese",
		"trial_type": "audio-keyboard-response",
		"trial_index": 136,
		"time_elapsed": 220731,
		"internal_node_id": "0.0-1.0-1.67"
	},
	{
		"rt": null,
		"stimulus": "+",
		"response": null,
		"trial_type": "html-keyboard-response",
		"trial_index": 137,
		"time_elapsed": 221243,
		"internal_node_id": "0.0-1.0-0.68"
	},
	{
		"rt": 1781,
		"stimulus": "../audio/teste-vocab--51.mp3",
		"response": "s",
		"portuguese": "recolher",
		"kreyol": "kolekte",
		"trial_type": "audio-keyboard-response",
		"trial_index": 138,
		"time_elapsed": 223052,
		"internal_node_id": "0.0-1.0-1.68"
	},
	{
		"rt": null,
		"stimulus": "+",
		"response": null,
		"trial_type": "html-keyboard-response",
		"trial_index": 139,
		"time_elapsed": 223562,
		"internal_node_id": "0.0-1.0-0.69"
	},
	{
		"rt": 1328,
		"stimulus": "../audio/teste-vocab--117.mp3",
		"response": "s",
		"portuguese": "córnea",
		"kreyol": "kòn",
		"trial_type": "audio-keyboard-response",
		"trial_index": 140,
		"time_elapsed": 224908,
		"internal_node_id": "0.0-1.0-1.69"
	},
	{
		"rt": null,
		"stimulus": "+",
		"response": null,
		"trial_type": "html-keyboard-response",
		"trial_index": 141,
		"time_elapsed": 225418,
		"internal_node_id": "0.0-1.0-0.70"
	},
	{
		"rt": 1581,
		"stimulus": "../audio/teste-vocab--114.mp3",
		"response": "s",
		"portuguese": "fragmentar",
		"kreyol": "dechire",
		"trial_type": "audio-keyboard-response",
		"trial_index": 142,
		"time_elapsed": 227020,
		"internal_node_id": "0.0-1.0-1.70"
	},
	{
		"rt": null,
		"stimulus": "+",
		"response": null,
		"trial_type": "html-keyboard-response",
		"trial_index": 143,
		"time_elapsed": 227527,
		"internal_node_id": "0.0-1.0-0.71"
	},
	{
		"rt": 1851,
		"stimulus": "../audio/teste-vocab--72.mp3",
		"response": "s",
		"portuguese": "ilha",
		"kreyol": "zile",
		"trial_type": "audio-keyboard-response",
		"trial_index": 144,
		"time_elapsed": 229420,
		"internal_node_id": "0.0-1.0-1.71"
	},
	{
		"rt": null,
		"stimulus": "+",
		"response": null,
		"trial_type": "html-keyboard-response",
		"trial_index": 145,
		"time_elapsed": 229929,
		"internal_node_id": "0.0-1.0-0.72"
	},
	{
		"rt": 1571,
		"stimulus": "../audio/teste-vocab--20.mp3",
		"response": "s",
		"portuguese": "medir",
		"kreyol": "mezire",
		"trial_type": "audio-keyboard-response",
		"trial_index": 146,
		"time_elapsed": 231516,
		"internal_node_id": "0.0-1.0-1.72"
	},
	{
		"rt": null,
		"stimulus": "+",
		"response": null,
		"trial_type": "html-keyboard-response",
		"trial_index": 147,
		"time_elapsed": 232017,
		"internal_node_id": "0.0-1.0-0.73"
	},
	{
		"rt": 1509,
		"stimulus": "../audio/teste-vocab--48.mp3",
		"response": "s",
		"portuguese": "joia",
		"kreyol": "bijou",
		"trial_type": "audio-keyboard-response",
		"trial_index": 148,
		"time_elapsed": 233548,
		"internal_node_id": "0.0-1.0-1.73"
	},
	{
		"rt": null,
		"stimulus": "+",
		"response": null,
		"trial_type": "html-keyboard-response",
		"trial_index": 149,
		"time_elapsed": 234063,
		"internal_node_id": "0.0-1.0-0.74"
	},
	{
		"rt": 2019,
		"stimulus": "../audio/teste-vocab--81.mp3",
		"response": "s",
		"portuguese": "judicial",
		"kreyol": "jidisyè",
		"trial_type": "audio-keyboard-response",
		"trial_index": 150,
		"time_elapsed": 236108,
		"internal_node_id": "0.0-1.0-1.74"
	},
	{
		"rt": null,
		"stimulus": "+",
		"response": null,
		"trial_type": "html-keyboard-response",
		"trial_index": 151,
		"time_elapsed": 236616,
		"internal_node_id": "0.0-1.0-0.75"
	},
	{
		"rt": 1520,
		"stimulus": "../audio/teste-vocab--79.mp3",
		"response": "s",
		"portuguese": "moldura",
		"kreyol": " chanbranl",
		"trial_type": "audio-keyboard-response",
		"trial_index": 152,
		"time_elapsed": 238156,
		"internal_node_id": "0.0-1.0-1.75"
	},
	{
		"rt": null,
		"stimulus": "+",
		"response": null,
		"trial_type": "html-keyboard-response",
		"trial_index": 153,
		"time_elapsed": 238660,
		"internal_node_id": "0.0-1.0-0.76"
	},
	{
		"rt": 2680,
		"stimulus": "../audio/teste-vocab--19.mp3",
		"response": "s",
		"portuguese": "hora",
		"kreyol": "è",
		"trial_type": "audio-keyboard-response",
		"trial_index": 154,
		"time_elapsed": 241356,
		"internal_node_id": "0.0-1.0-1.76"
	},
	{
		"rt": null,
		"stimulus": "+",
		"response": null,
		"trial_type": "html-keyboard-response",
		"trial_index": 155,
		"time_elapsed": 241857,
		"internal_node_id": "0.0-1.0-0.77"
	},
	{
		"rt": 2981,
		"stimulus": "../audio/teste-vocab--105.mp3",
		"response": "n",
		"portuguese": "cítrico",
		"kreyol": "sitrik",
		"trial_type": "audio-keyboard-response",
		"trial_index": 156,
		"time_elapsed": 244860,
		"internal_node_id": "0.0-1.0-1.77"
	},
	{
		"rt": null,
		"stimulus": "+",
		"response": null,
		"trial_type": "html-keyboard-response",
		"trial_index": 157,
		"time_elapsed": 245370,
		"internal_node_id": "0.0-1.0-0.78"
	},
	{
		"rt": 1752,
		"stimulus": "../audio/teste-vocab--57.mp3",
		"response": "s",
		"portuguese": "raiz",
		"kreyol": "rasin",
		"trial_type": "audio-keyboard-response",
		"trial_index": 158,
		"time_elapsed": 247180,
		"internal_node_id": "0.0-1.0-1.78"
	},
	{
		"rt": null,
		"stimulus": "+",
		"response": null,
		"trial_type": "html-keyboard-response",
		"trial_index": 159,
		"time_elapsed": 247693,
		"internal_node_id": "0.0-1.0-0.79"
	},
	{
		"rt": 1589,
		"stimulus": "../audio/teste-vocab--08.mp3",
		"response": "s",
		"portuguese": "vaca",
		"kreyol": "vach",
		"trial_type": "audio-keyboard-response",
		"trial_index": 160,
		"time_elapsed": 249308,
		"internal_node_id": "0.0-1.0-1.79"
	},
	{
		"rt": null,
		"stimulus": "+",
		"response": null,
		"trial_type": "html-keyboard-response",
		"trial_index": 161,
		"time_elapsed": 249815,
		"internal_node_id": "0.0-1.0-0.80"
	},
	{
		"rt": 1771,
		"stimulus": "../audio/teste-vocab--36.mp3",
		"response": "s",
		"portuguese": "grupo",
		"kreyol": "gwoup",
		"trial_type": "audio-keyboard-response",
		"trial_index": 162,
		"time_elapsed": 251612,
		"internal_node_id": "0.0-1.0-1.80"
	},
	{
		"rt": null,
		"stimulus": "+",
		"response": null,
		"trial_type": "html-keyboard-response",
		"trial_index": 163,
		"time_elapsed": 252121,
		"internal_node_id": "0.0-1.0-0.81"
	},
	{
		"rt": 1859,
		"stimulus": "../audio/teste-vocab--43.mp3",
		"response": "s",
		"portuguese": "mecânico",
		"kreyol": "mekanisyen",
		"trial_type": "audio-keyboard-response",
		"trial_index": 164,
		"time_elapsed": 253995,
		"internal_node_id": "0.0-1.0-1.81"
	},
	{
		"rt": null,
		"stimulus": "+",
		"response": null,
		"trial_type": "html-keyboard-response",
		"trial_index": 165,
		"time_elapsed": 254507,
		"internal_node_id": "0.0-1.0-0.82"
	},
	{
		"rt": 2379,
		"stimulus": "../audio/teste-vocab--115.mp3",
		"response": "s",
		"portuguese": "perpendicular",
		"kreyol": "pèpandikilè",
		"trial_type": "audio-keyboard-response",
		"trial_index": 166,
		"time_elapsed": 256908,
		"internal_node_id": "0.0-1.0-1.82"
	},
	{
		"rt": null,
		"stimulus": "+",
		"response": null,
		"trial_type": "html-keyboard-response",
		"trial_index": 167,
		"time_elapsed": 257423,
		"internal_node_id": "0.0-1.0-0.83"
	},
	{
		"rt": 1531,
		"stimulus": "../audio/teste-vocab--25.mp3",
		"response": "s",
		"portuguese": "canguru",
		"kreyol": "kanguwou",
		"trial_type": "audio-keyboard-response",
		"trial_index": 168,
		"time_elapsed": 258972,
		"internal_node_id": "0.0-1.0-1.83"
	},
	{
		"rt": null,
		"stimulus": "+",
		"response": null,
		"trial_type": "html-keyboard-response",
		"trial_index": 169,
		"time_elapsed": 259473,
		"internal_node_id": "0.0-1.0-0.84"
	},
	{
		"rt": 1499,
		"stimulus": "../audio/teste-vocab--84.mp3",
		"response": "s",
		"portuguese": "confiar",
		"kreyol": "konfye",
		"trial_type": "audio-keyboard-response",
		"trial_index": 170,
		"time_elapsed": 260988,
		"internal_node_id": "0.0-1.0-1.84"
	},
	{
		"rt": null,
		"stimulus": "+",
		"response": null,
		"trial_type": "html-keyboard-response",
		"trial_index": 171,
		"time_elapsed": 261503,
		"internal_node_id": "0.0-1.0-0.85"
	},
	{
		"rt": 1589,
		"stimulus": "../audio/teste-vocab--82.mp3",
		"response": "s",
		"portuguese": "roer",
		"kreyol": "ronje",
		"trial_type": "audio-keyboard-response",
		"trial_index": 172,
		"time_elapsed": 263116,
		"internal_node_id": "0.0-1.0-1.85"
	},
	{
		"rt": null,
		"stimulus": "+",
		"response": null,
		"trial_type": "html-keyboard-response",
		"trial_index": 173,
		"time_elapsed": 263623,
		"internal_node_id": "0.0-1.0-0.86"
	},
	{
		"rt": 1461,
		"stimulus": "../audio/teste-vocab--104.mp3",
		"response": "s",
		"portuguese": "ira",
		"kreyol": "pwal",
		"trial_type": "audio-keyboard-response",
		"trial_index": 174,
		"time_elapsed": 265100,
		"internal_node_id": "0.0-1.0-1.86"
	},
	{
		"rt": null,
		"stimulus": "+",
		"response": null,
		"trial_type": "html-keyboard-response",
		"trial_index": 175,
		"time_elapsed": 265615,
		"internal_node_id": "0.0-1.0-0.87"
	},
	{
		"rt": 2040,
		"stimulus": "../audio/teste-vocab--99.mp3",
		"response": "s",
		"portuguese": "arqueólogo",
		"kreyol": "akeyológ",
		"trial_type": "audio-keyboard-response",
		"trial_index": 176,
		"time_elapsed": 267676,
		"internal_node_id": "0.0-1.0-1.87"
	},
	{
		"rt": null,
		"stimulus": "+",
		"response": null,
		"trial_type": "html-keyboard-response",
		"trial_index": 177,
		"time_elapsed": 268181,
		"internal_node_id": "0.0-1.0-0.88"
	},
	{
		"rt": 2539,
		"stimulus": "../audio/teste-vocab--118.mp3",
		"response": "s",
		"portuguese": "paralelogramo",
		"kreyol": "paralelogram",
		"trial_type": "audio-keyboard-response",
		"trial_index": 178,
		"time_elapsed": 270748,
		"internal_node_id": "0.0-1.0-1.88"
	},
	{
		"rt": null,
		"stimulus": "+",
		"response": null,
		"trial_type": "html-keyboard-response",
		"trial_index": 179,
		"time_elapsed": 271258,
		"internal_node_id": "0.0-1.0-0.89"
	},
	{
		"rt": 1629,
		"stimulus": "../audio/teste-vocab--119.mp3",
		"response": "s",
		"portuguese": "numeroso",
		"kreyol": "anpil",
		"trial_type": "audio-keyboard-response",
		"trial_index": 180,
		"time_elapsed": 272908,
		"internal_node_id": "0.0-1.0-1.89"
	},
	{
		"rt": null,
		"stimulus": "+",
		"response": null,
		"trial_type": "html-keyboard-response",
		"trial_index": 181,
		"time_elapsed": 273408,
		"internal_node_id": "0.0-1.0-0.90"
	},
	{
		"rt": 2120,
		"stimulus": "../audio/teste-vocab--100.mp3",
		"response": "s",
		"portuguese": "consumir",
		"kreyol": "konsome",
		"trial_type": "audio-keyboard-response",
		"trial_index": 182,
		"time_elapsed": 275547,
		"internal_node_id": "0.0-1.0-1.90"
	},
	{
		"rt": null,
		"stimulus": "+",
		"response": null,
		"trial_type": "html-keyboard-response",
		"trial_index": 183,
		"time_elapsed": 276050,
		"internal_node_id": "0.0-1.0-0.91"
	},
	{
		"rt": 1781,
		"stimulus": "../audio/teste-vocab--56.mp3",
		"response": "s",
		"portuguese": "agricultura",
		"kreyol": "agrikilti",
		"trial_type": "audio-keyboard-response",
		"trial_index": 184,
		"time_elapsed": 277851,
		"internal_node_id": "0.0-1.0-1.91"
	},
	{
		"rt": null,
		"stimulus": "+",
		"response": null,
		"trial_type": "html-keyboard-response",
		"trial_index": 185,
		"time_elapsed": 278354,
		"internal_node_id": "0.0-1.0-0.92"
	},
	{
		"rt": 1549,
		"stimulus": "../audio/teste-vocab--50.mp3",
		"response": "s",
		"portuguese": "artista",
		"kreyol": "atis",
		"trial_type": "audio-keyboard-response",
		"trial_index": 186,
		"time_elapsed": 279931,
		"internal_node_id": "0.0-1.0-1.92"
	},
	{
		"rt": null,
		"stimulus": "+",
		"response": null,
		"trial_type": "html-keyboard-response",
		"trial_index": 187,
		"time_elapsed": 280435,
		"internal_node_id": "0.0-1.0-0.93"
	},
	{
		"rt": 1469,
		"stimulus": "../audio/teste-vocab--47.mp3",
		"response": "s",
		"portuguese": "envelope",
		"kreyol": "anvlope",
		"trial_type": "audio-keyboard-response",
		"trial_index": 188,
		"time_elapsed": 281931,
		"internal_node_id": "0.0-1.0-1.93"
	},
	{
		"rt": null,
		"stimulus": "+",
		"response": null,
		"trial_type": "html-keyboard-response",
		"trial_index": 189,
		"time_elapsed": 282433,
		"internal_node_id": "0.0-1.0-0.94"
	},
	{
		"rt": 1640,
		"stimulus": "../audio/teste-vocab--33.mp3",
		"response": "s",
		"portuguese": "uniforme",
		"kreyol": "inifòm",
		"trial_type": "audio-keyboard-response",
		"trial_index": 190,
		"time_elapsed": 284091,
		"internal_node_id": "0.0-1.0-1.94"
	},
	{
		"rt": null,
		"stimulus": "+",
		"response": null,
		"trial_type": "html-keyboard-response",
		"trial_index": 191,
		"time_elapsed": 284593,
		"internal_node_id": "0.0-1.0-0.95"
	},
	{
		"rt": 1600,
		"stimulus": "../audio/teste-vocab--76.mp3",
		"response": "s",
		"portuguese": "arquivar",
		"kreyol": "achive",
		"trial_type": "audio-keyboard-response",
		"trial_index": 192,
		"time_elapsed": 286203,
		"internal_node_id": "0.0-1.0-1.95"
	},
	{
		"rt": null,
		"stimulus": "+",
		"response": null,
		"trial_type": "html-keyboard-response",
		"trial_index": 193,
		"time_elapsed": 286716,
		"internal_node_id": "0.0-1.0-0.96"
	},
	{
		"rt": 1869,
		"stimulus": "../audio/teste-vocab--68.mp3",
		"response": "s",
		"portuguese": "surpreendido",
		"kreyol": "sezi",
		"trial_type": "audio-keyboard-response",
		"trial_index": 194,
		"time_elapsed": 288603,
		"internal_node_id": "0.0-1.0-1.96"
	},
	{
		"rt": null,
		"stimulus": "+",
		"response": null,
		"trial_type": "html-keyboard-response",
		"trial_index": 195,
		"time_elapsed": 289112,
		"internal_node_id": "0.0-1.0-0.97"
	},
	{
		"rt": 1480,
		"stimulus": "../audio/teste-vocab--21.mp3",
		"response": "s",
		"portuguese": "baleia",
		"kreyol": "balèn",
		"trial_type": "audio-keyboard-response",
		"trial_index": 196,
		"time_elapsed": 290603,
		"internal_node_id": "0.0-1.0-1.97"
	},
	{
		"rt": null,
		"stimulus": "+",
		"response": null,
		"trial_type": "html-keyboard-response",
		"trial_index": 197,
		"time_elapsed": 291110,
		"internal_node_id": "0.0-1.0-0.98"
	},
	{
		"rt": 1720,
		"stimulus": "../audio/teste-vocab--32.mp3",
		"response": "s",
		"portuguese": "descascar",
		"kreyol": "dekale",
		"trial_type": "audio-keyboard-response",
		"trial_index": 198,
		"time_elapsed": 292843,
		"internal_node_id": "0.0-1.0-1.98"
	},
	{
		"rt": null,
		"stimulus": "+",
		"response": null,
		"trial_type": "html-keyboard-response",
		"trial_index": 199,
		"time_elapsed": 293357,
		"internal_node_id": "0.0-1.0-0.99"
	},
	{
		"rt": 1480,
		"stimulus": "../audio/teste-vocab--27.mp3",
		"response": "s",
		"portuguese": "rio",
		"kreyol": "rivyè",
		"trial_type": "audio-keyboard-response",
		"trial_index": 200,
		"time_elapsed": 294859,
		"internal_node_id": "0.0-1.0-1.99"
	},
	{
		"rt": null,
		"stimulus": "+",
		"response": null,
		"trial_type": "html-keyboard-response",
		"trial_index": 201,
		"time_elapsed": 295369,
		"internal_node_id": "0.0-1.0-0.100"
	},
	{
		"rt": 1909,
		"stimulus": "../audio/teste-vocab--110.mp3",
		"response": "s",
		"portuguese": "prodígio",
		"kreyol": "pwodij",
		"trial_type": "audio-keyboard-response",
		"trial_index": 202,
		"time_elapsed": 297307,
		"internal_node_id": "0.0-1.0-1.100"
	},
	{
		"rt": null,
		"stimulus": "+",
		"response": null,
		"trial_type": "html-keyboard-response",
		"trial_index": 203,
		"time_elapsed": 297822,
		"internal_node_id": "0.0-1.0-0.101"
	},
	{
		"rt": 2349,
		"stimulus": "../audio/teste-vocab--112.mp3",
		"response": "s",
		"portuguese": "aparição",
		"kreyol": "aparisyon",
		"trial_type": "audio-keyboard-response",
		"trial_index": 204,
		"time_elapsed": 300187,
		"internal_node_id": "0.0-1.0-1.101"
	},
	{
		"rt": null,
		"stimulus": "+",
		"response": null,
		"trial_type": "html-keyboard-response",
		"trial_index": 205,
		"time_elapsed": 300698,
		"internal_node_id": "0.0-1.0-0.102"
	},
	{
		"rt": 1331,
		"stimulus": "../audio/teste-vocab--49.mp3",
		"response": "s",
		"portuguese": "humano",
		"kreyol": "moun",
		"trial_type": "audio-keyboard-response",
		"trial_index": 206,
		"time_elapsed": 302043,
		"internal_node_id": "0.0-1.0-1.102"
	},
	{
		"rt": null,
		"stimulus": "+",
		"response": null,
		"trial_type": "html-keyboard-response",
		"trial_index": 207,
		"time_elapsed": 302543,
		"internal_node_id": "0.0-1.0-0.103"
	},
	{
		"rt": 1341,
		"stimulus": "../audio/teste-vocab--92.mp3",
		"response": "s",
		"portuguese": "esférico",
		"kreyol": "won",
		"trial_type": "audio-keyboard-response",
		"trial_index": 208,
		"time_elapsed": 303899,
		"internal_node_id": "0.0-1.0-1.103"
	},
	{
		"rt": null,
		"stimulus": "+",
		"response": null,
		"trial_type": "html-keyboard-response",
		"trial_index": 209,
		"time_elapsed": 304400,
		"internal_node_id": "0.0-1.0-0.104"
	},
	{
		"rt": 1339,
		"stimulus": "../audio/teste-vocab--55.mp3",
		"response": "s",
		"portuguese": "bosque",
		"kreyol": "forè",
		"trial_type": "audio-keyboard-response",
		"trial_index": 210,
		"time_elapsed": 305755,
		"internal_node_id": "0.0-1.0-1.104"
	},
	{
		"rt": null,
		"stimulus": "+",
		"response": null,
		"trial_type": "html-keyboard-response",
		"trial_index": 211,
		"time_elapsed": 306258,
		"internal_node_id": "0.0-1.0-0.105"
	},
	{
		"rt": 1309,
		"stimulus": "../audio/teste-vocab--64.mp3",
		"response": "s",
		"portuguese": "colher",
		"kreyol": "kiyè",
		"trial_type": "audio-keyboard-response",
		"trial_index": 212,
		"time_elapsed": 307595,
		"internal_node_id": "0.0-1.0-1.105"
	},
	{
		"rt": null,
		"stimulus": "+",
		"response": null,
		"trial_type": "html-keyboard-response",
		"trial_index": 213,
		"time_elapsed": 308102,
		"internal_node_id": "0.0-1.0-0.106"
	},
	{
		"rt": 1771,
		"stimulus": "../audio/teste-vocab--125.mp3",
		"response": "s",
		"portuguese": "lamaçal",
		"kreyol": "labou",
		"trial_type": "audio-keyboard-response",
		"trial_index": 214,
		"time_elapsed": 309883,
		"internal_node_id": "0.0-1.0-1.106"
	},
	{
		"rt": null,
		"stimulus": "+",
		"response": null,
		"trial_type": "html-keyboard-response",
		"trial_index": 215,
		"time_elapsed": 310384,
		"internal_node_id": "0.0-1.0-0.107"
	},
	{
		"rt": 5731,
		"stimulus": "../audio/teste-vocab--128.mp3",
		"response": "n",
		"portuguese": "incisivo",
		"kreyol": "ensisiv",
		"trial_type": "audio-keyboard-response",
		"trial_index": 216,
		"time_elapsed": 316139,
		"internal_node_id": "0.0-1.0-1.107"
	},
	{
		"rt": null,
		"stimulus": "+",
		"response": null,
		"trial_type": "html-keyboard-response",
		"trial_index": 217,
		"time_elapsed": 316650,
		"internal_node_id": "0.0-1.0-0.108"
	},
	{
		"rt": 1712,
		"stimulus": "../audio/teste-vocab--23.mp3",
		"response": "s",
		"portuguese": "acariciar",
		"kreyol": "karese",
		"trial_type": "audio-keyboard-response",
		"trial_index": 218,
		"time_elapsed": 318379,
		"internal_node_id": "0.0-1.0-1.108"
	},
	{
		"rt": null,
		"stimulus": "+",
		"response": null,
		"trial_type": "html-keyboard-response",
		"trial_index": 219,
		"time_elapsed": 318887,
		"internal_node_id": "0.0-1.0-0.109"
	},
	{
		"rt": 1920,
		"stimulus": "../audio/teste-vocab--89.mp3",
		"response": "s",
		"portuguese": "classificar",
		"kreyol": "klasifika",
		"trial_type": "audio-keyboard-response",
		"trial_index": 220,
		"time_elapsed": 320827,
		"internal_node_id": "0.0-1.0-1.109"
	},
	{
		"rt": null,
		"stimulus": "+",
		"response": null,
		"trial_type": "html-keyboard-response",
		"trial_index": 221,
		"time_elapsed": 321328,
		"internal_node_id": "0.0-1.0-0.110"
	},
	{
		"rt": 1501,
		"stimulus": "../audio/teste-vocab--85.mp3",
		"response": "s",
		"portuguese": "trio",
		"kreyol": "trio",
		"trial_type": "audio-keyboard-response",
		"trial_index": 222,
		"time_elapsed": 322843,
		"internal_node_id": "0.0-1.0-1.110"
	},
	{
		"rt": null,
		"stimulus": "+",
		"response": null,
		"trial_type": "html-keyboard-response",
		"trial_index": 223,
		"time_elapsed": 323354,
		"internal_node_id": "0.0-1.0-0.111"
	},
	{
		"rt": 2160,
		"stimulus": "../audio/teste-vocab--130.mp3",
		"response": "s",
		"portuguese": "gentil",
		"kreyol": "dou",
		"trial_type": "audio-keyboard-response",
		"trial_index": 224,
		"time_elapsed": 325531,
		"internal_node_id": "0.0-1.0-1.111"
	},
	{
		"rt": null,
		"stimulus": "+",
		"response": null,
		"trial_type": "html-keyboard-response",
		"trial_index": 225,
		"time_elapsed": 326046,
		"internal_node_id": "0.0-1.0-0.112"
	},
	{
		"rt": 1672,
		"stimulus": "../audio/teste-vocab--122.mp3",
		"response": "s",
		"portuguese": "transeunte",
		"kreyol": "pasajè",
		"trial_type": "audio-keyboard-response",
		"trial_index": 226,
		"time_elapsed": 327739,
		"internal_node_id": "0.0-1.0-1.112"
	},
	{
		"rt": null,
		"stimulus": "+",
		"response": null,
		"trial_type": "html-keyboard-response",
		"trial_index": 227,
		"time_elapsed": 328253,
		"internal_node_id": "0.0-1.0-0.113"
	},
	{
		"rt": 1960,
		"stimulus": "../audio/teste-vocab--02.mp3",
		"response": "s",
		"portuguese": "homem",
		"kreyol": "gason",
		"trial_type": "audio-keyboard-response",
		"trial_index": 228,
		"time_elapsed": 330235,
		"internal_node_id": "0.0-1.0-1.113"
	},
	{
		"rt": null,
		"stimulus": "+",
		"response": null,
		"trial_type": "html-keyboard-response",
		"trial_index": 229,
		"time_elapsed": 330737,
		"internal_node_id": "0.0-1.0-0.114"
	},
	{
		"rt": 1560,
		"stimulus": "../audio/teste-vocab--22.mp3",
		"response": "s",
		"portuguese": "quebrado",
		"kreyol": "kraze",
		"trial_type": "audio-keyboard-response",
		"trial_index": 230,
		"time_elapsed": 332315,
		"internal_node_id": "0.0-1.0-1.114"
	},
	{
		"rt": null,
		"stimulus": "+",
		"response": null,
		"trial_type": "html-keyboard-response",
		"trial_index": 231,
		"time_elapsed": 332818,
		"internal_node_id": "0.0-1.0-0.115"
	},
	{
		"rt": 1891,
		"stimulus": "../audio/teste-vocab--30.mp3",
		"response": "s",
		"portuguese": "pintor",
		"kreyol": "pent",
		"trial_type": "audio-keyboard-response",
		"trial_index": 232,
		"time_elapsed": 334731,
		"internal_node_id": "0.0-1.0-1.115"
	},
	{
		"rt": null,
		"stimulus": "+",
		"response": null,
		"trial_type": "html-keyboard-response",
		"trial_index": 233,
		"time_elapsed": 335234,
		"internal_node_id": "0.0-1.0-0.116"
	},
	{
		"rt": 1789,
		"stimulus": "../audio/teste-vocab--94.mp3",
		"response": "s",
		"portuguese": "paralelo",
		"kreyol": "paralèl",
		"trial_type": "audio-keyboard-response",
		"trial_index": 234,
		"time_elapsed": 337034,
		"internal_node_id": "0.0-1.0-1.116"
	},
	{
		"rt": null,
		"stimulus": "+",
		"response": null,
		"trial_type": "html-keyboard-response",
		"trial_index": 235,
		"time_elapsed": 337546,
		"internal_node_id": "0.0-1.0-0.117"
	},
	{
		"rt": 1531,
		"stimulus": "../audio/teste-vocab--40.mp3",
		"response": "s",
		"portuguese": "bebida",
		"kreyol": "bwason",
		"trial_type": "audio-keyboard-response",
		"trial_index": 236,
		"time_elapsed": 339098,
		"internal_node_id": "0.0-1.0-1.117"
	},
	{
		"rt": null,
		"stimulus": "+",
		"response": null,
		"trial_type": "html-keyboard-response",
		"trial_index": 237,
		"time_elapsed": 339603,
		"internal_node_id": "0.0-1.0-0.118"
	},
	{
		"rt": 2000,
		"stimulus": "../audio/teste-vocab--44.mp3",
		"response": "s",
		"portuguese": "premiar",
		"kreyol": "rekonpanse",
		"trial_type": "audio-keyboard-response",
		"trial_index": 238,
		"time_elapsed": 341626,
		"internal_node_id": "0.0-1.0-1.118"
	},
	{
		"rt": null,
		"stimulus": "+",
		"response": null,
		"trial_type": "html-keyboard-response",
		"trial_index": 239,
		"time_elapsed": 342135,
		"internal_node_id": "0.0-1.0-0.119"
	},
	{
		"rt": 1491,
		"stimulus": "../audio/teste-vocab--86.mp3",
		"response": "s",
		"portuguese": "pensar",
		"kreyol": "panse",
		"trial_type": "audio-keyboard-response",
		"trial_index": 240,
		"time_elapsed": 343642,
		"internal_node_id": "0.0-1.0-1.119"
	},
	{
		"rt": null,
		"stimulus": "+",
		"response": null,
		"trial_type": "html-keyboard-response",
		"trial_index": 241,
		"time_elapsed": 344148,
		"internal_node_id": "0.0-1.0-0.120"
	},
	{
		"rt": 2360,
		"stimulus": "../audio/teste-vocab--74.mp3",
		"response": "s",
		"portuguese": "desilusão",
		"kreyol": "dezilizyon",
		"trial_type": "audio-keyboard-response",
		"trial_index": 242,
		"time_elapsed": 346522,
		"internal_node_id": "0.0-1.0-1.120"
	},
	{
		"rt": null,
		"stimulus": "+",
		"response": null,
		"trial_type": "html-keyboard-response",
		"trial_index": 243,
		"time_elapsed": 347032,
		"internal_node_id": "0.0-1.0-0.121"
	},
	{
		"rt": 1768,
		"stimulus": "../audio/teste-vocab--61.mp3",
		"response": "s",
		"portuguese": "iluminação",
		"kreyol": "iliminasyon",
		"trial_type": "audio-keyboard-response",
		"trial_index": 244,
		"time_elapsed": 348826,
		"internal_node_id": "0.0-1.0-1.121"
	},
	{
		"rt": null,
		"stimulus": "+",
		"response": null,
		"trial_type": "html-keyboard-response",
		"trial_index": 245,
		"time_elapsed": 349330,
		"internal_node_id": "0.0-1.0-0.122"
	},
	{
		"rt": 2141,
		"stimulus": "../audio/teste-vocab--34.mp3",
		"response": "s",
		"portuguese": "tronco",
		"kreyol": "twon",
		"trial_type": "audio-keyboard-response",
		"trial_index": 246,
		"time_elapsed": 351482,
		"internal_node_id": "0.0-1.0-1.122"
	},
	{
		"rt": null,
		"stimulus": "+",
		"response": null,
		"trial_type": "html-keyboard-response",
		"trial_index": 247,
		"time_elapsed": 351985,
		"internal_node_id": "0.0-1.0-0.123"
	},
	{
		"rt": 1891,
		"stimulus": "../audio/teste-vocab--52.mp3",
		"response": "s",
		"portuguese": "construção",
		"kreyol": "konstriksyon",
		"trial_type": "audio-keyboard-response",
		"trial_index": 248,
		"time_elapsed": 353898,
		"internal_node_id": "0.0-1.0-1.123"
	},
	{
		"rt": null,
		"stimulus": "+",
		"response": null,
		"trial_type": "html-keyboard-response",
		"trial_index": 249,
		"time_elapsed": 354402,
		"internal_node_id": "0.0-1.0-0.124"
	},
	{
		"rt": 9421,
		"stimulus": "../audio/teste-vocab--127.mp3",
		"response": "n",
		"portuguese": "côncavo",
		"kreyol": "konkav",
		"trial_type": "audio-keyboard-response",
		"trial_index": 250,
		"time_elapsed": 363850,
		"internal_node_id": "0.0-1.0-1.124"
	},
	{
		"rt": null,
		"stimulus": "+",
		"response": null,
		"trial_type": "html-keyboard-response",
		"trial_index": 251,
		"time_elapsed": 364354,
		"internal_node_id": "0.0-1.0-0.125"
	},
	{
		"rt": 349,
		"stimulus": "../audio/teste-vocab--26.mp3",
		"response": "s",
		"portuguese": "cotovelo",
		"kreyol": "koud",
		"trial_type": "audio-keyboard-response",
		"trial_index": 252,
		"time_elapsed": 364730,
		"internal_node_id": "0.0-1.0-1.125"
	},
	{
		"rt": null,
		"stimulus": "+",
		"response": null,
		"trial_type": "html-keyboard-response",
		"trial_index": 253,
		"time_elapsed": 365242,
		"internal_node_id": "0.0-1.0-0.126"
	},
	{
		"rt": 1549,
		"stimulus": "../audio/teste-vocab--29.mp3",
		"response": "s",
		"portuguese": "rasgar",
		"kreyol": "chire",
		"trial_type": "audio-keyboard-response",
		"trial_index": 254,
		"time_elapsed": 366810,
		"internal_node_id": "0.0-1.0-1.126"
	},
	{
		"rt": null,
		"stimulus": "+",
		"response": null,
		"trial_type": "html-keyboard-response",
		"trial_index": 255,
		"time_elapsed": 367318,
		"internal_node_id": "0.0-1.0-0.127"
	},
	{
		"rt": 2048,
		"stimulus": "../audio/teste-vocab--90.mp3",
		"response": "s",
		"portuguese": "carniça",
		"kreyol": "kanivò",
		"trial_type": "audio-keyboard-response",
		"trial_index": 256,
		"time_elapsed": 369386,
		"internal_node_id": "0.0-1.0-1.127"
	},
	{
		"rt": null,
		"stimulus": "+",
		"response": null,
		"trial_type": "html-keyboard-response",
		"trial_index": 257,
		"time_elapsed": 369890,
		"internal_node_id": "0.0-1.0-0.128"
	},
	{
		"rt": 1691,
		"stimulus": "../audio/teste-vocab--121.mp3",
		"response": "s",
		"portuguese": "atônito",
		"kreyol": "sezi",
		"trial_type": "audio-keyboard-response",
		"trial_index": 258,
		"time_elapsed": 371610,
		"internal_node_id": "0.0-1.0-1.128"
	},
	{
		"rt": null,
		"stimulus": "+",
		"response": null,
		"trial_type": "html-keyboard-response",
		"trial_index": 259,
		"time_elapsed": 372122,
		"internal_node_id": "0.0-1.0-0.129"
	},
	{
		"rt": 1949,
		"stimulus": "../audio/teste-vocab--59.mp3",
		"response": "s",
		"portuguese": "par",
		"kreyol": "pè",
		"trial_type": "audio-keyboard-response",
		"trial_index": 260,
		"time_elapsed": 374090,
		"internal_node_id": "0.0-1.0-1.129"
	}
]