[
	{
		"view_history": [
			{
				"page_index": 0,
				"viewing_time": 4695
			},
			{
				"page_index": 1,
				"viewing_time": 2944
			}
		],
		"rt": 7639,
		"trial_type": "instructions",
		"trial_index": 0,
		"time_elapsed": 7640,
		"internal_node_id": "0.0-0.0"
	},
	{
		"rt": null,
		"stimulus": "<span style= \"font-size:30px; font-family: monospace\">+</span>",
		"response": null,
		"trial_part": "fixation",
		"trial_type": "html-keyboard-response",
		"trial_index": 1,
		"time_elapsed": 8758,
		"internal_node_id": "0.0-1.0-0.0-0.0"
	},
	{
		"rt": 4200,
		"stimulus": "../audio/prac-question-1-1.mp3",
		"response": " ",
		"word": "O",
		"trial_type": "audio-keyboard-response",
		"trial_index": 2,
		"time_elapsed": 13248,
		"internal_node_id": "0.0-1.0-1.0"
	},
	{
		"rt": 1811,
		"stimulus": "../audio/prac-question-1-2.mp3",
		"response": " ",
		"word": "dia",
		"trial_type": "audio-keyboard-response",
		"trial_index": 3,
		"time_elapsed": 15327,
		"internal_node_id": "0.0-1.0-1.1"
	},
	{
		"rt": 2341,
		"stimulus": "../audio/prac-question-1-3.mp3",
		"response": " ",
		"word": "estará",
		"trial_type": "audio-keyboard-response",
		"trial_index": 4,
		"time_elapsed": 17935,
		"internal_node_id": "0.0-1.0-1.2"
	},
	{
		"rt": 1859,
		"stimulus": "../audio/prac-question-1-4.mp3",
		"response": " ",
		"word": "cheio",
		"trial_type": "audio-keyboard-response",
		"trial_index": 5,
		"time_elapsed": 20079,
		"internal_node_id": "0.0-1.0-1.3"
	},
	{
		"rt": 1408,
		"stimulus": "../audio/prac-question-1-5.mp3",
		"response": " ",
		"word": "de",
		"trial_type": "audio-keyboard-response",
		"trial_index": 6,
		"time_elapsed": 21759,
		"internal_node_id": "0.0-1.0-1.4"
	},
	{
		"rt": 1640,
		"stimulus": "../audio/prac-question-1-6.mp3",
		"response": " ",
		"word": "nuvens",
		"trial_type": "audio-keyboard-response",
		"trial_index": 7,
		"time_elapsed": 23679,
		"internal_node_id": "0.0-1.0-1.5"
	},
	{
		"rt": 2080,
		"stimulus": "../audio/prac-question-1-7.mp3",
		"response": " ",
		"word": "hoje.",
		"trial_type": "audio-keyboard-response",
		"trial_index": 8,
		"time_elapsed": 26031,
		"internal_node_id": "0.0-1.0-1.6"
	},
	{
		"rt": null,
		"stimulus": "<span style= \"font-size:30px; font-family: monospace\">+</span>",
		"response": null,
		"trial_part": "fixation",
		"trial_type": "html-keyboard-response",
		"trial_index": 9,
		"time_elapsed": 27309,
		"internal_node_id": "0.0-1.0-0.7-0.7"
	},
	{
		"rt": 1669,
		"stimulus": "../audio/prac-question-2-1.mp3",
		"response": " ",
		"word": "A",
		"trial_type": "audio-keyboard-response",
		"trial_index": 10,
		"time_elapsed": 29247,
		"internal_node_id": "0.0-1.0-1.7"
	},
	{
		"rt": 1821,
		"stimulus": "../audio/prac-question-2-2.mp3",
		"response": " ",
		"word": "caneca",
		"trial_type": "audio-keyboard-response",
		"trial_index": 11,
		"time_elapsed": 31343,
		"internal_node_id": "0.0-1.0-1.8"
	},
	{
		"rt": 1779,
		"stimulus": "../audio/prac-question-2-3.mp3",
		"response": " ",
		"word": "colorida",
		"trial_type": "audio-keyboard-response",
		"trial_index": 12,
		"time_elapsed": 33391,
		"internal_node_id": "0.0-1.0-1.9"
	},
	{
		"rt": 1880,
		"stimulus": "../audio/prac-question-2-4.mp3",
		"response": " ",
		"word": "caiu",
		"trial_type": "audio-keyboard-response",
		"trial_index": 13,
		"time_elapsed": 35535,
		"internal_node_id": "0.0-1.0-1.10"
	},
	{
		"rt": 1259,
		"stimulus": "../audio/prac-question-2-5.mp3",
		"response": " ",
		"word": "da",
		"trial_type": "audio-keyboard-response",
		"trial_index": 14,
		"time_elapsed": 37071,
		"internal_node_id": "0.0-1.0-1.11"
	},
	{
		"rt": 1709,
		"stimulus": "../audio/prac-question-2-6.mp3",
		"response": " ",
		"word": "mesa",
		"trial_type": "audio-keyboard-response",
		"trial_index": 15,
		"time_elapsed": 39055,
		"internal_node_id": "0.0-1.0-1.12"
	},
	{
		"rt": 1389,
		"stimulus": "../audio/prac-question-2-7.mp3",
		"response": " ",
		"word": "de",
		"trial_type": "audio-keyboard-response",
		"trial_index": 16,
		"time_elapsed": 40719,
		"internal_node_id": "0.0-1.0-1.13"
	},
	{
		"rt": 2011,
		"stimulus": "../audio/prac-question-2-8.mp3",
		"response": " ",
		"word": "jantar.",
		"trial_type": "audio-keyboard-response",
		"trial_index": 17,
		"time_elapsed": 43007,
		"internal_node_id": "0.0-1.0-1.14"
	},
	{
		"rt": 24567,
		"stimulus": "<span style=\"font-size:25px; font-family: monospace\">A caneca era colorida?</span>",
		"response": "s",
		"question": "A caneca era colorida?",
		"answer": "null",
		"trial": "prac-sent",
		"trial_type": "html-keyboard-response",
		"trial_index": 18,
		"time_elapsed": 67838,
		"internal_node_id": "0.0-1.0-2.14-0.14",
		"accuracy": false
	},
	{
		"view_history": [
			{
				"page_index": 0,
				"viewing_time": 12664
			}
		],
		"rt": 12665,
		"trial_type": "instructions",
		"trial_index": 19,
		"time_elapsed": 81006,
		"internal_node_id": "0.0-2.0"
	},
	{
		"rt": null,
		"stimulus": "<span style= \"font-size:30px; font-family: monospace\">+</span>",
		"response": null,
		"trial_part": "fixation",
		"trial_type": "html-keyboard-response",
		"trial_index": 20,
		"time_elapsed": 82108,
		"internal_node_id": "0.0-3.0-0.0-0.0"
	},
	{
		"rt": 3048,
		"stimulus": "../audio/51-1-fem.mp3",
		"response": " ",
		"word": "Suco",
		"trial_type": "audio-keyboard-response",
		"trial_index": 21,
		"time_elapsed": 85517,
		"internal_node_id": "0.0-3.0-1.0"
	},
	{
		"rt": 1541,
		"stimulus": "../audio/51-2-fem.mp3",
		"response": " ",
		"word": "de",
		"trial_type": "audio-keyboard-response",
		"trial_index": 22,
		"time_elapsed": 87342,
		"internal_node_id": "0.0-3.0-1.1"
	},
	{
		"rt": 2101,
		"stimulus": "../audio/51-3-fem.mp3",
		"response": " ",
		"word": "acerola",
		"trial_type": "audio-keyboard-response",
		"trial_index": 23,
		"time_elapsed": 89709,
		"internal_node_id": "0.0-3.0-1.2"
	},
	{
		"rt": 1840,
		"stimulus": "../audio/51-4-fem.mp3",
		"response": " ",
		"word": "é",
		"trial_type": "audio-keyboard-response",
		"trial_index": 24,
		"time_elapsed": 91822,
		"internal_node_id": "0.0-3.0-1.3"
	},
	{
		"rt": 2171,
		"stimulus": "../audio/51-5-fem.mp3",
		"response": " ",
		"word": "azedo",
		"trial_type": "audio-keyboard-response",
		"trial_index": 25,
		"time_elapsed": 94270,
		"internal_node_id": "0.0-3.0-1.4"
	},
	{
		"rt": 1720,
		"stimulus": "../audio/51-6-fem.mp3",
		"response": " ",
		"word": "e",
		"trial_type": "audio-keyboard-response",
		"trial_index": 26,
		"time_elapsed": 96270,
		"internal_node_id": "0.0-3.0-1.5"
	},
	{
		"rt": 1971,
		"stimulus": "../audio/51-7-fem.mp3",
		"response": " ",
		"word": "até",
		"trial_type": "audio-keyboard-response",
		"trial_index": 27,
		"time_elapsed": 98510,
		"internal_node_id": "0.0-3.0-1.6"
	},
	{
		"rt": 1979,
		"stimulus": "../audio/51-8-fem.mp3",
		"response": " ",
		"word": "barato.",
		"trial_type": "audio-keyboard-response",
		"trial_index": 28,
		"time_elapsed": 100765,
		"internal_node_id": "0.0-3.0-1.7"
	},
	{
		"rt": null,
		"stimulus": "<span style= \"font-size:30px; font-family: monospace\">+</span>",
		"response": null,
		"trial_part": "fixation",
		"trial_type": "html-keyboard-response",
		"trial_index": 29,
		"time_elapsed": 102030,
		"internal_node_id": "0.0-3.0-0.8-0.8"
	},
	{
		"rt": 1288,
		"stimulus": "../audio/54-1-fem.mp3",
		"response": " ",
		"word": "Estou",
		"trial_type": "audio-keyboard-response",
		"trial_index": 30,
		"time_elapsed": 103598,
		"internal_node_id": "0.0-3.0-1.8"
	},
	{
		"rt": 1120,
		"stimulus": "../audio/54-2-fem.mp3",
		"response": " ",
		"word": "com",
		"trial_type": "audio-keyboard-response",
		"trial_index": 31,
		"time_elapsed": 104989,
		"internal_node_id": "0.0-3.0-1.9"
	},
	{
		"rt": 1571,
		"stimulus": "../audio/54-3-fem.mp3",
		"response": " ",
		"word": "medo",
		"trial_type": "audio-keyboard-response",
		"trial_index": 32,
		"time_elapsed": 106830,
		"internal_node_id": "0.0-3.0-1.10"
	},
	{
		"rt": 1960,
		"stimulus": "../audio/54-4-fem.mp3",
		"response": " ",
		"word": "da",
		"trial_type": "audio-keyboard-response",
		"trial_index": 33,
		"time_elapsed": 109070,
		"internal_node_id": "0.0-3.0-1.11"
	},
	{
		"rt": 2000,
		"stimulus": "../audio/54-5-fem.mp3",
		"response": " ",
		"word": "atual",
		"trial_type": "audio-keyboard-response",
		"trial_index": 34,
		"time_elapsed": 111342,
		"internal_node_id": "0.0-3.0-1.12"
	},
	{
		"rt": 2349,
		"stimulus": "../audio/54-6-fem.mp3",
		"response": " ",
		"word": "organização",
		"trial_type": "audio-keyboard-response",
		"trial_index": 35,
		"time_elapsed": 113965,
		"internal_node_id": "0.0-3.0-1.13"
	},
	{
		"rt": 1880,
		"stimulus": "../audio/54-7-fem.mp3",
		"response": " ",
		"word": "do",
		"trial_type": "audio-keyboard-response",
		"trial_index": 36,
		"time_elapsed": 116110,
		"internal_node_id": "0.0-3.0-1.14"
	},
	{
		"rt": 2979,
		"stimulus": "../audio/54-8-fem.mp3",
		"response": " ",
		"word": "país.",
		"trial_type": "audio-keyboard-response",
		"trial_index": 37,
		"time_elapsed": 119358,
		"internal_node_id": "0.0-3.0-1.15"
	},
	{
		"rt": null,
		"stimulus": "<span style= \"font-size:30px; font-family: monospace\">+</span>",
		"response": null,
		"trial_part": "fixation",
		"trial_type": "html-keyboard-response",
		"trial_index": 38,
		"time_elapsed": 120624,
		"internal_node_id": "0.0-3.0-0.16-0.16"
	},
	{
		"rt": 1571,
		"stimulus": "../audio/53-1-fem.mp3",
		"response": " ",
		"word": "O",
		"trial_type": "audio-keyboard-response",
		"trial_index": 39,
		"time_elapsed": 122462,
		"internal_node_id": "0.0-3.0-1.16"
	},
	{
		"rt": 1971,
		"stimulus": "../audio/53-2-fem.mp3",
		"response": " ",
		"word": "médico",
		"trial_type": "audio-keyboard-response",
		"trial_index": 40,
		"time_elapsed": 124702,
		"internal_node_id": "0.0-3.0-1.17"
	},
	{
		"rt": 1509,
		"stimulus": "../audio/53-3-fem.mp3",
		"response": " ",
		"word": "foi",
		"trial_type": "audio-keyboard-response",
		"trial_index": 41,
		"time_elapsed": 126494,
		"internal_node_id": "0.0-3.0-1.18"
	},
	{
		"rt": 1851,
		"stimulus": "../audio/53-4-fem.mp3",
		"response": " ",
		"word": "bastante",
		"trial_type": "audio-keyboard-response",
		"trial_index": 42,
		"time_elapsed": 128620,
		"internal_node_id": "0.0-3.0-1.19"
	},
	{
		"rt": 1920,
		"stimulus": "../audio/53-5-fem.mp3",
		"response": " ",
		"word": "preciso",
		"trial_type": "audio-keyboard-response",
		"trial_index": 43,
		"time_elapsed": 130828,
		"internal_node_id": "0.0-3.0-1.20"
	},
	{
		"rt": 2291,
		"stimulus": "../audio/53-6-fem.mp3",
		"response": " ",
		"word": "durante",
		"trial_type": "audio-keyboard-response",
		"trial_index": 44,
		"time_elapsed": 133388,
		"internal_node_id": "0.0-3.0-1.21"
	},
	{
		"rt": 1368,
		"stimulus": "../audio/53-7-fem.mp3",
		"response": " ",
		"word": "a",
		"trial_type": "audio-keyboard-response",
		"trial_index": 45,
		"time_elapsed": 135036,
		"internal_node_id": "0.0-3.0-1.22"
	},
	{
		"rt": 1840,
		"stimulus": "../audio/53-8-fem.mp3",
		"response": " ",
		"word": "cirurgia.",
		"trial_type": "audio-keyboard-response",
		"trial_index": 46,
		"time_elapsed": 137148,
		"internal_node_id": "0.0-3.0-1.23"
	},
	{
		"rt": null,
		"stimulus": "<span style= \"font-size:30px; font-family: monospace\">+</span>",
		"response": null,
		"trial_part": "fixation",
		"trial_type": "html-keyboard-response",
		"trial_index": 47,
		"time_elapsed": 138400,
		"internal_node_id": "0.0-3.0-0.24-0.24"
	},
	{
		"rt": 2101,
		"stimulus": "../audio/52-1-masc.mp3",
		"response": " ",
		"word": "Às",
		"trial_type": "audio-keyboard-response",
		"trial_index": 48,
		"time_elapsed": 140780,
		"internal_node_id": "0.0-3.0-1.24"
	},
	{
		"rt": 1499,
		"stimulus": "../audio/52-2-masc.mp3",
		"response": " ",
		"word": "vezes",
		"trial_type": "audio-keyboard-response",
		"trial_index": 49,
		"time_elapsed": 142556,
		"internal_node_id": "0.0-3.0-1.25"
	},
	{
		"rt": 1139,
		"stimulus": "../audio/52-3-masc.mp3",
		"response": " ",
		"word": "eu",
		"trial_type": "audio-keyboard-response",
		"trial_index": 50,
		"time_elapsed": 143964,
		"internal_node_id": "0.0-3.0-1.26"
	},
	{
		"rt": 1261,
		"stimulus": "../audio/52-4-masc.mp3",
		"response": " ",
		"word": "tenho",
		"trial_type": "audio-keyboard-response",
		"trial_index": 51,
		"time_elapsed": 145500,
		"internal_node_id": "0.0-3.0-1.27"
	},
	{
		"rt": 1560,
		"stimulus": "../audio/52-5-masc.mp3",
		"response": " ",
		"word": "azia",
		"trial_type": "audio-keyboard-response",
		"trial_index": 52,
		"time_elapsed": 147340,
		"internal_node_id": "0.0-3.0-1.28"
	},
	{
		"rt": 1451,
		"stimulus": "../audio/52-6-masc.mp3",
		"response": " ",
		"word": "depois",
		"trial_type": "audio-keyboard-response",
		"trial_index": 53,
		"time_elapsed": 149068,
		"internal_node_id": "0.0-3.0-1.29"
	},
	{
		"rt": 1280,
		"stimulus": "../audio/52-7-masc.mp3",
		"response": " ",
		"word": "da",
		"trial_type": "audio-keyboard-response",
		"trial_index": 54,
		"time_elapsed": 150604,
		"internal_node_id": "0.0-3.0-1.30"
	},
	{
		"rt": 2931,
		"stimulus": "../audio/52-8-masc.mp3",
		"response": " ",
		"word": "janta.",
		"trial_type": "audio-keyboard-response",
		"trial_index": 55,
		"time_elapsed": 153804,
		"internal_node_id": "0.0-3.0-1.31"
	},
	{
		"rt": null,
		"stimulus": "<span style= \"font-size:30px; font-family: monospace\">+</span>",
		"response": null,
		"trial_part": "fixation",
		"trial_type": "html-keyboard-response",
		"trial_index": 56,
		"time_elapsed": 155063,
		"internal_node_id": "0.0-3.0-0.32-0.32"
	},
	{
		"rt": 1509,
		"stimulus": "../audio/55-1-fem.mp3",
		"response": " ",
		"word": "O",
		"trial_type": "audio-keyboard-response",
		"trial_index": 57,
		"time_elapsed": 156844,
		"internal_node_id": "0.0-3.0-1.32"
	},
	{
		"rt": 1851,
		"stimulus": "../audio/55-2-fem.mp3",
		"response": " ",
		"word": "insulto",
		"trial_type": "audio-keyboard-response",
		"trial_index": 58,
		"time_elapsed": 158972,
		"internal_node_id": "0.0-3.0-1.33"
	},
	{
		"rt": 2840,
		"stimulus": "../audio/55-3-fem.mp3",
		"response": " ",
		"word": "recente",
		"trial_type": "audio-keyboard-response",
		"trial_index": 59,
		"time_elapsed": 162076,
		"internal_node_id": "0.0-3.0-1.34"
	},
	{
		"rt": 1571,
		"stimulus": "../audio/55-4-fem.mp3",
		"response": " ",
		"word": "causou",
		"trial_type": "audio-keyboard-response",
		"trial_index": 60,
		"time_elapsed": 163932,
		"internal_node_id": "0.0-3.0-1.35"
	},
	{
		"rt": 1981,
		"stimulus": "../audio/55-5-fem.mp3",
		"response": " ",
		"word": "indignação",
		"trial_type": "audio-keyboard-response",
		"trial_index": 61,
		"time_elapsed": 166188,
		"internal_node_id": "0.0-3.0-1.36"
	},
	{
		"rt": 1459,
		"stimulus": "../audio/55-6-fem.mp3",
		"response": " ",
		"word": "em",
		"trial_type": "audio-keyboard-response",
		"trial_index": 62,
		"time_elapsed": 167916,
		"internal_node_id": "0.0-3.0-1.37"
	},
	{
		"rt": 1520,
		"stimulus": "../audio/55-7-fem.mp3",
		"response": " ",
		"word": "todos.",
		"trial_type": "audio-keyboard-response",
		"trial_index": 63,
		"time_elapsed": 169708,
		"internal_node_id": "0.0-3.0-1.38"
	},
	{
		"rt": 15430,
		"stimulus": "<span style=\"font-size:25px; font-family: monospace\">O insulto causou calmaria?</span>",
		"response": "s",
		"question": "O insulto causou calmaria?",
		"answer": "null",
		"trial": "exp-sent",
		"trial_type": "html-keyboard-response",
		"trial_index": 64,
		"time_elapsed": 185404,
		"internal_node_id": "0.0-3.0-2.38-0.38",
		"accuracy": false
	},
	{
		"rt": null,
		"stimulus": "<span style= \"font-size:30px; font-family: monospace\">+</span>",
		"response": null,
		"trial_part": "fixation",
		"trial_type": "html-keyboard-response",
		"trial_index": 65,
		"time_elapsed": 186919,
		"internal_node_id": "0.0-3.0-0.39-0.39"
	},
	{
		"rt": 1611,
		"stimulus": "../audio/56-1-fem.mp3",
		"response": " ",
		"word": "A",
		"trial_type": "audio-keyboard-response",
		"trial_index": 66,
		"time_elapsed": 188811,
		"internal_node_id": "0.0-3.0-1.39"
	},
	{
		"rt": 1371,
		"stimulus": "../audio/56-2-fem.mp3",
		"response": " ",
		"word": "moça",
		"trial_type": "audio-keyboard-response",
		"trial_index": 67,
		"time_elapsed": 190459,
		"internal_node_id": "0.0-3.0-1.40"
	},
	{
		"rt": 1560,
		"stimulus": "../audio/56-3-fem.mp3",
		"response": " ",
		"word": "foi",
		"trial_type": "audio-keyboard-response",
		"trial_index": 68,
		"time_elapsed": 192299,
		"internal_node_id": "0.0-3.0-1.41"
	},
	{
		"rt": 1840,
		"stimulus": "../audio/56-4-fem.mp3",
		"response": " ",
		"word": "à",
		"trial_type": "audio-keyboard-response",
		"trial_index": 69,
		"time_elapsed": 194411,
		"internal_node_id": "0.0-3.0-1.42"
	},
	{
		"rt": 1931,
		"stimulus": "../audio/56-5-fem.mp3",
		"response": " ",
		"word": "agência",
		"trial_type": "audio-keyboard-response",
		"trial_index": 70,
		"time_elapsed": 196603,
		"internal_node_id": "0.0-3.0-1.43"
	},
	{
		"rt": 2611,
		"stimulus": "../audio/56-6-fem.mp3",
		"response": " ",
		"word": "bancária",
		"trial_type": "audio-keyboard-response",
		"trial_index": 71,
		"time_elapsed": 199483,
		"internal_node_id": "0.0-3.0-1.44"
	},
	{
		"rt": 1552,
		"stimulus": "../audio/56-7-fem.mp3",
		"response": " ",
		"word": "ontem",
		"trial_type": "audio-keyboard-response",
		"trial_index": 72,
		"time_elapsed": 201307,
		"internal_node_id": "0.0-3.0-1.45"
	},
	{
		"rt": 1251,
		"stimulus": "../audio/56-8-fem.mp3",
		"response": " ",
		"word": "de",
		"trial_type": "audio-keyboard-response",
		"trial_index": 73,
		"time_elapsed": 202827,
		"internal_node_id": "0.0-3.0-1.46"
	},
	{
		"rt": 2131,
		"stimulus": "../audio/56-9-fem.mp3",
		"response": " ",
		"word": "tarde.",
		"trial_type": "audio-keyboard-response",
		"trial_index": 74,
		"time_elapsed": 205227,
		"internal_node_id": "0.0-3.0-1.47"
	},
	{
		"rt": null,
		"stimulus": "<span style= \"font-size:30px; font-family: monospace\">+</span>",
		"response": null,
		"trial_part": "fixation",
		"trial_type": "html-keyboard-response",
		"trial_index": 75,
		"time_elapsed": 206485,
		"internal_node_id": "0.0-3.0-0.48-0.48"
	},
	{
		"rt": 981,
		"stimulus": "../audio/59-1-fem.mp3",
		"response": " ",
		"word": "O",
		"trial_type": "audio-keyboard-response",
		"trial_index": 76,
		"time_elapsed": 207739,
		"internal_node_id": "0.0-3.0-1.48"
	},
	{
		"rt": 1621,
		"stimulus": "../audio/59-2-fem.mp3",
		"response": " ",
		"word": "carteiro",
		"trial_type": "audio-keyboard-response",
		"trial_index": 77,
		"time_elapsed": 209627,
		"internal_node_id": "0.0-3.0-1.49"
	},
	{
		"rt": 1509,
		"stimulus": "../audio/59-3-fem.mp3",
		"response": " ",
		"word": "fez",
		"trial_type": "audio-keyboard-response",
		"trial_index": 78,
		"time_elapsed": 211403,
		"internal_node_id": "0.0-3.0-1.50"
	},
	{
		"rt": 1120,
		"stimulus": "../audio/59-4-fem.mp3",
		"response": " ",
		"word": "uma",
		"trial_type": "audio-keyboard-response",
		"trial_index": 79,
		"time_elapsed": 212795,
		"internal_node_id": "0.0-3.0-1.51"
	},
	{
		"rt": 2240,
		"stimulus": "../audio/59-5-fem.mp3",
		"response": " ",
		"word": "tentativa",
		"trial_type": "audio-keyboard-response",
		"trial_index": 80,
		"time_elapsed": 215307,
		"internal_node_id": "0.0-3.0-1.52"
	},
	{
		"rt": 1128,
		"stimulus": "../audio/59-6-fem.mp3",
		"response": " ",
		"word": "de",
		"trial_type": "audio-keyboard-response",
		"trial_index": 81,
		"time_elapsed": 216715,
		"internal_node_id": "0.0-3.0-1.53"
	},
	{
		"rt": 1592,
		"stimulus": "../audio/59-7-fem.mp3",
		"response": " ",
		"word": "entrega.",
		"trial_type": "audio-keyboard-response",
		"trial_index": 82,
		"time_elapsed": 218587,
		"internal_node_id": "0.0-3.0-1.54"
	},
	{
		"rt": null,
		"stimulus": "<span style= \"font-size:30px; font-family: monospace\">+</span>",
		"response": null,
		"trial_part": "fixation",
		"trial_type": "html-keyboard-response",
		"trial_index": 83,
		"time_elapsed": 219855,
		"internal_node_id": "0.0-3.0-0.55-0.55"
	},
	{
		"rt": 1069,
		"stimulus": "../audio/57-1-masc.mp3",
		"response": " ",
		"word": "O",
		"trial_type": "audio-keyboard-response",
		"trial_index": 84,
		"time_elapsed": 221211,
		"internal_node_id": "0.0-3.0-1.55"
	},
	{
		"rt": 1789,
		"stimulus": "../audio/57-2-masc.mp3",
		"response": " ",
		"word": "capitão",
		"trial_type": "audio-keyboard-response",
		"trial_index": 85,
		"time_elapsed": 223275,
		"internal_node_id": "0.0-3.0-1.56"
	},
	{
		"rt": 1440,
		"stimulus": "../audio/57-3-masc.mp3",
		"response": " ",
		"word": "deu",
		"trial_type": "audio-keyboard-response",
		"trial_index": 86,
		"time_elapsed": 224987,
		"internal_node_id": "0.0-3.0-1.57"
	},
	{
		"rt": 1280,
		"stimulus": "../audio/57-4-masc.mp3",
		"response": " ",
		"word": "uma",
		"trial_type": "audio-keyboard-response",
		"trial_index": 87,
		"time_elapsed": 226539,
		"internal_node_id": "0.0-3.0-1.58"
	},
	{
		"rt": 1811,
		"stimulus": "../audio/57-5-masc.mp3",
		"response": " ",
		"word": "instrução",
		"trial_type": "audio-keyboard-response",
		"trial_index": 88,
		"time_elapsed": 228619,
		"internal_node_id": "0.0-3.0-1.59"
	},
	{
		"rt": 1040,
		"stimulus": "../audio/57-6-masc.mp3",
		"response": " ",
		"word": "para",
		"trial_type": "audio-keyboard-response",
		"trial_index": 89,
		"time_elapsed": 229947,
		"internal_node_id": "0.0-3.0-1.60"
	},
	{
		"rt": 1029,
		"stimulus": "../audio/57-7-masc.mp3",
		"response": " ",
		"word": "as",
		"trial_type": "audio-keyboard-response",
		"trial_index": 90,
		"time_elapsed": 231243,
		"internal_node_id": "0.0-3.0-1.61"
	},
	{
		"rt": 1640,
		"stimulus": "../audio/57-8-masc.mp3",
		"response": " ",
		"word": "pessoas.",
		"trial_type": "audio-keyboard-response",
		"trial_index": 91,
		"time_elapsed": 233147,
		"internal_node_id": "0.0-3.0-1.62"
	},
	{
		"rt": null,
		"stimulus": "<span style= \"font-size:30px; font-family: monospace\">+</span>",
		"response": null,
		"trial_part": "fixation",
		"trial_type": "html-keyboard-response",
		"trial_index": 92,
		"time_elapsed": 234415,
		"internal_node_id": "0.0-3.0-0.63-0.63"
	},
	{
		"rt": 1229,
		"stimulus": "../audio/58-1-fem.mp3",
		"response": " ",
		"word": "Havia",
		"trial_type": "audio-keyboard-response",
		"trial_index": 93,
		"time_elapsed": 235931,
		"internal_node_id": "0.0-3.0-1.63"
	},
	{
		"rt": 1360,
		"stimulus": "../audio/58-2-fem.mp3",
		"response": " ",
		"word": "apenas",
		"trial_type": "audio-keyboard-response",
		"trial_index": 94,
		"time_elapsed": 237563,
		"internal_node_id": "0.0-3.0-1.64"
	},
	{
		"rt": 1101,
		"stimulus": "../audio/58-3-fem.mp3",
		"response": " ",
		"word": "um",
		"trial_type": "audio-keyboard-response",
		"trial_index": 95,
		"time_elapsed": 238939,
		"internal_node_id": "0.0-3.0-1.65"
	},
	{
		"rt": 1229,
		"stimulus": "../audio/58-4-fem.mp3",
		"response": " ",
		"word": "último",
		"trial_type": "audio-keyboard-response",
		"trial_index": 96,
		"time_elapsed": 240443,
		"internal_node_id": "0.0-3.0-1.66"
	},
	{
		"rt": 1440,
		"stimulus": "../audio/58-5-fem.mp3",
		"response": " ",
		"word": "herdeiro",
		"trial_type": "audio-keyboard-response",
		"trial_index": 97,
		"time_elapsed": 242155,
		"internal_node_id": "0.0-3.0-1.67"
	},
	{
		"rt": 1168,
		"stimulus": "../audio/58-6-fem.mp3",
		"response": " ",
		"word": "do",
		"trial_type": "audio-keyboard-response",
		"trial_index": 98,
		"time_elapsed": 243595,
		"internal_node_id": "0.0-3.0-1.68"
	},
	{
		"rt": 1789,
		"stimulus": "../audio/58-7-fem.mp3",
		"response": " ",
		"word": "dinheiro.",
		"trial_type": "audio-keyboard-response",
		"trial_index": 99,
		"time_elapsed": 245659,
		"internal_node_id": "0.0-3.0-1.69"
	},
	{
		"rt": null,
		"stimulus": "<span style= \"font-size:30px; font-family: monospace\">+</span>",
		"response": null,
		"trial_part": "fixation",
		"trial_type": "html-keyboard-response",
		"trial_index": 100,
		"time_elapsed": 246913,
		"internal_node_id": "0.0-3.0-0.70-0.70"
	},
	{
		"rt": 2248,
		"stimulus": "../audio/60-1-masc.mp3",
		"response": " ",
		"word": "Ondas",
		"trial_type": "audio-keyboard-response",
		"trial_index": 101,
		"time_elapsed": 249434,
		"internal_node_id": "0.0-3.0-1.70"
	},
	{
		"rt": 1080,
		"stimulus": "../audio/60-2-masc.mp3",
		"response": " ",
		"word": "têm",
		"trial_type": "audio-keyboard-response",
		"trial_index": 102,
		"time_elapsed": 250778,
		"internal_node_id": "0.0-3.0-1.71"
	},
	{
		"rt": 1141,
		"stimulus": "../audio/60-3-masc.mp3",
		"response": " ",
		"word": "um",
		"trial_type": "audio-keyboard-response",
		"trial_index": 103,
		"time_elapsed": 252185,
		"internal_node_id": "0.0-3.0-1.72"
	},
	{
		"rt": 2000,
		"stimulus": "../audio/60-4-masc.mp3",
		"response": " ",
		"word": "impacto",
		"trial_type": "audio-keyboard-response",
		"trial_index": 104,
		"time_elapsed": 254458,
		"internal_node_id": "0.0-3.0-1.73"
	},
	{
		"rt": 1869,
		"stimulus": "../audio/60-5-masc.mp3",
		"response": " ",
		"word": "destrutivo",
		"trial_type": "audio-keyboard-response",
		"trial_index": 105,
		"time_elapsed": 256601,
		"internal_node_id": "0.0-3.0-1.74"
	},
	{
		"rt": 1440,
		"stimulus": "../audio/60-6-masc.mp3",
		"response": " ",
		"word": "no",
		"trial_type": "audio-keyboard-response",
		"trial_index": 106,
		"time_elapsed": 258330,
		"internal_node_id": "0.0-3.0-1.75"
	},
	{
		"rt": 2120,
		"stimulus": "../audio/60-7-masc.mp3",
		"response": " ",
		"word": "litoral.",
		"trial_type": "audio-keyboard-response",
		"trial_index": 107,
		"time_elapsed": 260730,
		"internal_node_id": "0.0-3.0-1.76"
	},
	{
		"rt": 9652,
		"stimulus": "<span style=\"font-size:25px; font-family: monospace\">Ondas têm um impacto destrutivo?</span>",
		"response": "s",
		"question": "Ondas têm um impacto destrutivo?",
		"answer": "null",
		"trial": "exp-sent",
		"trial_type": "html-keyboard-response",
		"trial_index": 108,
		"time_elapsed": 270634,
		"internal_node_id": "0.0-3.0-2.76-0.76",
		"accuracy": false
	},
	{
		"rt": null,
		"stimulus": "<span style= \"font-size:30px; font-family: monospace\">+</span>",
		"response": null,
		"trial_part": "fixation",
		"trial_type": "html-keyboard-response",
		"trial_index": 109,
		"time_elapsed": 272149,
		"internal_node_id": "0.0-3.0-0.77-0.77"
	},
	{
		"rt": 1000,
		"stimulus": "../audio/32-1-masc.mp3",
		"response": " ",
		"word": "A",
		"trial_type": "audio-keyboard-response",
		"trial_index": 110,
		"time_elapsed": 273418,
		"internal_node_id": "0.0-3.0-1.77"
	},
	{
		"rt": 1309,
		"stimulus": "../audio/32-2-masc.mp3",
		"response": " ",
		"word": "tia",
		"trial_type": "audio-keyboard-response",
		"trial_index": 111,
		"time_elapsed": 275001,
		"internal_node_id": "0.0-3.0-1.78"
	},
	{
		"rt": 1741,
		"stimulus": "../audio/32-3-masc.mp3",
		"response": " ",
		"word": "comprou",
		"trial_type": "audio-keyboard-response",
		"trial_index": 112,
		"time_elapsed": 277018,
		"internal_node_id": "0.0-3.0-1.79"
	},
	{
		"rt": 1480,
		"stimulus": "../audio/32-4-masc.mp3",
		"response": " ",
		"word": "um",
		"trial_type": "audio-keyboard-response",
		"trial_index": 113,
		"time_elapsed": 278777,
		"internal_node_id": "0.0-3.0-1.80"
	},
	{
		"rt": 1469,
		"stimulus": "../audio/32-5-masc.mp3",
		"response": " ",
		"word": "pilão",
		"trial_type": "audio-keyboard-response",
		"trial_index": 114,
		"time_elapsed": 280522,
		"internal_node_id": "0.0-3.0-1.81"
	},
	{
		"rt": 3712,
		"stimulus": "../audio/32-6-masc.mp3",
		"response": " ",
		"word": "para",
		"trial_type": "audio-keyboard-response",
		"trial_index": 115,
		"time_elapsed": 284506,
		"internal_node_id": "0.0-3.0-1.82"
	},
	{
		"rt": 1651,
		"stimulus": "../audio/32-7-masc.mp3",
		"response": " ",
		"word": "a",
		"trial_type": "audio-keyboard-response",
		"trial_index": 116,
		"time_elapsed": 286426,
		"internal_node_id": "0.0-3.0-1.83"
	},
	{
		"rt": 1469,
		"stimulus": "../audio/32-8-masc.mp3",
		"response": " ",
		"word": "cozinha.",
		"trial_type": "audio-keyboard-response",
		"trial_index": 117,
		"time_elapsed": 288169,
		"internal_node_id": "0.0-3.0-1.84"
	},
	{
		"rt": null,
		"stimulus": "<span style= \"font-size:30px; font-family: monospace\">+</span>",
		"response": null,
		"trial_part": "fixation",
		"trial_type": "html-keyboard-response",
		"trial_index": 118,
		"time_elapsed": 289426,
		"internal_node_id": "0.0-3.0-0.85-0.85"
	},
	{
		"rt": 1179,
		"stimulus": "../audio/33-1-fem.mp3",
		"response": " ",
		"word": "Eles",
		"trial_type": "audio-keyboard-response",
		"trial_index": 119,
		"time_elapsed": 290889,
		"internal_node_id": "0.0-3.0-1.85"
	},
	{
		"rt": 1320,
		"stimulus": "../audio/33-2-fem.mp3",
		"response": " ",
		"word": "sabem",
		"trial_type": "audio-keyboard-response",
		"trial_index": 120,
		"time_elapsed": 292490,
		"internal_node_id": "0.0-3.0-1.86"
	},
	{
		"rt": 1200,
		"stimulus": "../audio/33-3-fem.mp3",
		"response": " ",
		"word": "do",
		"trial_type": "audio-keyboard-response",
		"trial_index": 121,
		"time_elapsed": 293962,
		"internal_node_id": "0.0-3.0-1.87"
	},
	{
		"rt": 1371,
		"stimulus": "../audio/33-4-fem.mp3",
		"response": " ",
		"word": "seu",
		"trial_type": "audio-keyboard-response",
		"trial_index": 122,
		"time_elapsed": 295610,
		"internal_node_id": "0.0-3.0-1.88"
	},
	{
		"rt": 1640,
		"stimulus": "../audio/33-5-fem.mp3",
		"response": " ",
		"word": "privilégio",
		"trial_type": "audio-keyboard-response",
		"trial_index": 123,
		"time_elapsed": 297514,
		"internal_node_id": "0.0-3.0-1.89"
	},
	{
		"rt": 1299,
		"stimulus": "../audio/33-6-fem.mp3",
		"response": " ",
		"word": "nessa",
		"trial_type": "audio-keyboard-response",
		"trial_index": 124,
		"time_elapsed": 299081,
		"internal_node_id": "0.0-3.0-1.90"
	},
	{
		"rt": 1680,
		"stimulus": "../audio/33-7-fem.mp3",
		"response": " ",
		"word": "confusão.",
		"trial_type": "audio-keyboard-response",
		"trial_index": 125,
		"time_elapsed": 301034,
		"internal_node_id": "0.0-3.0-1.91"
	},
	{
		"rt": null,
		"stimulus": "<span style= \"font-size:30px; font-family: monospace\">+</span>",
		"response": null,
		"trial_part": "fixation",
		"trial_type": "html-keyboard-response",
		"trial_index": 126,
		"time_elapsed": 302302,
		"internal_node_id": "0.0-3.0-0.92-0.92"
	},
	{
		"rt": 960,
		"stimulus": "../audio/31-1-masc.mp3",
		"response": " ",
		"word": "O",
		"trial_type": "audio-keyboard-response",
		"trial_index": 127,
		"time_elapsed": 303545,
		"internal_node_id": "0.0-3.0-1.92"
	},
	{
		"rt": 1261,
		"stimulus": "../audio/31-2-masc.mp3",
		"response": " ",
		"word": "padeiro",
		"trial_type": "audio-keyboard-response",
		"trial_index": 128,
		"time_elapsed": 305066,
		"internal_node_id": "0.0-3.0-1.93"
	},
	{
		"rt": 1171,
		"stimulus": "../audio/31-3-masc.mp3",
		"response": " ",
		"word": "usou",
		"trial_type": "audio-keyboard-response",
		"trial_index": 129,
		"time_elapsed": 306506,
		"internal_node_id": "0.0-3.0-1.94"
	},
	{
		"rt": 771,
		"stimulus": "../audio/31-4-masc.mp3",
		"response": " ",
		"word": "a",
		"trial_type": "audio-keyboard-response",
		"trial_index": 130,
		"time_elapsed": 307545,
		"internal_node_id": "0.0-3.0-1.95"
	},
	{
		"rt": 1440,
		"stimulus": "../audio/31-5-masc.mp3",
		"response": " ",
		"word": "balança",
		"trial_type": "audio-keyboard-response",
		"trial_index": 131,
		"time_elapsed": 309257,
		"internal_node_id": "0.0-3.0-1.96"
	},
	{
		"rt": 1331,
		"stimulus": "../audio/31-6-masc.mp3",
		"response": " ",
		"word": "o",
		"trial_type": "audio-keyboard-response",
		"trial_index": 132,
		"time_elapsed": 310857,
		"internal_node_id": "0.0-3.0-1.97"
	},
	{
		"rt": 1240,
		"stimulus": "../audio/31-7-masc.mp3",
		"response": " ",
		"word": "dia",
		"trial_type": "audio-keyboard-response",
		"trial_index": 133,
		"time_elapsed": 312361,
		"internal_node_id": "0.0-3.0-1.98"
	},
	{
		"rt": 1792,
		"stimulus": "../audio/31-8-masc.mp3",
		"response": " ",
		"word": "inteiro.",
		"trial_type": "audio-keyboard-response",
		"trial_index": 134,
		"time_elapsed": 314425,
		"internal_node_id": "0.0-3.0-1.99"
	},
	{
		"rt": null,
		"stimulus": "<span style= \"font-size:30px; font-family: monospace\">+</span>",
		"response": null,
		"trial_part": "fixation",
		"trial_type": "html-keyboard-response",
		"trial_index": 135,
		"time_elapsed": 315682,
		"internal_node_id": "0.0-3.0-0.100-0.100"
	},
	{
		"rt": 1501,
		"stimulus": "../audio/34-1-fem.mp3",
		"response": " ",
		"word": "Cobrança",
		"trial_type": "audio-keyboard-response",
		"trial_index": 136,
		"time_elapsed": 317465,
		"internal_node_id": "0.0-3.0-1.100"
	},
	{
		"rt": 1640,
		"stimulus": "../audio/34-2-fem.mp3",
		"response": " ",
		"word": "excessiva",
		"trial_type": "audio-keyboard-response",
		"trial_index": 137,
		"time_elapsed": 319385,
		"internal_node_id": "0.0-3.0-1.101"
	},
	{
		"rt": 1149,
		"stimulus": "../audio/34-3-fem.mp3",
		"response": " ",
		"word": "é",
		"trial_type": "audio-keyboard-response",
		"trial_index": 138,
		"time_elapsed": 320809,
		"internal_node_id": "0.0-3.0-1.102"
	},
	{
		"rt": 1040,
		"stimulus": "../audio/34-4-fem.mp3",
		"response": " ",
		"word": "um",
		"trial_type": "audio-keyboard-response",
		"trial_index": 139,
		"time_elapsed": 322121,
		"internal_node_id": "0.0-3.0-1.103"
	},
	{
		"rt": 1419,
		"stimulus": "../audio/34-5-fem.mp3",
		"response": " ",
		"word": "fardo",
		"trial_type": "audio-keyboard-response",
		"trial_index": 140,
		"time_elapsed": 323801,
		"internal_node_id": "0.0-3.0-1.104"
	},
	{
		"rt": 1251,
		"stimulus": "../audio/34-6-fem.mp3",
		"response": " ",
		"word": "para",
		"trial_type": "audio-keyboard-response",
		"trial_index": 141,
		"time_elapsed": 325337,
		"internal_node_id": "0.0-3.0-1.105"
	},
	{
		"rt": 1040,
		"stimulus": "../audio/34-7-fem.mp3",
		"response": " ",
		"word": "a",
		"trial_type": "audio-keyboard-response",
		"trial_index": 142,
		"time_elapsed": 326649,
		"internal_node_id": "0.0-3.0-1.106"
	},
	{
		"rt": 2251,
		"stimulus": "../audio/34-8-fem.mp3",
		"response": " ",
		"word": "cabeça.",
		"trial_type": "audio-keyboard-response",
		"trial_index": 143,
		"time_elapsed": 329161,
		"internal_node_id": "0.0-3.0-1.107"
	},
	{
		"rt": null,
		"stimulus": "<span style= \"font-size:30px; font-family: monospace\">+</span>",
		"response": null,
		"trial_part": "fixation",
		"trial_type": "html-keyboard-response",
		"trial_index": 144,
		"time_elapsed": 330415,
		"internal_node_id": "0.0-3.0-0.108-0.108"
	},
	{
		"rt": 1309,
		"stimulus": "../audio/35-1-fem.mp3",
		"response": " ",
		"word": "A",
		"trial_type": "audio-keyboard-response",
		"trial_index": 145,
		"time_elapsed": 332009,
		"internal_node_id": "0.0-3.0-1.108"
	},
	{
		"rt": 1261,
		"stimulus": "../audio/35-2-fem.mp3",
		"response": " ",
		"word": "receita",
		"trial_type": "audio-keyboard-response",
		"trial_index": 146,
		"time_elapsed": 333545,
		"internal_node_id": "0.0-3.0-1.109"
	},
	{
		"rt": 1029,
		"stimulus": "../audio/35-3-fem.mp3",
		"response": " ",
		"word": "para",
		"trial_type": "audio-keyboard-response",
		"trial_index": 147,
		"time_elapsed": 334841,
		"internal_node_id": "0.0-3.0-1.110"
	},
	{
		"rt": 1051,
		"stimulus": "../audio/35-4-fem.mp3",
		"response": " ",
		"word": "a",
		"trial_type": "audio-keyboard-response",
		"trial_index": 148,
		"time_elapsed": 336169,
		"internal_node_id": "0.0-3.0-1.111"
	},
	{
		"rt": 1592,
		"stimulus": "../audio/35-5-fem.mp3",
		"response": " ",
		"word": "preparação",
		"trial_type": "audio-keyboard-response",
		"trial_index": 149,
		"time_elapsed": 338025,
		"internal_node_id": "0.0-3.0-1.112"
	},
	{
		"rt": 880,
		"stimulus": "../audio/35-6-fem.mp3",
		"response": " ",
		"word": "do",
		"trial_type": "audio-keyboard-response",
		"trial_index": 150,
		"time_elapsed": 339177,
		"internal_node_id": "0.0-3.0-1.113"
	},
	{
		"rt": 1160,
		"stimulus": "../audio/35-7-fem.mp3",
		"response": " ",
		"word": "bolo",
		"trial_type": "audio-keyboard-response",
		"trial_index": 151,
		"time_elapsed": 340617,
		"internal_node_id": "0.0-3.0-1.114"
	},
	{
		"rt": 869,
		"stimulus": "../audio/35-8-fem.mp3",
		"response": " ",
		"word": "é",
		"trial_type": "audio-keyboard-response",
		"trial_index": 152,
		"time_elapsed": 341753,
		"internal_node_id": "0.0-3.0-1.115"
	},
	{
		"rt": 1549,
		"stimulus": "../audio/35-9-fem.mp3",
		"response": " ",
		"word": "leve.",
		"trial_type": "audio-keyboard-response",
		"trial_index": 153,
		"time_elapsed": 343577,
		"internal_node_id": "0.0-3.0-1.116"
	},
	{
		"rt": 15984,
		"stimulus": "<span style=\"font-size:25px; font-family: monospace\">A receita do bolo é pesada?</span>",
		"response": "s",
		"question": "A receita do bolo é pesada?",
		"answer": "null",
		"trial": "exp-sent",
		"trial_type": "html-keyboard-response",
		"trial_index": 154,
		"time_elapsed": 359817,
		"internal_node_id": "0.0-3.0-2.116-0.116",
		"accuracy": false
	},
	{
		"rt": null,
		"stimulus": "<span style= \"font-size:30px; font-family: monospace\">+</span>",
		"response": null,
		"trial_part": "fixation",
		"trial_type": "html-keyboard-response",
		"trial_index": 155,
		"time_elapsed": 361344,
		"internal_node_id": "0.0-3.0-0.117-0.117"
	},
	{
		"rt": 848,
		"stimulus": "../audio/13-1-fem.mp3",
		"response": " ",
		"word": "Para",
		"trial_type": "audio-keyboard-response",
		"trial_index": 156,
		"time_elapsed": 362473,
		"internal_node_id": "0.0-3.0-1.117"
	},
	{
		"rt": 891,
		"stimulus": "../audio/13-2-fem.mp3",
		"response": " ",
		"word": "mim",
		"trial_type": "audio-keyboard-response",
		"trial_index": 157,
		"time_elapsed": 363641,
		"internal_node_id": "0.0-3.0-1.118"
	},
	{
		"rt": 680,
		"stimulus": "../audio/13-3-fem.mp3",
		"response": " ",
		"word": "é",
		"trial_type": "audio-keyboard-response",
		"trial_index": 158,
		"time_elapsed": 364585,
		"internal_node_id": "0.0-3.0-1.119"
	},
	{
		"rt": 1029,
		"stimulus": "../audio/13-4-fem.mp3",
		"response": " ",
		"word": "muito",
		"trial_type": "audio-keyboard-response",
		"trial_index": 159,
		"time_elapsed": 365897,
		"internal_node_id": "0.0-3.0-1.120"
	},
	{
		"rt": 1080,
		"stimulus": "../audio/13-5-fem.mp3",
		"response": " ",
		"word": "difícil",
		"trial_type": "audio-keyboard-response",
		"trial_index": 160,
		"time_elapsed": 367257,
		"internal_node_id": "0.0-3.0-1.121"
	},
	{
		"rt": 1259,
		"stimulus": "../audio/13-6-fem.mp3",
		"response": " ",
		"word": "acordar",
		"trial_type": "audio-keyboard-response",
		"trial_index": 161,
		"time_elapsed": 368793,
		"internal_node_id": "0.0-3.0-1.122"
	},
	{
		"rt": 989,
		"stimulus": "../audio/13-7-fem.mp3",
		"response": " ",
		"word": "cedo.",
		"trial_type": "audio-keyboard-response",
		"trial_index": 162,
		"time_elapsed": 370056,
		"internal_node_id": "0.0-3.0-1.123"
	},
	{
		"rt": null,
		"stimulus": "<span style= \"font-size:30px; font-family: monospace\">+</span>",
		"response": null,
		"trial_part": "fixation",
		"trial_type": "html-keyboard-response",
		"trial_index": 163,
		"time_elapsed": 371322,
		"internal_node_id": "0.0-3.0-0.124-0.124"
	},
	{
		"rt": 832,
		"stimulus": "../audio/14-1-fem.mp3",
		"response": " ",
		"word": "O",
		"trial_type": "audio-keyboard-response",
		"trial_index": 164,
		"time_elapsed": 372423,
		"internal_node_id": "0.0-3.0-1.124"
	},
	{
		"rt": 960,
		"stimulus": "../audio/14-2-fem.mp3",
		"response": " ",
		"word": "cachorro",
		"trial_type": "audio-keyboard-response",
		"trial_index": 165,
		"time_elapsed": 373655,
		"internal_node_id": "0.0-3.0-1.125"
	},
	{
		"rt": 709,
		"stimulus": "../audio/14-3-fem.mp3",
		"response": " ",
		"word": "é",
		"trial_type": "audio-keyboard-response",
		"trial_index": 166,
		"time_elapsed": 374631,
		"internal_node_id": "0.0-3.0-1.126"
	},
	{
		"rt": 800,
		"stimulus": "../audio/14-4-fem.mp3",
		"response": " ",
		"word": "muito",
		"trial_type": "audio-keyboard-response",
		"trial_index": 167,
		"time_elapsed": 375703,
		"internal_node_id": "0.0-3.0-1.127"
	},
	{
		"rt": 1059,
		"stimulus": "../audio/14-5-fem.mp3",
		"response": " ",
		"word": "fiel",
		"trial_type": "audio-keyboard-response",
		"trial_index": 168,
		"time_elapsed": 377047,
		"internal_node_id": "0.0-3.0-1.128"
	},
	{
		"rt": 680,
		"stimulus": "../audio/14-6-fem.mp3",
		"response": " ",
		"word": "a",
		"trial_type": "audio-keyboard-response",
		"trial_index": 169,
		"time_elapsed": 378008,
		"internal_node_id": "0.0-3.0-1.129"
	},
	{
		"rt": 952,
		"stimulus": "../audio/14-7-fem.mp3",
		"response": " ",
		"word": "seus",
		"trial_type": "audio-keyboard-response",
		"trial_index": 170,
		"time_elapsed": 379223,
		"internal_node_id": "0.0-3.0-1.130"
	},
	{
		"rt": 979,
		"stimulus": "../audio/14-8-fem.mp3",
		"response": " ",
		"word": "donos.",
		"trial_type": "audio-keyboard-response",
		"trial_index": 171,
		"time_elapsed": 380487,
		"internal_node_id": "0.0-3.0-1.131"
	},
	{
		"rt": null,
		"stimulus": "<span style= \"font-size:30px; font-family: monospace\">+</span>",
		"response": null,
		"trial_part": "fixation",
		"trial_type": "html-keyboard-response",
		"trial_index": 172,
		"time_elapsed": 381754,
		"internal_node_id": "0.0-3.0-0.132-0.132"
	},
	{
		"rt": 1051,
		"stimulus": "../audio/11-1-fem.mp3",
		"response": " ",
		"word": "Elas",
		"trial_type": "audio-keyboard-response",
		"trial_index": 173,
		"time_elapsed": 383095,
		"internal_node_id": "0.0-3.0-1.132"
	},
	{
		"rt": 891,
		"stimulus": "../audio/11-2-fem.mp3",
		"response": " ",
		"word": "gostam",
		"trial_type": "audio-keyboard-response",
		"trial_index": 174,
		"time_elapsed": 384264,
		"internal_node_id": "0.0-3.0-1.133"
	},
	{
		"rt": 979,
		"stimulus": "../audio/11-3-fem.mp3",
		"response": " ",
		"word": "muito",
		"trial_type": "audio-keyboard-response",
		"trial_index": 175,
		"time_elapsed": 385511,
		"internal_node_id": "0.0-3.0-1.134"
	},
	{
		"rt": 848,
		"stimulus": "../audio/11-4-fem.mp3",
		"response": " ",
		"word": "de",
		"trial_type": "audio-keyboard-response",
		"trial_index": 176,
		"time_elapsed": 386631,
		"internal_node_id": "0.0-3.0-1.135"
	},
	{
		"rt": 1400,
		"stimulus": "../audio/11-5-fem.mp3",
		"response": " ",
		"word": "aritmética",
		"trial_type": "audio-keyboard-response",
		"trial_index": 177,
		"time_elapsed": 388311,
		"internal_node_id": "0.0-3.0-1.136"
	},
	{
		"rt": 1088,
		"stimulus": "../audio/11-6-fem.mp3",
		"response": " ",
		"word": "e",
		"trial_type": "audio-keyboard-response",
		"trial_index": 178,
		"time_elapsed": 389672,
		"internal_node_id": "0.0-3.0-1.137"
	},
	{
		"rt": 960,
		"stimulus": "../audio/11-7-fem.mp3",
		"response": " ",
		"word": "de",
		"trial_type": "audio-keyboard-response",
		"trial_index": 179,
		"time_elapsed": 390903,
		"internal_node_id": "0.0-3.0-1.138"
	},
	{
		"rt": 1579,
		"stimulus": "../audio/11-8-fem.mp3",
		"response": " ",
		"word": "leitura.",
		"trial_type": "audio-keyboard-response",
		"trial_index": 180,
		"time_elapsed": 392759,
		"internal_node_id": "0.0-3.0-1.139"
	},
	{
		"rt": null,
		"stimulus": "<span style= \"font-size:30px; font-family: monospace\">+</span>",
		"response": null,
		"trial_part": "fixation",
		"trial_type": "html-keyboard-response",
		"trial_index": 181,
		"time_elapsed": 394017,
		"internal_node_id": "0.0-3.0-0.140-0.140"
	},
	{
		"rt": 949,
		"stimulus": "../audio/12-1-masc.mp3",
		"response": " ",
		"word": "O",
		"trial_type": "audio-keyboard-response",
		"trial_index": 182,
		"time_elapsed": 395239,
		"internal_node_id": "0.0-3.0-1.140"
	},
	{
		"rt": 931,
		"stimulus": "../audio/12-2-masc.mp3",
		"response": " ",
		"word": "dia",
		"trial_type": "audio-keyboard-response",
		"trial_index": 183,
		"time_elapsed": 396439,
		"internal_node_id": "0.0-3.0-1.141"
	},
	{
		"rt": 971,
		"stimulus": "../audio/12-3-masc.mp3",
		"response": " ",
		"word": "estava",
		"trial_type": "audio-keyboard-response",
		"trial_index": 184,
		"time_elapsed": 397687,
		"internal_node_id": "0.0-3.0-1.142"
	},
	{
		"rt": 920,
		"stimulus": "../audio/12-4-masc.mp3",
		"response": " ",
		"word": "quente,",
		"trial_type": "audio-keyboard-response",
		"trial_index": 185,
		"time_elapsed": 398887,
		"internal_node_id": "0.0-3.0-1.143"
	},
	{
		"rt": 1101,
		"stimulus": "../audio/12-5-masc.mp3",
		"response": " ",
		"word": "tranquilo",
		"trial_type": "audio-keyboard-response",
		"trial_index": 186,
		"time_elapsed": 400263,
		"internal_node_id": "0.0-3.0-1.144"
	},
	{
		"rt": 1000,
		"stimulus": "../audio/12-6-masc.mp3",
		"response": " ",
		"word": "e",
		"trial_type": "audio-keyboard-response",
		"trial_index": 187,
		"time_elapsed": 401528,
		"internal_node_id": "0.0-3.0-1.145"
	},
	{
		"rt": 2109,
		"stimulus": "../audio/12-7-masc.mp3",
		"response": " ",
		"word": "ensolarado.",
		"trial_type": "audio-keyboard-response",
		"trial_index": 188,
		"time_elapsed": 403911,
		"internal_node_id": "0.0-3.0-1.146"
	},
	{
		"rt": null,
		"stimulus": "<span style= \"font-size:30px; font-family: monospace\">+</span>",
		"response": null,
		"trial_part": "fixation",
		"trial_type": "html-keyboard-response",
		"trial_index": 189,
		"time_elapsed": 405170,
		"internal_node_id": "0.0-3.0-0.147-0.147"
	},
	{
		"rt": 912,
		"stimulus": "../audio/15-1-masc.mp3",
		"response": " ",
		"word": "Meu",
		"trial_type": "audio-keyboard-response",
		"trial_index": 190,
		"time_elapsed": 406343,
		"internal_node_id": "0.0-3.0-1.147"
	},
	{
		"rt": 899,
		"stimulus": "../audio/15-2-masc.mp3",
		"response": " ",
		"word": "primo",
		"trial_type": "audio-keyboard-response",
		"trial_index": 191,
		"time_elapsed": 407527,
		"internal_node_id": "0.0-3.0-1.148"
	},
	{
		"rt": 851,
		"stimulus": "../audio/15-3-masc.mp3",
		"response": " ",
		"word": "é",
		"trial_type": "audio-keyboard-response",
		"trial_index": 192,
		"time_elapsed": 408663,
		"internal_node_id": "0.0-3.0-1.149"
	},
	{
		"rt": 789,
		"stimulus": "../audio/15-4-masc.mp3",
		"response": " ",
		"word": "um",
		"trial_type": "audio-keyboard-response",
		"trial_index": 193,
		"time_elapsed": 409719,
		"internal_node_id": "0.0-3.0-1.150"
	},
	{
		"rt": 1029,
		"stimulus": "../audio/15-5-masc.mp3",
		"response": " ",
		"word": "grande",
		"trial_type": "audio-keyboard-response",
		"trial_index": 194,
		"time_elapsed": 411016,
		"internal_node_id": "0.0-3.0-1.151"
	},
	{
		"rt": 1291,
		"stimulus": "../audio/15-6-masc.mp3",
		"response": " ",
		"word": "vendedor",
		"trial_type": "audio-keyboard-response",
		"trial_index": 195,
		"time_elapsed": 412583,
		"internal_node_id": "0.0-3.0-1.152"
	},
	{
		"rt": 819,
		"stimulus": "../audio/15-7-masc.mp3",
		"response": " ",
		"word": "de",
		"trial_type": "audio-keyboard-response",
		"trial_index": 196,
		"time_elapsed": 413671,
		"internal_node_id": "0.0-3.0-1.153"
	},
	{
		"rt": 979,
		"stimulus": "../audio/15-8-masc.mp3",
		"response": " ",
		"word": "carros.",
		"trial_type": "audio-keyboard-response",
		"trial_index": 197,
		"time_elapsed": 414919,
		"internal_node_id": "0.0-3.0-1.154"
	},
	{
		"rt": 17660,
		"stimulus": "<span style=\"font-size:25px; font-family: monospace\">O primo é um vendedor de carros?</span>",
		"response": "s",
		"question": "O primo é um vendedor de carros?",
		"answer": "null",
		"trial": "exp-sent",
		"trial_type": "html-keyboard-response",
		"trial_index": 198,
		"time_elapsed": 432838,
		"internal_node_id": "0.0-3.0-2.154-0.154",
		"accuracy": false
	},
	{
		"rt": null,
		"stimulus": "<span style= \"font-size:30px; font-family: monospace\">+</span>",
		"response": null,
		"trial_part": "fixation",
		"trial_type": "html-keyboard-response",
		"trial_index": 199,
		"time_elapsed": 434364,
		"internal_node_id": "0.0-3.0-0.155-0.155"
	},
	{
		"rt": 251,
		"stimulus": "../audio/43-1-fem.mp3",
		"response": " ",
		"word": "Eu",
		"trial_type": "audio-keyboard-response",
		"trial_index": 200,
		"time_elapsed": 434902,
		"internal_node_id": "0.0-3.0-1.155"
	},
	{
		"rt": 1179,
		"stimulus": "../audio/43-2-fem.mp3",
		"response": " ",
		"word": "achei",
		"trial_type": "audio-keyboard-response",
		"trial_index": 201,
		"time_elapsed": 436358,
		"internal_node_id": "0.0-3.0-1.156"
	},
	{
		"rt": 789,
		"stimulus": "../audio/43-3-fem.mp3",
		"response": " ",
		"word": "um",
		"trial_type": "audio-keyboard-response",
		"trial_index": 202,
		"time_elapsed": 437414,
		"internal_node_id": "0.0-3.0-1.157"
	},
	{
		"rt": 1109,
		"stimulus": "../audio/43-4-fem.mp3",
		"response": " ",
		"word": "colchão",
		"trial_type": "audio-keyboard-response",
		"trial_index": 203,
		"time_elapsed": 438790,
		"internal_node_id": "0.0-3.0-1.158"
	},
	{
		"rt": 989,
		"stimulus": "../audio/43-5-fem.mp3",
		"response": " ",
		"word": "velho",
		"trial_type": "audio-keyboard-response",
		"trial_index": 204,
		"time_elapsed": 440054,
		"internal_node_id": "0.0-3.0-1.159"
	},
	{
		"rt": 771,
		"stimulus": "../audio/43-6-fem.mp3",
		"response": " ",
		"word": "e",
		"trial_type": "audio-keyboard-response",
		"trial_index": 205,
		"time_elapsed": 441094,
		"internal_node_id": "0.0-3.0-1.160"
	},
	{
		"rt": 789,
		"stimulus": "../audio/43-7-fem.mp3",
		"response": " ",
		"word": "imundo",
		"trial_type": "audio-keyboard-response",
		"trial_index": 206,
		"time_elapsed": 442166,
		"internal_node_id": "0.0-3.0-1.161"
	},
	{
		"rt": 731,
		"stimulus": "../audio/43-8-fem.mp3",
		"response": " ",
		"word": "na",
		"trial_type": "audio-keyboard-response",
		"trial_index": 207,
		"time_elapsed": 443158,
		"internal_node_id": "0.0-3.0-1.162"
	},
	{
		"rt": 861,
		"stimulus": "../audio/43-9-fem.mp3",
		"response": " ",
		"word": "casa.",
		"trial_type": "audio-keyboard-response",
		"trial_index": 208,
		"time_elapsed": 444294,
		"internal_node_id": "0.0-3.0-1.163"
	},
	{
		"rt": null,
		"stimulus": "<span style= \"font-size:30px; font-family: monospace\">+</span>",
		"response": null,
		"trial_part": "fixation",
		"trial_type": "html-keyboard-response",
		"trial_index": 209,
		"time_elapsed": 445574,
		"internal_node_id": "0.0-3.0-0.164-0.164"
	},
	{
		"rt": 741,
		"stimulus": "../audio/41-1-fem.mp3",
		"response": " ",
		"word": "A",
		"trial_type": "audio-keyboard-response",
		"trial_index": 210,
		"time_elapsed": 446582,
		"internal_node_id": "0.0-3.0-1.164"
	},
	{
		"rt": 968,
		"stimulus": "../audio/41-2-fem.mp3",
		"response": " ",
		"word": "novela",
		"trial_type": "audio-keyboard-response",
		"trial_index": 211,
		"time_elapsed": 447830,
		"internal_node_id": "0.0-3.0-1.165"
	},
	{
		"rt": 848,
		"stimulus": "../audio/41-3-fem.mp3",
		"response": " ",
		"word": "falava",
		"trial_type": "audio-keyboard-response",
		"trial_index": 212,
		"time_elapsed": 448950,
		"internal_node_id": "0.0-3.0-1.166"
	},
	{
		"rt": 891,
		"stimulus": "../audio/41-4-fem.mp3",
		"response": " ",
		"word": "de",
		"trial_type": "audio-keyboard-response",
		"trial_index": 213,
		"time_elapsed": 450102,
		"internal_node_id": "0.0-3.0-1.167"
	},
	{
		"rt": 1189,
		"stimulus": "../audio/41-5-fem.mp3",
		"response": " ",
		"word": "paixão",
		"trial_type": "audio-keyboard-response",
		"trial_index": 214,
		"time_elapsed": 451558,
		"internal_node_id": "0.0-3.0-1.168"
	},
	{
		"rt": 771,
		"stimulus": "../audio/41-6-fem.mp3",
		"response": " ",
		"word": "e",
		"trial_type": "audio-keyboard-response",
		"trial_index": 215,
		"time_elapsed": 452614,
		"internal_node_id": "0.0-3.0-1.169"
	},
	{
		"rt": 1211,
		"stimulus": "../audio/41-7-fem.mp3",
		"response": " ",
		"word": "comédia.",
		"trial_type": "audio-keyboard-response",
		"trial_index": 216,
		"time_elapsed": 454102,
		"internal_node_id": "0.0-3.0-1.170"
	},
	{
		"rt": null,
		"stimulus": "<span style= \"font-size:30px; font-family: monospace\">+</span>",
		"response": null,
		"trial_part": "fixation",
		"trial_type": "html-keyboard-response",
		"trial_index": 217,
		"time_elapsed": 455366,
		"internal_node_id": "0.0-3.0-0.171-0.171"
	},
	{
		"rt": 880,
		"stimulus": "../audio/44-1-masc.mp3",
		"response": " ",
		"word": "Meus",
		"trial_type": "audio-keyboard-response",
		"trial_index": 218,
		"time_elapsed": 456534,
		"internal_node_id": "0.0-3.0-1.171"
	},
	{
		"rt": 880,
		"stimulus": "../audio/44-2-masc.mp3",
		"response": " ",
		"word": "irmãos",
		"trial_type": "audio-keyboard-response",
		"trial_index": 219,
		"time_elapsed": 457702,
		"internal_node_id": "0.0-3.0-1.172"
	},
	{
		"rt": 869,
		"stimulus": "../audio/44-3-masc.mp3",
		"response": " ",
		"word": "brigam",
		"trial_type": "audio-keyboard-response",
		"trial_index": 220,
		"time_elapsed": 458838,
		"internal_node_id": "0.0-3.0-1.173"
	},
	{
		"rt": 1200,
		"stimulus": "../audio/44-4-masc.mp3",
		"response": " ",
		"word": "por",
		"trial_type": "audio-keyboard-response",
		"trial_index": 221,
		"time_elapsed": 460310,
		"internal_node_id": "0.0-3.0-1.174"
	},
	{
		"rt": 1099,
		"stimulus": "../audio/44-5-masc.mp3",
		"response": " ",
		"word": "bobagem",
		"trial_type": "audio-keyboard-response",
		"trial_index": 222,
		"time_elapsed": 461686,
		"internal_node_id": "0.0-3.0-1.175"
	},
	{
		"rt": 901,
		"stimulus": "../audio/44-6-masc.mp3",
		"response": " ",
		"word": "todos",
		"trial_type": "audio-keyboard-response",
		"trial_index": 223,
		"time_elapsed": 462854,
		"internal_node_id": "0.0-3.0-1.176"
	},
	{
		"rt": 880,
		"stimulus": "../audio/44-7-masc.mp3",
		"response": " ",
		"word": "os",
		"trial_type": "audio-keyboard-response",
		"trial_index": 224,
		"time_elapsed": 464006,
		"internal_node_id": "0.0-3.0-1.177"
	},
	{
		"rt": 1021,
		"stimulus": "../audio/44-8-masc.mp3",
		"response": " ",
		"word": "dias.",
		"trial_type": "audio-keyboard-response",
		"trial_index": 225,
		"time_elapsed": 465302,
		"internal_node_id": "0.0-3.0-1.178"
	},
	{
		"rt": null,
		"stimulus": "<span style= \"font-size:30px; font-family: monospace\">+</span>",
		"response": null,
		"trial_part": "fixation",
		"trial_type": "html-keyboard-response",
		"trial_index": 226,
		"time_elapsed": 466563,
		"internal_node_id": "0.0-3.0-0.179-0.179"
	},
	{
		"rt": 829,
		"stimulus": "../audio/42-1-masc.mp3",
		"response": " ",
		"word": "Eu",
		"trial_type": "audio-keyboard-response",
		"trial_index": 227,
		"time_elapsed": 467686,
		"internal_node_id": "0.0-3.0-1.179"
	},
	{
		"rt": 1840,
		"stimulus": "../audio/42-2-masc.mp3",
		"response": " ",
		"word": "fui",
		"trial_type": "audio-keyboard-response",
		"trial_index": 228,
		"time_elapsed": 469798,
		"internal_node_id": "0.0-3.0-1.180"
	},
	{
		"rt": 971,
		"stimulus": "../audio/42-3-masc.mp3",
		"response": " ",
		"word": "a",
		"trial_type": "audio-keyboard-response",
		"trial_index": 229,
		"time_elapsed": 471046,
		"internal_node_id": "0.0-3.0-1.181"
	},
	{
		"rt": 891,
		"stimulus": "../audio/42-4-masc.mp3",
		"response": " ",
		"word": "uma",
		"trial_type": "audio-keyboard-response",
		"trial_index": 230,
		"time_elapsed": 472198,
		"internal_node_id": "0.0-3.0-1.182"
	},
	{
		"rt": 1051,
		"stimulus": "../audio/42-5-masc.mp3",
		"response": " ",
		"word": "loja",
		"trial_type": "audio-keyboard-response",
		"trial_index": 231,
		"time_elapsed": 473526,
		"internal_node_id": "0.0-3.0-1.183"
	},
	{
		"rt": 840,
		"stimulus": "../audio/42-6-masc.mp3",
		"response": " ",
		"word": "de",
		"trial_type": "audio-keyboard-response",
		"trial_index": 232,
		"time_elapsed": 474630,
		"internal_node_id": "0.0-3.0-1.184"
	},
	{
		"rt": 1099,
		"stimulus": "../audio/42-7-masc.mp3",
		"response": " ",
		"word": "móveis",
		"trial_type": "audio-keyboard-response",
		"trial_index": 233,
		"time_elapsed": 476006,
		"internal_node_id": "0.0-3.0-1.185"
	},
	{
		"rt": 829,
		"stimulus": "../audio/42-8-masc.mp3",
		"response": " ",
		"word": "no",
		"trial_type": "audio-keyboard-response",
		"trial_index": 234,
		"time_elapsed": 477110,
		"internal_node_id": "0.0-3.0-1.186"
	},
	{
		"rt": 1259,
		"stimulus": "../audio/42-9-masc.mp3",
		"response": " ",
		"word": "bairro.",
		"trial_type": "audio-keyboard-response",
		"trial_index": 235,
		"time_elapsed": 478646,
		"internal_node_id": "0.0-3.0-1.187"
	},
	{
		"rt": null,
		"stimulus": "<span style= \"font-size:30px; font-family: monospace\">+</span>",
		"response": null,
		"trial_part": "fixation",
		"trial_type": "html-keyboard-response",
		"trial_index": 236,
		"time_elapsed": 479909,
		"internal_node_id": "0.0-3.0-0.188-0.188"
	},
	{
		"rt": 731,
		"stimulus": "../audio/45-1-fem.mp3",
		"response": " ",
		"word": "O",
		"trial_type": "audio-keyboard-response",
		"trial_index": 237,
		"time_elapsed": 480918,
		"internal_node_id": "0.0-3.0-1.188"
	},
	{
		"rt": 941,
		"stimulus": "../audio/45-2-fem.mp3",
		"response": " ",
		"word": "homem",
		"trial_type": "audio-keyboard-response",
		"trial_index": 238,
		"time_elapsed": 482134,
		"internal_node_id": "0.0-3.0-1.189"
	},
	{
		"rt": 1139,
		"stimulus": "../audio/45-3-fem.mp3",
		"response": " ",
		"word": "pagou",
		"trial_type": "audio-keyboard-response",
		"trial_index": 239,
		"time_elapsed": 483558,
		"internal_node_id": "0.0-3.0-1.190"
	},
	{
		"rt": 851,
		"stimulus": "../audio/45-4-fem.mp3",
		"response": " ",
		"word": "o",
		"trial_type": "audio-keyboard-response",
		"trial_index": 240,
		"time_elapsed": 484694,
		"internal_node_id": "0.0-3.0-1.191"
	},
	{
		"rt": 1029,
		"stimulus": "../audio/45-5-fem.mp3",
		"response": " ",
		"word": "aluguel",
		"trial_type": "audio-keyboard-response",
		"trial_index": 241,
		"time_elapsed": 485990,
		"internal_node_id": "0.0-3.0-1.192"
	},
	{
		"rt": 779,
		"stimulus": "../audio/45-6-fem.mp3",
		"response": " ",
		"word": "com",
		"trial_type": "audio-keyboard-response",
		"trial_index": 242,
		"time_elapsed": 487030,
		"internal_node_id": "0.0-3.0-1.193"
	},
	{
		"rt": 1120,
		"stimulus": "../audio/45-7-fem.mp3",
		"response": " ",
		"word": "atraso.",
		"trial_type": "audio-keyboard-response",
		"trial_index": 243,
		"time_elapsed": 488422,
		"internal_node_id": "0.0-3.0-1.194"
	},
	{
		"rt": 10973,
		"stimulus": "<span style=\"font-size:25px; font-family: monospace\">O homem pagou o aluguel em dia?</span>",
		"response": "n",
		"question": "O homem pagou o aluguel em dia?",
		"answer": "null",
		"trial": "exp-sent",
		"trial_type": "html-keyboard-response",
		"trial_index": 244,
		"time_elapsed": 499653,
		"internal_node_id": "0.0-3.0-2.194-0.194",
		"accuracy": false
	},
	{
		"rt": null,
		"stimulus": "<span style= \"font-size:30px; font-family: monospace\">+</span>",
		"response": null,
		"trial_part": "fixation",
		"trial_type": "html-keyboard-response",
		"trial_index": 245,
		"time_elapsed": 501161,
		"internal_node_id": "0.0-3.0-0.195-0.195"
	},
	{
		"rt": 240,
		"stimulus": "../audio/69-1-fem.mp3",
		"response": " ",
		"word": "A",
		"trial_type": "audio-keyboard-response",
		"trial_index": 246,
		"time_elapsed": 501685,
		"internal_node_id": "0.0-3.0-1.195"
	},
	{
		"rt": 1011,
		"stimulus": "../audio/69-2-fem.mp3",
		"response": " ",
		"word": "loja",
		"trial_type": "audio-keyboard-response",
		"trial_index": 247,
		"time_elapsed": 502965,
		"internal_node_id": "0.0-3.0-1.196"
	},
	{
		"rt": 1120,
		"stimulus": "../audio/69-3-fem.mp3",
		"response": " ",
		"word": "recebeu",
		"trial_type": "audio-keyboard-response",
		"trial_index": 248,
		"time_elapsed": 504356,
		"internal_node_id": "0.0-3.0-1.197"
	},
	{
		"rt": 808,
		"stimulus": "../audio/69-4-fem.mp3",
		"response": " ",
		"word": "uma",
		"trial_type": "audio-keyboard-response",
		"trial_index": 249,
		"time_elapsed": 505429,
		"internal_node_id": "0.0-3.0-1.198"
	},
	{
		"rt": 1059,
		"stimulus": "../audio/69-5-fem.mp3",
		"response": " ",
		"word": "poltrona",
		"trial_type": "audio-keyboard-response",
		"trial_index": 250,
		"time_elapsed": 506756,
		"internal_node_id": "0.0-3.0-1.199"
	},
	{
		"rt": 931,
		"stimulus": "../audio/69-6-fem.mp3",
		"response": " ",
		"word": "de",
		"trial_type": "audio-keyboard-response",
		"trial_index": 251,
		"time_elapsed": 507956,
		"internal_node_id": "0.0-3.0-1.200"
	},
	{
		"rt": 949,
		"stimulus": "../audio/69-7-fem.mp3",
		"response": " ",
		"word": "couro",
		"trial_type": "audio-keyboard-response",
		"trial_index": 252,
		"time_elapsed": 509189,
		"internal_node_id": "0.0-3.0-1.201"
	},
	{
		"rt": 920,
		"stimulus": "../audio/69-8-fem.mp3",
		"response": " ",
		"word": "preto.",
		"trial_type": "audio-keyboard-response",
		"trial_index": 253,
		"time_elapsed": 510389,
		"internal_node_id": "0.0-3.0-1.202"
	},
	{
		"rt": null,
		"stimulus": "<span style= \"font-size:30px; font-family: monospace\">+</span>",
		"response": null,
		"trial_part": "fixation",
		"trial_type": "html-keyboard-response",
		"trial_index": 254,
		"time_elapsed": 511656,
		"internal_node_id": "0.0-3.0-0.203-0.203"
	},
	{
		"rt": 259,
		"stimulus": "../audio/66-1-masc.mp3",
		"response": " ",
		"word": "Não",
		"trial_type": "audio-keyboard-response",
		"trial_index": 255,
		"time_elapsed": 512196,
		"internal_node_id": "0.0-3.0-1.203"
	},
	{
		"rt": 1019,
		"stimulus": "../audio/66-2-masc.mp3",
		"response": " ",
		"word": "gosto",
		"trial_type": "audio-keyboard-response",
		"trial_index": 256,
		"time_elapsed": 513476,
		"internal_node_id": "0.0-3.0-1.204"
	},
	{
		"rt": 808,
		"stimulus": "../audio/66-3-masc.mp3",
		"response": " ",
		"word": "de",
		"trial_type": "audio-keyboard-response",
		"trial_index": 257,
		"time_elapsed": 514549,
		"internal_node_id": "0.0-3.0-1.205"
	},
	{
		"rt": 1168,
		"stimulus": "../audio/66-4-masc.mp3",
		"response": " ",
		"word": "gente",
		"trial_type": "audio-keyboard-response",
		"trial_index": 258,
		"time_elapsed": 515989,
		"internal_node_id": "0.0-3.0-1.206"
	},
	{
		"rt": 1309,
		"stimulus": "../audio/66-5-masc.mp3",
		"response": " ",
		"word": "egoísta",
		"trial_type": "audio-keyboard-response",
		"trial_index": 259,
		"time_elapsed": 517573,
		"internal_node_id": "0.0-3.0-1.207"
	},
	{
		"rt": 901,
		"stimulus": "../audio/66-6-masc.mp3",
		"response": " ",
		"word": "nem",
		"trial_type": "audio-keyboard-response",
		"trial_index": 260,
		"time_elapsed": 518740,
		"internal_node_id": "0.0-3.0-1.208"
	},
	{
		"rt": 1840,
		"stimulus": "../audio/66-7-masc.mp3",
		"response": " ",
		"word": "chata.",
		"trial_type": "audio-keyboard-response",
		"trial_index": 261,
		"time_elapsed": 520853,
		"internal_node_id": "0.0-3.0-1.209"
	},
	{
		"rt": null,
		"stimulus": "<span style= \"font-size:30px; font-family: monospace\">+</span>",
		"response": null,
		"trial_part": "fixation",
		"trial_type": "html-keyboard-response",
		"trial_index": 262,
		"time_elapsed": 522125,
		"internal_node_id": "0.0-3.0-0.210-0.210"
	},
	{
		"rt": 891,
		"stimulus": "../audio/67-1-masc.mp3",
		"response": " ",
		"word": "Minha",
		"trial_type": "audio-keyboard-response",
		"trial_index": 263,
		"time_elapsed": 523301,
		"internal_node_id": "0.0-3.0-1.210"
	},
	{
		"rt": 819,
		"stimulus": "../audio/67-2-masc.mp3",
		"response": " ",
		"word": "tia",
		"trial_type": "audio-keyboard-response",
		"trial_index": 264,
		"time_elapsed": 524405,
		"internal_node_id": "0.0-3.0-1.211"
	},
	{
		"rt": 1021,
		"stimulus": "../audio/67-3-masc.mp3",
		"response": " ",
		"word": "comprou",
		"trial_type": "audio-keyboard-response",
		"trial_index": 265,
		"time_elapsed": 525701,
		"internal_node_id": "0.0-3.0-1.212"
	},
	{
		"rt": 851,
		"stimulus": "../audio/67-4-masc.mp3",
		"response": " ",
		"word": "um",
		"trial_type": "audio-keyboard-response",
		"trial_index": 266,
		"time_elapsed": 526821,
		"internal_node_id": "0.0-3.0-1.213"
	},
	{
		"rt": 1179,
		"stimulus": "../audio/67-5-masc.mp3",
		"response": " ",
		"word": "cordão",
		"trial_type": "audio-keyboard-response",
		"trial_index": 267,
		"time_elapsed": 528277,
		"internal_node_id": "0.0-3.0-1.214"
	},
	{
		"rt": 861,
		"stimulus": "../audio/67-6-masc.mp3",
		"response": " ",
		"word": "para",
		"trial_type": "audio-keyboard-response",
		"trial_index": 268,
		"time_elapsed": 529413,
		"internal_node_id": "0.0-3.0-1.215"
	},
	{
		"rt": 709,
		"stimulus": "../audio/67-7-masc.mp3",
		"response": " ",
		"word": "o",
		"trial_type": "audio-keyboard-response",
		"trial_index": 269,
		"time_elapsed": 530405,
		"internal_node_id": "0.0-3.0-1.216"
	},
	{
		"rt": 2400,
		"stimulus": "../audio/67-8-masc.mp3",
		"response": " ",
		"word": "varal.",
		"trial_type": "audio-keyboard-response",
		"trial_index": 270,
		"time_elapsed": 533077,
		"internal_node_id": "0.0-3.0-1.217"
	},
	{
		"rt": null,
		"stimulus": "<span style= \"font-size:30px; font-family: monospace\">+</span>",
		"response": null,
		"trial_part": "fixation",
		"trial_type": "html-keyboard-response",
		"trial_index": 271,
		"time_elapsed": 534334,
		"internal_node_id": "0.0-3.0-0.218-0.218"
	},
	{
		"rt": 880,
		"stimulus": "../audio/68-1-masc.mp3",
		"response": " ",
		"word": "Meu",
		"trial_type": "audio-keyboard-response",
		"trial_index": 272,
		"time_elapsed": 535493,
		"internal_node_id": "0.0-3.0-1.218"
	},
	{
		"rt": 949,
		"stimulus": "../audio/68-2-masc.mp3",
		"response": " ",
		"word": "irmão",
		"trial_type": "audio-keyboard-response",
		"trial_index": 273,
		"time_elapsed": 536725,
		"internal_node_id": "0.0-3.0-1.219"
	},
	{
		"rt": 920,
		"stimulus": "../audio/68-3-masc.mp3",
		"response": " ",
		"word": "teve",
		"trial_type": "audio-keyboard-response",
		"trial_index": 274,
		"time_elapsed": 537925,
		"internal_node_id": "0.0-3.0-1.220"
	},
	{
		"rt": 861,
		"stimulus": "../audio/68-4-masc.mp3",
		"response": " ",
		"word": "um",
		"trial_type": "audio-keyboard-response",
		"trial_index": 275,
		"time_elapsed": 539060,
		"internal_node_id": "0.0-3.0-1.221"
	},
	{
		"rt": 968,
		"stimulus": "../audio/68-5-masc.mp3",
		"response": " ",
		"word": "noivado",
		"trial_type": "audio-keyboard-response",
		"trial_index": 276,
		"time_elapsed": 540309,
		"internal_node_id": "0.0-3.0-1.222"
	},
	{
		"rt": 1088,
		"stimulus": "../audio/68-6-masc.mp3",
		"response": " ",
		"word": "longo",
		"trial_type": "audio-keyboard-response",
		"trial_index": 277,
		"time_elapsed": 541669,
		"internal_node_id": "0.0-3.0-1.223"
	},
	{
		"rt": 688,
		"stimulus": "../audio/68-7-masc.mp3",
		"response": " ",
		"word": "e",
		"trial_type": "audio-keyboard-response",
		"trial_index": 278,
		"time_elapsed": 542629,
		"internal_node_id": "0.0-3.0-1.224"
	},
	{
		"rt": 1440,
		"stimulus": "../audio/68-8-masc.mp3",
		"response": " ",
		"word": "maravilhoso.",
		"trial_type": "audio-keyboard-response",
		"trial_index": 279,
		"time_elapsed": 544341,
		"internal_node_id": "0.0-3.0-1.225"
	},
	{
		"rt": null,
		"stimulus": "<span style= \"font-size:30px; font-family: monospace\">+</span>",
		"response": null,
		"trial_part": "fixation",
		"trial_type": "html-keyboard-response",
		"trial_index": 280,
		"time_elapsed": 545592,
		"internal_node_id": "0.0-3.0-0.226-0.226"
	},
	{
		"rt": 2280,
		"stimulus": "../audio/70-1-fem.mp3",
		"response": " ",
		"word": "O",
		"trial_type": "audio-keyboard-response",
		"trial_index": 281,
		"time_elapsed": 548149,
		"internal_node_id": "0.0-3.0-1.226"
	},
	{
		"rt": 1179,
		"stimulus": "../audio/70-2-fem.mp3",
		"response": " ",
		"word": "meu",
		"trial_type": "audio-keyboard-response",
		"trial_index": 282,
		"time_elapsed": 549605,
		"internal_node_id": "0.0-3.0-1.227"
	},
	{
		"rt": 1032,
		"stimulus": "../audio/70-3-fem.mp3",
		"response": " ",
		"word": "filho",
		"trial_type": "audio-keyboard-response",
		"trial_index": 283,
		"time_elapsed": 550900,
		"internal_node_id": "0.0-3.0-1.228"
	},
	{
		"rt": 880,
		"stimulus": "../audio/70-4-fem.mp3",
		"response": " ",
		"word": "tem",
		"trial_type": "audio-keyboard-response",
		"trial_index": 284,
		"time_elapsed": 552053,
		"internal_node_id": "0.0-3.0-1.229"
	},
	{
		"rt": 1171,
		"stimulus": "../audio/70-5-fem.mp3",
		"response": " ",
		"word": "medo",
		"trial_type": "audio-keyboard-response",
		"trial_index": 285,
		"time_elapsed": 553493,
		"internal_node_id": "0.0-3.0-1.230"
	},
	{
		"rt": 1011,
		"stimulus": "../audio/70-6-fem.mp3",
		"response": " ",
		"word": "de",
		"trial_type": "audio-keyboard-response",
		"trial_index": 286,
		"time_elapsed": 554773,
		"internal_node_id": "0.0-3.0-1.231"
	},
	{
		"rt": 1480,
		"stimulus": "../audio/70-7-fem.mp3",
		"response": " ",
		"word": "enguia",
		"trial_type": "audio-keyboard-response",
		"trial_index": 287,
		"time_elapsed": 556533,
		"internal_node_id": "0.0-3.0-1.232"
	},
	{
		"rt": 811,
		"stimulus": "../audio/70-8-fem.mp3",
		"response": " ",
		"word": "e",
		"trial_type": "audio-keyboard-response",
		"trial_index": 288,
		"time_elapsed": 557621,
		"internal_node_id": "0.0-3.0-1.233"
	},
	{
		"rt": 2259,
		"stimulus": "../audio/70-9-fem.mp3",
		"response": " ",
		"word": "beija-flor.",
		"trial_type": "audio-keyboard-response",
		"trial_index": 289,
		"time_elapsed": 560164,
		"internal_node_id": "0.0-3.0-1.234"
	},
	{
		"rt": 18628,
		"stimulus": "<span style=\"font-size:25px; font-family: monospace\">O filho tem medo de tigre?</span>",
		"response": "n",
		"question": "O filho tem medo de tigre?",
		"answer": "null",
		"trial": "exp-sent",
		"trial_type": "html-keyboard-response",
		"trial_index": 290,
		"time_elapsed": 579044,
		"internal_node_id": "0.0-3.0-2.234-0.234",
		"accuracy": false
	},
	{
		"rt": null,
		"stimulus": "<span style= \"font-size:30px; font-family: monospace\">+</span>",
		"response": null,
		"trial_part": "fixation",
		"trial_type": "html-keyboard-response",
		"trial_index": 291,
		"time_elapsed": 580560,
		"internal_node_id": "0.0-3.0-0.235-0.235"
	},
	{
		"rt": 749,
		"stimulus": "../audio/01-1-masc.mp3",
		"response": " ",
		"word": "O",
		"trial_type": "audio-keyboard-response",
		"trial_index": 292,
		"time_elapsed": 581604,
		"internal_node_id": "0.0-3.0-1.235"
	},
	{
		"rt": 1000,
		"stimulus": "../audio/01-2-masc.mp3",
		"response": " ",
		"word": "menino",
		"trial_type": "audio-keyboard-response",
		"trial_index": 293,
		"time_elapsed": 582868,
		"internal_node_id": "0.0-3.0-1.236"
	},
	{
		"rt": 2619,
		"stimulus": "../audio/01-3-masc.mp3",
		"response": " ",
		"word": "derrubou",
		"trial_type": "audio-keyboard-response",
		"trial_index": 294,
		"time_elapsed": 585748,
		"internal_node_id": "0.0-3.0-1.237"
	},
	{
		"rt": 859,
		"stimulus": "../audio/01-4-masc.mp3",
		"response": " ",
		"word": "a",
		"trial_type": "audio-keyboard-response",
		"trial_index": 295,
		"time_elapsed": 586884,
		"internal_node_id": "0.0-3.0-1.238"
	},
	{
		"rt": 1131,
		"stimulus": "../audio/01-5-masc.mp3",
		"response": " ",
		"word": "guitarra",
		"trial_type": "audio-keyboard-response",
		"trial_index": 296,
		"time_elapsed": 588292,
		"internal_node_id": "0.0-3.0-1.239"
	},
	{
		"rt": 651,
		"stimulus": "../audio/01-6-masc.mp3",
		"response": " ",
		"word": "no",
		"trial_type": "audio-keyboard-response",
		"trial_index": 297,
		"time_elapsed": 589220,
		"internal_node_id": "0.0-3.0-1.240"
	},
	{
		"rt": 861,
		"stimulus": "../audio/01-7-masc.mp3",
		"response": " ",
		"word": "chão.",
		"trial_type": "audio-keyboard-response",
		"trial_index": 298,
		"time_elapsed": 590340,
		"internal_node_id": "0.0-3.0-1.241"
	},
	{
		"rt": null,
		"stimulus": "<span style= \"font-size:30px; font-family: monospace\">+</span>",
		"response": null,
		"trial_part": "fixation",
		"trial_type": "html-keyboard-response",
		"trial_index": 299,
		"time_elapsed": 591595,
		"internal_node_id": "0.0-3.0-0.242-0.242"
	},
	{
		"rt": 1021,
		"stimulus": "../audio/02-2-masc.mp3",
		"response": " ",
		"word": "Havia",
		"trial_type": "audio-keyboard-response",
		"trial_index": 300,
		"time_elapsed": 592900,
		"internal_node_id": "0.0-3.0-1.242"
	},
	{
		"rt": 1491,
		"stimulus": "../audio/02-2-masc.mp3",
		"response": " ",
		"word": "um",
		"trial_type": "audio-keyboard-response",
		"trial_index": 301,
		"time_elapsed": 594644,
		"internal_node_id": "0.0-3.0-1.243"
	},
	{
		"rt": 1181,
		"stimulus": "../audio/02-3-masc.mp3",
		"response": " ",
		"word": "cheiro",
		"trial_type": "audio-keyboard-response",
		"trial_index": 302,
		"time_elapsed": 596100,
		"internal_node_id": "0.0-3.0-1.244"
	},
	{
		"rt": 1011,
		"stimulus": "../audio/02-4-masc.mp3",
		"response": " ",
		"word": "de",
		"trial_type": "audio-keyboard-response",
		"trial_index": 303,
		"time_elapsed": 597380,
		"internal_node_id": "0.0-3.0-1.245"
	},
	{
		"rt": 1059,
		"stimulus": "../audio/02-5-masc.mp3",
		"response": " ",
		"word": "gasolina",
		"trial_type": "audio-keyboard-response",
		"trial_index": 304,
		"time_elapsed": 598708,
		"internal_node_id": "0.0-3.0-1.246"
	},
	{
		"rt": 829,
		"stimulus": "../audio/02-6-masc.mp3",
		"response": " ",
		"word": "na",
		"trial_type": "audio-keyboard-response",
		"trial_index": 305,
		"time_elapsed": 599812,
		"internal_node_id": "0.0-3.0-1.247"
	},
	{
		"rt": 949,
		"stimulus": "../audio/02-7-masc.mp3",
		"response": " ",
		"word": "garagem.",
		"trial_type": "audio-keyboard-response",
		"trial_index": 306,
		"time_elapsed": 601044,
		"internal_node_id": "0.0-3.0-1.248"
	},
	{
		"rt": null,
		"stimulus": "<span style= \"font-size:30px; font-family: monospace\">+</span>",
		"response": null,
		"trial_part": "fixation",
		"trial_type": "html-keyboard-response",
		"trial_index": 307,
		"time_elapsed": 602308,
		"internal_node_id": "0.0-3.0-0.249-0.249"
	},
	{
		"rt": 349,
		"stimulus": "../audio/03-1-masc.mp3",
		"response": " ",
		"word": "O",
		"trial_type": "audio-keyboard-response",
		"trial_index": 308,
		"time_elapsed": 602932,
		"internal_node_id": "0.0-3.0-1.249"
	},
	{
		"rt": 1800,
		"stimulus": "../audio/03-2-masc.mp3",
		"response": " ",
		"word": "coelho",
		"trial_type": "audio-keyboard-response",
		"trial_index": 309,
		"time_elapsed": 605012,
		"internal_node_id": "0.0-3.0-1.250"
	},
	{
		"rt": 829,
		"stimulus": "../audio/03-3-masc.mp3",
		"response": " ",
		"word": "foi",
		"trial_type": "audio-keyboard-response",
		"trial_index": 310,
		"time_elapsed": 606116,
		"internal_node_id": "0.0-3.0-1.251"
	},
	{
		"rt": 1120,
		"stimulus": "../audio/03-4-masc.mp3",
		"response": " ",
		"word": "bastante",
		"trial_type": "audio-keyboard-response",
		"trial_index": 311,
		"time_elapsed": 607524,
		"internal_node_id": "0.0-3.0-1.252"
	},
	{
		"rt": 1069,
		"stimulus": "../audio/03-5-masc.mp3",
		"response": " ",
		"word": "dócil",
		"trial_type": "audio-keyboard-response",
		"trial_index": 312,
		"time_elapsed": 608868,
		"internal_node_id": "0.0-3.0-1.253"
	},
	{
		"rt": 848,
		"stimulus": "../audio/03-6-masc.mp3",
		"response": " ",
		"word": "com",
		"trial_type": "audio-keyboard-response",
		"trial_index": 313,
		"time_elapsed": 609988,
		"internal_node_id": "0.0-3.0-1.254"
	},
	{
		"rt": 811,
		"stimulus": "../audio/03-7-masc.mp3",
		"response": " ",
		"word": "as",
		"trial_type": "audio-keyboard-response",
		"trial_index": 314,
		"time_elapsed": 611076,
		"internal_node_id": "0.0-3.0-1.255"
	},
	{
		"rt": 1040,
		"stimulus": "../audio/03-8-masc.mp3",
		"response": " ",
		"word": "crianças.",
		"trial_type": "audio-keyboard-response",
		"trial_index": 315,
		"time_elapsed": 612388,
		"internal_node_id": "0.0-3.0-1.256"
	},
	{
		"rt": null,
		"stimulus": "<span style= \"font-size:30px; font-family: monospace\">+</span>",
		"response": null,
		"trial_part": "fixation",
		"trial_type": "html-keyboard-response",
		"trial_index": 316,
		"time_elapsed": 613659,
		"internal_node_id": "0.0-3.0-0.257-0.257"
	},
	{
		"rt": 1669,
		"stimulus": "../audio/04-1-masc.mp3",
		"response": " ",
		"word": "Duzentos",
		"trial_type": "audio-keyboard-response",
		"trial_index": 317,
		"time_elapsed": 615604,
		"internal_node_id": "0.0-3.0-1.257"
	},
	{
		"rt": 1000,
		"stimulus": "../audio/04-2-masc.mp3",
		"response": " ",
		"word": "carros",
		"trial_type": "audio-keyboard-response",
		"trial_index": 318,
		"time_elapsed": 616884,
		"internal_node_id": "0.0-3.0-1.258"
	},
	{
		"rt": 1051,
		"stimulus": "../audio/04-3-masc.mp3",
		"response": " ",
		"word": "passaram",
		"trial_type": "audio-keyboard-response",
		"trial_index": 319,
		"time_elapsed": 618212,
		"internal_node_id": "0.0-3.0-1.259"
	},
	{
		"rt": 1080,
		"stimulus": "../audio/04-4-masc.mp3",
		"response": " ",
		"word": "pela",
		"trial_type": "audio-keyboard-response",
		"trial_index": 320,
		"time_elapsed": 619556,
		"internal_node_id": "0.0-3.0-1.260"
	},
	{
		"rt": 1091,
		"stimulus": "../audio/04-5-masc.mp3",
		"response": " ",
		"word": "ponte",
		"trial_type": "audio-keyboard-response",
		"trial_index": 321,
		"time_elapsed": 620915,
		"internal_node_id": "0.0-3.0-1.261"
	},
	{
		"rt": 960,
		"stimulus": "../audio/04-6-masc.mp3",
		"response": " ",
		"word": "hoje",
		"trial_type": "audio-keyboard-response",
		"trial_index": 322,
		"time_elapsed": 622147,
		"internal_node_id": "0.0-3.0-1.262"
	},
	{
		"rt": 691,
		"stimulus": "../audio/04-7-masc.mp3",
		"response": " ",
		"word": "de",
		"trial_type": "audio-keyboard-response",
		"trial_index": 323,
		"time_elapsed": 623123,
		"internal_node_id": "0.0-3.0-1.263"
	},
	{
		"rt": 1040,
		"stimulus": "../audio/04-8-masc.mp3",
		"response": " ",
		"word": "tarde.",
		"trial_type": "audio-keyboard-response",
		"trial_index": 324,
		"time_elapsed": 624435,
		"internal_node_id": "0.0-3.0-1.264"
	},
	{
		"rt": null,
		"stimulus": "<span style= \"font-size:30px; font-family: monospace\">+</span>",
		"response": null,
		"trial_part": "fixation",
		"trial_type": "html-keyboard-response",
		"trial_index": 325,
		"time_elapsed": 625693,
		"internal_node_id": "0.0-3.0-0.265-0.265"
	},
	{
		"rt": 739,
		"stimulus": "../audio/05-1-masc.mp3",
		"response": " ",
		"word": "A",
		"trial_type": "audio-keyboard-response",
		"trial_index": 326,
		"time_elapsed": 626707,
		"internal_node_id": "0.0-3.0-1.265"
	},
	{
		"rt": 2152,
		"stimulus": "../audio/05-2-masc.mp3",
		"response": " ",
		"word": "vendedora",
		"trial_type": "audio-keyboard-response",
		"trial_index": 327,
		"time_elapsed": 629139,
		"internal_node_id": "0.0-3.0-1.266"
	},
	{
		"rt": 1059,
		"stimulus": "../audio/05-3-masc.mp3",
		"response": " ",
		"word": "ajudou",
		"trial_type": "audio-keyboard-response",
		"trial_index": 328,
		"time_elapsed": 630483,
		"internal_node_id": "0.0-3.0-1.267"
	},
	{
		"rt": 771,
		"stimulus": "../audio/05-4-masc.mp3",
		"response": " ",
		"word": "um",
		"trial_type": "audio-keyboard-response",
		"trial_index": 329,
		"time_elapsed": 631539,
		"internal_node_id": "0.0-3.0-1.268"
	},
	{
		"rt": 1200,
		"stimulus": "../audio/05-5-masc.mp3",
		"response": " ",
		"word": "turista",
		"trial_type": "audio-keyboard-response",
		"trial_index": 330,
		"time_elapsed": 633011,
		"internal_node_id": "0.0-3.0-1.269"
	},
	{
		"rt": 909,
		"stimulus": "../audio/05-6-masc.mp3",
		"response": " ",
		"word": "na",
		"trial_type": "audio-keyboard-response",
		"trial_index": 331,
		"time_elapsed": 634195,
		"internal_node_id": "0.0-3.0-1.270"
	},
	{
		"rt": 1120,
		"stimulus": "../audio/05-7-masc.mp3",
		"response": " ",
		"word": "loja.",
		"trial_type": "audio-keyboard-response",
		"trial_index": 332,
		"time_elapsed": 635587,
		"internal_node_id": "0.0-3.0-1.271"
	},
	{
		"rt": 9568,
		"stimulus": "<span style=\"font-size:25px; font-family: monospace\">A vendedora ajudou um turista?</span>",
		"response": "s",
		"question": "A vendedora ajudou um turista?",
		"answer": "null",
		"trial": "exp-sent",
		"trial_type": "html-keyboard-response",
		"trial_index": 333,
		"time_elapsed": 645411,
		"internal_node_id": "0.0-3.0-2.271-0.271",
		"accuracy": false
	},
	{
		"rt": null,
		"stimulus": "<span style= \"font-size:30px; font-family: monospace\">+</span>",
		"response": null,
		"trial_part": "fixation",
		"trial_type": "html-keyboard-response",
		"trial_index": 334,
		"time_elapsed": 646925,
		"internal_node_id": "0.0-3.0-0.272-0.272"
	},
	{
		"rt": 709,
		"stimulus": "../audio/22-1-fem.mp3",
		"response": " ",
		"word": "Eu",
		"trial_type": "audio-keyboard-response",
		"trial_index": 335,
		"time_elapsed": 647923,
		"internal_node_id": "0.0-3.0-1.272"
	},
	{
		"rt": 1291,
		"stimulus": "../audio/22-2-fem.mp3",
		"response": " ",
		"word": "detesto",
		"trial_type": "audio-keyboard-response",
		"trial_index": 336,
		"time_elapsed": 649491,
		"internal_node_id": "0.0-3.0-1.273"
	},
	{
		"rt": 1051,
		"stimulus": "../audio/22-3-fem.mp3",
		"response": " ",
		"word": "fumaça",
		"trial_type": "audio-keyboard-response",
		"trial_index": 337,
		"time_elapsed": 650819,
		"internal_node_id": "0.0-3.0-1.274"
	},
	{
		"rt": 800,
		"stimulus": "../audio/22-4-fem.mp3",
		"response": " ",
		"word": "de",
		"trial_type": "audio-keyboard-response",
		"trial_index": 338,
		"time_elapsed": 651891,
		"internal_node_id": "0.0-3.0-1.275"
	},
	{
		"rt": 1320,
		"stimulus": "../audio/22-5-fem.mp3",
		"response": " ",
		"word": "cachimbo",
		"trial_type": "audio-keyboard-response",
		"trial_index": 339,
		"time_elapsed": 653491,
		"internal_node_id": "0.0-3.0-1.276"
	},
	{
		"rt": 1000,
		"stimulus": "../audio/22-6-fem.mp3",
		"response": " ",
		"word": "e",
		"trial_type": "audio-keyboard-response",
		"trial_index": 340,
		"time_elapsed": 654771,
		"internal_node_id": "0.0-3.0-1.277"
	},
	{
		"rt": 821,
		"stimulus": "../audio/22-7-fem.mp3",
		"response": " ",
		"word": "de",
		"trial_type": "audio-keyboard-response",
		"trial_index": 341,
		"time_elapsed": 655859,
		"internal_node_id": "0.0-3.0-1.278"
	},
	{
		"rt": 1480,
		"stimulus": "../audio/22-8-fem.mp3",
		"response": " ",
		"word": "cigarro.",
		"trial_type": "audio-keyboard-response",
		"trial_index": 342,
		"time_elapsed": 657619,
		"internal_node_id": "0.0-3.0-1.279"
	},
	{
		"rt": null,
		"stimulus": "<span style= \"font-size:30px; font-family: monospace\">+</span>",
		"response": null,
		"trial_part": "fixation",
		"trial_type": "html-keyboard-response",
		"trial_index": 343,
		"time_elapsed": 658881,
		"internal_node_id": "0.0-3.0-0.280-0.280"
	},
	{
		"rt": 731,
		"stimulus": "../audio/24-1-fem.mp3",
		"response": " ",
		"word": "As",
		"trial_type": "audio-keyboard-response",
		"trial_index": 344,
		"time_elapsed": 659891,
		"internal_node_id": "0.0-3.0-1.280"
	},
	{
		"rt": 1069,
		"stimulus": "../audio/24-2-fem.mp3",
		"response": " ",
		"word": "crianças",
		"trial_type": "audio-keyboard-response",
		"trial_index": 345,
		"time_elapsed": 661251,
		"internal_node_id": "0.0-3.0-1.281"
	},
	{
		"rt": 779,
		"stimulus": "../audio/24-3-fem.mp3",
		"response": " ",
		"word": "vão",
		"trial_type": "audio-keyboard-response",
		"trial_index": 346,
		"time_elapsed": 662307,
		"internal_node_id": "0.0-3.0-1.282"
	},
	{
		"rt": 1139,
		"stimulus": "../audio/24-4-fem.mp3",
		"response": " ",
		"word": "ao",
		"trial_type": "audio-keyboard-response",
		"trial_index": 347,
		"time_elapsed": 663715,
		"internal_node_id": "0.0-3.0-1.283"
	},
	{
		"rt": 1349,
		"stimulus": "../audio/24-5-fem.mp3",
		"response": " ",
		"word": "cinema",
		"trial_type": "audio-keyboard-response",
		"trial_index": 348,
		"time_elapsed": 665331,
		"internal_node_id": "0.0-3.0-1.284"
	},
	{
		"rt": 981,
		"stimulus": "../audio/24-6-fem.mp3",
		"response": " ",
		"word": "mais",
		"trial_type": "audio-keyboard-response",
		"trial_index": 349,
		"time_elapsed": 666579,
		"internal_node_id": "0.0-3.0-1.285"
	},
	{
		"rt": 1280,
		"stimulus": "../audio/24-7-fem.mp3",
		"response": " ",
		"word": "tarde.",
		"trial_type": "audio-keyboard-response",
		"trial_index": 350,
		"time_elapsed": 668131,
		"internal_node_id": "0.0-3.0-1.286"
	},
	{
		"rt": null,
		"stimulus": "<span style= \"font-size:30px; font-family: monospace\">+</span>",
		"response": null,
		"trial_part": "fixation",
		"trial_type": "html-keyboard-response",
		"trial_index": 351,
		"time_elapsed": 669396,
		"internal_node_id": "0.0-3.0-0.287-0.287"
	},
	{
		"rt": 1760,
		"stimulus": "../audio/21-1-masc.mp3",
		"response": " ",
		"word": "Precisamos",
		"trial_type": "audio-keyboard-response",
		"trial_index": 352,
		"time_elapsed": 671427,
		"internal_node_id": "0.0-3.0-1.287"
	},
	{
		"rt": 779,
		"stimulus": "../audio/21-2-masc.mp3",
		"response": " ",
		"word": "de",
		"trial_type": "audio-keyboard-response",
		"trial_index": 353,
		"time_elapsed": 672483,
		"internal_node_id": "0.0-3.0-1.288"
	},
	{
		"rt": 1131,
		"stimulus": "../audio/21-3-masc.mp3",
		"response": " ",
		"word": "paciência",
		"trial_type": "audio-keyboard-response",
		"trial_index": 354,
		"time_elapsed": 673891,
		"internal_node_id": "0.0-3.0-1.289"
	},
	{
		"rt": 851,
		"stimulus": "../audio/21-4-masc.mp3",
		"response": " ",
		"word": "e",
		"trial_type": "audio-keyboard-response",
		"trial_index": 355,
		"time_elapsed": 675011,
		"internal_node_id": "0.0-3.0-1.290"
	},
	{
		"rt": 1291,
		"stimulus": "../audio/21-5-masc.mp3",
		"response": " ",
		"word": "bondade",
		"trial_type": "audio-keyboard-response",
		"trial_index": 356,
		"time_elapsed": 676579,
		"internal_node_id": "0.0-3.0-1.291"
	},
	{
		"rt": 1040,
		"stimulus": "../audio/21-6-masc.mp3",
		"response": " ",
		"word": "para",
		"trial_type": "audio-keyboard-response",
		"trial_index": 357,
		"time_elapsed": 677891,
		"internal_node_id": "0.0-3.0-1.292"
	},
	{
		"rt": 760,
		"stimulus": "../audio/21-7-masc.mp3",
		"response": " ",
		"word": "um",
		"trial_type": "audio-keyboard-response",
		"trial_index": 358,
		"time_elapsed": 678931,
		"internal_node_id": "0.0-3.0-1.293"
	},
	{
		"rt": 1109,
		"stimulus": "../audio/21-8-masc.mp3",
		"response": " ",
		"word": "mundo",
		"trial_type": "audio-keyboard-response",
		"trial_index": 359,
		"time_elapsed": 680323,
		"internal_node_id": "0.0-3.0-1.294"
	},
	{
		"rt": 2621,
		"stimulus": "../audio/21-9-masc.mp3",
		"response": " ",
		"word": "melhor.",
		"trial_type": "audio-keyboard-response",
		"trial_index": 360,
		"time_elapsed": 683217,
		"internal_node_id": "0.0-3.0-1.295"
	},
	{
		"rt": null,
		"stimulus": "<span style= \"font-size:30px; font-family: monospace\">+</span>",
		"response": null,
		"trial_part": "fixation",
		"trial_type": "html-keyboard-response",
		"trial_index": 361,
		"time_elapsed": 684485,
		"internal_node_id": "0.0-3.0-0.296-0.296"
	},
	{
		"rt": 1371,
		"stimulus": "../audio/23-1-masc.mp3",
		"response": " ",
		"word": "Português",
		"trial_type": "audio-keyboard-response",
		"trial_index": 362,
		"time_elapsed": 686129,
		"internal_node_id": "0.0-3.0-1.296"
	},
	{
		"rt": 880,
		"stimulus": "../audio/23-2-masc.mp3",
		"response": " ",
		"word": "é",
		"trial_type": "audio-keyboard-response",
		"trial_index": 363,
		"time_elapsed": 687281,
		"internal_node_id": "0.0-3.0-1.297"
	},
	{
		"rt": 840,
		"stimulus": "../audio/23-3-masc.mp3",
		"response": " ",
		"word": "um",
		"trial_type": "audio-keyboard-response",
		"trial_index": 364,
		"time_elapsed": 688385,
		"internal_node_id": "0.0-3.0-1.298"
	},
	{
		"rt": 1219,
		"stimulus": "../audio/23-4-masc.mp3",
		"response": " ",
		"word": "assunto",
		"trial_type": "audio-keyboard-response",
		"trial_index": 365,
		"time_elapsed": 689873,
		"internal_node_id": "0.0-3.0-1.299"
	},
	{
		"rt": 1811,
		"stimulus": "../audio/23-5-masc.mp3",
		"response": " ",
		"word": "elementar",
		"trial_type": "audio-keyboard-response",
		"trial_index": 366,
		"time_elapsed": 691969,
		"internal_node_id": "0.0-3.0-1.300"
	},
	{
		"rt": 939,
		"stimulus": "../audio/23-6-masc.mp3",
		"response": " ",
		"word": "para",
		"trial_type": "audio-keyboard-response",
		"trial_index": 367,
		"time_elapsed": 693185,
		"internal_node_id": "0.0-3.0-1.301"
	},
	{
		"rt": 1019,
		"stimulus": "../audio/23-7-masc.mp3",
		"response": " ",
		"word": "os",
		"trial_type": "audio-keyboard-response",
		"trial_index": 368,
		"time_elapsed": 694481,
		"internal_node_id": "0.0-3.0-1.302"
	},
	{
		"rt": 1160,
		"stimulus": "../audio/23-8-masc.mp3",
		"response": " ",
		"word": "alunos.",
		"trial_type": "audio-keyboard-response",
		"trial_index": 369,
		"time_elapsed": 695905,
		"internal_node_id": "0.0-3.0-1.303"
	},
	{
		"rt": null,
		"stimulus": "<span style= \"font-size:30px; font-family: monospace\">+</span>",
		"response": null,
		"trial_part": "fixation",
		"trial_type": "html-keyboard-response",
		"trial_index": 370,
		"time_elapsed": 697161,
		"internal_node_id": "0.0-3.0-0.304-0.304"
	},
	{
		"rt": 851,
		"stimulus": "../audio/25-1-masc.mp3",
		"response": " ",
		"word": "Ela",
		"trial_type": "audio-keyboard-response",
		"trial_index": 371,
		"time_elapsed": 698289,
		"internal_node_id": "0.0-3.0-1.304"
	},
	{
		"rt": 1280,
		"stimulus": "../audio/25-2-masc.mp3",
		"response": " ",
		"word": "faz",
		"trial_type": "audio-keyboard-response",
		"trial_index": 372,
		"time_elapsed": 699841,
		"internal_node_id": "0.0-3.0-1.305"
	},
	{
		"rt": 952,
		"stimulus": "../audio/25-3-masc.mp3",
		"response": " ",
		"word": "tanto",
		"trial_type": "audio-keyboard-response",
		"trial_index": 373,
		"time_elapsed": 701057,
		"internal_node_id": "0.0-3.0-1.306"
	},
	{
		"rt": 1299,
		"stimulus": "../audio/25-4-masc.mp3",
		"response": " ",
		"word": "cabelo",
		"trial_type": "audio-keyboard-response",
		"trial_index": 374,
		"time_elapsed": 702625,
		"internal_node_id": "0.0-3.0-1.307"
	},
	{
		"rt": 1059,
		"stimulus": "../audio/25-5-masc.mp3",
		"response": " ",
		"word": "liso",
		"trial_type": "audio-keyboard-response",
		"trial_index": 375,
		"time_elapsed": 703953,
		"internal_node_id": "0.0-3.0-1.308"
	},
	{
		"rt": 1059,
		"stimulus": "../audio/25-6-masc.mp3",
		"response": " ",
		"word": "quanto",
		"trial_type": "audio-keyboard-response",
		"trial_index": 376,
		"time_elapsed": 705281,
		"internal_node_id": "0.0-3.0-1.309"
	},
	{
		"rt": 1211,
		"stimulus": "../audio/25-7-masc.mp3",
		"response": " ",
		"word": "cacheado.",
		"trial_type": "audio-keyboard-response",
		"trial_index": 377,
		"time_elapsed": 706755,
		"internal_node_id": "0.0-3.0-1.310"
	},
	{
		"rt": 14296,
		"stimulus": "<span style=\"font-size:25px; font-family: monospace\">Ela só faz cabelo cacheado?</span>",
		"response": "s",
		"question": "Ela só faz cabelo cacheado?",
		"answer": "null",
		"trial": "exp-sent",
		"trial_type": "html-keyboard-response",
		"trial_index": 378,
		"time_elapsed": 721313,
		"internal_node_id": "0.0-3.0-2.310-0.310",
		"accuracy": false
	},
	{
		"rt": null,
		"stimulus": "<span style= \"font-size:30px; font-family: monospace\">+</span>",
		"response": null,
		"trial_part": "fixation",
		"trial_type": "html-keyboard-response",
		"trial_index": 379,
		"time_elapsed": 722825,
		"internal_node_id": "0.0-3.0-0.311-0.311"
	},
	{
		"rt": 771,
		"stimulus": "../audio/18-1-masc.mp3",
		"response": " ",
		"word": "O",
		"trial_type": "audio-keyboard-response",
		"trial_index": 380,
		"time_elapsed": 723873,
		"internal_node_id": "0.0-3.0-1.311"
	},
	{
		"rt": 1280,
		"stimulus": "../audio/18-2-masc.mp3",
		"response": " ",
		"word": "enredo",
		"trial_type": "audio-keyboard-response",
		"trial_index": 381,
		"time_elapsed": 725425,
		"internal_node_id": "0.0-3.0-1.312"
	},
	{
		"rt": 928,
		"stimulus": "../audio/18-3-masc.mp3",
		"response": " ",
		"word": "traz",
		"trial_type": "audio-keyboard-response",
		"trial_index": 382,
		"time_elapsed": 726625,
		"internal_node_id": "0.0-3.0-1.313"
	},
	{
		"rt": 800,
		"stimulus": "../audio/18-4-masc.mp3",
		"response": " ",
		"word": "um",
		"trial_type": "audio-keyboard-response",
		"trial_index": 383,
		"time_elapsed": 727697,
		"internal_node_id": "0.0-3.0-1.314"
	},
	{
		"rt": 1069,
		"stimulus": "../audio/18-5-masc.mp3",
		"response": " ",
		"word": "dragão",
		"trial_type": "audio-keyboard-response",
		"trial_index": 384,
		"time_elapsed": 729041,
		"internal_node_id": "0.0-3.0-1.315"
	},
	{
		"rt": 760,
		"stimulus": "../audio/18-6-masc.mp3",
		"response": " ",
		"word": "forte",
		"trial_type": "audio-keyboard-response",
		"trial_index": 385,
		"time_elapsed": 730081,
		"internal_node_id": "0.0-3.0-1.316"
	},
	{
		"rt": 920,
		"stimulus": "../audio/18-7-masc.mp3",
		"response": " ",
		"word": "e",
		"trial_type": "audio-keyboard-response",
		"trial_index": 386,
		"time_elapsed": 731281,
		"internal_node_id": "0.0-3.0-1.317"
	},
	{
		"rt": 1200,
		"stimulus": "../audio/18-8-masc.mp3",
		"response": " ",
		"word": "solitário.",
		"trial_type": "audio-keyboard-response",
		"trial_index": 387,
		"time_elapsed": 732753,
		"internal_node_id": "0.0-3.0-1.318"
	},
	{
		"rt": null,
		"stimulus": "<span style= \"font-size:30px; font-family: monospace\">+</span>",
		"response": null,
		"trial_part": "fixation",
		"trial_type": "html-keyboard-response",
		"trial_index": 388,
		"time_elapsed": 734021,
		"internal_node_id": "0.0-3.0-0.319-0.319"
	},
	{
		"rt": 640,
		"stimulus": "../audio/19-1-fem.mp3",
		"response": " ",
		"word": "O",
		"trial_type": "audio-keyboard-response",
		"trial_index": 389,
		"time_elapsed": 734929,
		"internal_node_id": "0.0-3.0-1.319"
	},
	{
		"rt": 939,
		"stimulus": "../audio/19-2-fem.mp3",
		"response": " ",
		"word": "menino",
		"trial_type": "audio-keyboard-response",
		"trial_index": 390,
		"time_elapsed": 736145,
		"internal_node_id": "0.0-3.0-1.320"
	},
	{
		"rt": 1131,
		"stimulus": "../audio/19-3-fem.mp3",
		"response": " ",
		"word": "ganhou",
		"trial_type": "audio-keyboard-response",
		"trial_index": 391,
		"time_elapsed": 737553,
		"internal_node_id": "0.0-3.0-1.321"
	},
	{
		"rt": 851,
		"stimulus": "../audio/19-4-fem.mp3",
		"response": " ",
		"word": "uma",
		"trial_type": "audio-keyboard-response",
		"trial_index": 392,
		"time_elapsed": 738673,
		"internal_node_id": "0.0-3.0-1.322"
	},
	{
		"rt": 912,
		"stimulus": "../audio/19-5-fem.mp3",
		"response": " ",
		"word": "bala",
		"trial_type": "audio-keyboard-response",
		"trial_index": 393,
		"time_elapsed": 739857,
		"internal_node_id": "0.0-3.0-1.323"
	},
	{
		"rt": 1179,
		"stimulus": "../audio/19-6-fem.mp3",
		"response": " ",
		"word": "depois",
		"trial_type": "audio-keyboard-response",
		"trial_index": 394,
		"time_elapsed": 741313,
		"internal_node_id": "0.0-3.0-1.324"
	},
	{
		"rt": 891,
		"stimulus": "../audio/19-7-fem.mp3",
		"response": " ",
		"word": "do",
		"trial_type": "audio-keyboard-response",
		"trial_index": 395,
		"time_elapsed": 742481,
		"internal_node_id": "0.0-3.0-1.325"
	},
	{
		"rt": 1272,
		"stimulus": "../audio/19-8-fem.mp3",
		"response": " ",
		"word": "almoço.",
		"trial_type": "audio-keyboard-response",
		"trial_index": 396,
		"time_elapsed": 744016,
		"internal_node_id": "0.0-3.0-1.326"
	},
	{
		"rt": null,
		"stimulus": "<span style= \"font-size:30px; font-family: monospace\">+</span>",
		"response": null,
		"trial_part": "fixation",
		"trial_type": "html-keyboard-response",
		"trial_index": 397,
		"time_elapsed": 745280,
		"internal_node_id": "0.0-3.0-0.327-0.327"
	},
	{
		"rt": 880,
		"stimulus": "../audio/16-1-masc.mp3",
		"response": " ",
		"word": "Eu",
		"trial_type": "audio-keyboard-response",
		"trial_index": 398,
		"time_elapsed": 746432,
		"internal_node_id": "0.0-3.0-1.327"
	},
	{
		"rt": 949,
		"stimulus": "../audio/16-2-masc.mp3",
		"response": " ",
		"word": "nunca",
		"trial_type": "audio-keyboard-response",
		"trial_index": 399,
		"time_elapsed": 747648,
		"internal_node_id": "0.0-3.0-1.328"
	},
	{
		"rt": 1099,
		"stimulus": "../audio/16-3-masc.mp3",
		"response": " ",
		"word": "conheci",
		"trial_type": "audio-keyboard-response",
		"trial_index": 400,
		"time_elapsed": 749024,
		"internal_node_id": "0.0-3.0-1.329"
	},
	{
		"rt": 779,
		"stimulus": "../audio/16-4-masc.mp3",
		"response": " ",
		"word": "um",
		"trial_type": "audio-keyboard-response",
		"trial_index": 401,
		"time_elapsed": 750080,
		"internal_node_id": "0.0-3.0-1.330"
	},
	{
		"rt": 1192,
		"stimulus": "../audio/16-5-masc.mp3",
		"response": " ",
		"word": "general",
		"trial_type": "audio-keyboard-response",
		"trial_index": 402,
		"time_elapsed": 751536,
		"internal_node_id": "0.0-3.0-1.331"
	},
	{
		"rt": 939,
		"stimulus": "../audio/16-6-masc.mp3",
		"response": " ",
		"word": "do",
		"trial_type": "audio-keyboard-response",
		"trial_index": 403,
		"time_elapsed": 752752,
		"internal_node_id": "0.0-3.0-1.332"
	},
	{
		"rt": 1379,
		"stimulus": "../audio/16-7-masc.mp3",
		"response": " ",
		"word": "exército.",
		"trial_type": "audio-keyboard-response",
		"trial_index": 404,
		"time_elapsed": 754400,
		"internal_node_id": "0.0-3.0-1.333"
	},
	{
		"rt": null,
		"stimulus": "<span style= \"font-size:30px; font-family: monospace\">+</span>",
		"response": null,
		"trial_part": "fixation",
		"trial_type": "html-keyboard-response",
		"trial_index": 405,
		"time_elapsed": 755660,
		"internal_node_id": "0.0-3.0-0.334-0.334"
	},
	{
		"rt": 1309,
		"stimulus": "../audio/17-1-fem.mp3",
		"response": " ",
		"word": "Falaram",
		"trial_type": "audio-keyboard-response",
		"trial_index": 406,
		"time_elapsed": 757248,
		"internal_node_id": "0.0-3.0-1.334"
	},
	{
		"rt": 1021,
		"stimulus": "../audio/17-2-fem.mp3",
		"response": " ",
		"word": "da",
		"trial_type": "audio-keyboard-response",
		"trial_index": 407,
		"time_elapsed": 758528,
		"internal_node_id": "0.0-3.0-1.335"
	},
	{
		"rt": 1000,
		"stimulus": "../audio/17-3-fem.mp3",
		"response": " ",
		"word": "lei",
		"trial_type": "audio-keyboard-response",
		"trial_index": 408,
		"time_elapsed": 759808,
		"internal_node_id": "0.0-3.0-1.336"
	},
	{
		"rt": 920,
		"stimulus": "../audio/17-4-fem.mp3",
		"response": " ",
		"word": "no",
		"trial_type": "audio-keyboard-response",
		"trial_index": 409,
		"time_elapsed": 761008,
		"internal_node_id": "0.0-3.0-1.337"
	},
	{
		"rt": 1451,
		"stimulus": "../audio/17-5-fem.mp3",
		"response": " ",
		"word": "ministério",
		"trial_type": "audio-keyboard-response",
		"trial_index": 410,
		"time_elapsed": 762736,
		"internal_node_id": "0.0-3.0-1.338"
	},
	{
		"rt": 1120,
		"stimulus": "../audio/17-6-fem.mp3",
		"response": " ",
		"word": "diversas",
		"trial_type": "audio-keyboard-response",
		"trial_index": 411,
		"time_elapsed": 764128,
		"internal_node_id": "0.0-3.0-1.339"
	},
	{
		"rt": 1080,
		"stimulus": "../audio/17-7-fem.mp3",
		"response": " ",
		"word": "vezes.",
		"trial_type": "audio-keyboard-response",
		"trial_index": 412,
		"time_elapsed": 765488,
		"internal_node_id": "0.0-3.0-1.340"
	},
	{
		"rt": null,
		"stimulus": "<span style= \"font-size:30px; font-family: monospace\">+</span>",
		"response": null,
		"trial_part": "fixation",
		"trial_type": "html-keyboard-response",
		"trial_index": 413,
		"time_elapsed": 766755,
		"internal_node_id": "0.0-3.0-0.341-0.341"
	},
	{
		"rt": 1171,
		"stimulus": "../audio/20-1-fem.mp3",
		"response": " ",
		"word": "O",
		"trial_type": "audio-keyboard-response",
		"trial_index": 414,
		"time_elapsed": 768192,
		"internal_node_id": "0.0-3.0-1.341"
	},
	{
		"rt": 1101,
		"stimulus": "../audio/20-2-fem.mp3",
		"response": " ",
		"word": "colega",
		"trial_type": "audio-keyboard-response",
		"trial_index": 415,
		"time_elapsed": 769568,
		"internal_node_id": "0.0-3.0-1.342"
	},
	{
		"rt": 1349,
		"stimulus": "../audio/20-3-fem.mp3",
		"response": " ",
		"word": "parecia",
		"trial_type": "audio-keyboard-response",
		"trial_index": 416,
		"time_elapsed": 771200,
		"internal_node_id": "0.0-3.0-1.343"
	},
	{
		"rt": 1229,
		"stimulus": "../audio/20-4-fem.mp3",
		"response": " ",
		"word": "muito",
		"trial_type": "audio-keyboard-response",
		"trial_index": 417,
		"time_elapsed": 772704,
		"internal_node_id": "0.0-3.0-1.344"
	},
	{
		"rt": 1320,
		"stimulus": "../audio/20-5-fem.mp3",
		"response": " ",
		"word": "gripado",
		"trial_type": "audio-keyboard-response",
		"trial_index": 418,
		"time_elapsed": 774304,
		"internal_node_id": "0.0-3.0-1.345"
	},
	{
		"rt": 960,
		"stimulus": "../audio/20-6-fem.mp3",
		"response": " ",
		"word": "no",
		"trial_type": "audio-keyboard-response",
		"trial_index": 419,
		"time_elapsed": 775536,
		"internal_node_id": "0.0-3.0-1.346"
	},
	{
		"rt": 1091,
		"stimulus": "../audio/20-7-fem.mp3",
		"response": " ",
		"word": "dia",
		"trial_type": "audio-keyboard-response",
		"trial_index": 420,
		"time_elapsed": 776896,
		"internal_node_id": "0.0-3.0-1.347"
	},
	{
		"rt": 1869,
		"stimulus": "../audio/20-8-fem.mp3",
		"response": " ",
		"word": "anterior.",
		"trial_type": "audio-keyboard-response",
		"trial_index": 421,
		"time_elapsed": 779040,
		"internal_node_id": "0.0-3.0-1.348"
	},
	{
		"rt": 11633,
		"stimulus": "<span style=\"font-size:25px; font-family: monospace\">O colega parecia muito gripado?</span>",
		"response": "s",
		"question": "O colega parecia muito gripado?",
		"answer": "null",
		"trial": "exp-sent",
