"view_history","rt","trial_type","trial_index","time_elapsed","internal_node_id","stimulus","response","trial_part","word","question","answer","trial","accuracy"
"[{""page_index"":0,""viewing_time"":109885},{""page_index"":1,""viewing_time"":15657}]","125542","instructions","0","125545","0.0-0.0","","","","","","","",""
"","null","html-keyboard-response","1","126676","0.0-1.0-0.0-0.0","<span style= ""font-size:30px; font-family: monospace"">+</span>","null","fixation","","","","",""
"","3099","audio-keyboard-response","2","130894","0.0-1.0-1.0","../audio/prac-question-1-1.mp3"," ","","O","","","",""
"","1240","audio-keyboard-response","3","132558","0.0-1.0-1.1","../audio/prac-question-1-2.mp3"," ","","dia","","","",""
"","1240","audio-keyboard-response","4","134161","0.0-1.0-1.2","../audio/prac-question-1-3.mp3"," ","","estará","","","",""
"","1080","audio-keyboard-response","5","135590","0.0-1.0-1.3","../audio/prac-question-1-4.mp3"," ","","cheio","","","",""
"","941","audio-keyboard-response","6","136872","0.0-1.0-1.4","../audio/prac-question-1-5.mp3"," ","","de","","","",""
"","1120","audio-keyboard-response","7","138344","0.0-1.0-1.5","../audio/prac-question-1-6.mp3"," ","","nuvens","","","",""
"","1429","audio-keyboard-response","8","140112","0.0-1.0-1.6","../audio/prac-question-1-7.mp3"," ","","hoje.","","","",""
"","null","html-keyboard-response","9","141379","0.0-1.0-0.7-0.7","<span style= ""font-size:30px; font-family: monospace"">+</span>","null","fixation","","","","",""
"","989","audio-keyboard-response","10","142756","0.0-1.0-1.7","../audio/prac-question-2-1.mp3"," ","","A","","","",""
"","829","audio-keyboard-response","11","143939","0.0-1.0-1.8","../audio/prac-question-2-2.mp3"," ","","caneca","","","",""
"","1120","audio-keyboard-response","12","145409","0.0-1.0-1.9","../audio/prac-question-2-3.mp3"," ","","colorida","","","",""
"","1120","audio-keyboard-response","13","146880","0.0-1.0-1.10","../audio/prac-question-2-4.mp3"," ","","caiu","","","",""
"","891","audio-keyboard-response","14","148115","0.0-1.0-1.11","../audio/prac-question-2-5.mp3"," ","","da","","","",""
"","1251","audio-keyboard-response","15","149715","0.0-1.0-1.12","../audio/prac-question-2-6.mp3"," ","","mesa","","","",""
"","819","audio-keyboard-response","16","150864","0.0-1.0-1.13","../audio/prac-question-2-7.mp3"," ","","de","","","",""
"","1200","audio-keyboard-response","17","152411","0.0-1.0-1.14","../audio/prac-question-2-8.mp3"," ","","jantar.","","","",""
"","2298","html-keyboard-response","18","154971","0.0-1.0-2.14-0.14","<span style=""font-size:25px; font-family: monospace"">A caneca era colorida?</span>","s","","","A caneca era colorida?","null","prac-sent","false"
"[{""page_index"":0,""viewing_time"":26722}]","26722","instructions","19","182196","0.0-2.0","","","","","","","",""
"","null","html-keyboard-response","20","183316","0.0-3.0-0.0-0.0","<span style= ""font-size:30px; font-family: monospace"">+</span>","null","fixation","","","","",""
"","1360","audio-keyboard-response","21","185078","0.0-3.0-1.0","../audio/51-1-fem.mp3"," ","","Suco","","","",""
"","960","audio-keyboard-response","22","186399","0.0-3.0-1.1","../audio/51-2-fem.mp3"," ","","de","","","",""
"","1520","audio-keyboard-response","23","188270","0.0-3.0-1.2","../audio/51-3-fem.mp3"," ","","acerola","","","",""
"","931","audio-keyboard-response","24","189522","0.0-3.0-1.3","../audio/51-4-fem.mp3"," ","","é","","","",""
"","1349","audio-keyboard-response","25","191234","0.0-3.0-1.4","../audio/51-5-fem.mp3"," ","","azedo","","","",""
"","1029","audio-keyboard-response","26","192590","0.0-3.0-1.5","../audio/51-6-fem.mp3"," ","","e","","","",""
"","1501","audio-keyboard-response","27","194430","0.0-3.0-1.6","../audio/51-7-fem.mp3"," ","","até","","","",""
"","1600","audio-keyboard-response","28","196380","0.0-3.0-1.7","../audio/51-8-fem.mp3"," ","","barato.","","","",""
"","null","html-keyboard-response","29","197652","0.0-3.0-0.8-0.8","<span style= ""font-size:30px; font-family: monospace"">+</span>","null","fixation","","","","",""
"","1411","audio-keyboard-response","30","199513","0.0-3.0-1.8","../audio/52-1-masc.mp3"," ","","Às","","","",""
"","1179","audio-keyboard-response","31","201055","0.0-3.0-1.9","../audio/52-2-masc.mp3"," ","","vezes","","","",""
"","1069","audio-keyboard-response","32","202457","0.0-3.0-1.10","../audio/52-3-masc.mp3"," ","","eu","","","",""
"","960","audio-keyboard-response","33","203760","0.0-3.0-1.11","../audio/52-4-masc.mp3"," ","","tenho","","","",""
"","1181","audio-keyboard-response","34","205271","0.0-3.0-1.12","../audio/52-5-masc.mp3"," ","","azia","","","",""
"","1141","audio-keyboard-response","35","206757","0.0-3.0-1.13","../audio/52-6-masc.mp3"," ","","depois","","","",""
"","912","audio-keyboard-response","36","208006","0.0-3.0-1.14","../audio/52-7-masc.mp3"," ","","da","","","",""
"","1280","audio-keyboard-response","37","209635","0.0-3.0-1.15","../audio/52-8-masc.mp3"," ","","janta.","","","",""
"","null","html-keyboard-response","38","210909","0.0-3.0-0.16-0.16","<span style= ""font-size:30px; font-family: monospace"">+</span>","null","fixation","","","","",""
"","931","audio-keyboard-response","39","212221","0.0-3.0-1.16","../audio/53-1-masc.mp3"," ","","O","","","",""
"","1368","audio-keyboard-response","40","213932","0.0-3.0-1.17","../audio/53-2-masc.mp3"," ","","médico","","","",""
"","779","audio-keyboard-response","41","215056","0.0-3.0-1.18","../audio/53-3-masc.mp3"," ","","foi","","","",""
"","989","audio-keyboard-response","42","216391","0.0-3.0-1.19","../audio/53-4-masc.mp3"," ","","bastante","","","",""
"","952","audio-keyboard-response","43","217682","0.0-3.0-1.20","../audio/53-5-masc.mp3"," ","","preciso","","","",""
"","920","audio-keyboard-response","44","218941","0.0-3.0-1.21","../audio/53-6-masc.mp3"," ","","durante","","","",""
"","720","audio-keyboard-response","45","220002","0.0-3.0-1.22","../audio/53-7-masc.mp3"," ","","a","","","",""
"","1051","audio-keyboard-response","46","221405","0.0-3.0-1.23","../audio/53-8-masc.mp3"," ","","cirurgia.","","","",""
"","null","html-keyboard-response","47","222663","0.0-3.0-0.24-0.24","<span style= ""font-size:30px; font-family: monospace"">+</span>","null","fixation","","","","",""
"","1571","audio-keyboard-response","48","224625","0.0-3.0-1.24","../audio/54-1-fem.mp3"," ","","Estou","","","",""
"","920","audio-keyboard-response","49","225880","0.0-3.0-1.25","../audio/54-2-fem.mp3"," ","","com","","","",""
"","901","audio-keyboard-response","50","227126","0.0-3.0-1.26","../audio/54-3-fem.mp3"," ","","medo","","","",""
"","909","audio-keyboard-response","51","228377","0.0-3.0-1.27","../audio/54-4-fem.mp3"," ","","da","","","",""
"","1208","audio-keyboard-response","52","229933","0.0-3.0-1.28","../audio/54-5-fem.mp3"," ","","atual","","","",""
"","1579","audio-keyboard-response","53","231866","0.0-3.0-1.29","../audio/54-6-fem.mp3"," ","","organização","","","",""
"","779","audio-keyboard-response","54","232989","0.0-3.0-1.30","../audio/54-7-fem.mp3"," ","","do","","","",""
"","1352","audio-keyboard-response","55","234680","0.0-3.0-1.31","../audio/54-8-fem.mp3"," ","","país.","","","",""
"","null","html-keyboard-response","56","235942","0.0-3.0-0.32-0.32","<span style= ""font-size:30px; font-family: monospace"">+</span>","null","fixation","","","","",""
"","952","audio-keyboard-response","57","237287","0.0-3.0-1.32","../audio/55-1-masc.mp3"," ","","O","","","",""
"","1251","audio-keyboard-response","58","238881","0.0-3.0-1.33","../audio/55-2-masc.mp3"," ","","insulto","","","",""
"","1360","audio-keyboard-response","59","240581","0.0-3.0-1.34","../audio/55-3-masc.mp3"," ","","recente","","","",""
"","1179","audio-keyboard-response","60","242104","0.0-3.0-1.35","../audio/55-4-masc.mp3"," ","","causou","","","",""
"","1600","audio-keyboard-response","61","244056","0.0-3.0-1.36","../audio/55-5-masc.mp3"," ","","indignação","","","",""
"","920","audio-keyboard-response","62","245315","0.0-3.0-1.37","../audio/55-6-masc.mp3"," ","","em","","","",""
"","1021","audio-keyboard-response","63","246672","0.0-3.0-1.38","../audio/55-7-masc.mp3"," ","","todos.","","","",""
"","2344","html-keyboard-response","64","249270","0.0-3.0-2.38-0.38","<span style=""font-size:25px; font-family: monospace"">O insulto causou calmaria?</span>","n","","","O insulto causou calmaria?","null","exp-sent","false"
"","null","html-keyboard-response","65","250779","0.0-3.0-0.39-0.39","<span style= ""font-size:30px; font-family: monospace"">+</span>","null","fixation","","","","",""
"","1109","audio-keyboard-response","66","252276","0.0-3.0-1.39","../audio/41-1-fem.mp3"," ","","A","","","",""
"","1411","audio-keyboard-response","67","254041","0.0-3.0-1.40","../audio/41-2-fem.mp3"," ","","novela","","","",""
"","1349","audio-keyboard-response","68","255756","0.0-3.0-1.41","../audio/41-3-fem.mp3"," ","","falava","","","",""
"","792","audio-keyboard-response","69","256883","0.0-3.0-1.42","../audio/41-4-fem.mp3"," ","","de","","","",""
"","1149","audio-keyboard-response","70","258373","0.0-3.0-1.43","../audio/41-5-fem.mp3"," ","","paixão","","","",""
"","731","audio-keyboard-response","71","259432","0.0-3.0-1.44","../audio/41-6-fem.mp3"," ","","e","","","",""
"","1131","audio-keyboard-response","72","260901","0.0-3.0-1.45","../audio/41-7-fem.mp3"," ","","comédia.","","","",""
"","null","html-keyboard-response","73","262171","0.0-3.0-0.46-0.46","<span style= ""font-size:30px; font-family: monospace"">+</span>","null","fixation","","","","",""
"","1109","audio-keyboard-response","74","263669","0.0-3.0-1.46","../audio/42-1-masc.mp3"," ","","Eu","","","",""
"","931","audio-keyboard-response","75","264956","0.0-3.0-1.47","../audio/42-2-masc.mp3"," ","","fui","","","",""
"","880","audio-keyboard-response","76","266172","0.0-3.0-1.48","../audio/42-3-masc.mp3"," ","","a","","","",""
"","960","audio-keyboard-response","77","267470","0.0-3.0-1.49","../audio/42-4-masc.mp3"," ","","uma","","","",""
"","912","audio-keyboard-response","78","268720","0.0-3.0-1.50","../audio/42-5-masc.mp3"," ","","loja","","","",""
"","672","audio-keyboard-response","79","269726","0.0-3.0-1.51","../audio/42-6-masc.mp3"," ","","de","","","",""
"","819","audio-keyboard-response","80","270892","0.0-3.0-1.52","../audio/42-7-masc.mp3"," ","","móveis","","","",""
"","811","audio-keyboard-response","81","272047","0.0-3.0-1.53","../audio/42-8-masc.mp3"," ","","no","","","",""
"","1109","audio-keyboard-response","82","273508","0.0-3.0-1.54","../audio/42-9-masc.mp3"," ","","bairro.","","","",""
"","null","html-keyboard-response","83","274774","0.0-3.0-0.55-0.55","<span style= ""font-size:30px; font-family: monospace"">+</span>","null","fixation","","","","",""
"","880","audio-keyboard-response","84","276063","0.0-3.0-1.55","../audio/43-1-masc.mp3"," ","","Eu","","","",""
"","1240","audio-keyboard-response","85","277657","0.0-3.0-1.56","../audio/43-2-masc.mp3"," ","","achei","","","",""
"","920","audio-keyboard-response","86","278911","0.0-3.0-1.57","../audio/43-3-masc.mp3"," ","","um","","","",""
"","1168","audio-keyboard-response","87","280410","0.0-3.0-1.58","../audio/43-4-masc.mp3"," ","","colchão","","","",""
"","1099","audio-keyboard-response","88","281852","0.0-3.0-1.59","../audio/43-5-masc.mp3"," ","","velho","","","",""
"","1000","audio-keyboard-response","89","283196","0.0-3.0-1.60","../audio/43-6-masc.mp3"," ","","e","","","",""
"","1331","audio-keyboard-response","90","284875","0.0-3.0-1.61","../audio/43-7-masc.mp3"," ","","imundo","","","",""
"","1149","audio-keyboard-response","91","286374","0.0-3.0-1.62","../audio/43-8-masc.mp3"," ","","na","","","",""
"","1149","audio-keyboard-response","92","287869","0.0-3.0-1.63","../audio/43-9-masc.mp3"," ","","casa.","","","",""
"","null","html-keyboard-response","93","289140","0.0-3.0-0.64-0.64","<span style= ""font-size:30px; font-family: monospace"">+</span>","null","fixation","","","","",""
"","1608","audio-keyboard-response","94","291129","0.0-3.0-1.64","../audio/44-1-fem.mp3"," ","","Meus","","","",""
"","1509","audio-keyboard-response","95","292991","0.0-3.0-1.65","../audio/44-2-fem.mp3"," ","","irmãos","","","",""
"","1120","audio-keyboard-response","96","294460","0.0-3.0-1.66","../audio/44-3-fem.mp3"," ","","brigam","","","",""
"","640","audio-keyboard-response","97","295437","0.0-3.0-1.67","../audio/44-4-fem.mp3"," ","","por","","","",""
"","931","audio-keyboard-response","98","296699","0.0-3.0-1.68","../audio/44-5-fem.mp3"," ","","bobagem","","","",""
"","720","audio-keyboard-response","99","297760","0.0-3.0-1.69","../audio/44-6-fem.mp3"," ","","todos","","","",""
"","712","audio-keyboard-response","100","298809","0.0-3.0-1.70","../audio/44-7-fem.mp3"," ","","os","","","",""
"","1080","audio-keyboard-response","101","300235","0.0-3.0-1.71","../audio/44-8-fem.mp3"," ","","dias.","","","",""
"","null","html-keyboard-response","102","301504","0.0-3.0-0.72-0.72","<span style= ""font-size:30px; font-family: monospace"">+</span>","null","fixation","","","","",""
"","1011","audio-keyboard-response","103","302899","0.0-3.0-1.72","../audio/45-1-masc.mp3"," ","","O","","","",""
"","1189","audio-keyboard-response","104","304431","0.0-3.0-1.73","../audio/45-2-masc.mp3"," ","","homem","","","",""
"","829","audio-keyboard-response","105","305627","0.0-3.0-1.74","../audio/45-3-masc.mp3"," ","","pagou","","","",""
"","851","audio-keyboard-response","106","306820","0.0-3.0-1.75","../audio/45-4-masc.mp3"," ","","o","","","",""
"","989","audio-keyboard-response","107","308151","0.0-3.0-1.76","../audio/45-5-masc.mp3"," ","","aluguel","","","",""
"","869","audio-keyboard-response","108","309350","0.0-3.0-1.77","../audio/45-6-masc.mp3"," ","","com","","","",""
"","1192","audio-keyboard-response","109","310887","0.0-3.0-1.78","../audio/45-7-masc.mp3"," ","","atraso.","","","",""
"","1814","html-keyboard-response","110","312960","0.0-3.0-2.78-0.78","<span style=""font-size:25px; font-family: monospace"">O homem pagou o aluguel em dia?</span>","n","","","O homem pagou o aluguel em dia?","null","exp-sent","false"
"","null","html-keyboard-response","111","314475","0.0-3.0-0.79-0.79","<span style= ""font-size:30px; font-family: monospace"">+</span>","null","fixation","","","","",""
"","1101","audio-keyboard-response","112","315952","0.0-3.0-1.79","../audio/58-1-masc.mp3"," ","","Havia","","","",""
"","989","audio-keyboard-response","113","317302","0.0-3.0-1.80","../audio/58-2-masc.mp3"," ","","apenas","","","",""
"","760","audio-keyboard-response","114","318403","0.0-3.0-1.81","../audio/58-3-masc.mp3"," ","","um","","","",""
"","1139","audio-keyboard-response","115","319892","0.0-3.0-1.82","../audio/58-4-masc.mp3"," ","","último","","","",""
"","1080","audio-keyboard-response","116","321310","0.0-3.0-1.83","../audio/58-5-masc.mp3"," ","","herdeiro","","","",""
"","779","audio-keyboard-response","117","322426","0.0-3.0-1.84","../audio/58-6-masc.mp3"," ","","do","","","",""
"","960","audio-keyboard-response","118","323736","0.0-3.0-1.85","../audio/58-7-masc.mp3"," ","","dinheiro.","","","",""
"","null","html-keyboard-response","119","325003","0.0-3.0-0.86-0.86","<span style= ""font-size:30px; font-family: monospace"">+</span>","null","fixation","","","","",""
"","821","audio-keyboard-response","120","326208","0.0-3.0-1.86","../audio/57-1-masc.mp3"," ","","O","","","",""
"","1059","audio-keyboard-response","121","327624","0.0-3.0-1.87","../audio/57-2-masc.mp3"," ","","capitão","","","",""
"","848","audio-keyboard-response","122","328814","0.0-3.0-1.88","../audio/57-3-masc.mp3"," ","","deu","","","",""
"","899","audio-keyboard-response","123","330059","0.0-3.0-1.89","../audio/57-4-masc.mp3"," ","","uma","","","",""
"","1048","audio-keyboard-response","124","331452","0.0-3.0-1.90","../audio/57-5-masc.mp3"," ","","instrução","","","",""
"","760","audio-keyboard-response","125","332541","0.0-3.0-1.91","../audio/57-6-masc.mp3"," ","","para","","","",""
"","699","audio-keyboard-response","126","333569","0.0-3.0-1.92","../audio/57-7-masc.mp3"," ","","as","","","",""
"","771","audio-keyboard-response","127","334685","0.0-3.0-1.93","../audio/57-8-masc.mp3"," ","","pessoas.","","","",""
"","null","html-keyboard-response","128","335948","0.0-3.0-0.94-0.94","<span style= ""font-size:30px; font-family: monospace"">+</span>","null","fixation","","","","",""
"","1000","audio-keyboard-response","129","337328","0.0-3.0-1.94","../audio/56-1-masc.mp3"," ","","A","","","",""
"","979","audio-keyboard-response","130","338656","0.0-3.0-1.95","../audio/56-2-masc.mp3"," ","","moça","","","",""
"","821","audio-keyboard-response","131","339803","0.0-3.0-1.96","../audio/56-3-masc.mp3"," ","","foi","","","",""
"","669","audio-keyboard-response","132","340819","0.0-3.0-1.97","../audio/56-4-masc.mp3"," ","","à","","","",""
"","859","audio-keyboard-response","133","342028","0.0-3.0-1.98","../audio/56-5-masc.mp3"," ","","agência","","","",""
"","861","audio-keyboard-response","134","343248","0.0-3.0-1.99","../audio/56-6-masc.mp3"," ","","bancária","","","",""
"","931","audio-keyboard-response","135","344519","0.0-3.0-1.100","../audio/56-7-masc.mp3"," ","","ontem","","","",""
"","872","audio-keyboard-response","136","345719","0.0-3.0-1.101","../audio/56-8-masc.mp3"," ","","de","","","",""
"","920","audio-keyboard-response","137","346985","0.0-3.0-1.102","../audio/56-9-masc.mp3"," ","","tarde.","","","",""
"","null","html-keyboard-response","138","348249","0.0-3.0-0.103-0.103","<span style= ""font-size:30px; font-family: monospace"">+</span>","null","fixation","","","","",""
"","1080","audio-keyboard-response","139","349705","0.0-3.0-1.103","../audio/59-1-fem.mp3"," ","","O","","","",""
"","880","audio-keyboard-response","140","350945","0.0-3.0-1.104","../audio/59-2-fem.mp3"," ","","carteiro","","","",""
"","1000","audio-keyboard-response","141","352287","0.0-3.0-1.105","../audio/59-3-fem.mp3"," ","","fez","","","",""
"","800","audio-keyboard-response","142","353431","0.0-3.0-1.106","../audio/59-4-fem.mp3"," ","","uma","","","",""
"","1272","audio-keyboard-response","143","355040","0.0-3.0-1.107","../audio/59-5-fem.mp3"," ","","tentativa","","","",""
"","861","audio-keyboard-response","144","356235","0.0-3.0-1.108","../audio/59-6-fem.mp3"," ","","de","","","",""
"","1251","audio-keyboard-response","145","357842","0.0-3.0-1.109","../audio/59-7-fem.mp3"," ","","entrega.","","","",""
"","null","html-keyboard-response","146","359109","0.0-3.0-0.110-0.110","<span style= ""font-size:30px; font-family: monospace"">+</span>","null","fixation","","","","",""
"","2181","audio-keyboard-response","147","361674","0.0-3.0-1.110","../audio/60-1-masc.mp3"," ","","Ondas","","","",""
"","1120","audio-keyboard-response","148","363180","0.0-3.0-1.111","../audio/60-2-masc.mp3"," ","","têm","","","",""
"","909","audio-keyboard-response","149","364421","0.0-3.0-1.112","../audio/60-3-masc.mp3"," ","","um","","","",""
"","1461","audio-keyboard-response","150","366235","0.0-3.0-1.113","../audio/60-4-masc.mp3"," ","","impacto","","","",""
"","1469","audio-keyboard-response","151","368051","0.0-3.0-1.114","../audio/60-5-masc.mp3"," ","","destrutivo","","","",""
"","1029","audio-keyboard-response","152","369410","0.0-3.0-1.115","../audio/60-6-masc.mp3"," ","","no","","","",""
"","1440","audio-keyboard-response","153","371190","0.0-3.0-1.116","../audio/60-7-masc.mp3"," ","","litoral.","","","",""
"","3877","html-keyboard-response","154","375324","0.0-3.0-2.116-0.116","<span style=""font-size:25px; font-family: monospace"">Ondas têm um impacto destrutivo?</span>","s","","","Ondas têm um impacto destrutivo?","null","exp-sent","false"
"","null","html-keyboard-response","155","376839","0.0-3.0-0.117-0.117","<span style= ""font-size:30px; font-family: monospace"">+</span>","null","fixation","","","","",""
"","1160","audio-keyboard-response","156","378390","0.0-3.0-1.117","../audio/28-1-fem.mp3"," ","","O","","","",""
"","1019","audio-keyboard-response","157","379783","0.0-3.0-1.118","../audio/28-2-fem.mp3"," ","","time","","","",""
"","1032","audio-keyboard-response","158","381169","0.0-3.0-1.119","../audio/28-3-fem.mp3"," ","","quer","","","",""
"","869","audio-keyboard-response","159","382378","0.0-3.0-1.120","../audio/28-4-fem.mp3"," ","","a","","","",""
"","1381","audio-keyboard-response","160","384109","0.0-3.0-1.121","../audio/28-5-fem.mp3"," ","","vitória","","","",""
"","968","audio-keyboard-response","161","385412","0.0-3.0-1.122","../audio/28-6-fem.mp3"," ","","no","","","",""
"","1240","audio-keyboard-response","162","386996","0.0-3.0-1.123","../audio/28-7-fem.mp3"," ","","jogo","","","",""
"","1171","audio-keyboard-response","163","388501","0.0-3.0-1.124","../audio/28-8-fem.mp3"," ","","de","","","",""
"","1619","audio-keyboard-response","164","390465","0.0-3.0-1.125","../audio/28-9-fem.mp3"," ","","vôlei.","","","",""
"","null","html-keyboard-response","165","391735","0.0-3.0-0.126-0.126","<span style= ""font-size:30px; font-family: monospace"">+</span>","null","fixation","","","","",""
"","1299","audio-keyboard-response","166","393414","0.0-3.0-1.126","../audio/27-1-fem.mp3"," ","","O","","","",""
"","1709","audio-keyboard-response","167","395474","0.0-3.0-1.127","../audio/27-2-fem.mp3"," ","","dinheiro","","","",""
"","1251","audio-keyboard-response","168","397102","0.0-3.0-1.128","../audio/27-3-fem.mp3"," ","","chegou","","","",""
"","1379","audio-keyboard-response","169","398815","0.0-3.0-1.129","../audio/27-4-fem.mp3"," ","","à","","","",""
"","1560","audio-keyboard-response","170","400716","0.0-3.0-1.130","../audio/27-5-fem.mp3"," ","","elite","","","",""
"","1381","audio-keyboard-response","171","402445","0.0-3.0-1.131","../audio/27-6-fem.mp3"," ","","deste","","","",""
"","2371","audio-keyboard-response","172","405163","0.0-3.0-1.132","../audio/27-7-fem.mp3"," ","","país.","","","",""
"","null","html-keyboard-response","173","406422","0.0-3.0-0.133-0.133","<span style= ""font-size:30px; font-family: monospace"">+</span>","null","fixation","","","","",""
"","1328","audio-keyboard-response","174","408130","0.0-3.0-1.133","../audio/29-1-masc.mp3"," ","","Hoje","","","",""
"","1211","audio-keyboard-response","175","409679","0.0-3.0-1.134","../audio/29-2-masc.mp3"," ","","vamos","","","",""
"","1120","audio-keyboard-response","176","411140","0.0-3.0-1.135","../audio/29-3-masc.mp3"," ","","fazer","","","",""
"","808","audio-keyboard-response","177","412290","0.0-3.0-1.136","../audio/29-4-masc.mp3"," ","","uma","","","",""
"","1099","audio-keyboard-response","178","413744","0.0-3.0-1.137","../audio/29-5-masc.mp3"," ","","atividade","","","",""
"","840","audio-keyboard-response","179","414923","0.0-3.0-1.138","../audio/29-6-masc.mp3"," ","","sobre","","","",""
"","920","audio-keyboard-response","180","416182","0.0-3.0-1.139","../audio/29-7-masc.mp3"," ","","fauna","","","",""
"","1349","audio-keyboard-response","181","418173","0.0-3.0-1.140","../audio/29-8-masc.mp3"," ","","marinha.","","","",""
"","null","html-keyboard-response","182","419444","0.0-3.0-0.141-0.141","<span style= ""font-size:30px; font-family: monospace"">+</span>","null","fixation","","","","",""
"","1160","audio-keyboard-response","183","420980","0.0-3.0-1.141","../audio/26-1-masc.mp3"," ","","Amanhã","","","",""
"","1040","audio-keyboard-response","184","422365","0.0-3.0-1.142","../audio/26-2-masc.mp3"," ","","temos","","","",""
"","1051","audio-keyboard-response","185","423769","0.0-3.0-1.143","../audio/26-3-masc.mp3"," ","","festa","","","",""
"","1040","audio-keyboard-response","186","425162","0.0-3.0-1.144","../audio/26-4-masc.mp3"," ","","na","","","",""
"","1141","audio-keyboard-response","187","426643","0.0-3.0-1.145","../audio/26-5-masc.mp3"," ","","piscina","","","",""
"","1101","audio-keyboard-response","188","428078","0.0-3.0-1.146","../audio/26-6-masc.mp3"," ","","o","","","",""
"","1141","audio-keyboard-response","189","429567","0.0-3.0-1.147","../audio/26-7-masc.mp3"," ","","dia","","","",""
"","1549","audio-keyboard-response","190","431466","0.0-3.0-1.148","../audio/26-8-masc.mp3"," ","","todo.","","","",""
"","null","html-keyboard-response","191","432737","0.0-3.0-0.149-0.149","<span style= ""font-size:30px; font-family: monospace"">+</span>","null","fixation","","","","",""
"","1139","audio-keyboard-response","192","434260","0.0-3.0-1.149","../audio/30-1-masc.mp3"," ","","O","","","",""
"","1488","audio-keyboard-response","193","436093","0.0-3.0-1.150","../audio/30-2-masc.mp3"," ","","funcionário","","","",""
"","1280","audio-keyboard-response","194","437721","0.0-3.0-1.151","../audio/30-3-masc.mp3"," ","","entregou","","","",""
"","1171","audio-keyboard-response","195","439231","0.0-3.0-1.152","../audio/30-4-masc.mp3"," ","","o","","","",""
"","1771","audio-keyboard-response","196","441364","0.0-3.0-1.153","../audio/30-5-masc.mp3"," ","","restante","","","",""
"","901","audio-keyboard-response","197","442631","0.0-3.0-1.154","../audio/30-6-masc.mp3"," ","","do","","","",""
"","1360","audio-keyboard-response","198","444332","0.0-3.0-1.155","../audio/30-7-masc.mp3"," ","","dinheiro.","","","",""
"","3178","html-keyboard-response","199","447762","0.0-3.0-2.155-0.155","<span style=""font-size:25px; font-family: monospace"">O funcionário entregou o contrato?</span>","n","","","O funcionário entregou o contrato?","null","exp-sent","false"
"","null","html-keyboard-response","200","449273","0.0-3.0-0.156-0.156","<span style= ""font-size:30px; font-family: monospace"">+</span>","null","fixation","","","","",""
"","1691","audio-keyboard-response","201","451346","0.0-3.0-1.156","../audio/07-1-masc.mp3"," ","","Meu","","","",""
"","1211","audio-keyboard-response","202","452939","0.0-3.0-1.157","../audio/07-2-masc.mp3"," ","","filho","","","",""
"","720","audio-keyboard-response","203","454015","0.0-3.0-1.158","../audio/07-3-masc.mp3"," ","","é","","","",""
"","909","audio-keyboard-response","204","455269","0.0-3.0-1.159","../audio/07-4-masc.mp3"," ","","muito","","","",""
"","1141","audio-keyboard-response","205","456762","0.0-3.0-1.160","../audio/07-5-masc.mp3"," ","","responsável","","","",""
"","1099","audio-keyboard-response","206","458216","0.0-3.0-1.161","../audio/07-6-masc.mp3"," ","","nos","","","",""
"","1059","audio-keyboard-response","207","459625","0.0-3.0-1.162","../audio/07-7-masc.mp3"," ","","estudos.","","","",""
"","null","html-keyboard-response","208","460891","0.0-3.0-0.163-0.163","<span style= ""font-size:30px; font-family: monospace"">+</span>","null","fixation","","","","",""
"","1459","audio-keyboard-response","209","462746","0.0-3.0-1.163","../audio/06-1-fem.mp3"," ","","Ouvimos","","","",""
"","1000","audio-keyboard-response","210","464084","0.0-3.0-1.164","../audio/06-2-fem.mp3"," ","","a","","","",""
"","1221","audio-keyboard-response","211","465645","0.0-3.0-1.165","../audio/06-3-fem.mp3"," ","","fala","","","",""
"","949","audio-keyboard-response","212","466937","0.0-3.0-1.166","../audio/06-4-fem.mp3"," ","","do","","","",""
"","1469","audio-keyboard-response","213","468755","0.0-3.0-1.167","../audio/06-5-fem.mp3"," ","","profeta","","","",""
"","912","audio-keyboard-response","214","470008","0.0-3.0-1.168","../audio/06-6-fem.mp3"," ","","no","","","",""
"","1371","audio-keyboard-response","215","471727","0.0-3.0-1.169","../audio/06-7-fem.mp3"," ","","púlpito","","","",""
"","1560","audio-keyboard-response","216","473611","0.0-3.0-1.170","../audio/06-8-fem.mp3"," ","","da","","","",""
"","1659","audio-keyboard-response","217","475623","0.0-3.0-1.171","../audio/06-9-fem.mp3"," ","","igreja.","","","",""
"","null","html-keyboard-response","218","476897","0.0-3.0-0.172-0.172","<span style= ""font-size:30px; font-family: monospace"">+</span>","null","fixation","","","","",""
"","869","audio-keyboard-response","219","478150","0.0-3.0-1.172","../audio/09-1-masc.mp3"," ","","O","","","",""
"","891","audio-keyboard-response","220","479387","0.0-3.0-1.173","../audio/09-2-masc.mp3"," ","","rapaz","","","",""
"","672","audio-keyboard-response","221","480404","0.0-3.0-1.174","../audio/09-3-masc.mp3"," ","","limpou","","","",""
"","872","audio-keyboard-response","222","481609","0.0-3.0-1.175","../audio/09-4-masc.mp3"," ","","o","","","",""
"","880","audio-keyboard-response","223","482840","0.0-3.0-1.176","../audio/09-5-masc.mp3"," ","","terreno","","","",""
"","632","audio-keyboard-response","224","483808","0.0-3.0-1.177","../audio/09-6-masc.mp3"," ","","com","","","",""
"","800","audio-keyboard-response","225","484954","0.0-3.0-1.178","../audio/09-7-masc.mp3"," ","","uma","","","",""
"","661","audio-keyboard-response","226","485950","0.0-3.0-1.179","../audio/09-8-masc.mp3"," ","","pá.","","","",""
"","null","html-keyboard-response","227","487202","0.0-3.0-0.180-0.180","<span style= ""font-size:30px; font-family: monospace"">+</span>","null","fixation","","","","",""
"","901","audio-keyboard-response","228","488482","0.0-3.0-1.180","../audio/08-1-masc.mp3"," ","","A","","","",""
"","1171","audio-keyboard-response","229","489997","0.0-3.0-1.181","../audio/08-2-masc.mp3"," ","","receita","","","",""
"","941","audio-keyboard-response","230","491280","0.0-3.0-1.182","../audio/08-3-masc.mp3"," ","","pede","","","",""
"","651","audio-keyboard-response","231","492269","0.0-3.0-1.183","../audio/08-4-masc.mp3"," ","","um","","","",""
"","901","audio-keyboard-response","232","493520","0.0-3.0-1.184","../audio/08-5-masc.mp3"," ","","litro","","","",""
"","648","audio-keyboard-response","233","494498","0.0-3.0-1.185","../audio/08-6-masc.mp3"," ","","de","","","",""
"","709","audio-keyboard-response","234","495546","0.0-3.0-1.186","../audio/08-7-masc.mp3"," ","","leite","","","",""
"","701","audio-keyboard-response","235","496595","0.0-3.0-1.187","../audio/08-8-masc.mp3"," ","","integral.","","","",""
"","null","html-keyboard-response","236","497849","0.0-3.0-0.188-0.188","<span style= ""font-size:30px; font-family: monospace"">+</span>","null","fixation","","","","",""
"","1221","audio-keyboard-response","237","499515","0.0-3.0-1.188","../audio/10-1-masc.mp3"," ","","O","","","",""
"","1011","audio-keyboard-response","238","500882","0.0-3.0-1.189","../audio/10-2-masc.mp3"," ","","pássaro","","","",""
"","859","audio-keyboard-response","239","502097","0.0-3.0-1.190","../audio/10-3-masc.mp3"," ","","azul","","","",""
"","1219","audio-keyboard-response","240","503659","0.0-3.0-1.191","../audio/10-4-masc.mp3"," ","","estava","","","",""
"","939","audio-keyboard-response","241","504946","0.0-3.0-1.192","../audio/10-5-masc.mp3"," ","","vivo","","","",""
"","909","audio-keyboard-response","242","506183","0.0-3.0-1.193","../audio/10-6-masc.mp3"," ","","e","","","",""
"","960","audio-keyboard-response","243","507479","0.0-3.0-1.194","../audio/10-7-masc.mp3"," ","","em","","","",""
"","1651","audio-keyboard-response","244","509478","0.0-3.0-1.195","../audio/10-8-masc.mp3"," ","","segurança.","","","",""
"","4119","html-keyboard-response","245","513853","0.0-3.0-2.195-0.195","<span style=""font-size:25px; font-family: monospace"">O pássaro vermelho estava em segurança?</span>","n","","","O pássaro vermelho estava em segurança?","null","exp-sent","false"
"","null","html-keyboard-response","246","515365","0.0-3.0-0.196-0.196","<span style= ""font-size:30px; font-family: monospace"">+</span>","null","fixation","","","","",""
"","1109","audio-keyboard-response","247","516864","0.0-3.0-1.196","../audio/32-1-fem.mp3"," ","","A","","","",""
"","2560","audio-keyboard-response","248","519771","0.0-3.0-1.197","../audio/32-2-fem.mp3"," ","","tia","","","",""
"","1389","audio-keyboard-response","249","521545","0.0-3.0-1.198","../audio/32-3-fem.mp3"," ","","comprou","","","",""
"","739","audio-keyboard-response","250","522610","0.0-3.0-1.199","../audio/32-4-fem.mp3"," ","","um","","","",""
"","739","audio-keyboard-response","251","523705","0.0-3.0-1.200","../audio/32-5-fem.mp3"," ","","pilão","","","",""
"","1088","audio-keyboard-response","252","525129","0.0-3.0-1.201","../audio/32-6-fem.mp3"," ","","para","","","",""
"","909","audio-keyboard-response","253","526387","0.0-3.0-1.202","../audio/32-7-fem.mp3"," ","","a","","","",""
"","1400","audio-keyboard-response","254","528136","0.0-3.0-1.203","../audio/32-8-fem.mp3"," ","","cozinha.","","","",""
"","null","html-keyboard-response","255","529412","0.0-3.0-0.204-0.204","<span style= ""font-size:30px; font-family: monospace"">+</span>","null","fixation","","","","",""
"","1109","audio-keyboard-response","256","530917","0.0-3.0-1.204","../audio/33-1-masc.mp3"," ","","Eles","","","",""
"","1101","audio-keyboard-response","257","532365","0.0-3.0-1.205","../audio/33-2-masc.mp3"," ","","sabem","","","",""
"","1141","audio-keyboard-response","258","533840","0.0-3.0-1.206","../audio/33-3-masc.mp3"," ","","do","","","",""
"","1499","audio-keyboard-response","259","535694","0.0-3.0-1.207","../audio/33-4-masc.mp3"," ","","seu","","","",""
"","1109","audio-keyboard-response","260","537153","0.0-3.0-1.208","../audio/33-5-masc.mp3"," ","","privilégio","","","",""
"","891","audio-keyboard-response","261","538391","0.0-3.0-1.209","../audio/33-6-masc.mp3"," ","","nessa","","","",""
"","1040","audio-keyboard-response","262","539784","0.0-3.0-1.210","../audio/33-7-masc.mp3"," ","","confusão.","","","",""
"","null","html-keyboard-response","263","541058","0.0-3.0-0.211-0.211","<span style= ""font-size:30px; font-family: monospace"">+</span>","null","fixation","","","","",""
"","909","audio-keyboard-response","264","542359","0.0-3.0-1.211","../audio/31-1-masc.mp3"," ","","O","","","",""
"","1131","audio-keyboard-response","265","543827","0.0-3.0-1.212","../audio/31-2-masc.mp3"," ","","padeiro","","","",""
"","992","audio-keyboard-response","266","545167","0.0-3.0-1.213","../audio/31-3-masc.mp3"," ","","usou","","","",""
"","840","audio-keyboard-response","267","546354","0.0-3.0-1.214","../audio/31-4-masc.mp3"," ","","a","","","",""
"","1181","audio-keyboard-response","268","547879","0.0-3.0-1.215","../audio/31-5-masc.mp3"," ","","balança","","","",""
"","891","audio-keyboard-response","269","549115","0.0-3.0-1.216","../audio/31-6-masc.mp3"," ","","o","","","",""
"","901","audio-keyboard-response","270","550366","0.0-3.0-1.217","../audio/31-7-masc.mp3"," ","","dia","","","",""
"","1171","audio-keyboard-response","271","551886","0.0-3.0-1.218","../audio/31-8-masc.mp3"," ","","inteiro.","","","",""
"","null","html-keyboard-response","272","553138","0.0-3.0-0.219-0.219","<span style= ""font-size:30px; font-family: monospace"">+</span>","null","fixation","","","","",""
"","1269","audio-keyboard-response","273","554799","0.0-3.0-1.219","../audio/34-1-masc.mp3"," ","","Cobrança","","","",""
"","1229","audio-keyboard-response","274","556376","0.0-3.0-1.220","../audio/34-2-masc.mp3"," ","","excessiva","","","",""
"","989","audio-keyboard-response","275","557699","0.0-3.0-1.221","../audio/34-3-masc.mp3"," ","","é","","","",""
"","869","audio-keyboard-response","276","558918","0.0-3.0-1.222","../audio/34-4-masc.mp3"," ","","um","","","",""
"","912","audio-keyboard-response","277","560167","0.0-3.0-1.223","../audio/34-5-masc.mp3"," ","","fardo","","","",""
"","1240","audio-keyboard-response","278","561734","0.0-3.0-1.224","../audio/34-6-masc.mp3"," ","","para","","","",""
"","1051","audio-keyboard-response","279","563111","0.0-3.0-1.225","../audio/34-7-masc.mp3"," ","","a","","","",""
"","1520","audio-keyboard-response","280","564982","0.0-3.0-1.226","../audio/34-8-masc.mp3"," ","","cabeça.","","","",""
"","null","html-keyboard-response","281","566245","0.0-3.0-0.227-0.227","<span style= ""font-size:30px; font-family: monospace"">+</span>","null","fixation","","","","",""
"","1080","audio-keyboard-response","282","567714","0.0-3.0-1.227","../audio/35-1-masc.mp3"," ","","A","","","",""
"","1240","audio-keyboard-response","283","569279","0.0-3.0-1.228","../audio/35-2-masc.mp3"," ","","receita","","","",""
"","1051","audio-keyboard-response","284","570630","0.0-3.0-1.229","../audio/35-3-masc.mp3"," ","","para","","","",""
"","821","audio-keyboard-response","285","571791","0.0-3.0-1.230","../audio/35-4-masc.mp3"," ","","a","","","",""
"","1021","audio-keyboard-response","286","573152","0.0-3.0-1.231","../audio/35-5-masc.mp3"," ","","preparação","","","",""
"","909","audio-keyboard-response","287","574391","0.0-3.0-1.232","../audio/35-6-masc.mp3"," ","","do","","","",""
"","1112","audio-keyboard-response","288","575799","0.0-3.0-1.233","../audio/35-7-masc.mp3"," ","","bolo","","","",""
"","781","audio-keyboard-response","289","576874","0.0-3.0-1.234","../audio/35-8-masc.mp3"," ","","é","","","",""
"","931","audio-keyboard-response","290","578112","0.0-3.0-1.235","../audio/35-9-masc.mp3"," ","","leve.","","","",""
"","2348","html-keyboard-response","291","580712","0.0-3.0-2.235-0.235","<span style=""font-size:25px; font-family: monospace"">A receita do bolo é pesada?</span>","n","","","A receita do bolo é pesada?","null","exp-sent","false"
"","null","html-keyboard-response","292","582234","0.0-3.0-0.236-0.236","<span style= ""font-size:30px; font-family: monospace"">+</span>","null","fixation","","","","",""
"","1288","audio-keyboard-response","293","583895","0.0-3.0-1.236","../audio/01-1-fem.mp3"," ","","O","","","",""
"","1149","audio-keyboard-response","294","585380","0.0-3.0-1.237","../audio/01-2-fem.mp3"," ","","menino","","","",""
"","909","audio-keyboard-response","295","586628","0.0-3.0-1.238","../audio/01-3-fem.mp3"," ","","derrubou","","","",""
"","581","audio-keyboard-response","296","587525","0.0-3.0-1.239","../audio/01-4-fem.mp3"," ","","a","","","",""
"","571","audio-keyboard-response","297","588437","0.0-3.0-1.240","../audio/01-5-fem.mp3"," ","","guitarra","","","",""
"","760","audio-keyboard-response","298","589541","0.0-3.0-1.241","../audio/01-6-fem.mp3"," ","","no","","","",""
"","861","audio-keyboard-response","299","590721","0.0-3.0-1.242","../audio/01-7-fem.mp3"," ","","chão.","","","",""
"","null","html-keyboard-response","300","591988","0.0-3.0-0.243-0.243","<span style= ""font-size:30px; font-family: monospace"">+</span>","null","fixation","","","","",""
"","1131","audio-keyboard-response","301","593470","0.0-3.0-1.243","../audio/02-2-masc.mp3"," ","","Havia","","","",""
"","1160","audio-keyboard-response","302","594896","0.0-3.0-1.244","../audio/02-2-masc.mp3"," ","","um","","","",""
"","1232","audio-keyboard-response","303","596478","0.0-3.0-1.245","../audio/02-3-masc.mp3"," ","","cheiro","","","",""
"","859","audio-keyboard-response","304","597651","0.0-3.0-1.246","../audio/02-4-masc.mp3"," ","","de","","","",""
"","1491","audio-keyboard-response","305","599465","0.0-3.0-1.247","../audio/02-5-masc.mp3"," ","","gasolina","","","",""
"","1131","audio-keyboard-response","306","600914","0.0-3.0-1.248","../audio/02-6-masc.mp3"," ","","na","","","",""
"","1200","audio-keyboard-response","307","602432","0.0-3.0-1.249","../audio/02-7-masc.mp3"," ","","garagem.","","","",""
"","null","html-keyboard-response","308","603702","0.0-3.0-0.250-0.250","<span style= ""font-size:30px; font-family: monospace"">+</span>","null","fixation","","","","",""
"","1501","audio-keyboard-response","309","605566","0.0-3.0-1.250","../audio/04-1-masc.mp3"," ","","Duzentos","","","",""
"","1008","audio-keyboard-response","310","606891","0.0-3.0-1.251","../audio/04-2-masc.mp3"," ","","carros","","","",""
"","968","audio-keyboard-response","311","608174","0.0-3.0-1.252","../audio/04-3-masc.mp3"," ","","passaram","","","",""
"","899","audio-keyboard-response","312","609419","0.0-3.0-1.253","../audio/04-4-masc.mp3"," ","","pela","","","",""
"","819","audio-keyboard-response","313","610570","0.0-3.0-1.254","../audio/04-5-masc.mp3"," ","","ponte","","","",""
"","920","audio-keyboard-response","314","611827","0.0-3.0-1.255","../audio/04-6-masc.mp3"," ","","hoje","","","",""
"","869","audio-keyboard-response","315","613030","0.0-3.0-1.256","../audio/04-7-masc.mp3"," ","","de","","","",""
"","1861","audio-keyboard-response","316","615248","0.0-3.0-1.257","../audio/04-8-masc.mp3"," ","","tarde.","","","",""
"","null","html-keyboard-response","317","616508","0.0-3.0-0.258-0.258","<span style= ""font-size:30px; font-family: monospace"">+</span>","null","fixation","","","","",""
"","1032","audio-keyboard-response","318","617928","0.0-3.0-1.258","../audio/03-1-masc.mp3"," ","","O","","","",""
"","1429","audio-keyboard-response","319","619705","0.0-3.0-1.259","../audio/03-2-masc.mp3"," ","","coelho","","","",""
"","1568","audio-keyboard-response","320","621610","0.0-3.0-1.260","../audio/03-3-masc.mp3"," ","","foi","","","",""
"","1299","audio-keyboard-response","321","623250","0.0-3.0-1.261","../audio/03-4-masc.mp3"," ","","bastante","","","",""
"","2141","audio-keyboard-response","322","625755","0.0-3.0-1.262","../audio/03-5-masc.mp3"," ","","dócil","","","",""
"","981","audio-keyboard-response","323","627118","0.0-3.0-1.263","../audio/03-6-masc.mp3"," ","","com","","","",""
"","1061","audio-keyboard-response","324","628509","0.0-3.0-1.264","../audio/03-7-masc.mp3"," ","","as","","","",""
"","2208","audio-keyboard-response","325","631052","0.0-3.0-1.265","../audio/03-8-masc.mp3"," ","","crianças.","","","",""
"","null","html-keyboard-response","326","632318","0.0-3.0-0.266-0.266","<span style= ""font-size:30px; font-family: monospace"">+</span>","null","fixation","","","","",""
"","1011","audio-keyboard-response","327","633718","0.0-3.0-1.266","../audio/05-1-masc.mp3"," ","","A","","","",""
"","1579","audio-keyboard-response","328","635658","0.0-3.0-1.267","../audio/05-2-masc.mp3"," ","","vendedora","","","",""
"","1520","audio-keyboard-response","329","637522","0.0-3.0-1.268","../audio/05-3-masc.mp3"," ","","ajudou","","","",""
"","771","audio-keyboard-response","330","638626","0.0-3.0-1.269","../audio/05-4-masc.mp3"," ","","um","","","",""
"","840","audio-keyboard-response","331","639803","0.0-3.0-1.270","../audio/05-5-masc.mp3"," ","","turista","","","",""
"","811","audio-keyboard-response","332","640953","0.0-3.0-1.271","../audio/05-6-masc.mp3"," ","","na","","","",""
"","861","audio-keyboard-response","333","642168","0.0-3.0-1.272","../audio/05-7-masc.mp3"," ","","loja.","","","",""
"","2744","html-keyboard-response","334","645174","0.0-3.0-2.272-0.272","<span style=""font-size:25px; font-family: monospace"">A vendedora ajudou um turista?</span>","s","","","A vendedora ajudou um turista?","null","exp-sent","false"
"","null","html-keyboard-response","335","646688","0.0-3.0-0.273-0.273","<span style= ""font-size:30px; font-family: monospace"">+</span>","null","fixation","","","","",""
"","931","audio-keyboard-response","336","648002","0.0-3.0-1.273","../audio/22-1-fem.mp3"," ","","Eu","","","",""
"","1200","audio-keyboard-response","337","649553","0.0-3.0-1.274","../audio/22-2-fem.mp3"," ","","detesto","","","",""
"","1109","audio-keyboard-response","338","651012","0.0-3.0-1.275","../audio/22-3-fem.mp3"," ","","fumaça","","","",""
"","829","audio-keyboard-response","339","652185","0.0-3.0-1.276","../audio/22-4-fem.mp3"," ","","de","","","",""
"","1560","audio-keyboard-response","340","654093","0.0-3.0-1.277","../audio/22-5-fem.mp3"," ","","cachimbo","","","",""
"","1120","audio-keyboard-response","341","655543","0.0-3.0-1.278","../audio/22-6-fem.mp3"," ","","e","","","",""
"","768","audio-keyboard-response","342","656656","0.0-3.0-1.279","../audio/22-7-fem.mp3"," ","","de","","","",""
"","1920","audio-keyboard-response","343","658922","0.0-3.0-1.280","../audio/22-8-fem.mp3"," ","","cigarro.","","","",""
"","null","html-keyboard-response","344","660196","0.0-3.0-0.281-0.281","<span style= ""font-size:30px; font-family: monospace"">+</span>","null","fixation","","","","",""
"","949","audio-keyboard-response","345","661543","0.0-3.0-1.281","../audio/24-1-fem.mp3"," ","","As","","","",""
"","1272","audio-keyboard-response","346","663162","0.0-3.0-1.282","../audio/24-2-fem.mp3"," ","","crianças","","","",""
"","811","audio-keyboard-response","347","664307","0.0-3.0-1.283","../audio/24-3-fem.mp3"," ","","vão","","","",""
"","1168","audio-keyboard-response","348","665810","0.0-3.0-1.284","../audio/24-4-fem.mp3"," ","","ao","","","",""
"","1480","audio-keyboard-response","349","667638","0.0-3.0-1.285","../audio/24-5-fem.mp3"," ","","cinema","","","",""
"","1192","audio-keyboard-response","350","669158","0.0-3.0-1.286","../audio/24-6-fem.mp3"," ","","mais","","","",""
"","2021","audio-keyboard-response","351","671517","0.0-3.0-1.287","../audio/24-7-fem.mp3"," ","","tarde.","","","",""
"","null","html-keyboard-response","352","672780","0.0-3.0-0.288-0.288","<span style= ""font-size:30px; font-family: monospace"">+</span>","null","fixation","","","","",""
"","1411","audio-keyboard-response","353","674585","0.0-3.0-1.288","../audio/23-1-fem.mp3"," ","","Português","","","",""
"","891","audio-keyboard-response","354","675824","0.0-3.0-1.289","../audio/23-2-fem.mp3"," ","","é","","","",""
"","949","audio-keyboard-response","355","677110","0.0-3.0-1.290","../audio/23-3-fem.mp3"," ","","um","","","",""
"","1381","audio-keyboard-response","356","678838","0.0-3.0-1.291","../audio/23-4-fem.mp3"," ","","assunto","","","",""
"","1731","audio-keyboard-response","357","680917","0.0-3.0-1.292","../audio/23-5-fem.mp3"," ","","elementar","","","",""
"","949","audio-keyboard-response","358","682266","0.0-3.0-1.293","../audio/23-6-fem.mp3"," ","","para","","","",""
"","1019","audio-keyboard-response","359","683628","0.0-3.0-1.294","../audio/23-7-fem.mp3"," ","","os","","","",""
"","1592","audio-keyboard-response","360","685562","0.0-3.0-1.295","../audio/23-8-fem.mp3"," ","","alunos.","","","",""
"","null","html-keyboard-response","361","686830","0.0-3.0-0.296-0.296","<span style= ""font-size:30px; font-family: monospace"">+</span>","null","fixation","","","","",""
"","1720","audio-keyboard-response","362","688940","0.0-3.0-1.296","../audio/21-1-fem.mp3"," ","","Precisamos","","","",""
"","808","audio-keyboard-response","363","690137","0.0-3.0-1.297","../audio/21-2-fem.mp3"," ","","de","","","",""
"","1480","audio-keyboard-response","364","691972","0.0-3.0-1.298","../audio/21-3-fem.mp3"," ","","paciência","","","",""
"","819","audio-keyboard-response","365","693129","0.0-3.0-1.299","../audio/21-4-fem.mp3"," ","","e","","","",""
"","1389","audio-keyboard-response","366","694871","0.0-3.0-1.300","../audio/21-5-fem.mp3"," ","","bondade","","","",""
"","1200","audio-keyboard-response","367","696414","0.0-3.0-1.301","../audio/21-6-fem.mp3"," ","","para","","","",""
"","1048","audio-keyboard-response","368","697810","0.0-3.0-1.302","../audio/21-7-fem.mp3"," ","","um","","","",""
"","1589","audio-keyboard-response","369","699756","0.0-3.0-1.303","../audio/21-8-fem.mp3"," ","","mundo","","","",""
"","1901","audio-keyboard-response","370","702008","0.0-3.0-1.304","../audio/21-9-fem.mp3"," ","","melhor.","","","",""
"","null","html-keyboard-response","371","703279","0.0-3.0-0.305-0.305","<span style= ""font-size:30px; font-family: monospace"">+</span>","null","fixation","","","","",""
"","1221","audio-keyboard-response","372","704886","0.0-3.0-1.305","../audio/25-1-masc.mp3"," ","","Ela","","","",""
"","1040","audio-keyboard-response","373","706265","0.0-3.0-1.306","../audio/25-2-masc.mp3"," ","","faz","","","",""
"","1029","audio-keyboard-response","374","707636","0.0-3.0-1.307","../audio/25-3-masc.mp3"," ","","tanto","","","",""
"","891","audio-keyboard-response","375","708888","0.0-3.0-1.308","../audio/25-4-masc.mp3"," ","","cabelo","","","",""
"","1029","audio-keyboard-response","376","710273","0.0-3.0-1.309","../audio/25-5-masc.mp3"," ","","liso","","","",""
"","1072","audio-keyboard-response","377","711681","0.0-3.0-1.310","../audio/25-6-masc.mp3"," ","","quanto","","","",""
"","1469","audio-keyboard-response","378","713498","0.0-3.0-1.311","../audio/25-7-masc.mp3"," ","","cacheado.","","","",""
"","3334","html-keyboard-response","379","717096","0.0-3.0-2.311-0.311","<span style=""font-size:25px; font-family: monospace"">Ela só faz cabelo cacheado?</span>","n","","","Ela só faz cabelo cacheado?","null","exp-sent","false"
"","null","html-keyboard-response","380","718612","0.0-3.0-0.312-0.312","<span style= ""font-size:30px; font-family: monospace"">+</span>","null","fixation","","","","",""
"","909","audio-keyboard-response","381","719876","0.0-3.0-1.312","../audio/49-1-masc.mp3"," ","","Eu","","","",""
"","1120","audio-keyboard-response","382","721348","0.0-3.0-1.313","../audio/49-2-masc.mp3"," ","","quero","","","",""
"","909","audio-keyboard-response","383","722590","0.0-3.0-1.314","../audio/49-3-masc.mp3"," ","","um","","","",""
"","840","audio-keyboard-response","384","723771","0.0-3.0-1.315","../audio/49-4-masc.mp3"," ","","lanche","","","",""
"","880","audio-keyboard-response","385","725001","0.0-3.0-1.316","../audio/49-5-masc.mp3"," ","","duplo","","","",""
"","781","audio-keyboard-response","386","726124","0.0-3.0-1.317","../audio/49-6-masc.mp3"," ","","e","","","",""
"","880","audio-keyboard-response","387","727348","0.0-3.0-1.318","../audio/49-7-masc.mp3"," ","","um","","","",""
"","880","audio-keyboard-response","388","728570","0.0-3.0-1.319","../audio/49-8-masc.mp3"," ","","suco.","","","",""
"","null","html-keyboard-response","389","729835","0.0-3.0-0.320-0.320","<span style= ""font-size:30px; font-family: monospace"">+</span>","null","fixation","","","","",""
"","1091","audio-keyboard-response","390","731307","0.0-3.0-1.320","../audio/47-1-fem.mp3"," ","","O","","","",""
"","960","audio-keyboard-response","391","732610","0.0-3.0-1.321","../audio/47-2-fem.mp3"," ","","tio","","","",""
"","1069","audio-keyboard-response","392","734028","0.0-3.0-1.322","../audio/47-3-fem.mp3"," ","","recusou","","","",""
"","821","audio-keyboard-response","393","735191","0.0-3.0-1.323","../audio/47-4-fem.mp3"," ","","a","","","",""
"","1651","audio-keyboard-response","394","737199","0.0-3.0-1.324","../audio/47-5-fem.mp3"," ","","sobremesa","","","",""
"","941","audio-keyboard-response","395","738480","0.0-3.0-1.325","../audio/47-6-fem.mp3"," ","","no","","","",""
"","1549","audio-keyboard-response","396","740372","0.0-3.0-1.326","../audio/47-7-fem.mp3"," ","","almoço.","","","",""
"","null","html-keyboard-response","397","741645","0.0-3.0-0.327-0.327","<span style= ""font-size:30px; font-family: monospace"">+</span>","null","fixation","","","","",""
"","1021","audio-keyboard-response","398","743124","0.0-3.0-1.327","../audio/48-1-fem.mp3"," ","","Ela","","","",""
"","1051","audio-keyboard-response","399","744523","0.0-3.0-1.328","../audio/48-2-fem.mp3"," ","","come","","","",""
"","1280","audio-keyboard-response","400","746161","0.0-3.0-1.329","../audio/48-3-fem.mp3"," ","","feijão","","","",""
"","920","audio-keyboard-response","401","747426","0.0-3.0-1.330","../audio/48-4-fem.mp3"," ","","com","","","",""
"","1541","audio-keyboard-response","402","749316","0.0-3.0-1.331","../audio/48-5-fem.mp3"," ","","arroz","","","",""
"","1349","audio-keyboard-response","403","751010","0.0-3.0-1.332","../audio/48-6-fem.mp3"," ","","todos","","","",""
"","971","audio-keyboard-response","404","752327","0.0-3.0-1.333","../audio/48-7-fem.mp3"," ","","os","","","",""
"","1600","audio-keyboard-response","405","754279","0.0-3.0-1.334","../audio/48-8-fem.mp3"," ","","dias.","","","",""
"","null","html-keyboard-response","406","755549","0.0-3.0-0.335-0.335","<span style= ""font-size:30px; font-family: monospace"">+</span>","null","fixation","","","","",""
"","941","audio-keyboard-response","407","756879","0.0-3.0-1.335","../audio/46-1-masc.mp3"," ","","Meu","","","",""
"","792","audio-keyboard-response","408","758002","0.0-3.0-1.336","../audio/46-2-masc.mp3"," ","","primo","","","",""
"","829","audio-keyboard-response","409","759171","0.0-3.0-1.337","../audio/46-3-masc.mp3"," ","","estava","","","",""
"","749","audio-keyboard-response","410","760265","0.0-3.0-1.338","../audio/46-4-masc.mp3"," ","","muito","","","",""
"","811","audio-keyboard-response","411","761420","0.0-3.0-1.339","../audio/46-5-masc.mp3"," ","","deprimido","","","",""
"","819","audio-keyboard-response","412","762581","0.0-3.0-1.340","../audio/46-6-masc.mp3"," ","","no","","","",""
"","621","audio-keyboard-response","413","763558","0.0-3.0-1.341","../audio/46-7-masc.mp3"," ","","inverno.","","","",""
"","null","html-keyboard-response","414","764820","0.0-3.0-0.342-0.342","<span style= ""font-size:30px; font-family: monospace"">+</span>","null","fixation","","","","",""
"","739","audio-keyboard-response","415","765972","0.0-3.0-1.342","../audio/50-1-masc.mp3"," ","","O","","","",""
"","989","audio-keyboard-response","416","767300","0.0-3.0-1.343","../audio/50-2-masc.mp3"," ","","pássaro","","","",""
"","979","audio-keyboard-response","417","768611","0.0-3.0-1.344","../audio/50-3-masc.mp3"," ","","fugiu","","","",""
"","880","audio-keyboard-response","418","769835","0.0-3.0-1.345","../audio/50-4-masc.mp3"," ","","da","","","",""
"","869","audio-keyboard-response","419","771057","0.0-3.0-1.346","../audio/50-5-masc.mp3"," ","","gaiola","","","",""
"","840","audio-keyboard-response","420","772234","0.0-3.0-1.347","../audio/50-6-masc.mp3"," ","","pela","","","",""
"","1029","audio-keyboard-response","421","773611","0.0-3.0-1.348","../audio/50-7-masc.mp3"," ","","portinhola.","","","",""
"","5999","html-keyboard-response","422","779860","0.0-3.0-2.348-0.348","<span style=""font-size:25px; font-family: monospace"">O pássaro fugiu da gaiola?</span>","n","","","O pássaro fugiu da gaiola?","null","exp-sent","false"
"","null","html-keyboard-response","423","781377","0.0-3.0-0.349-0.349","<span style= ""font-size:30px; font-family: monospace"">+</span>","null","fixation","","","","",""
"","1019","audio-keyboard-response","424","782781","0.0-3.0-1.349","../audio/62-1-masc.mp3"," ","","As","","","",""
"","1480","audio-keyboard-response","425","784611","0.0-3.0-1.350","../audio/62-2-masc.mp3"," ","","artesãs","","","",""
"","1139","audio-keyboard-response","426","786090","0.0-3.0-1.351","../audio/62-3-masc.mp3"," ","","gostam","","","",""
"","1080","audio-keyboard-response","427","787517","0.0-3.0-1.352","../audio/62-4-masc.mp3"," ","","de","","","",""
"","1640","audio-keyboard-response","428","789508","0.0-3.0-1.353","../audio/62-5-masc.mp3"," ","","maquiagem","","","",""
"","1008","audio-keyboard-response","429","790852","0.0-3.0-1.354","../audio/62-6-masc.mp3"," ","","e","","","",""
"","901","audio-keyboard-response","430","792088","0.0-3.0-1.355","../audio/62-7-masc.mp3"," ","","de","","","",""
"","1171","audio-keyboard-response","431","793608","0.0-3.0-1.356","../audio/62-8-masc.mp3"," ","","crochê.","","","",""
"","null","html-keyboard-response","432","794878","0.0-3.0-0.357-0.357","<span style= ""font-size:30px; font-family: monospace"">+</span>","null","fixation","","","","",""
"","821","audio-keyboard-response","433","796074","0.0-3.0-1.357","../audio/64-1-fem.mp3"," ","","O","","","",""
"","1160","audio-keyboard-response","434","797571","0.0-3.0-1.358","../audio/64-2-fem.mp3"," ","","dia","","","",""
"","1120","audio-keyboard-response","435","799034","0.0-3.0-1.359","../audio/64-3-fem.mp3"," ","","começou","","","",""
"","811","audio-keyboard-response","436","800193","0.0-3.0-1.360","../audio/64-4-fem.mp3"," ","","com","","","",""
"","1091","audio-keyboard-response","437","801637","0.0-3.0-1.361","../audio/64-5-fem.mp3"," ","","garoa","","","",""
"","1259","audio-keyboard-response","438","803252","0.0-3.0-1.362","../audio/64-6-fem.mp3"," ","","gelada","","","",""
"","861","audio-keyboard-response","439","804448","0.0-3.0-1.363","../audio/64-7-fem.mp3"," ","","e","","","",""
"","1269","audio-keyboard-response","440","806066","0.0-3.0-1.364","../audio/64-8-fem.mp3"," ","","leve.","","","",""
"","null","html-keyboard-response","441","807334","0.0-3.0-0.365-0.365","<span style= ""font-size:30px; font-family: monospace"">+</span>","null","fixation","","","","",""
"","1080","audio-keyboard-response","442","808869","0.0-3.0-1.365","../audio/61-1-masc.mp3"," ","","Aquele","","","",""
"","1331","audio-keyboard-response","443","810540","0.0-3.0-1.366","../audio/61-2-masc.mp3"," ","","senhor","","","",""
"","720","audio-keyboard-response","444","811591","0.0-3.0-1.367","../audio/61-3-masc.mp3"," ","","é","","","",""
"","1011","audio-keyboard-response","445","812946","0.0-3.0-1.368","../audio/61-4-masc.mp3"," ","","muito","","","",""
"","1371","audio-keyboard-response","446","814667","0.0-3.0-1.369","../audio/61-5-masc.mp3"," ","","sovina","","","",""
"","789","audio-keyboard-response","447","815795","0.0-3.0-1.370","../audio/61-6-masc.mp3"," ","","e","","","",""
"","1579","audio-keyboard-response","448","817732","0.0-3.0-1.371","../audio/61-7-masc.mp3"," ","","inflexível.","","","",""
"","null","html-keyboard-response","449","819007","0.0-3.0-0.372-0.372","<span style= ""font-size:30px; font-family: monospace"">+</span>","null","fixation","","","","",""
"","851","audio-keyboard-response","450","820246","0.0-3.0-1.372","../audio/63-1-masc.mp3"," ","","A","","","",""
"","1000","audio-keyboard-response","451","821582","0.0-3.0-1.373","../audio/63-2-masc.mp3"," ","","chuva","","","",""
"","971","audio-keyboard-response","452","822905","0.0-3.0-1.374","../audio/63-3-masc.mp3"," ","","entrou","","","",""
"","848","audio-keyboard-response","453","824094","0.0-3.0-1.375","../audio/63-4-masc.mp3"," ","","pela","","","",""
"","1339","audio-keyboard-response","454","825777","0.0-3.0-1.376","../audio/63-5-masc.mp3"," ","","abertura","","","",""
"","920","audio-keyboard-response","455","827034","0.0-3.0-1.377","../audio/63-6-masc.mp3"," ","","na","","","",""
"","1251","audio-keyboard-response","456","828633","0.0-3.0-1.378","../audio/63-7-masc.mp3"," ","","janela.","","","",""
"","null","html-keyboard-response","457","829897","0.0-3.0-0.379-0.379","<span style= ""font-size:30px; font-family: monospace"">+</span>","null","fixation","","","","",""
"","779","audio-keyboard-response","458","831055","0.0-3.0-1.379","../audio/65-1-masc.mp3"," ","","O","","","",""
"","1040","audio-keyboard-response","459","832439","0.0-3.0-1.380","../audio/65-2-masc.mp3"," ","","fantasma","","","",""
"","1011","audio-keyboard-response","460","833802","0.0-3.0-1.381","../audio/65-3-masc.mp3"," ","","veio","","","",""
"","701","audio-keyboard-response","461","834846","0.0-3.0-1.382","../audio/65-4-masc.mp3"," ","","da","","","",""
"","1389","audio-keyboard-response","462","836584","0.0-3.0-1.383","../audio/65-5-masc.mp3"," ","","escuridão","","","",""
"","800","audio-keyboard-response","463","837721","0.0-3.0-1.384","../audio/65-6-masc.mp3"," ","","do","","","",""
"","1251","audio-keyboard-response","464","839324","0.0-3.0-1.385","../audio/65-7-masc.mp3"," ","","armário.","","","",""
"","3230","html-keyboard-response","465","842817","0.0-3.0-2.385-0.385","<span style=""font-size:25px; font-family: monospace"">O fantasma veio da escuridão do armário?</span>","s","","","O fantasma veio da escuridão do armário?","null","exp-sent","false"
"","null","html-keyboard-response","466","844333","0.0-3.0-0.386-0.386","<span style= ""font-size:30px; font-family: monospace"">+</span>","null","fixation","","","","",""
"","1139","audio-keyboard-response","467","845855","0.0-3.0-1.386","../audio/71-1-masc.mp3"," ","","Minhas","","","",""
"","1131","audio-keyboard-response","468","847361","0.0-3.0-1.387","../audio/71-2-masc.mp3"," ","","comidas","","","",""
"","1208","audio-keyboard-response","469","848930","0.0-3.0-1.388","../audio/71-3-masc.mp3"," ","","favoritas","","","",""
"","709","audio-keyboard-response","470","849982","0.0-3.0-1.389","../audio/71-4-masc.mp3"," ","","são","","","",""
"","1120","audio-keyboard-response","471","851470","0.0-3.0-1.390","../audio/71-5-masc.mp3"," ","","morango","","","",""
"","749","audio-keyboard-response","472","852558","0.0-3.0-1.391","../audio/71-6-masc.mp3"," ","","e","","","",""
"","792","audio-keyboard-response","473","853685","0.0-3.0-1.392","../audio/71-7-masc.mp3"," ","","uva.","","","",""
"","null","html-keyboard-response","474","854960","0.0-3.0-0.393-0.393","<span style= ""font-size:30px; font-family: monospace"">+</span>","null","fixation","","","","",""
"","832","audio-keyboard-response","475","856165","0.0-3.0-1.393","../audio/72-1-masc.mp3"," ","","A","","","",""
"","1259","audio-keyboard-response","476","857773","0.0-3.0-1.394","../audio/72-2-masc.mp3"," ","","vencedora","","","",""
"","1208","audio-keyboard-response","477","859331","0.0-3.0-1.395","../audio/72-3-masc.mp3"," ","","recebeu","","","",""
"","869","audio-keyboard-response","478","860542","0.0-3.0-1.396","../audio/72-4-masc.mp3"," ","","um","","","",""
"","1152","audio-keyboard-response","479","862040","0.0-3.0-1.397","../audio/72-5-masc.mp3"," ","","prêmio","","","",""
"","840","audio-keyboard-response","480","863221","0.0-3.0-1.398","../audio/72-6-masc.mp3"," ","","em","","","",""
"","888","audio-keyboard-response","481","864457","0.0-3.0-1.399","../audio/72-7-masc.mp3"," ","","dinheiro.","","","",""
"","null","html-keyboard-response","482","865718","0.0-3.0-0.400-0.400","<span style= ""font-size:30px; font-family: monospace"">+</span>","null","fixation","","","","",""
"","971","audio-keyboard-response","483","867060","0.0-3.0-1.400","../audio/73-1-fem.mp3"," ","","O","","","",""
"","1288","audio-keyboard-response","484","868695","0.0-3.0-1.401","../audio/73-2-fem.mp3"," ","","cliente","","","",""
"","1261","audio-keyboard-response","485","870286","0.0-3.0-1.402","../audio/73-3-fem.mp3"," ","","era","","","",""
"","1069","audio-keyboard-response","486","871703","0.0-3.0-1.403","../audio/73-4-fem.mp3"," ","","um","","","",""
"","1109","audio-keyboard-response","487","873152","0.0-3.0-1.404","../audio/73-5-fem.mp3"," ","","homem","","","",""
"","1240","audio-keyboard-response","488","874746","0.0-3.0-1.405","../audio/73-6-fem.mp3"," ","","muito","","","",""
"","1651","audio-keyboard-response","489","876749","0.0-3.0-1.406","../audio/73-7-fem.mp3"," ","","educado.","","","",""
"","null","html-keyboard-response","490","878012","0.0-3.0-0.407-0.407","<span style= ""font-size:30px; font-family: monospace"">+</span>","null","fixation","","","","",""
"","1112","audio-keyboard-response","491","879522","0.0-3.0-1.407","../audio/74-1-masc.mp3"," ","","Este","","","",""
"","1219","audio-keyboard-response","492","881099","0.0-3.0-1.408","../audio/74-2-masc.mp3"," ","","emprego","","","",""
"","1011","audio-keyboard-response","493","882442","0.0-3.0-1.409","../audio/74-3-masc.mp3"," ","","é","","","",""
"","1051","audio-keyboard-response","494","883841","0.0-3.0-1.410","../audio/74-4-masc.mp3"," ","","muito","","","",""
"","1291","audio-keyboard-response","495","885471","0.0-3.0-1.411","../audio/74-5-masc.mp3"," ","","cansativo","","","",""
"","928","audio-keyboard-response","496","886731","0.0-3.0-1.412","../audio/74-6-masc.mp3"," ","","a","","","",""
"","1291","audio-keyboard-response","497","888359","0.0-3.0-1.413","../audio/74-7-masc.mp3"," ","","longo","","","",""
"","1680","audio-keyboard-response","498","890385","0.0-3.0-1.414","../audio/74-8-masc.mp3"," ","","prazo.","","","",""
"","null","html-keyboard-response","499","891659","0.0-3.0-0.415-0.415","<span style= ""font-size:30px; font-family: monospace"">+</span>","null","fixation","","","","",""
"","1389","audio-keyboard-response","500","893435","0.0-3.0-1.415","../audio/75-1-masc.mp3"," ","","Só","","","",""
"","1120","audio-keyboard-response","501","894889","0.0-3.0-1.416","../audio/75-2-masc.mp3"," ","","existe","","","",""
"","920","audio-keyboard-response","502","896150","0.0-3.0-1.417","../audio/75-3-masc.mp3"," ","","uma","","","",""
"","1160","audio-keyboard-response","503","897666","0.0-3.0-1.418","../audio/75-4-masc.mp3"," ","","pessoa","","","",""
"","1269","audio-keyboard-response","504","899277","0.0-3.0-1.419","../audio/75-5-masc.mp3"," ","","canhota","","","",""
"","1149","audio-keyboard-response","505","900774","0.0-3.0-1.420","../audio/75-6-masc.mp3"," ","","nesta","","","",""
"","2099","audio-keyboard-response","506","903226","0.0-3.0-1.421","../audio/75-7-masc.mp3"," ","","cidade.","","","",""
"","4145","html-keyboard-response","507","907639","0.0-3.0-2.421-0.421","<span style=""font-size:25px; font-family: monospace"">Só existe uma pessoa canhota na cidade?</span>","s","","","Só existe uma pessoa canhota na cidade?","null","exp-sent","false"
"","null","html-keyboard-response","508","909151","0.0-3.0-0.422-0.422","<span style= ""font-size:30px; font-family: monospace"">+</span>","null","fixation","","","","",""
"","800","audio-keyboard-response","509","910337","0.0-3.0-1.422","../audio/39-1-masc.mp3"," ","","O","","","",""
"","1139","audio-keyboard-response","510","911820","0.0-3.0-1.423","../audio/39-2-masc.mp3"," ","","conselho","","","",""
"","1000","audio-keyboard-response","511","913165","0.0-3.0-1.424","../audio/39-3-masc.mp3"," ","","foi","","","",""
"","1061","audio-keyboard-response","512","914569","0.0-3.0-1.425","../audio/39-4-masc.mp3"," ","","muito","","","",""
"","1080","audio-keyboard-response","513","915990","0.0-3.0-1.426","../audio/39-5-masc.mp3"," ","","útil","","","",""
"","800","audio-keyboard-response","514","917141","0.0-3.0-1.427","../audio/39-6-masc.mp3"," ","","para","","","",""
"","741","audio-keyboard-response","515","918245","0.0-3.0-1.428","../audio/39-7-masc.mp3"," ","","minha","","","",""
"","829","audio-keyboard-response","516","919422","0.0-3.0-1.429","../audio/39-8-masc.mp3"," ","","tia.","","","",""
"","null","html-keyboard-response","517","920686","0.0-3.0-0.430-0.430","<span style= ""font-size:30px; font-family: monospace"">+</span>","null","fixation","","","","",""
"","832","audio-keyboard-response","518","921881","0.0-3.0-1.430","../audio/38-1-fem.mp3"," ","","A","","","",""
"","1429","audio-keyboard-response","519","923670","0.0-3.0-1.431","../audio/38-2-fem.mp3"," ","","empresa","","","",""
"","880","audio-keyboard-response","520","924895","0.0-3.0-1.432","../audio/38-3-fem.mp3"," ","","criou","","","",""
"","701","audio-keyboard-response","521","925920","0.0-3.0-1.433","../audio/38-4-fem.mp3"," ","","a","","","",""
"","1171","audio-keyboard-response","522","927440","0.0-3.0-1.434","../audio/38-5-fem.mp3"," ","","patente","","","",""
"","931","audio-keyboard-response","523","928720","0.0-3.0-1.435","../audio/38-6-fem.mp3"," ","","da","","","",""
"","920","audio-keyboard-response","524","929987","0.0-3.0-1.436","../audio/38-7-fem.mp3"," ","","frigideira.","","","",""
"","null","html-keyboard-response","525","931249","0.0-3.0-0.437-0.437","<span style= ""font-size:30px; font-family: monospace"">+</span>","null","fixation","","","","",""
"","1029","audio-keyboard-response","526","932662","0.0-3.0-1.437","../audio/37-1-masc.mp3"," ","","Eu","","","",""
"","1259","audio-keyboard-response","527","934267","0.0-3.0-1.438","../audio/37-2-masc.mp3"," ","","adoro","","","",""
"","909","audio-keyboard-response","528","935509","0.0-3.0-1.439","../audio/37-3-masc.mp3"," ","","suco","","","",""
"","720","audio-keyboard-response","529","936571","0.0-3.0-1.440","../audio/37-4-masc.mp3"," ","","de","","","",""
"","1080","audio-keyboard-response","530","937991","0.0-3.0-1.441","../audio/37-5-masc.mp3"," ","","manga","","","",""
"","752","audio-keyboard-response","531","939089","0.0-3.0-1.442","../audio/37-6-masc.mp3"," ","","com","","","",""
"","1139","audio-keyboard-response","532","940588","0.0-3.0-1.443","../audio/37-7-masc.mp3"," ","","hortelã.","","","",""
"","null","html-keyboard-response","533","941862","0.0-3.0-0.444-0.444","<span style= ""font-size:30px; font-family: monospace"">+</span>","null","fixation","","","","",""
"","912","audio-keyboard-response","534","943167","0.0-3.0-1.444","../audio/36-1-fem.mp3"," ","","Meu","","","",""
"","880","audio-keyboard-response","535","944372","0.0-3.0-1.445","../audio/36-2-fem.mp3"," ","","tio","","","",""
"","1091","audio-keyboard-response","536","945822","0.0-3.0-1.446","../audio/36-3-fem.mp3"," ","","comprou","","","",""
"","800","audio-keyboard-response","537","946953","0.0-3.0-1.447","../audio/36-4-fem.mp3"," ","","um","","","",""
"","1109","audio-keyboard-response","538","948416","0.0-3.0-1.448","../audio/36-5-fem.mp3"," ","","filtro","","","",""
"","1000","audio-keyboard-response","539","949752","0.0-3.0-1.449","../audio/36-6-fem.mp3"," ","","de","","","",""
"","1021","audio-keyboard-response","540","951115","0.0-3.0-1.450","../audio/36-7-fem.mp3"," ","","água","","","",""
"","1131","audio-keyboard-response","541","952591","0.0-3.0-1.451","../audio/36-8-fem.mp3"," ","","hoje","","","",""
"","1451","audio-keyboard-response","542","954389","0.0-3.0-1.452","../audio/36-9-fem.mp3"," ","","cedo.","","","",""
"","null","html-keyboard-response","543","955666","0.0-3.0-0.453-0.453","<span style= ""font-size:30px; font-family: monospace"">+</span>","null","fixation","","","","",""
"","808","audio-keyboard-response","544","956853","0.0-3.0-1.453","../audio/40-1-fem.mp3"," ","","O","","","",""
"","1251","audio-keyboard-response","545","958449","0.0-3.0-1.454","../audio/40-2-fem.mp3"," ","","jogo","","","",""
"","1171","audio-keyboard-response","546","959961","0.0-3.0-1.455","../audio/40-3-fem.mp3"," ","","falava","","","",""
"","861","audio-keyboard-response","547","961157","0.0-3.0-1.456","../audio/40-4-fem.mp3"," ","","de","","","",""
"","1491","audio-keyboard-response","548","963000","0.0-3.0-1.457","../audio/40-5-fem.mp3"," ","","fantasia","","","",""
"","952","audio-keyboard-response","549","964288","0.0-3.0-1.458","../audio/40-6-fem.mp3"," ","","e","","","",""
"","869","audio-keyboard-response","550","965498","0.0-3.0-1.459","../audio/40-7-fem.mp3"," ","","de","","","",""
"","1011","audio-keyboard-response","551","966865","0.0-3.0-1.460","../audio/40-8-fem.mp3"," ","","aventura.","","","",""
"","4161","html-keyboard-response","552","971282","0.0-3.0-2.460-0.460","<span style=""font-size:25px; font-family: monospace"">O jogo tinha fantasia e aventura?</span>","s","","","O jogo tinha fantasia e aventura?","null","exp-sent","false"
"","null","html-keyboard-response","553","972802","0.0-3.0-0.461-0.461","<span style= ""font-size:30px; font-family: monospace"">+</span>","null","fixation","","","","",""
"","1021","audio-keyboard-response","554","974208","0.0-3.0-1.461","../audio/78-1-masc.mp3"," ","","Eles","","","",""
"","1109","audio-keyboard-response","555","975676","0.0-3.0-1.462","../audio/78-2-masc.mp3"," ","","trazem","","","",""
"","749","audio-keyboard-response","556","976778","0.0-3.0-1.463","../audio/78-3-masc.mp3"," ","","um","","","",""
"","899","audio-keyboard-response","557","978019","0.0-3.0-1.464","../audio/78-4-masc.mp3"," ","","fato","","","",""
"","1112","audio-keyboard-response","558","979489","0.0-3.0-1.465","../audio/78-5-masc.mp3"," ","","urgente","","","",""
"","920","audio-keyboard-response","559","980763","0.0-3.0-1.466","../audio/78-6-masc.mp3"," ","","todos","","","",""
"","752","audio-keyboard-response","560","981842","0.0-3.0-1.467","../audio/78-7-masc.mp3"," ","","os","","","",""
"","1459","audio-keyboard-response","561","983652","0.0-3.0-1.468","../audio/78-8-masc.mp3"," ","","dias.","","","",""
"","null","html-keyboard-response","562","984915","0.0-3.0-0.469-0.469","<span style= ""font-size:30px; font-family: monospace"">+</span>","null","fixation","","","","",""
"","869","audio-keyboard-response","563","986174","0.0-3.0-1.469","../audio/79-1-fem.mp3"," ","","A","","","",""
"","1208","audio-keyboard-response","564","987738","0.0-3.0-1.470","../audio/79-2-fem.mp3"," ","","médica","","","",""
"","1491","audio-keyboard-response","565","989560","0.0-3.0-1.471","../audio/79-3-fem.mp3"," ","","verificou","","","",""
"","901","audio-keyboard-response","566","990809","0.0-3.0-1.472","../audio/79-4-fem.mp3"," ","","a","","","",""
"","1648","audio-keyboard-response","567","992819","0.0-3.0-1.473","../audio/79-5-fem.mp3"," ","","gengiva","","","",""
"","760","audio-keyboard-response","568","993915","0.0-3.0-1.474","../audio/79-6-fem.mp3"," ","","por","","","",""
"","1381","audio-keyboard-response","569","995647","0.0-3.0-1.475","../audio/79-7-fem.mp3"," ","","último.","","","",""
"","null","html-keyboard-response","570","996919","0.0-3.0-0.476-0.476","<span style= ""font-size:30px; font-family: monospace"">+</span>","null","fixation","","","","",""
"","712","audio-keyboard-response","571","997999","0.0-3.0-1.476","../audio/77-1-masc.mp3"," ","","A","","","",""
"","1000","audio-keyboard-response","572","999347","0.0-3.0-1.477","../audio/77-2-masc.mp3"," ","","criança","","","",""
"","851","audio-keyboard-response","573","1000546","0.0-3.0-1.478","../audio/77-3-masc.mp3"," ","","ficou","","","",""
"","1040","audio-keyboard-response","574","1001930","0.0-3.0-1.479","../audio/77-4-masc.mp3"," ","","muito","","","",""
"","789","audio-keyboard-response","575","1003063","0.0-3.0-1.480","../audio/77-5-masc.mp3"," ","","feliz","","","",""
"","699","audio-keyboard-response","576","1004104","0.0-3.0-1.481","../audio/77-6-masc.mp3"," ","","com","","","",""
"","640","audio-keyboard-response","577","1005092","0.0-3.0-1.482","../audio/77-7-masc.mp3"," ","","o","","","",""
"","469","audio-keyboard-response","578","1005909","0.0-3.0-1.483","../audio/77-8-masc.mp3"," ","","brinquedo.","","","",""
"","null","html-keyboard-response","579","1007170","0.0-3.0-0.484-0.484","<span style= ""font-size:30px; font-family: monospace"">+</span>","null","fixation","","","","",""
"","691","audio-keyboard-response","580","1008246","0.0-3.0-1.484","../audio/76-1-fem.mp3"," ","","O","","","",""
"","872","audio-keyboard-response","581","1009482","0.0-3.0-1.485","../audio/76-2-fem.mp3"," ","","bisavô","","","",""
"","1109","audio-keyboard-response","582","1010956","0.0-3.0-1.486","../audio/76-3-fem.mp3"," ","","comprou","","","",""
"","792","audio-keyboard-response","583","1012082","0.0-3.0-1.487","../audio/76-4-fem.mp3"," ","","um","","","",""
"","1120","audio-keyboard-response","584","1013550","0.0-3.0-1.488","../audio/76-5-fem.mp3"," ","","ralador","","","",""
"","880","audio-keyboard-response","585","1014777","0.0-3.0-1.489","../audio/76-6-fem.mp3"," ","","de","","","",""
"","1101","audio-keyboard-response","586","1016229","0.0-3.0-1.490","../audio/76-7-fem.mp3"," ","","queijo.","","","",""
"","null","html-keyboard-response","587","1017499","0.0-3.0-0.491-0.491","<span style= ""font-size:30px; font-family: monospace"">+</span>","null","fixation","","","","",""
"","891","audio-keyboard-response","588","1018767","0.0-3.0-1.491","../audio/80-1-fem.mp3"," ","","Meu","","","",""
"","989","audio-keyboard-response","589","1020106","0.0-3.0-1.492","../audio/80-2-fem.mp3"," ","","primo","","","",""
"","1080","audio-keyboard-response","590","1021508","0.0-3.0-1.493","../audio/80-3-fem.mp3"," ","","conheceu","","","",""
"","819","audio-keyboard-response","591","1022663","0.0-3.0-1.494","../audio/80-4-fem.mp3"," ","","um","","","",""
"","1149","audio-keyboard-response","592","1024151","0.0-3.0-1.495","../audio/80-5-fem.mp3"," ","","jovem","","","",""
"","1272","audio-keyboard-response","593","1025766","0.0-3.0-1.496","../audio/80-6-fem.mp3"," ","","amável","","","",""
"","800","audio-keyboard-response","594","1026916","0.0-3.0-1.497","../audio/80-7-fem.mp3"," ","","e","","","",""
"","1371","audio-keyboard-response","595","1028640","0.0-3.0-1.498","../audio/80-8-fem.mp3"," ","","confiante.","","","",""
"","3640","html-keyboard-response","596","1032540","0.0-3.0-2.498-0.498","<span style=""font-size:25px; font-family: monospace"">O primo conheceu um jovem irritante?</span>","n","","","O primo conheceu um jovem irritante?","null","exp-sent","false"
"","null","html-keyboard-response","597","1034064","0.0-3.0-0.499-0.499","<span style= ""font-size:30px; font-family: monospace"">+</span>","null","fixation","","","","",""
"","739","audio-keyboard-response","598","1035184","0.0-3.0-1.499","../audio/12-1-fem.mp3"," ","","O","","","",""
"","840","audio-keyboard-response","599","1036355","0.0-3.0-1.500","../audio/12-2-fem.mp3"," ","","dia","","","",""
"","1192","audio-keyboard-response","600","1037888","0.0-3.0-1.501","../audio/12-3-fem.mp3"," ","","estava","","","",""
"","1349","audio-keyboard-response","601","1039584","0.0-3.0-1.502","../audio/12-4-fem.mp3"," ","","quente,","","","",""
"","1360","audio-keyboard-response","602","1041289","0.0-3.0-1.503","../audio/12-5-fem.mp3"," ","","tranquilo","","","",""
"","851","audio-keyboard-response","603","1042485","0.0-3.0-1.504","../audio/12-6-fem.mp3"," ","","e","","","",""
"","2619","audio-keyboard-response","604","1045455","0.0-3.0-1.505","../audio/12-7-fem.mp3"," ","","ensolarado.","","","",""
"","null","html-keyboard-response","605","1046725","0.0-3.0-0.506-0.506","<span style= ""font-size:30px; font-family: monospace"">+</span>","null","fixation","","","","",""
"","699","audio-keyboard-response","606","1047820","0.0-3.0-1.506","../audio/11-1-fem.mp3"," ","","Elas","","","",""
"","739","audio-keyboard-response","607","1048901","0.0-3.0-1.507","../audio/11-2-fem.mp3"," ","","gostam","","","",""
"","760","audio-keyboard-response","608","1050004","0.0-3.0-1.508","../audio/11-3-fem.mp3"," ","","muito","","","",""
"","680","audio-keyboard-response","609","1051026","0.0-3.0-1.509","../audio/11-4-fem.mp3"," ","","de","","","",""
"","1571","audio-keyboard-response","610","1052956","0.0-3.0-1.510","../audio/11-5-fem.mp3"," ","","aritmética","","","",""
"","771","audio-keyboard-response","611","1054060","0.0-3.0-1.511","../audio/11-6-fem.mp3"," ","","e","","","",""
"","909","audio-keyboard-response","612","1055299","0.0-3.0-1.512","../audio/11-7-fem.mp3"," ","","de","","","",""
"","1379","audio-keyboard-response","613","1057023","0.0-3.0-1.513","../audio/11-8-fem.mp3"," ","","leitura.","","","",""
"","null","html-keyboard-response","614","1058301","0.0-3.0-0.514-0.514","<span style= ""font-size:30px; font-family: monospace"">+</span>","null","fixation","","","","",""
"","779","audio-keyboard-response","615","1059460","0.0-3.0-1.514","../audio/14-1-masc.mp3"," ","","O","","","",""
"","1080","audio-keyboard-response","616","1060879","0.0-3.0-1.515","../audio/14-2-masc.mp3"," ","","cachorro","","","",""
"","880","audio-keyboard-response","617","1062088","0.0-3.0-1.516","../audio/14-3-masc.mp3"," ","","é","","","",""
"","899","audio-keyboard-response","618","1063333","0.0-3.0-1.517","../audio/14-4-masc.mp3"," ","","muito","","","",""
"","760","audio-keyboard-response","619","1064441","0.0-3.0-1.518","../audio/14-5-masc.mp3"," ","","fiel","","","",""
"","749","audio-keyboard-response","620","1065538","0.0-3.0-1.519","../audio/14-6-masc.mp3"," ","","a","","","",""
"","888","audio-keyboard-response","621","1066772","0.0-3.0-1.520","../audio/14-7-masc.mp3"," ","","seus","","","",""
"","1589","audio-keyboard-response","622","1068704","0.0-3.0-1.521","../audio/14-8-masc.mp3"," ","","donos.","","","",""
"","null","html-keyboard-response","623","1069970","0.0-3.0-0.522-0.522","<span style= ""font-size:30px; font-family: monospace"">+</span>","null","fixation","","","","",""
"","960","audio-keyboard-response","624","1071300","0.0-3.0-1.522","../audio/13-1-fem.mp3"," ","","Para","","","",""
"","1491","audio-keyboard-response","625","1073121","0.0-3.0-1.523","../audio/13-2-fem.mp3"," ","","mim","","","",""
"","712","audio-keyboard-response","626","1074161","0.0-3.0-1.524","../audio/13-3-fem.mp3"," ","","é","","","",""
"","861","audio-keyboard-response","627","1075360","0.0-3.0-1.525","../audio/13-4-fem.mp3"," ","","muito","","","",""
"","949","audio-keyboard-response","628","1076651","0.0-3.0-1.526","../audio/13-5-fem.mp3"," ","","difícil","","","",""
"","1139","audio-keyboard-response","629","1078144","0.0-3.0-1.527","../audio/13-6-fem.mp3"," ","","acordar","","","",""
"","1040","audio-keyboard-response","630","1079548","0.0-3.0-1.528","../audio/13-7-fem.mp3"," ","","cedo.","","","",""
"","null","html-keyboard-response","631","1080814","0.0-3.0-0.529-0.529","<span style= ""font-size:30px; font-family: monospace"">+</span>","null","fixation","","","","",""
"","859","audio-keyboard-response","632","1082053","0.0-3.0-1.529","../audio/15-1-masc.mp3"," ","","Meu","","","",""
"","701","audio-keyboard-response","633","1083088","0.0-3.0-1.530","../audio/15-2-masc.mp3"," ","","primo","","","",""
"","720","audio-keyboard-response","634","1084146","0.0-3.0-1.531","../audio/15-3-masc.mp3"," ","","é","","","",""
"","739","audio-keyboard-response","635","1085224","0.0-3.0-1.532","../audio/15-4-masc.mp3"," ","","um","","","",""
"","811","audio-keyboard-response","636","1086392","0.0-3.0-1.533","../audio/15-5-masc.mp3"," ","","grande","","","",""
"","1229","audio-keyboard-response","637","1087975","0.0-3.0-1.534","../audio/15-6-masc.mp3"," ","","vendedor","","","",""
"","880","audio-keyboard-response","638","1089189","0.0-3.0-1.535","../audio/15-7-masc.mp3"," ","","de","","","",""
"","1040","audio-keyboard-response","639","1090572","0.0-3.0-1.536","../audio/15-8-masc.mp3"," ","","carros.","","","",""
"","1621","html-keyboard-response","640","1092446","0.0-3.0-2.536-0.536","<span style=""font-size:25px; font-family: monospace"">O primo é um vendedor de carros?</span>","s","","","O primo é um vendedor de carros?","null","exp-sent","false"
"","null","html-keyboard-response","641","1093954","0.0-3.0-0.537-0.537","<span style= ""font-size:30px; font-family: monospace"">+</span>","null","fixation","","","","",""
"","859","audio-keyboard-response","642","1095258","0.0-3.0-1.537","../audio/17-1-masc.mp3"," ","","Falaram","","","",""
"","749","audio-keyboard-response","643","1096376","0.0-3.0-1.538","../audio/17-2-masc.mp3"," ","","da","","","",""
"","1029","audio-keyboard-response","644","1097793","0.0-3.0-1.539","../audio/17-3-masc.mp3"," ","","lei","","","",""
"","1040","audio-keyboard-response","645","1099195","0.0-3.0-1.540","../audio/17-4-masc.mp3"," ","","no","","","",""
"","1099","audio-keyboard-response","646","1100701","0.0-3.0-1.541","../audio/17-5-masc.mp3"," ","","ministério","","","",""
"","1139","audio-keyboard-response","647","1102256","0.0-3.0-1.542","../audio/17-6-masc.mp3"," ","","diversas","","","",""
"","1640","audio-keyboard-response","648","1104288","0.0-3.0-1.543","../audio/17-7-masc.mp3"," ","","vezes.","","","",""
"","null","html-keyboard-response","649","1105548","0.0-3.0-0.544-0.544","<span style= ""font-size:30px; font-family: monospace"">+</span>","null","fixation","","","","",""
"","792","audio-keyboard-response","650","1106725","0.0-3.0-1.544","../audio/18-1-masc.mp3"," ","","O","","","",""
"","1029","audio-keyboard-response","651","1108105","0.0-3.0-1.545","../audio/18-2-masc.mp3"," ","","enredo","","","",""
"","1021","audio-keyboard-response","652","1109474","0.0-3.0-1.546","../audio/18-3-masc.mp3"," ","","traz","","","",""
"","848","audio-keyboard-response","653","1110659","0.0-3.0-1.547","../audio/18-4-masc.mp3"," ","","um","","","",""
"","1131","audio-keyboard-response","654","1112120","0.0-3.0-1.548","../audio/18-5-masc.mp3"," ","","dragão","","","",""
"","981","audio-keyboard-response","655","1113444","0.0-3.0-1.549","../audio/18-6-masc.mp3"," ","","forte","","","",""
"","949","audio-keyboard-response","656","1114757","0.0-3.0-1.550","../audio/18-7-masc.mp3"," ","","e","","","",""
"","1251","audio-keyboard-response","657","1116366","0.0-3.0-1.551","../audio/18-8-masc.mp3"," ","","solitário.","","","",""
"","null","html-keyboard-response","658","1117628","0.0-3.0-0.552-0.552","<span style= ""font-size:30px; font-family: monospace"">+</span>","null","fixation","","","","",""
"","840","audio-keyboard-response","659","1118927","0.0-3.0-1.552","../audio/16-1-fem.mp3"," ","","Eu","","","",""
"","960","audio-keyboard-response","660","1120222","0.0-3.0-1.553","../audio/16-2-fem.mp3"," ","","nunca","","","",""
"","1131","audio-keyboard-response","661","1121701","0.0-3.0-1.554","../audio/16-3-fem.mp3"," ","","conheci","","","",""
"","920","audio-keyboard-response","662","1122970","0.0-3.0-1.555","../audio/16-4-fem.mp3"," ","","um","","","",""
"","1229","audio-keyboard-response","663","1124555","0.0-3.0-1.556","../audio/16-5-fem.mp3"," ","","general","","","",""
"","821","audio-keyboard-response","664","1125718","0.0-3.0-1.557","../audio/16-6-fem.mp3"," ","","do","","","",""
"","1941","audio-keyboard-response","665","1128008","0.0-3.0-1.558","../audio/16-7-fem.mp3"," ","","exército.","","","",""
"","null","html-keyboard-response","666","1129281","0.0-3.0-0.559-0.559","<span style= ""font-size:30px; font-family: monospace"">+</span>","null","fixation","","","","",""
"","789","audio-keyboard-response","667","1130452","0.0-3.0-1.559","../audio/19-1-masc.mp3"," ","","O","","","",""
"","1029","audio-keyboard-response","668","1131814","0.0-3.0-1.560","../audio/19-2-masc.mp3"," ","","menino","","","",""
"","928","audio-keyboard-response","669","1133089","0.0-3.0-1.561","../audio/19-3-masc.mp3"," ","","ganhou","","","",""
"","821","audio-keyboard-response","670","1134244","0.0-3.0-1.562","../audio/19-4-masc.mp3"," ","","uma","","","",""
"","1101","audio-keyboard-response","671","1135673","0.0-3.0-1.563","../audio/19-5-masc.mp3"," ","","bala","","","",""
"","1021","audio-keyboard-response","672","1137044","0.0-3.0-1.564","../audio/19-6-masc.mp3"," ","","depois","","","",""
"","760","audio-keyboard-response","673","1138141","0.0-3.0-1.565","../audio/19-7-masc.mp3"," ","","do","","","",""
"","1101","audio-keyboard-response","674","1139597","0.0-3.0-1.566","../audio/19-8-masc.mp3"," ","","almoço.","","","",""
"","null","html-keyboard-response","675","1140873","0.0-3.0-0.567-0.567","<span style= ""font-size:30px; font-family: monospace"">+</span>","null","fixation","","","","",""
"","72","audio-keyboard-response","676","1141322","0.0-3.0-1.567","../audio/20-1-masc.mp3"," ","","O","","","",""
"","1280","audio-keyboard-response","677","1142930","0.0-3.0-1.568","../audio/20-2-masc.mp3"," ","","colega","","","",""
"","1048","audio-keyboard-response","678","1144334","0.0-3.0-1.569","../audio/20-3-masc.mp3"," ","","parecia","","","",""
"","1179","audio-keyboard-response","679","1145854","0.0-3.0-1.570","../audio/20-4-masc.mp3"," ","","muito","","","",""
"","1549","audio-keyboard-response","680","1147746","0.0-3.0-1.571","../audio/20-5-masc.mp3"," ","","gripado","","","",""
"","979","audio-keyboard-response","681","1149064","0.0-3.0-1.572","../audio/20-6-masc.mp3"," ","","no","","","",""
"","811","audio-keyboard-response","682","1150206","0.0-3.0-1.573","../audio/20-7-masc.mp3"," ","","dia","","","",""
"","1120","audio-keyboard-response","683","1151668","0.0-3.0-1.574","../audio/20-8-masc.mp3"," ","","anterior.","","","",""
"","2056","html-keyboard-response","684","1153989","0.0-3.0-2.574-0.574","<span style=""font-size:25px; font-family: monospace"">O colega parecia muito gripado?</span>","s","","","O colega parecia muito gripado?","null","exp-sent","false"
"","null","html-keyboard-response","685","1155507","0.0-3.0-0.575-0.575","<span style= ""font-size:30px; font-family: monospace"">+</span>","null","fixation","","","","",""
"","872","audio-keyboard-response","686","1156761","0.0-3.0-1.575","../audio/66-1-fem.mp3"," ","","Não","","","",""
"","1221","audio-keyboard-response","687","1158328","0.0-3.0-1.576","../audio/66-2-fem.mp3"," ","","gosto","","","",""
"","659","audio-keyboard-response","688","1159349","0.0-3.0-1.577","../audio/66-3-fem.mp3"," ","","de","","","",""
"","1200","audio-keyboard-response","689","1160881","0.0-3.0-1.578","../audio/66-4-fem.mp3"," ","","gente","","","",""
"","1389","audio-keyboard-response","690","1162622","0.0-3.0-1.579","../audio/66-5-fem.mp3"," ","","egoísta","","","",""
"","960","audio-keyboard-response","691","1163927","0.0-3.0-1.580","../audio/66-6-fem.mp3"," ","","nem","","","",""
"","1248","audio-keyboard-response","692","1165537","0.0-3.0-1.581","../audio/66-7-fem.mp3"," ","","chata.","","","",""
"","null","html-keyboard-response","693","1166810","0.0-3.0-0.582-0.582","<span style= ""font-size:30px; font-family: monospace"">+</span>","null","fixation","","","","",""
"","811","audio-keyboard-response","694","1167989","0.0-3.0-1.582","../audio/69-1-fem.mp3"," ","","A","","","",""
"","1000","audio-keyboard-response","695","1169302","0.0-3.0-1.583","../audio/69-2-fem.mp3"," ","","loja","","","",""
"","1040","audio-keyboard-response","696","1170655","0.0-3.0-1.584","../audio/69-3-fem.mp3"," ","","recebeu","","","",""
"","880","audio-keyboard-response","697","1171875","0.0-3.0-1.585","../audio/69-4-fem.mp3"," ","","uma","","","",""
"","1200","audio-keyboard-response","698","1173414","0.0-3.0-1.586","../audio/69-5-fem.mp3"," ","","poltrona","","","",""
"","800","audio-keyboard-response","699","1174534","0.0-3.0-1.587","../audio/69-6-fem.mp3"," ","","de","","","",""
"","1051","audio-keyboard-response","700","1175920","0.0-3.0-1.588","../audio/69-7-fem.mp3"," ","","couro","","","",""
"","1261","audio-keyboard-response","701","1177525","0.0-3.0-1.589","../audio/69-8-fem.mp3"," ","","preto.","","","",""
"","null","html-keyboard-response","702","1178790","0.0-3.0-0.590-0.590","<span style= ""font-size:30px; font-family: monospace"">+</span>","null","fixation","","","","",""
"","1032","audio-keyboard-response","703","1180203","0.0-3.0-1.590","../audio/67-1-masc.mp3"," ","","Minha","","","",""
"","779","audio-keyboard-response","704","1181337","0.0-3.0-1.591","../audio/67-2-masc.mp3"," ","","tia","","","",""
"","600","audio-keyboard-response","705","1182287","0.0-3.0-1.592","../audio/67-3-masc.mp3"," ","","comprou","","","",""
"","771","audio-keyboard-response","706","1183392","0.0-3.0-1.593","../audio/67-4-masc.mp3"," ","","um","","","",""
"","659","audio-keyboard-response","707","1184384","0.0-3.0-1.594","../audio/67-5-masc.mp3"," ","","cordão","","","",""
"","808","audio-keyboard-response","708","1185538","0.0-3.0-1.595","../audio/67-6-masc.mp3"," ","","para","","","",""
"","931","audio-keyboard-response","709","1186800","0.0-3.0-1.596","../audio/67-7-masc.mp3"," ","","o","","","",""
"","1221","audio-keyboard-response","710","1188396","0.0-3.0-1.597","../audio/67-8-masc.mp3"," ","","varal.","","","",""
"","null","html-keyboard-response","711","1189660","0.0-3.0-0.598-0.598","<span style= ""font-size:30px; font-family: monospace"">+</span>","null","fixation","","","","",""
"","749","audio-keyboard-response","712","1190793","0.0-3.0-1.598","../audio/68-1-masc.mp3"," ","","Meu","","","",""
"","1061","audio-keyboard-response","713","1192205","0.0-3.0-1.599","../audio/68-2-masc.mp3"," ","","irmão","","","",""
"","899","audio-keyboard-response","714","1193459","0.0-3.0-1.600","../audio/68-3-masc.mp3"," ","","teve","","","",""
"","1080","audio-keyboard-response","715","1194873","0.0-3.0-1.601","../audio/68-4-masc.mp3"," ","","um","","","",""
"","1131","audio-keyboard-response","716","1196356","0.0-3.0-1.602","../audio/68-5-masc.mp3"," ","","noivado","","","",""
"","1061","audio-keyboard-response","717","1197758","0.0-3.0-1.603","../audio/68-6-masc.mp3"," ","","longo","","","",""
"","931","audio-keyboard-response","718","1199021","0.0-3.0-1.604","../audio/68-7-masc.mp3"," ","","e","","","",""
"","1272","audio-keyboard-response","719","1200646","0.0-3.0-1.605","../audio/68-8-masc.mp3"," ","","maravilhoso.","","","",""
"","null","html-keyboard-response","720","1201906","0.0-3.0-0.606-0.606","<span style= ""font-size:30px; font-family: monospace"">+</span>","null","fixation","","","","",""
"","419","audio-keyboard-response","721","1202703","0.0-3.0-1.606","../audio/70-1-fem.mp3"," ","","O","","","",""
"","661","audio-keyboard-response","722","1203713","0.0-3.0-1.607","../audio/70-2-fem.mp3"," ","","meu","","","",""
"","749","audio-keyboard-response","723","1204793","0.0-3.0-1.608","../audio/70-3-fem.mp3"," ","","filho","","","",""
"","771","audio-keyboard-response","724","1205912","0.0-3.0-1.609","../audio/70-4-fem.mp3"," ","","tem","","","",""
"","1040","audio-keyboard-response","725","1207292","0.0-3.0-1.610","../audio/70-5-fem.mp3"," ","","medo","","","",""
"","1000","audio-keyboard-response","726","1208627","0.0-3.0-1.611","../audio/70-6-fem.mp3"," ","","de","","","",""
"","1192","audio-keyboard-response","727","1210163","0.0-3.0-1.612","../audio/70-7-fem.mp3"," ","","enguia","","","",""
"","741","audio-keyboard-response","728","1211243","0.0-3.0-1.613","../audio/70-8-fem.mp3"," ","","e","","","",""
"","1259","audio-keyboard-response","729","1212859","0.0-3.0-1.614","../audio/70-9-fem.mp3"," ","","beija-flor.","","","",""
"","1629","html-keyboard-response","730","1214744","0.0-3.0-2.614-0.614","<span style=""font-size:25px; font-family: monospace"">O filho tem medo de tigre?</span>","n","","","O filho tem medo de tigre?","null","exp-sent","false"
"[{""page_index"":0,""viewing_time"":6251}]","6251","instructions","731","1221510","0.0-4.0","","","","","","","",""
