"view_history","rt","trial_type","trial_index","time_elapsed","internal_node_id","stimulus","response","portuguese","kreyol"
"[{""page_index"":0,""viewing_time"":18996}]","18996","instructions","0","19001","0.0-0.0","","","",""
"","null","html-keyboard-response","1","19620","0.0-1.0-0.0","+","null","",""
"","4992","audio-keyboard-response","2","25177","0.0-1.0-1.0","../audio/teste-vocab--38.mp3","s","cerimônia","seremoni"
"","null","html-keyboard-response","3","25693","0.0-1.0-0.1","+","null","",""
"","2459","audio-keyboard-response","4","28240","0.0-1.0-1.1","../audio/teste-vocab--80.mp3","s","binóculo","longvi"
"","null","html-keyboard-response","5","28753","0.0-1.0-0.2","+","null","",""
"","1979","audio-keyboard-response","6","30805","0.0-1.0-1.2","../audio/teste-vocab--97.mp3","s","frágil","frajil"
"","null","html-keyboard-response","7","31315","0.0-1.0-0.3","+","null","",""
"","3171","audio-keyboard-response","8","34561","0.0-1.0-1.3","../audio/teste-vocab--83.mp3","n","morsa","mòs"
"","null","html-keyboard-response","9","35068","0.0-1.0-0.4","+","null","",""
"","2720","audio-keyboard-response","10","37862","0.0-1.0-1.4","../audio/teste-vocab--58.mp3","s","nutritivo","nourisan"
"","null","html-keyboard-response","11","38374","0.0-1.0-0.5","+","null","",""
"","2960","audio-keyboard-response","12","41419","0.0-1.0-1.5","../audio/teste-vocab--44.mp3","s","premiar","rekonpanse"
"","null","html-keyboard-response","13","41927","0.0-1.0-0.6","+","null","",""
"","2389","audio-keyboard-response","14","44399","0.0-1.0-1.6","../audio/teste-vocab--105.mp3","s","cítrico","sitrik"
"","null","html-keyboard-response","15","44914","0.0-1.0-0.7","+","null","",""
"","2640","audio-keyboard-response","16","47632","0.0-1.0-1.7","../audio/teste-vocab--20.mp3","s","medir","mezire"
"","null","html-keyboard-response","17","48142","0.0-1.0-0.8","+","null","",""
"","2131","audio-keyboard-response","18","50348","0.0-1.0-1.8","../audio/teste-vocab--130.mp3","s","gentil","dou"
"","null","html-keyboard-response","19","50849","0.0-1.0-0.9","+","null","",""
"","2691","audio-keyboard-response","20","53579","0.0-1.0-1.9","../audio/teste-vocab--113.mp3","s","ascender","limen"
"","null","html-keyboard-response","21","54098","0.0-1.0-0.10","+","null","",""
"","2739","audio-keyboard-response","22","56911","0.0-1.0-1.10","../audio/teste-vocab--43.mp3","s","mecânico","mekanisyen"
"","null","html-keyboard-response","23","57412","0.0-1.0-0.11","+","null","",""
"","2432","audio-keyboard-response","24","60027","0.0-1.0-1.11","../audio/teste-vocab--56.mp3","s","agricultura","agrikilti"
"","null","html-keyboard-response","25","60536","0.0-1.0-0.12","+","null","",""
"","2400","audio-keyboard-response","26","63007","0.0-1.0-1.12","../audio/teste-vocab--98.mp3","s","instruir","enstwi"
"","null","html-keyboard-response","27","63523","0.0-1.0-0.13","+","null","",""
"","2360","audio-keyboard-response","28","65921","0.0-1.0-1.13","../audio/teste-vocab--05.mp3","s","limpar","netwaye"
"","null","html-keyboard-response","29","66435","0.0-1.0-0.14","+","null","",""
"","2640","audio-keyboard-response","30","69150","0.0-1.0-1.14","../audio/teste-vocab--115.mp3","s","perpendicular","pèpandikilè"
"","null","html-keyboard-response","31","69657","0.0-1.0-0.15","+","null","",""
"","2349","audio-keyboard-response","32","72084","0.0-1.0-1.15","../audio/teste-vocab--111.mp3","s","jubilosa","rejwisans"
"","null","html-keyboard-response","33","72594","0.0-1.0-0.16","+","null","",""
"","2301","audio-keyboard-response","34","74976","0.0-1.0-1.16","../audio/teste-vocab--23.mp3","s","acariciar","karese"
"","null","html-keyboard-response","35","75493","0.0-1.0-0.17","+","null","",""
"","1792","audio-keyboard-response","36","77348","0.0-1.0-1.17","../audio/teste-vocab--26.mp3","s","cotovelo","koud"
"","null","html-keyboard-response","37","77853","0.0-1.0-0.18","+","null","",""
"","1941","audio-keyboard-response","38","79869","0.0-1.0-1.18","../audio/teste-vocab--32.mp3","s","descascar","dekale"
"","null","html-keyboard-response","39","80386","0.0-1.0-0.19","+","null","",""
"","3211","audio-keyboard-response","40","83663","0.0-1.0-1.19","../audio/teste-vocab--70.mp3","n","funil","antónwa"
"","null","html-keyboard-response","41","84183","0.0-1.0-0.20","+","null","",""
"","1989","audio-keyboard-response","42","86249","0.0-1.0-1.20","../audio/teste-vocab--42.mp3","s","isolamento","izòlman"
"","null","html-keyboard-response","43","86763","0.0-1.0-0.21","+","null","",""
"","1952","audio-keyboard-response","44","88781","0.0-1.0-1.21","../audio/teste-vocab--27.mp3","s","rio","rivyè"
"","null","html-keyboard-response","45","89285","0.0-1.0-0.22","+","null","",""
"","2280","audio-keyboard-response","46","91655","0.0-1.0-1.22","../audio/teste-vocab--61.mp3","s","iluminação","iliminasyon"
"","null","html-keyboard-response","47","92156","0.0-1.0-0.23","+","null","",""
"","1931","audio-keyboard-response","48","94162","0.0-1.0-1.23","../audio/teste-vocab--119.mp3","s","numeroso","anpil"
"","null","html-keyboard-response","49","94670","0.0-1.0-0.24","+","null","",""
"","2328","audio-keyboard-response","50","97074","0.0-1.0-1.24","../audio/teste-vocab--89.mp3","s","classificar","klasifika"
"","null","html-keyboard-response","51","97591","0.0-1.0-0.25","+","null","",""
"","1979","audio-keyboard-response","52","99636","0.0-1.0-1.25","../audio/teste-vocab--03.mp3","s","balançar","balanse"
"","null","html-keyboard-response","53","100146","0.0-1.0-0.26","+","null","",""
"","1640","audio-keyboard-response","54","101850","0.0-1.0-1.26","../audio/teste-vocab--55.mp3","s","bosque","forè"
"","null","html-keyboard-response","55","102356","0.0-1.0-0.27","+","null","",""
"","1589","audio-keyboard-response","56","104014","0.0-1.0-1.27","../audio/teste-vocab--39.mp3","s","cobra","koulèv"
"","null","html-keyboard-response","57","104515","0.0-1.0-0.28","+","null","",""
"","1680","audio-keyboard-response","58","106265","0.0-1.0-1.28","../audio/teste-vocab--46.mp3","s","ombro","zepòl"
"","null","html-keyboard-response","59","106774","0.0-1.0-0.29","+","null","",""
"","1621","audio-keyboard-response","60","108460","0.0-1.0-1.29","../audio/teste-vocab--07.mp3","s","abajur","lanp"
"","null","html-keyboard-response","61","108973","0.0-1.0-0.30","+","null","",""
"","1931","audio-keyboard-response","62","110981","0.0-1.0-1.30","../audio/teste-vocab--125.mp3","s","lamaçal","labou"
"","null","html-keyboard-response","63","111489","0.0-1.0-0.31","+","null","",""
"","1760","audio-keyboard-response","64","113313","0.0-1.0-1.31","../audio/teste-vocab--02.mp3","s","homem","gason"
"","null","html-keyboard-response","65","113824","0.0-1.0-0.32","+","null","",""
"","1920","audio-keyboard-response","66","115811","0.0-1.0-1.32","../audio/teste-vocab--54.mp3","s","arbusto","raje"
"","null","html-keyboard-response","67","116319","0.0-1.0-0.33","+","null","",""
"","2261","audio-keyboard-response","68","118651","0.0-1.0-1.33","../audio/teste-vocab--124.mp3","s","obelisco","obelisk"
"","null","html-keyboard-response","69","119156","0.0-1.0-0.34","+","null","",""
"","1960","audio-keyboard-response","70","121180","0.0-1.0-1.34","../audio/teste-vocab--29.mp3","s","rasgar","chire"
"","null","html-keyboard-response","71","121686","0.0-1.0-0.35","+","null","",""
"","2672","audio-keyboard-response","72","124426","0.0-1.0-1.35","../audio/teste-vocab--12.mp3","s","jaula","kaj"
"","null","html-keyboard-response","73","124937","0.0-1.0-0.36","+","null","",""
"","2941","audio-keyboard-response","74","127975","0.0-1.0-1.36","../audio/teste-vocab--103.mp3","n","utensílio","istansil"
"","null","html-keyboard-response","75","128482","0.0-1.0-0.37","+","null","",""
"","2152","audio-keyboard-response","76","130707","0.0-1.0-1.37","../audio/teste-vocab--69.mp3","s","pingar","degoute"
"","null","html-keyboard-response","77","131220","0.0-1.0-0.38","+","null","",""
"","1851","audio-keyboard-response","78","133137","0.0-1.0-1.38","../audio/teste-vocab--21.mp3","s","baleia","balèn"
"","null","html-keyboard-response","79","133651","0.0-1.0-0.39","+","null","",""
"","2568","audio-keyboard-response","80","136273","0.0-1.0-1.39","../audio/teste-vocab--59.mp3","s","par","pè"
"","null","html-keyboard-response","81","136776","0.0-1.0-0.40","+","null","",""
"","1731","audio-keyboard-response","82","138562","0.0-1.0-1.40","../audio/teste-vocab--10.mp3","s","corneta","kòn"
"","null","html-keyboard-response","83","139065","0.0-1.0-0.41","+","null","",""
"","2781","audio-keyboard-response","84","141940","0.0-1.0-1.41","../audio/teste-vocab--112.mp3","s","aparição","aparisyon"
"","null","html-keyboard-response","85","142445","0.0-1.0-0.42","+","null","",""
"","1989","audio-keyboard-response","86","144524","0.0-1.0-1.42","../audio/teste-vocab--114.mp3","s","fragmentar","dechire"
"","null","html-keyboard-response","87","145026","0.0-1.0-0.43","+","null","",""
"","2189","audio-keyboard-response","88","147281","0.0-1.0-1.43","../audio/teste-vocab--18.mp3","s","abelha","myèl"
"","null","html-keyboard-response","89","147795","0.0-1.0-0.44","+","null","",""
"","1909","audio-keyboard-response","90","149769","0.0-1.0-1.44","../audio/teste-vocab--117.mp3","s","córnea","kòn"
"","null","html-keyboard-response","91","150283","0.0-1.0-0.45","+","null","",""
"","1768","audio-keyboard-response","92","152118","0.0-1.0-1.45","../audio/teste-vocab--14.mp3","s","ler","li"
"","null","html-keyboard-response","93","152622","0.0-1.0-0.46","+","null","",""
"","1869","audio-keyboard-response","94","154569","0.0-1.0-1.46","../audio/teste-vocab--53.mp3","s","orientar","oryante"
"","null","html-keyboard-response","95","155072","0.0-1.0-0.47","+","null","",""
"","2229","audio-keyboard-response","96","157372","0.0-1.0-1.47","../audio/teste-vocab--76.mp3","s","arquivar","achive"
"","null","html-keyboard-response","97","157889","0.0-1.0-0.48","+","null","",""
"","1792","audio-keyboard-response","98","159740","0.0-1.0-1.48","../audio/teste-vocab--64.mp3","s","colher","kiyè"
"","null","html-keyboard-response","99","160242","0.0-1.0-0.49","+","null","",""
"","1891","audio-keyboard-response","100","162200","0.0-1.0-1.49","../audio/teste-vocab--127.mp3","s","côncavo","konkav"
"","null","html-keyboard-response","101","162716","0.0-1.0-0.50","+","null","",""
"","1979","audio-keyboard-response","102","164763","0.0-1.0-1.50","../audio/teste-vocab--62.mp3","s","carretel","bobin"
"","null","html-keyboard-response","103","165275","0.0-1.0-0.51","+","null","",""
"","3531","audio-keyboard-response","104","168865","0.0-1.0-1.51","../audio/teste-vocab--34.mp3","n","tronco","twon"
"","null","html-keyboard-response","105","169371","0.0-1.0-0.52","+","null","",""
"","2179","audio-keyboard-response","106","171648","0.0-1.0-1.52","../audio/teste-vocab--13.mp3","s","ambulância","anbilans"
"","null","html-keyboard-response","107","172153","0.0-1.0-0.53","+","null","",""
"","2179","audio-keyboard-response","108","174407","0.0-1.0-1.53","../audio/teste-vocab--86.mp3","s","pensar","panse"
"","null","html-keyboard-response","109","174919","0.0-1.0-0.54","+","null","",""
"","1941","audio-keyboard-response","110","176936","0.0-1.0-1.54","../audio/teste-vocab--77.mp3","s","comércio","komès"
"","null","html-keyboard-response","111","177439","0.0-1.0-0.55","+","null","",""
"","3411","audio-keyboard-response","112","180921","0.0-1.0-1.55","../audio/teste-vocab--90.mp3","n","carniça","kanivò"
"","null","html-keyboard-response","113","181431","0.0-1.0-0.56","+","null","",""
"","2448","audio-keyboard-response","114","183950","0.0-1.0-1.56","../audio/teste-vocab--52.mp3","s","construção","konstriksyon"
"","null","html-keyboard-response","115","184459","0.0-1.0-0.57","+","null","",""
"","1851","audio-keyboard-response","116","186387","0.0-1.0-1.57","../audio/teste-vocab--126.mp3","s","ambulante","promennen"
"","null","html-keyboard-response","117","186894","0.0-1.0-0.58","+","null","",""
"","1960","audio-keyboard-response","118","188931","0.0-1.0-1.58","../audio/teste-vocab--87.mp3","s","ave","zwazo"
"","null","html-keyboard-response","119","189446","0.0-1.0-0.59","+","null","",""
"","2112","audio-keyboard-response","120","191629","0.0-1.0-1.59","../audio/teste-vocab--99.mp3","s","arqueólogo","akeyológ"
"","null","html-keyboard-response","121","192133","0.0-1.0-0.60","+","null","",""
"","1931","audio-keyboard-response","122","194133","0.0-1.0-1.60","../audio/teste-vocab--88.mp3","s","portátil","pòtab"
"","null","html-keyboard-response","123","194636","0.0-1.0-0.61","+","null","",""
"","2259","audio-keyboard-response","124","196969","0.0-1.0-1.61","../audio/teste-vocab--09.mp3","s","vela","bouji"
"","null","html-keyboard-response","125","197484","0.0-1.0-0.62","+","null","",""
"","2760","audio-keyboard-response","126","200319","0.0-1.0-1.62","../audio/teste-vocab--116.mp3","s","vestuário","vestyè"
"","null","html-keyboard-response","127","200829","0.0-1.0-0.63","+","null","",""
"","2149","audio-keyboard-response","128","203039","0.0-1.0-1.63","../audio/teste-vocab--73.mp3","s","ângulo","ang"
"","null","html-keyboard-response","129","203542","0.0-1.0-0.64","+","null","",""
"","2040","audio-keyboard-response","130","205640","0.0-1.0-1.64","../audio/teste-vocab--122.mp3","s","transeunte","pasajè"
"","null","html-keyboard-response","131","206153","0.0-1.0-0.65","+","null","",""
"","2339","audio-keyboard-response","132","208561","0.0-1.0-1.65","../audio/teste-vocab--93.mp3","s","felino","leopa"
"","null","html-keyboard-response","133","209062","0.0-1.0-0.66","+","null","",""
"","2291","audio-keyboard-response","134","211420","0.0-1.0-1.66","../audio/teste-vocab--40.mp3","s","bebida","bwason"
"","null","html-keyboard-response","135","211930","0.0-1.0-0.67","+","null","",""
"","2469","audio-keyboard-response","136","214477","0.0-1.0-1.67","../audio/teste-vocab--94.mp3","s","paralelo","paralèl"
"","null","html-keyboard-response","137","214989","0.0-1.0-0.68","+","null","",""
"","2440","audio-keyboard-response","138","217503","0.0-1.0-1.68","../audio/teste-vocab--129.mp3","s","elipse","elips"
"","null","html-keyboard-response","139","218006","0.0-1.0-0.69","+","null","",""
"","1771","audio-keyboard-response","140","219849","0.0-1.0-1.69","../audio/teste-vocab--106.mp3","s","lubrificar","grese"
"","null","html-keyboard-response","141","220357","0.0-1.0-0.70","+","null","",""
"","2101","audio-keyboard-response","142","222539","0.0-1.0-1.70","../audio/teste-vocab--100.mp3","s","consumir","konsome"
"","null","html-keyboard-response","143","223043","0.0-1.0-0.71","+","null","",""
"","2221","audio-keyboard-response","144","225345","0.0-1.0-1.71","../audio/teste-vocab--63.mp3","s","transparente","transparan"
"","null","html-keyboard-response","145","225861","0.0-1.0-0.72","+","null","",""
"","2189","audio-keyboard-response","146","228138","0.0-1.0-1.72","../audio/teste-vocab--37.mp3","s","músico","mizisyen"
"","null","html-keyboard-response","147","228651","0.0-1.0-0.73","+","null","",""
"","2109","audio-keyboard-response","148","230831","0.0-1.0-1.73","../audio/teste-vocab--35.mp3","s","líquido","likid"
"","null","html-keyboard-response","149","231333","0.0-1.0-0.74","+","null","",""
"","1760","audio-keyboard-response","150","233188","0.0-1.0-1.74","../audio/teste-vocab--16.mp3","s","pescoço","kou"
"","null","html-keyboard-response","151","233702","0.0-1.0-0.75","+","null","",""
"","2051","audio-keyboard-response","152","235847","0.0-1.0-1.75","../audio/teste-vocab--51.mp3","s","recolher","kolekte"
"","null","html-keyboard-response","153","236355","0.0-1.0-0.76","+","null","",""
"","1651","audio-keyboard-response","154","238098","0.0-1.0-1.76","../audio/teste-vocab--48.mp3","s","joia","bijou"
"","null","html-keyboard-response","155","238614","0.0-1.0-0.77","+","null","",""
"","1939","audio-keyboard-response","156","240631","0.0-1.0-1.77","../audio/teste-vocab--11.mp3","s","joelho","jenou"
"","null","html-keyboard-response","157","241144","0.0-1.0-0.78","+","null","",""
"","2021","audio-keyboard-response","158","243257","0.0-1.0-1.78","../audio/teste-vocab--95.mp3","s","submergir","plonje"
"","null","html-keyboard-response","159","243770","0.0-1.0-0.79","+","null","",""
"","1859","audio-keyboard-response","160","245722","0.0-1.0-1.79","../audio/teste-vocab--84.mp3","s","confiar","konfye"
"","null","html-keyboard-response","161","246235","0.0-1.0-0.80","+","null","",""
"","3011","audio-keyboard-response","162","249331","0.0-1.0-1.80","../audio/teste-vocab--74.mp3","s","desilusão","dezilizyon"
"","null","html-keyboard-response","163","249843","0.0-1.0-0.81","+","null","",""
"","2011","audio-keyboard-response","164","251926","0.0-1.0-1.81","../audio/teste-vocab--08.mp3","s","vaca","vach"
"","null","html-keyboard-response","165","252439","0.0-1.0-0.82","+","null","",""
"","1899","audio-keyboard-response","166","254400","0.0-1.0-1.82","../audio/teste-vocab--49.mp3","s","humano","moun"
"","null","html-keyboard-response","167","254910","0.0-1.0-0.83","+","null","",""
"","2440","audio-keyboard-response","168","257427","0.0-1.0-1.83","../audio/teste-vocab--79.mp3","n","moldura"," chanbranl"
"","null","html-keyboard-response","169","257929","0.0-1.0-0.84","+","null","",""
"","2440","audio-keyboard-response","170","260447","0.0-1.0-1.84","../audio/teste-vocab--109.mp3","s","anfíbio","anfibyen"
"","null","html-keyboard-response","171","260955","0.0-1.0-0.85","+","null","",""
"","2019","audio-keyboard-response","172","263038","0.0-1.0-1.85","../audio/teste-vocab--04.mp3","s","roda","wonn"
"","null","html-keyboard-response","173","263556","0.0-1.0-0.86","+","null","",""
"","5000","audio-keyboard-response","174","268614","0.0-1.0-1.86","../audio/teste-vocab--19.mp3","s","hora","è"
"","null","html-keyboard-response","175","269126","0.0-1.0-0.87","+","null","",""
"","2829","audio-keyboard-response","176","272030","0.0-1.0-1.87","../audio/teste-vocab--91.mp3","s","bússola","bousòl"
"","null","html-keyboard-response","177","272537","0.0-1.0-0.88","+","null","",""
"","1880","audio-keyboard-response","178","274481","0.0-1.0-1.88","../audio/teste-vocab--33.mp3","s","uniforme","inifòm"
"","null","html-keyboard-response","179","274986","0.0-1.0-0.89","+","null","",""
"","1720","audio-keyboard-response","180","276789","0.0-1.0-1.89","../audio/teste-vocab--96.mp3","s","árido","sechrès"
"","null","html-keyboard-response","181","277303","0.0-1.0-0.90","+","null","",""
"","1979","audio-keyboard-response","182","279351","0.0-1.0-1.90","../audio/teste-vocab--120.mp3","s","induzir","pwovoke"
"","null","html-keyboard-response","183","279853","0.0-1.0-0.91","+","null","",""
"","1960","audio-keyboard-response","184","281878","0.0-1.0-1.91","../audio/teste-vocab--31.mp3","s","vazio","vid"
"","null","html-keyboard-response","185","282383","0.0-1.0-0.92","+","null","",""
"","3771","audio-keyboard-response","186","286212","0.0-1.0-1.92","../audio/teste-vocab--71.mp3","n","caule","tij"
"","null","html-keyboard-response","187","286717","0.0-1.0-0.93","+","null","",""
"","2611","audio-keyboard-response","188","289402","0.0-1.0-1.93","../audio/teste-vocab--128.mp3","s","incisivo","ensisiv"
"","null","html-keyboard-response","189","289907","0.0-1.0-0.94","+","null","",""
"","2320","audio-keyboard-response","190","292318","0.0-1.0-1.94","../audio/teste-vocab--06.mp3","s","barco","bato"
"","null","html-keyboard-response","191","292836","0.0-1.0-0.95","+","null","",""
"","4139","audio-keyboard-response","192","297035","0.0-1.0-1.95","../audio/teste-vocab--01.mp3","n","boneca","pope"
"","null","html-keyboard-response","193","297540","0.0-1.0-0.96","+","null","",""
"","4080","audio-keyboard-response","194","301680","0.0-1.0-1.96","../audio/teste-vocab--82.mp3","n","roer","ronje"
"","null","html-keyboard-response","195","302182","0.0-1.0-0.97","+","null","",""
"","2792","audio-keyboard-response","196","305063","0.0-1.0-1.97","../audio/teste-vocab--118.mp3","s","paralelogramo","paralelogram"
"","null","html-keyboard-response","197","305575","0.0-1.0-0.98","+","null","",""
"","1960","audio-keyboard-response","198","307603","0.0-1.0-1.98","../audio/teste-vocab--47.mp3","s","envelope","anvlope"
"","null","html-keyboard-response","199","308117","0.0-1.0-0.99","+","null","",""
"","1859","audio-keyboard-response","200","310041","0.0-1.0-1.99","../audio/teste-vocab--123.mp3","s","emissão","emisyon"
"","null","html-keyboard-response","201","310556","0.0-1.0-0.100","+","null","",""
"","1768","audio-keyboard-response","202","312395","0.0-1.0-1.100","../audio/teste-vocab--22.mp3","s","quebrado","kraze"
"","null","html-keyboard-response","203","312910","0.0-1.0-0.101","+","null","",""
"","2019","audio-keyboard-response","204","315006","0.0-1.0-1.101","../audio/teste-vocab--68.mp3","s","surpreendido","sezi"
"","null","html-keyboard-response","205","315520","0.0-1.0-0.102","+","null","",""
"","2139","audio-keyboard-response","206","317729","0.0-1.0-1.102","../audio/teste-vocab--41.mp3","s","médico","doktè,"
"","null","html-keyboard-response","207","318245","0.0-1.0-0.103","+","null","",""
"","1621","audio-keyboard-response","208","319934","0.0-1.0-1.103","../audio/teste-vocab--15.mp3","s","flecha","flèch"
"","null","html-keyboard-response","209","320445","0.0-1.0-0.104","+","null","",""
"","1539","audio-keyboard-response","210","322045","0.0-1.0-1.104","../audio/teste-vocab--92.mp3","s","esférico","won"
"","null","html-keyboard-response","211","322560","0.0-1.0-0.105","+","null","",""
"","1832","audio-keyboard-response","212","324463","0.0-1.0-1.105","../audio/teste-vocab--60.mp3","s","secretaria","sekretè"
"","null","html-keyboard-response","213","324976","0.0-1.0-0.106","+","null","",""
"","1931","audio-keyboard-response","214","326986","0.0-1.0-1.106","../audio/teste-vocab--110.mp3","s","prodígio","pwodij"
"","null","html-keyboard-response","215","327490","0.0-1.0-0.107","+","null","",""
"","2331","audio-keyboard-response","216","329906","0.0-1.0-1.107","../audio/teste-vocab--65.mp3","s","discussão","diskisyon"
"","null","html-keyboard-response","217","330407","0.0-1.0-0.108","+","null","",""
"","2051","audio-keyboard-response","218","332522","0.0-1.0-1.108","../audio/teste-vocab--107.mp3","s","elo","emay"
"","null","html-keyboard-response","219","333037","0.0-1.0-0.109","+","null","",""
"","2240","audio-keyboard-response","220","335343","0.0-1.0-1.109","../audio/teste-vocab--57.mp3","s","raiz","rasin"
"","null","html-keyboard-response","221","335846","0.0-1.0-0.110","+","null","",""
"","1909","audio-keyboard-response","222","337817","0.0-1.0-1.110","../audio/teste-vocab--104.mp3","s","ira","pwal"
"","null","html-keyboard-response","223","338332","0.0-1.0-0.111","+","null","",""
"","2949","audio-keyboard-response","224","341352","0.0-1.0-1.111","../audio/teste-vocab--121.mp3","s","atônito","sezi"
"","null","html-keyboard-response","225","341866","0.0-1.0-0.112","+","null","",""
"","1549","audio-keyboard-response","226","343488","0.0-1.0-1.112","../audio/teste-vocab--108.mp3","s","moradia","kay"
"","null","html-keyboard-response","227","344001","0.0-1.0-0.113","+","null","",""
"","1811","audio-keyboard-response","228","345887","0.0-1.0-1.113","../audio/teste-vocab--85.mp3","s","trio","trio"
"","null","html-keyboard-response","229","346392","0.0-1.0-0.114","+","null","",""
"","2600","audio-keyboard-response","230","349077","0.0-1.0-1.114","../audio/teste-vocab--66.mp3","s","cooperação","koperasyon"
"","null","html-keyboard-response","231","349587","0.0-1.0-0.115","+","null","",""
"","1691","audio-keyboard-response","232","351347","0.0-1.0-1.115","../audio/teste-vocab--17.mp3","s","móvel","mobil"
"","null","html-keyboard-response","233","351856","0.0-1.0-0.116","+","null","",""
"","2029","audio-keyboard-response","234","353963","0.0-1.0-1.116","../audio/teste-vocab--45.mp3","s","dentista","dantis"
"","null","html-keyboard-response","235","354477","0.0-1.0-0.117","+","null","",""
"","2509","audio-keyboard-response","236","357040","0.0-1.0-1.117","../audio/teste-vocab--30.mp3","s","pintor","pent"
"","null","html-keyboard-response","237","357542","0.0-1.0-0.118","+","null","",""
"","2371","audio-keyboard-response","238","359980","0.0-1.0-1.118","../audio/teste-vocab--24.mp3","s","acidente","aksidan"
"","null","html-keyboard-response","239","360494","0.0-1.0-0.119","+","null","",""
"","1941","audio-keyboard-response","240","362496","0.0-1.0-1.119","../audio/teste-vocab--67.mp3","s","corrimão","ranp"
"","null","html-keyboard-response","241","362998","0.0-1.0-0.120","+","null","",""
"","2261","audio-keyboard-response","242","365346","0.0-1.0-1.120","../audio/teste-vocab--75.mp3","s","carpinteiro","chapantye"
"","null","html-keyboard-response","243","365863","0.0-1.0-0.121","+","null","",""
"","2960","audio-keyboard-response","244","368891","0.0-1.0-1.121","../audio/teste-vocab--78.mp3","n","quarteto","qwatèt"
"","null","html-keyboard-response","245","369403","0.0-1.0-0.122","+","null","",""
"","2240","audio-keyboard-response","246","371722","0.0-1.0-1.122","../audio/teste-vocab--81.mp3","s","judicial","jidisyè"
"","null","html-keyboard-response","247","372226","0.0-1.0-0.123","+","null","",""
"","2069","audio-keyboard-response","248","374372","0.0-1.0-1.123","../audio/teste-vocab--102.mp3","s","arrogante","arogan"
"","null","html-keyboard-response","249","374873","0.0-1.0-0.124","+","null","",""
"","2440","audio-keyboard-response","250","377392","0.0-1.0-1.124","../audio/teste-vocab--101.mp3","s","incandescente","enkandesan"
"","null","html-keyboard-response","251","377897","0.0-1.0-0.125","+","null","",""
"","2251","audio-keyboard-response","252","380213","0.0-1.0-1.125","../audio/teste-vocab--36.mp3","s","grupo","gwoup"
"","null","html-keyboard-response","253","380727","0.0-1.0-0.126","+","null","",""
"","1920","audio-keyboard-response","254","382720","0.0-1.0-1.126","../audio/teste-vocab--72.mp3","s","ilha","zile"
"","null","html-keyboard-response","255","383223","0.0-1.0-0.127","+","null","",""
"","1960","audio-keyboard-response","256","385254","0.0-1.0-1.127","../audio/teste-vocab--50.mp3","s","artista","atis"
"","null","html-keyboard-response","257","385755","0.0-1.0-0.128","+","null","",""
"","2528","audio-keyboard-response","258","388351","0.0-1.0-1.128","../audio/teste-vocab--25.mp3","s","canguru","kanguwou"
"","null","html-keyboard-response","259","388857","0.0-1.0-0.129","+","null","",""
"","1880","audio-keyboard-response","260","390805","0.0-1.0-1.129","../audio/teste-vocab--28.mp3","s","águia","èg"
