[
	{
		"view_history": [
			{
				"page_index": 0,
				"viewing_time": 2606
			}
		],
		"rt": 2606,
		"trial_type": "instructions",
		"trial_index": 0,
		"time_elapsed": 2611,
		"internal_node_id": "0.0-0.0"
	},
	{
		"rt": 81399,
		"response": {
			"reading_habits_printed_magazines": "Raramente",
			"reading_habits_printed_newspapers": "Nunca",
			"reading_habits_books": "Raramente",
			"reading_habits_printed_socialmedias": "Alguns dias da semana"
		},
		"question_order": [
			0,
			1,
			2,
			3
		],
		"trial_type": "survey-multi-choice",
		"trial_index": 1,
		"time_elapsed": 84128,
		"internal_node_id": "0.0-1.0"
	},
	{
		"rt": 29713,
		"response": {
			"reading_habits_virtual_magazines": "Nunca",
			"reading_habits_virtual_newspapers": "Nunca",
			"reading_habits_books": "Todos os dias",
			"reading_habits_virtual_socialmedias": "Alguns dias da semana"
		},
		"question_order": [
			0,
			1,
			2,
			3
		],
		"trial_type": "survey-multi-choice",
		"trial_index": 2,
		"time_elapsed": 113963,
		"internal_node_id": "0.0-2.0"
	},
	{
		"rt": 111401,
		"response": {
			"reading_habits_other_which": "Mangá e gibi",
			"reading_habits_other_frequency": "todos os dias"
		},
		"trial_type": "survey-text",
		"trial_index": 3,
		"time_elapsed": 225484,
		"internal_node_id": "0.0-3.0"
	}
]