"view_history","rt","trial_type","trial_index","time_elapsed","internal_node_id","stimulus","response","class","status","answer","correct","trial","letters"
"[{""page_index"":0,""viewing_time"":71614}]","71614","instructions","0","71617","0.0-0.0","","","","","","","",""
"","null","html-keyboard-response","1","72241","0.0-1.0-0.0","+","null","","","","","",""
"","1834","html-keyboard-response","2","74078","0.0-1.0-1.0","crante","n","null","noncog","pseudo","N","prac","null"
"","null","html-keyboard-response","3","74586","0.0-1.0-0.1","+","null","","","","","",""
"","1759","html-keyboard-response","4","76346","0.0-1.0-1.1","oliva","s","null","cog","word","S","prac","null"
"","null","html-keyboard-response","5","76860","0.0-1.0-0.2","+","null","","","","","",""
"","1431","html-keyboard-response","6","78292","0.0-1.0-1.2","plibar","n","null","noncog","pseudo","N","prac","null"
"","null","html-keyboard-response","7","78807","0.0-1.0-0.3","+","null","","","","","",""
"","731","html-keyboard-response","8","79538","0.0-1.0-1.3","órgão","s","null","noncog","word","S","prac","null"
"","null","html-keyboard-response","9","80040","0.0-1.0-0.4","+","null","","","","","",""
"","856","html-keyboard-response","10","80898","0.0-1.0-1.4","daja","n","null","noncog","pseudo","N","prac","null"
"","null","html-keyboard-response","11","81415","0.0-1.0-0.5","+","null","","","","","",""
"","1308","html-keyboard-response","12","82724","0.0-1.0-1.5","calmaria","s","null","noncog","word","S","prac","null"
"","null","html-keyboard-response","13","83228","0.0-1.0-0.6","+","null","","","","","",""
"","1742","html-keyboard-response","14","84973","0.0-1.0-1.6","chassi","n","null","cog","word","S","prac","null"
"[{""page_index"":0,""viewing_time"":59750}]","59750","instructions","15","144724","0.0-2.0","","","","","","","",""
"","null","html-keyboard-response","16","145343","0.0-3.0-0.0","+","null","","","","","",""
"","930","html-keyboard-response","17","146275","0.0-3.0-1.0","tio","s","n","noncog","word","S","exp","3"
"","null","html-keyboard-response","18","146778","0.0-3.0-0.1","+","null","","","","","",""
"","912","html-keyboard-response","19","147692","0.0-3.0-1.1","grótis","n","null","noncog","pseudo","N","exp","null"
"","null","html-keyboard-response","20","148203","0.0-3.0-0.2","+","null","","","","","",""
"","727","html-keyboard-response","21","148931","0.0-3.0-1.2","papai","s","n","cog","word","S","exp","5"
"","null","html-keyboard-response","22","149448","0.0-3.0-0.3","+","null","","","","","",""
"","643","html-keyboard-response","23","150091","0.0-3.0-1.3","jantar","s","v","noncog","word","S","exp","6"
"","null","html-keyboard-response","24","150602","0.0-3.0-0.4","+","null","","","","","",""
"","851","html-keyboard-response","25","151455","0.0-3.0-1.4","encelhor","n","null","noncog","pseudo","N","exp","null"
"","null","html-keyboard-response","26","151970","0.0-3.0-0.5","+","null","","","","","",""
"","598","html-keyboard-response","27","152569","0.0-3.0-1.5","carro","s","n","noncog","word","S","exp","5"
"","null","html-keyboard-response","28","153081","0.0-3.0-0.6","+","null","","","","","",""
"","661","html-keyboard-response","29","153744","0.0-3.0-1.6","mudança","s","n","noncog","word","S","exp","7"
"","null","html-keyboard-response","30","154260","0.0-3.0-0.7","+","null","","","","","",""
"","851","html-keyboard-response","31","155111","0.0-3.0-1.7","enxarto","n","null","noncog","pseudo","N","exp","null"
"","null","html-keyboard-response","32","155620","0.0-3.0-0.8","+","null","","","","","",""
"","641","html-keyboard-response","33","156261","0.0-3.0-1.8","agravar","s","v","cog","word","S","exp","7"
"","null","html-keyboard-response","34","156774","0.0-3.0-0.9","+","null","","","","","",""
"","923","html-keyboard-response","35","157697","0.0-3.0-1.9","ensuas","n","null","noncog","pseudo","N","exp","null"
"","null","html-keyboard-response","36","158206","0.0-3.0-0.10","+","null","","","","","",""
"","559","html-keyboard-response","37","158766","0.0-3.0-1.10","destino","s","n","cog","word","S","exp","7"
"","null","html-keyboard-response","38","159281","0.0-3.0-0.11","+","null","","","","","",""
"","604","html-keyboard-response","39","159884","0.0-3.0-1.11","distraído","s","a","cog","word","S","exp","9"
"","null","html-keyboard-response","40","160395","0.0-3.0-0.12","+","null","","","","","",""
"","929","html-keyboard-response","41","161325","0.0-3.0-1.12","morno","s","a","noncog","word","S","exp","5"
"","null","html-keyboard-response","42","161833","0.0-3.0-0.13","+","null","","","","","",""
"","850","html-keyboard-response","43","162684","0.0-3.0-1.13","dobradiça","n","n","noncog","word","S","exp","9"
"","null","html-keyboard-response","44","163189","0.0-3.0-0.14","+","null","","","","","",""
"","872","html-keyboard-response","45","164062","0.0-3.0-1.14","socorro","s","n","noncog","word","S","exp","7"
"","null","html-keyboard-response","46","164564","0.0-3.0-0.15","+","null","","","","","",""
"","711","html-keyboard-response","47","165275","0.0-3.0-1.15","sustentar","s","v","noncog","word","S","exp","9"
"","null","html-keyboard-response","48","165776","0.0-3.0-0.16","+","null","","","","","",""
"","788","html-keyboard-response","49","166564","0.0-3.0-1.16","espionar","s","v","cog","word","S","exp","8"
"","null","html-keyboard-response","50","167069","0.0-3.0-0.17","+","null","","","","","",""
"","674","html-keyboard-response","51","167743","0.0-3.0-1.17","matinal","s","a","cog","word","S","exp","7"
"","null","html-keyboard-response","52","168249","0.0-3.0-0.18","+","null","","","","","",""
"","1243","html-keyboard-response","53","169493","0.0-3.0-1.18","adoçar","s","v","noncog","word","S","exp","6"
"","null","html-keyboard-response","54","169999","0.0-3.0-0.19","+","null","","","","","",""
"","683","html-keyboard-response","55","170682","0.0-3.0-1.19","chorão","s","a","noncog","word","S","exp","6"
"","null","html-keyboard-response","56","171198","0.0-3.0-0.20","+","null","","","","","",""
"","533","html-keyboard-response","57","171732","0.0-3.0-1.20","trabalhar","s","v","noncog","word","S","exp","9"
"","null","html-keyboard-response","58","172238","0.0-3.0-0.21","+","null","","","","","",""
"","579","html-keyboard-response","59","172817","0.0-3.0-1.21","cenada","s","null","noncog","pseudo","N","exp","null"
"","null","html-keyboard-response","60","173333","0.0-3.0-0.22","+","null","","","","","",""
"","1135","html-keyboard-response","61","174469","0.0-3.0-1.22","morija","n","null","noncog","pseudo","N","exp","null"
"","null","html-keyboard-response","62","174969","0.0-3.0-0.23","+","null","","","","","",""
"","1445","html-keyboard-response","63","176416","0.0-3.0-1.23","mua","n","null","noncog","pseudo","N","exp","null"
"","null","html-keyboard-response","64","176919","0.0-3.0-0.24","+","null","","","","","",""
"","1193","html-keyboard-response","65","178113","0.0-3.0-1.24","dipata","n","null","noncog","pseudo","N","exp","null"
"","null","html-keyboard-response","66","178618","0.0-3.0-0.25","+","null","","","","","",""
"","2168","html-keyboard-response","67","180787","0.0-3.0-1.25","braras","n","null","noncog","pseudo","N","exp","null"
"","null","html-keyboard-response","68","181300","0.0-3.0-0.26","+","null","","","","","",""
"","683","html-keyboard-response","69","181984","0.0-3.0-1.26","carona","s","n","noncog","word","S","exp","6"
"","null","html-keyboard-response","70","182500","0.0-3.0-0.27","+","null","","","","","",""
"","612","html-keyboard-response","71","183113","0.0-3.0-1.27","anjo","s","n","cog","word","S","exp","4"
"","null","html-keyboard-response","72","183621","0.0-3.0-0.28","+","null","","","","","",""
"","1074","html-keyboard-response","73","184696","0.0-3.0-1.28","casuas","s","null","noncog","pseudo","N","exp","null"
"","null","html-keyboard-response","74","185200","0.0-3.0-0.29","+","null","","","","","",""
"","1073","html-keyboard-response","75","186273","0.0-3.0-1.29","atrasar","s","v","noncog","word","S","exp","7"
"","null","html-keyboard-response","76","186777","0.0-3.0-0.30","+","null","","","","","",""
"","755","html-keyboard-response","77","187532","0.0-3.0-1.30","dia","s","n","noncog","word","S","exp","3"
"","null","html-keyboard-response","78","188039","0.0-3.0-0.31","+","null","","","","","",""
"","863","html-keyboard-response","79","188903","0.0-3.0-1.31","hipócrita","s","a","noncog","word","S","exp","9"
"","null","html-keyboard-response","80","189412","0.0-3.0-0.32","+","null","","","","","",""
"","724","html-keyboard-response","81","190137","0.0-3.0-1.32","sábio","s","n","noncog","word","S","exp","5"
"","null","html-keyboard-response","82","190640","0.0-3.0-0.33","+","null","","","","","",""
"","549","html-keyboard-response","83","191190","0.0-3.0-1.33","memória","s","n","cog","word","S","exp","7"
"","null","html-keyboard-response","84","191693","0.0-3.0-0.34","+","null","","","","","",""
"","740","html-keyboard-response","85","192434","0.0-3.0-1.34","comércio","s","n","noncog","word","S","exp","8"
"","null","html-keyboard-response","86","192938","0.0-3.0-0.35","+","null","","","","","",""
"","653","html-keyboard-response","87","193592","0.0-3.0-1.35","cápsula","s","n","noncog","word","S","exp","7"
"","null","html-keyboard-response","88","194103","0.0-3.0-0.36","+","null","","","","","",""
"","967","html-keyboard-response","89","195070","0.0-3.0-1.36","pangos","n","null","noncog","pseudo","N","exp","null"
"","null","html-keyboard-response","90","195582","0.0-3.0-0.37","+","null","","","","","",""
"","1086","html-keyboard-response","91","196669","0.0-3.0-1.37","vitrive","n","null","noncog","pseudo","N","exp","null"
"","null","html-keyboard-response","92","197172","0.0-3.0-0.38","+","null","","","","","",""
"","901","html-keyboard-response","93","198074","0.0-3.0-1.38","franda","n","null","noncog","pseudo","N","exp","null"
"","null","html-keyboard-response","94","198588","0.0-3.0-0.39","+","null","","","","","",""
"","1040","html-keyboard-response","95","199628","0.0-3.0-1.39","prenas","n","null","noncog","pseudo","N","exp","null"
"","null","html-keyboard-response","96","200132","0.0-3.0-0.40","+","null","","","","","",""
"","748","html-keyboard-response","97","200881","0.0-3.0-1.40","bambu","s","n","cog","word","S","exp","5"
"","null","html-keyboard-response","98","201389","0.0-3.0-0.41","+","null","","","","","",""
"","1699","html-keyboard-response","99","203091","0.0-3.0-1.41","senareta","n","null","noncog","pseudo","N","exp","null"
"","null","html-keyboard-response","100","203606","0.0-3.0-0.42","+","null","","","","","",""
"","709","html-keyboard-response","101","204316","0.0-3.0-1.42","lagoa","s","n","cog","word","S","exp","5"
"","null","html-keyboard-response","102","204818","0.0-3.0-0.43","+","null","","","","","",""
"","840","html-keyboard-response","103","205658","0.0-3.0-1.43","terdia","s","null","noncog","pseudo","N","exp","null"
"","null","html-keyboard-response","104","206170","0.0-3.0-0.44","+","null","","","","","",""
"","875","html-keyboard-response","105","207046","0.0-3.0-1.44","risbos","s","null","noncog","pseudo","N","exp","null"
"","null","html-keyboard-response","106","207553","0.0-3.0-0.45","+","null","","","","","",""
"","1254","html-keyboard-response","107","208807","0.0-3.0-1.45","burtos","n","null","noncog","pseudo","N","exp","null"
"","null","html-keyboard-response","108","209312","0.0-3.0-0.46","+","null","","","","","",""
"","783","html-keyboard-response","109","210096","0.0-3.0-1.46","aitrou","n","null","noncog","pseudo","N","exp","null"
"","null","html-keyboard-response","110","210599","0.0-3.0-0.47","+","null","","","","","",""
"","981","html-keyboard-response","111","211581","0.0-3.0-1.47","bracos","n","null","noncog","pseudo","N","exp","null"
"","null","html-keyboard-response","112","212092","0.0-3.0-0.48","+","null","","","","","",""
"","901","html-keyboard-response","113","212994","0.0-3.0-1.48","frotes","s","null","noncog","pseudo","N","exp","null"
"","null","html-keyboard-response","114","213507","0.0-3.0-0.49","+","null","","","","","",""
"","1010","html-keyboard-response","115","214518","0.0-3.0-1.49","bibarconato","n","null","noncog","pseudo","N","exp","null"
"","null","html-keyboard-response","116","215031","0.0-3.0-0.50","+","null","","","","","",""
"","854","html-keyboard-response","117","215884","0.0-3.0-1.50","preferir","s","v","cog","word","S","exp","8"
"","null","html-keyboard-response","118","216398","0.0-3.0-0.51","+","null","","","","","",""
"","675","html-keyboard-response","119","217075","0.0-3.0-1.51","ocinto","n","null","noncog","pseudo","N","exp","null"
"","null","html-keyboard-response","120","217577","0.0-3.0-0.52","+","null","","","","","",""
"","680","html-keyboard-response","121","218258","0.0-3.0-1.52","promessa","s","n","noncog","word","S","exp","8"
"","null","html-keyboard-response","122","218770","0.0-3.0-0.53","+","null","","","","","",""
"","924","html-keyboard-response","123","219694","0.0-3.0-1.53","extravagante","s","a","cog","word","S","exp","12"
"","null","html-keyboard-response","124","220201","0.0-3.0-0.54","+","null","","","","","",""
"","1066","html-keyboard-response","125","221268","0.0-3.0-1.54","bachir","n","null","noncog","pseudo","N","exp","null"
"","null","html-keyboard-response","126","221771","0.0-3.0-0.55","+","null","","","","","",""
"","1077","html-keyboard-response","127","222850","0.0-3.0-1.55","tatear","s","v","cog","word","S","exp","6"
"","null","html-keyboard-response","128","223358","0.0-3.0-0.56","+","null","","","","","",""
"","1321","html-keyboard-response","129","224681","0.0-3.0-1.56","atitro","s","null","noncog","pseudo","N","exp","null"
"","null","html-keyboard-response","130","225196","0.0-3.0-0.57","+","null","","","","","",""
"","611","html-keyboard-response","131","225809","0.0-3.0-1.57","agressivo","s","a","cog","word","S","exp","9"
"","null","html-keyboard-response","132","226310","0.0-3.0-0.58","+","null","","","","","",""
"","996","html-keyboard-response","133","227306","0.0-3.0-1.58","aemaça","n","null","noncog","pseudo","N","exp","null"
"","null","html-keyboard-response","134","227819","0.0-3.0-0.59","+","null","","","","","",""
"","755","html-keyboard-response","135","228573","0.0-3.0-1.59","raspar","s","v","noncog","word","S","exp","6"
"","null","html-keyboard-response","136","229077","0.0-3.0-0.60","+","null","","","","","",""
"","841","html-keyboard-response","137","229918","0.0-3.0-1.60","rédesa","n","null","noncog","pseudo","N","exp","null"
"","null","html-keyboard-response","138","230428","0.0-3.0-0.61","+","null","","","","","",""
"","1015","html-keyboard-response","139","231442","0.0-3.0-1.61","berquesa","n","null","noncog","pseudo","N","exp","null"
"","null","html-keyboard-response","140","231953","0.0-3.0-0.62","+","null","","","","","",""
"","610","html-keyboard-response","141","232563","0.0-3.0-1.62","mal","s","a","cog","word","S","exp","3"
"","null","html-keyboard-response","142","233068","0.0-3.0-0.63","+","null","","","","","",""
"","898","html-keyboard-response","143","233966","0.0-3.0-1.63","mabras","n","null","noncog","pseudo","N","exp","null"
"","null","html-keyboard-response","144","234479","0.0-3.0-0.64","+","null","","","","","",""
"","938","html-keyboard-response","145","235417","0.0-3.0-1.64","manais","n","null","noncog","pseudo","N","exp","null"
"","null","html-keyboard-response","146","235925","0.0-3.0-0.65","+","null","","","","","",""
"","725","html-keyboard-response","147","236650","0.0-3.0-1.65","verde","s","a","noncog","word","S","exp","5"
"","null","html-keyboard-response","148","237166","0.0-3.0-0.66","+","null","","","","","",""
"","689","html-keyboard-response","149","237856","0.0-3.0-1.66","reduzir","s","v","cog","word","S","exp","7"
"","null","html-keyboard-response","150","238361","0.0-3.0-0.67","+","null","","","","","",""
"","673","html-keyboard-response","151","239035","0.0-3.0-1.67","gordo","s","a","noncog","word","S","exp","5"
"","null","html-keyboard-response","152","239541","0.0-3.0-0.68","+","null","","","","","",""
"","603","html-keyboard-response","153","240145","0.0-3.0-1.68","drama","s","n","cog","word","S","exp","5"
"","null","html-keyboard-response","154","240656","0.0-3.0-0.69","+","null","","","","","",""
"","880","html-keyboard-response","155","241536","0.0-3.0-1.69","oricia","n","null","noncog","pseudo","N","exp","null"
"","null","html-keyboard-response","156","242039","0.0-3.0-0.70","+","null","","","","","",""
"","515","html-keyboard-response","157","242554","0.0-3.0-1.70","cristal","s","n","cog","word","S","exp","7"
"","null","html-keyboard-response","158","243061","0.0-3.0-0.71","+","null","","","","","",""
"","726","html-keyboard-response","159","243787","0.0-3.0-1.71","morar","s","v","noncog","word","S","exp","5"
"","null","html-keyboard-response","160","244302","0.0-3.0-0.72","+","null","","","","","",""
"","1018","html-keyboard-response","161","245321","0.0-3.0-1.72","farcas","n","null","noncog","pseudo","N","exp","null"
"","null","html-keyboard-response","162","245825","0.0-3.0-0.73","+","null","","","","","",""
"","571","html-keyboard-response","163","246396","0.0-3.0-1.73","chato","s","n","noncog","word","S","exp","5"
"","null","html-keyboard-response","164","246910","0.0-3.0-0.74","+","null","","","","","",""
"","755","html-keyboard-response","165","247665","0.0-3.0-1.74","árovre","n","null","noncog","pseudo","N","exp","null"
"","null","html-keyboard-response","166","248168","0.0-3.0-0.75","+","null","","","","","",""
"","997","html-keyboard-response","167","249164","0.0-3.0-1.75","fino","s","a","cog","word","S","exp","4"
"","null","html-keyboard-response","168","249677","0.0-3.0-0.76","+","null","","","","","",""
"","641","html-keyboard-response","169","250318","0.0-3.0-1.76","ilhure","n","null","noncog","pseudo","N","exp","null"
"","null","html-keyboard-response","170","250825","0.0-3.0-0.77","+","null","","","","","",""
"","660","html-keyboard-response","171","251485","0.0-3.0-1.77","usfiga","n","null","noncog","pseudo","N","exp","null"
"","null","html-keyboard-response","172","251989","0.0-3.0-0.78","+","null","","","","","",""
"","879","html-keyboard-response","173","252869","0.0-3.0-1.78","cerca","s","n","noncog","word","S","exp","5"
"","null","html-keyboard-response","174","253373","0.0-3.0-0.79","+","null","","","","","",""
"","1400","html-keyboard-response","175","254772","0.0-3.0-1.79","instruído","s","a","noncog","word","S","exp","9"
"","null","html-keyboard-response","176","255288","0.0-3.0-0.80","+","null","","","","","",""
"","958","html-keyboard-response","177","256246","0.0-3.0-1.80","cascata","n","n","noncog","word","S","exp","7"
"","null","html-keyboard-response","178","256750","0.0-3.0-0.81","+","null","","","","","",""
"","580","html-keyboard-response","179","257330","0.0-3.0-1.81","tartos","s","null","noncog","pseudo","N","exp","null"
"","null","html-keyboard-response","180","257834","0.0-3.0-0.82","+","null","","","","","",""
"","779","html-keyboard-response","181","258612","0.0-3.0-1.82","afual","n","null","noncog","pseudo","N","exp","null"
"","null","html-keyboard-response","182","259122","0.0-3.0-0.83","+","null","","","","","",""
"","613","html-keyboard-response","183","259737","0.0-3.0-1.83","francês","s","a","cog","word","S","exp","7"
"","null","html-keyboard-response","184","260253","0.0-3.0-0.84","+","null","","","","","",""
"","950","html-keyboard-response","185","261203","0.0-3.0-1.84","costra","n","null","noncog","pseudo","N","exp","null"
"","null","html-keyboard-response","186","261714","0.0-3.0-0.85","+","null","","","","","",""
"","921","html-keyboard-response","187","262635","0.0-3.0-1.85","oecano","n","null","noncog","pseudo","N","exp","null"
"","null","html-keyboard-response","188","263148","0.0-3.0-0.86","+","null","","","","","",""
"","1396","html-keyboard-response","189","264545","0.0-3.0-1.86","atapdar","s","null","noncog","pseudo","N","exp","null"
"","null","html-keyboard-response","190","265059","0.0-3.0-0.87","+","null","","","","","",""
"","1017","html-keyboard-response","191","266077","0.0-3.0-1.87","parceter","n","null","noncog","pseudo","N","exp","null"
"","null","html-keyboard-response","192","266589","0.0-3.0-0.88","+","null","","","","","",""
"","690","html-keyboard-response","193","267280","0.0-3.0-1.88","lorfaz","n","null","noncog","pseudo","N","exp","null"
"","null","html-keyboard-response","194","267787","0.0-3.0-0.89","+","null","","","","","",""
"","716","html-keyboard-response","195","268504","0.0-3.0-1.89","manfa","n","null","noncog","pseudo","N","exp","null"
"","null","html-keyboard-response","196","269012","0.0-3.0-0.90","+","null","","","","","",""
"","806","html-keyboard-response","197","269820","0.0-3.0-1.90","cravo","s","n","noncog","word","S","exp","5"
"","null","html-keyboard-response","198","270332","0.0-3.0-0.91","+","null","","","","","",""
"","1096","html-keyboard-response","199","271427","0.0-3.0-1.91","pantufa","s","n","cog","word","S","exp","7"
"","null","html-keyboard-response","200","271933","0.0-3.0-0.92","+","null","","","","","",""
"","684","html-keyboard-response","201","272616","0.0-3.0-1.92","nervoso","s","a","noncog","word","S","exp","7"
"","null","html-keyboard-response","202","273131","0.0-3.0-0.93","+","null","","","","","",""
"","1045","html-keyboard-response","203","274177","0.0-3.0-1.93","dencosto","n","null","noncog","pseudo","N","exp","null"
"","null","html-keyboard-response","204","274693","0.0-3.0-0.94","+","null","","","","","",""
"","671","html-keyboard-response","205","275365","0.0-3.0-1.94","cinema","s","n","cog","word","S","exp","6"
"","null","html-keyboard-response","206","275873","0.0-3.0-0.95","+","null","","","","","",""
"","670","html-keyboard-response","207","276544","0.0-3.0-1.95","fofo","s","a","noncog","word","S","exp","4"
"","null","html-keyboard-response","208","277057","0.0-3.0-0.96","+","null","","","","","",""
"","884","html-keyboard-response","209","277943","0.0-3.0-1.96","dacada","n","null","noncog","pseudo","N","exp","null"
"","null","html-keyboard-response","210","278443","0.0-3.0-0.97","+","null","","","","","",""
"","1032","html-keyboard-response","211","279475","0.0-3.0-1.97","detative","n","null","noncog","pseudo","N","exp","null"
"","null","html-keyboard-response","212","279984","0.0-3.0-0.98","+","null","","","","","",""
"","606","html-keyboard-response","213","280591","0.0-3.0-1.98","livro","s","n","cog","word","S","exp","5"
"","null","html-keyboard-response","214","281106","0.0-3.0-0.99","+","null","","","","","",""
"","1528","html-keyboard-response","215","282636","0.0-3.0-1.99","plinta","n","null","noncog","pseudo","N","exp","null"
"","null","html-keyboard-response","216","283137","0.0-3.0-0.100","+","null","","","","","",""
"","568","html-keyboard-response","217","283705","0.0-3.0-1.100","tela","s","n","noncog","word","S","exp","4"
"","null","html-keyboard-response","218","284206","0.0-3.0-0.101","+","null","","","","","",""
"","1011","html-keyboard-response","219","285217","0.0-3.0-1.101","pneucania","n","null","noncog","pseudo","N","exp","null"
"","null","html-keyboard-response","220","285731","0.0-3.0-0.102","+","null","","","","","",""
"","745","html-keyboard-response","221","286476","0.0-3.0-1.102","fogão","s","n","noncog","word","S","exp","5"
"","null","html-keyboard-response","222","286982","0.0-3.0-0.103","+","null","","","","","",""
"","532","html-keyboard-response","223","287513","0.0-3.0-1.103","nome","s","n","cog","word","S","exp","4"
"","null","html-keyboard-response","224","288020","0.0-3.0-0.104","+","null","","","","","",""
"","458","html-keyboard-response","225","288479","0.0-3.0-1.104","telefone","s","n","cog","word","S","exp","8"
"","null","html-keyboard-response","226","288981","0.0-3.0-0.105","+","null","","","","","",""
"","593","html-keyboard-response","227","289574","0.0-3.0-1.105","apontar","s","v","noncog","word","S","exp","7"
"","null","html-keyboard-response","228","290085","0.0-3.0-0.106","+","null","","","","","",""
"","954","html-keyboard-response","229","291040","0.0-3.0-1.106","gertas","n","null","noncog","pseudo","N","exp","null"
"","null","html-keyboard-response","230","291549","0.0-3.0-0.107","+","null","","","","","",""
"","531","html-keyboard-response","231","292080","0.0-3.0-1.107","montanha","s","n","cog","word","S","exp","8"
"","null","html-keyboard-response","232","292587","0.0-3.0-0.108","+","null","","","","","",""
"","677","html-keyboard-response","233","293265","0.0-3.0-1.108","euorpa","n","null","noncog","pseudo","N","exp","null"
"","null","html-keyboard-response","234","293777","0.0-3.0-0.109","+","null","","","","","",""
"","727","html-keyboard-response","235","294505","0.0-3.0-1.109","prever","s","v","cog","word","S","exp","6"
"","null","html-keyboard-response","236","295017","0.0-3.0-0.110","+","null","","","","","",""
"","749","html-keyboard-response","237","295768","0.0-3.0-1.110","uçar","n","null","noncog","pseudo","N","exp","null"
"","null","html-keyboard-response","238","296275","0.0-3.0-0.111","+","null","","","","","",""
"","1006","html-keyboard-response","239","297283","0.0-3.0-1.111","incomodar","s","v","noncog","word","S","exp","9"
"","null","html-keyboard-response","240","297791","0.0-3.0-0.112","+","null","","","","","",""
"","742","html-keyboard-response","241","298536","0.0-3.0-1.112","suipestar","n","null","noncog","pseudo","N","exp","null"
"","null","html-keyboard-response","242","299052","0.0-3.0-0.113","+","null","","","","","",""
"","1084","html-keyboard-response","243","300136","0.0-3.0-1.113","trenos","s","null","noncog","pseudo","N","exp","null"
"","null","html-keyboard-response","244","300652","0.0-3.0-0.114","+","null","","","","","",""
"","650","html-keyboard-response","245","301302","0.0-3.0-1.114","pitada","s","n","noncog","word","S","exp","6"
"","null","html-keyboard-response","246","301817","0.0-3.0-0.115","+","null","","","","","",""
"","712","html-keyboard-response","247","302530","0.0-3.0-1.115","avenas","s","null","noncog","pseudo","N","exp","null"
"","null","html-keyboard-response","248","303043","0.0-3.0-0.116","+","null","","","","","",""
"","990","html-keyboard-response","249","304033","0.0-3.0-1.116","protas","s","null","noncog","pseudo","N","exp","null"
"","null","html-keyboard-response","250","304538","0.0-3.0-0.117","+","null","","","","","",""
"","545","html-keyboard-response","251","305085","0.0-3.0-1.117","pulmão","s","n","noncog","word","S","exp","6"
"","null","html-keyboard-response","252","305589","0.0-3.0-0.118","+","null","","","","","",""
"","669","html-keyboard-response","253","306258","0.0-3.0-1.118","delirar","s","v","noncog","word","S","exp","7"
"","null","html-keyboard-response","254","306769","0.0-3.0-0.119","+","null","","","","","",""
"","929","html-keyboard-response","255","307700","0.0-3.0-1.119","candifência","n","null","noncog","pseudo","N","exp","null"
"","null","html-keyboard-response","256","308215","0.0-3.0-0.120","+","null","","","","","",""
"","813","html-keyboard-response","257","309029","0.0-3.0-1.120","tinta","s","n","cog","word","S","exp","5"
"","null","html-keyboard-response","258","309541","0.0-3.0-0.121","+","null","","","","","",""
"","1067","html-keyboard-response","259","310609","0.0-3.0-1.121","selir","n","null","noncog","pseudo","N","exp","null"
"","null","html-keyboard-response","260","311116","0.0-3.0-0.122","+","null","","","","","",""
"","898","html-keyboard-response","261","312015","0.0-3.0-1.122","quenzina","n","null","noncog","pseudo","N","exp","null"
"","null","html-keyboard-response","262","312530","0.0-3.0-0.123","+","null","","","","","",""
"","635","html-keyboard-response","263","313167","0.0-3.0-1.123","espaço","s","n","cog","word","S","exp","6"
"","null","html-keyboard-response","264","313680","0.0-3.0-0.124","+","null","","","","","",""
"","649","html-keyboard-response","265","314329","0.0-3.0-1.124","verdade","s","n","cog","word","S","exp","7"
"","null","html-keyboard-response","266","314844","0.0-3.0-0.125","+","null","","","","","",""
"","720","html-keyboard-response","267","315565","0.0-3.0-1.125","aivões","n","null","noncog","pseudo","N","exp","null"
"","null","html-keyboard-response","268","316076","0.0-3.0-0.126","+","null","","","","","",""
"","570","html-keyboard-response","269","316646","0.0-3.0-1.126","temperar","s","v","noncog","word","S","exp","8"
"","null","html-keyboard-response","270","317156","0.0-3.0-0.127","+","null","","","","","",""
"","791","html-keyboard-response","271","317948","0.0-3.0-1.127","orupas","n","null","noncog","pseudo","N","exp","null"
"","null","html-keyboard-response","272","318450","0.0-3.0-0.128","+","null","","","","","",""
"","909","html-keyboard-response","273","319360","0.0-3.0-1.128","alpica","n","null","noncog","pseudo","N","exp","null"
"","null","html-keyboard-response","274","319866","0.0-3.0-0.129","+","null","","","","","",""
"","740","html-keyboard-response","275","320607","0.0-3.0-1.129","imitar","s","v","cog","word","S","exp","6"
"","null","html-keyboard-response","276","321116","0.0-3.0-0.130","+","null","","","","","",""
"","1197","html-keyboard-response","277","322313","0.0-3.0-1.130","deselegante","s","a","noncog","word","S","exp","11"
"","null","html-keyboard-response","278","322819","0.0-3.0-0.131","+","null","","","","","",""
"","529","html-keyboard-response","279","323350","0.0-3.0-1.131","vervas","s","null","noncog","pseudo","N","exp","null"
"","null","html-keyboard-response","280","323859","0.0-3.0-0.132","+","null","","","","","",""
"","720","html-keyboard-response","281","324581","0.0-3.0-1.132","areia","s","n","noncog","word","S","exp","5"
"","null","html-keyboard-response","282","325086","0.0-3.0-0.133","+","null","","","","","",""
"","816","html-keyboard-response","283","325902","0.0-3.0-1.133","perbas","n","null","noncog","pseudo","N","exp","null"
"","null","html-keyboard-response","284","326405","0.0-3.0-0.134","+","null","","","","","",""
"","938","html-keyboard-response","285","327342","0.0-3.0-1.134","promeção","n","null","noncog","pseudo","N","exp","null"
"","null","html-keyboard-response","286","327853","0.0-3.0-0.135","+","null","","","","","",""
"","663","html-keyboard-response","287","328516","0.0-3.0-1.135","fusbão","n","null","noncog","pseudo","N","exp","null"
"","null","html-keyboard-response","288","329029","0.0-3.0-0.136","+","null","","","","","",""
"","736","html-keyboard-response","289","329766","0.0-3.0-1.136","beima","n","null","noncog","pseudo","N","exp","null"
"","null","html-keyboard-response","290","330269","0.0-3.0-0.137","+","null","","","","","",""
"","628","html-keyboard-response","291","330899","0.0-3.0-1.137","perdão","s","n","noncog","word","S","exp","6"
"","null","html-keyboard-response","292","331404","0.0-3.0-0.138","+","null","","","","","",""
"","1126","html-keyboard-response","293","332531","0.0-3.0-1.138","escumo","s","null","noncog","pseudo","N","exp","null"
"","null","html-keyboard-response","294","333046","0.0-3.0-0.139","+","null","","","","","",""
"","850","html-keyboard-response","295","333897","0.0-3.0-1.139","motre","n","null","noncog","pseudo","N","exp","null"
"","null","html-keyboard-response","296","334399","0.0-3.0-0.140","+","null","","","","","",""
"","1139","html-keyboard-response","297","335538","0.0-3.0-1.140","aperor","n","null","noncog","pseudo","N","exp","null"
"","null","html-keyboard-response","298","336043","0.0-3.0-0.141","+","null","","","","","",""
"","758","html-keyboard-response","299","336802","0.0-3.0-1.141","nevela","n","null","noncog","pseudo","N","exp","null"
"","null","html-keyboard-response","300","337307","0.0-3.0-0.142","+","null","","","","","",""
"","1057","html-keyboard-response","301","338365","0.0-3.0-1.142","cirado","n","null","noncog","pseudo","N","exp","null"
"","null","html-keyboard-response","302","338870","0.0-3.0-0.143","+","null","","","","","",""
"","598","html-keyboard-response","303","339469","0.0-3.0-1.143","civil","s","a","cog","word","S","exp","5"
"","null","html-keyboard-response","304","339985","0.0-3.0-0.144","+","null","","","","","",""
"","555","html-keyboard-response","305","340542","0.0-3.0-1.144","carregar","s","v","noncog","word","S","exp","8"
"","null","html-keyboard-response","306","341053","0.0-3.0-0.145","+","null","","","","","",""
"","872","html-keyboard-response","307","341926","0.0-3.0-1.145","esfoce","n","null","noncog","pseudo","N","exp","null"
"","null","html-keyboard-response","308","342441","0.0-3.0-0.146","+","null","","","","","",""
"","656","html-keyboard-response","309","343098","0.0-3.0-1.146","uchães","n","null","noncog","pseudo","N","exp","null"
"","null","html-keyboard-response","310","343608","0.0-3.0-0.147","+","null","","","","","",""
"","784","html-keyboard-response","311","344391","0.0-3.0-1.147","pega-pega","s","n","noncog","word","S","exp","8"
"","null","html-keyboard-response","312","344900","0.0-3.0-0.148","+","null","","","","","",""
"","695","html-keyboard-response","313","345596","0.0-3.0-1.148","convidado","s","n","noncog","word","S","exp","9"
"","null","html-keyboard-response","314","346111","0.0-3.0-0.149","+","null","","","","","",""
"","604","html-keyboard-response","315","346717","0.0-3.0-1.149","pedaço","s","n","noncog","word","S","exp","6"
"","null","html-keyboard-response","316","347221","0.0-3.0-0.150","+","null","","","","","",""
"","549","html-keyboard-response","317","347771","0.0-3.0-1.150","glória","s","n","cog","word","S","exp","6"
"","null","html-keyboard-response","318","348280","0.0-3.0-0.151","+","null","","","","","",""
"","718","html-keyboard-response","319","348998","0.0-3.0-1.151","hébies","n","null","noncog","pseudo","N","exp","null"
"","null","html-keyboard-response","320","349502","0.0-3.0-0.152","+","null","","","","","",""
"","789","html-keyboard-response","321","350291","0.0-3.0-1.152","verceja","n","null","noncog","pseudo","N","exp","null"
"","null","html-keyboard-response","322","350806","0.0-3.0-0.153","+","null","","","","","",""
"","673","html-keyboard-response","323","351478","0.0-3.0-1.153","espinho","s","n","noncog","word","S","exp","7"
"","null","html-keyboard-response","324","351986","0.0-3.0-0.154","+","null","","","","","",""
"","951","html-keyboard-response","325","352938","0.0-3.0-1.154","gruja","s","null","noncog","pseudo","N","exp","null"
"","null","html-keyboard-response","326","353444","0.0-3.0-0.155","+","null","","","","","",""
"","669","html-keyboard-response","327","354114","0.0-3.0-1.155","aletiê","n","null","noncog","pseudo","N","exp","null"
"","null","html-keyboard-response","328","354618","0.0-3.0-0.156","+","null","","","","","",""
"","560","html-keyboard-response","329","355180","0.0-3.0-1.156","ideisa","n","null","noncog","pseudo","N","exp","null"
"","null","html-keyboard-response","330","355689","0.0-3.0-0.157","+","null","","","","","",""
"","930","html-keyboard-response","331","356621","0.0-3.0-1.157","rovaz","n","null","noncog","pseudo","N","exp","null"
"","null","html-keyboard-response","332","357134","0.0-3.0-0.158","+","null","","","","","",""
"","582","html-keyboard-response","333","357718","0.0-3.0-1.158","ronronar","s","v","cog","word","S","exp","8"
"","null","html-keyboard-response","334","358232","0.0-3.0-0.159","+","null","","","","","",""
"","793","html-keyboard-response","335","359026","0.0-3.0-1.159","afonher","n","null","noncog","pseudo","N","exp","null"
"","null","html-keyboard-response","336","359538","0.0-3.0-0.160","+","null","","","","","",""
"","624","html-keyboard-response","337","360163","0.0-3.0-1.160","arranjar","s","v","cog","word","S","exp","8"
"","null","html-keyboard-response","338","360669","0.0-3.0-0.161","+","null","","","","","",""
"","694","html-keyboard-response","339","361363","0.0-3.0-1.161","enedro","n","null","noncog","pseudo","N","exp","null"
"","null","html-keyboard-response","340","361871","0.0-3.0-0.162","+","null","","","","","",""
"","912","html-keyboard-response","341","362784","0.0-3.0-1.162","delomir","n","null","noncog","pseudo","N","exp","null"
"","null","html-keyboard-response","342","363291","0.0-3.0-0.163","+","null","","","","","",""
"","961","html-keyboard-response","343","364254","0.0-3.0-1.163","lapestra","n","null","noncog","pseudo","N","exp","null"
"","null","html-keyboard-response","344","364758","0.0-3.0-0.164","+","null","","","","","",""
"","1052","html-keyboard-response","345","365812","0.0-3.0-1.164","gilha","s","null","noncog","pseudo","N","exp","null"
"","null","html-keyboard-response","346","366319","0.0-3.0-0.165","+","null","","","","","",""
"","894","html-keyboard-response","347","367216","0.0-3.0-1.165","planalto","n","n","cog","word","S","exp","8"
"","null","html-keyboard-response","348","367718","0.0-3.0-0.166","+","null","","","","","",""
"","1328","html-keyboard-response","349","369046","0.0-3.0-1.166","independente","s","a","noncog","word","S","exp","12"
"","null","html-keyboard-response","350","369562","0.0-3.0-0.167","+","null","","","","","",""
"","759","html-keyboard-response","351","370321","0.0-3.0-1.167","boreta","n","null","noncog","pseudo","N","exp","null"
"","null","html-keyboard-response","352","370831","0.0-3.0-0.168","+","null","","","","","",""
"","505","html-keyboard-response","353","371338","0.0-3.0-1.168","filosofia","s","n","cog","word","S","exp","9"
"","null","html-keyboard-response","354","371853","0.0-3.0-0.169","+","null","","","","","",""
"","494","html-keyboard-response","355","372348","0.0-3.0-1.169","azul","s","n","noncog","word","S","exp","4"
"","null","html-keyboard-response","356","372857","0.0-3.0-0.170","+","null","","","","","",""
"","1067","html-keyboard-response","357","373925","0.0-3.0-1.170","tronca","s","null","noncog","pseudo","N","exp","null"
"","null","html-keyboard-response","358","374427","0.0-3.0-0.171","+","null","","","","","",""
"","758","html-keyboard-response","359","375187","0.0-3.0-1.171","usnado","n","null","noncog","pseudo","N","exp","null"
"","null","html-keyboard-response","360","375700","0.0-3.0-0.172","+","null","","","","","",""
"","599","html-keyboard-response","361","376299","0.0-3.0-1.172","animado","s","a","noncog","word","S","exp","7"
"","null","html-keyboard-response","362","376808","0.0-3.0-0.173","+","null","","","","","",""
"","1257","html-keyboard-response","363","378065","0.0-3.0-1.173","ênclio","n","null","noncog","pseudo","N","exp","null"
"","null","html-keyboard-response","364","378571","0.0-3.0-0.174","+","null","","","","","",""
"","597","html-keyboard-response","365","379169","0.0-3.0-1.174","alfabeto","s","n","cog","word","S","exp","8"
"","null","html-keyboard-response","366","379671","0.0-3.0-0.175","+","null","","","","","",""
"","1268","html-keyboard-response","367","380938","0.0-3.0-1.175","taberia","n","null","noncog","pseudo","N","exp","null"
"","null","html-keyboard-response","368","381441","0.0-3.0-0.176","+","null","","","","","",""
"","770","html-keyboard-response","369","382212","0.0-3.0-1.176","âgnulo","n","null","noncog","pseudo","N","exp","null"
"","null","html-keyboard-response","370","382716","0.0-3.0-0.177","+","null","","","","","",""
"","600","html-keyboard-response","371","383316","0.0-3.0-1.177","multiplicar","s","v","cog","word","S","exp","11"
"","null","html-keyboard-response","372","383820","0.0-3.0-0.178","+","null","","","","","",""
"","1564","html-keyboard-response","373","385384","0.0-3.0-1.178","crolatário","n","null","noncog","pseudo","N","exp","null"
"","null","html-keyboard-response","374","385897","0.0-3.0-0.179","+","null","","","","","",""
"","512","html-keyboard-response","375","386408","0.0-3.0-1.179","traduzir","s","v","cog","word","S","exp","8"
"","null","html-keyboard-response","376","386914","0.0-3.0-0.180","+","null","","","","","",""
"","430","html-keyboard-response","377","387346","0.0-3.0-1.180","esperar","s","v","cog","word","S","exp","7"
"","null","html-keyboard-response","378","387855","0.0-3.0-0.181","+","null","","","","","",""
"","751","html-keyboard-response","379","388607","0.0-3.0-1.181","salpicado","s","a","noncog","word","S","exp","9"
"","null","html-keyboard-response","380","389110","0.0-3.0-0.182","+","null","","","","","",""
"","506","html-keyboard-response","381","389617","0.0-3.0-1.182","pimada","s","null","noncog","pseudo","N","exp","null"
"","null","html-keyboard-response","382","390132","0.0-3.0-0.183","+","null","","","","","",""
"","1674","html-keyboard-response","383","391808","0.0-3.0-1.183","sanque","n","null","noncog","pseudo","N","exp","null"
"","null","html-keyboard-response","384","392316","0.0-3.0-0.184","+","null","","","","","",""
"","854","html-keyboard-response","385","393170","0.0-3.0-1.184","lagras","n","null","noncog","pseudo","N","exp","null"
"","null","html-keyboard-response","386","393675","0.0-3.0-0.185","+","null","","","","","",""
"","1163","html-keyboard-response","387","394839","0.0-3.0-1.185","enxerido","n","a","noncog","word","S","exp","8"
"","null","html-keyboard-response","388","395349","0.0-3.0-0.186","+","null","","","","","",""
"","617","html-keyboard-response","389","395967","0.0-3.0-1.186","refletir","s","v","cog","word","S","exp","8"
"","null","html-keyboard-response","390","396481","0.0-3.0-0.187","+","null","","","","","",""
"","1075","html-keyboard-response","391","397557","0.0-3.0-1.187","nivelado","s","a","cog","word","S","exp","8"
"","null","html-keyboard-response","392","398072","0.0-3.0-0.188","+","null","","","","","",""
"","855","html-keyboard-response","393","398927","0.0-3.0-1.188","sintonizar","s","v","noncog","word","S","exp","10"
"","null","html-keyboard-response","394","399432","0.0-3.0-0.189","+","null","","","","","",""
"","860","html-keyboard-response","395","400294","0.0-3.0-1.189","telafonir","n","null","noncog","pseudo","N","exp","null"
"","null","html-keyboard-response","396","400804","0.0-3.0-0.190","+","null","","","","","",""
"","1258","html-keyboard-response","397","402064","0.0-3.0-1.190","bagunceira","s","a","noncog","word","S","exp","10"
"","null","html-keyboard-response","398","402565","0.0-3.0-0.191","+","null","","","","","",""
"","963","html-keyboard-response","399","403528","0.0-3.0-1.191","esprotiar","n","null","noncog","pseudo","N","exp","null"
"","null","html-keyboard-response","400","404030","0.0-3.0-0.192","+","null","","","","","",""
"","582","html-keyboard-response","401","404613","0.0-3.0-1.192","resmungar","s","v","noncog","word","S","exp","9"
"","null","html-keyboard-response","402","405116","0.0-3.0-0.193","+","null","","","","","",""
"","623","html-keyboard-response","403","405742","0.0-3.0-1.193","grave","s","a","cog","word","S","exp","5"
"","null","html-keyboard-response","404","406245","0.0-3.0-0.194","+","null","","","","","",""
"","724","html-keyboard-response","405","406970","0.0-3.0-1.194","abieso","n","null","noncog","pseudo","N","exp","null"
"","null","html-keyboard-response","406","407484","0.0-3.0-0.195","+","null","","","","","",""
"","867","html-keyboard-response","407","408353","0.0-3.0-1.195","fasdas","n","null","noncog","pseudo","N","exp","null"
"","null","html-keyboard-response","408","408856","0.0-3.0-0.196","+","null","","","","","",""
"","669","html-keyboard-response","409","409526","0.0-3.0-1.196","loaco","n","null","noncog","pseudo","N","exp","null"
"","null","html-keyboard-response","410","410042","0.0-3.0-0.197","+","null","","","","","",""
"","781","html-keyboard-response","411","410824","0.0-3.0-1.197","conjerto","n","null","noncog","pseudo","N","exp","null"
"","null","html-keyboard-response","412","411331","0.0-3.0-0.198","+","null","","","","","",""
"","808","html-keyboard-response","413","412140","0.0-3.0-1.198","macras","n","null","noncog","pseudo","N","exp","null"
"","null","html-keyboard-response","414","412651","0.0-3.0-0.199","+","null","","","","","",""
"","592","html-keyboard-response","415","413245","0.0-3.0-1.199","propaganda","s","n","cog","word","S","exp","10"
"","null","html-keyboard-response","416","413748","0.0-3.0-0.200","+","null","","","","","",""
"","647","html-keyboard-response","417","414396","0.0-3.0-1.200","ótimo","s","a","noncog","word","S","exp","5"
"","null","html-keyboard-response","418","414909","0.0-3.0-0.201","+","null","","","","","",""
"","680","html-keyboard-response","419","415590","0.0-3.0-1.201","undivídio","n","null","noncog","pseudo","N","exp","null"
"","null","html-keyboard-response","420","416096","0.0-3.0-0.202","+","null","","","","","",""
"","791","html-keyboard-response","421","416888","0.0-3.0-1.202","liso","s","n","noncog","word","S","exp","4"
"","null","html-keyboard-response","422","417397","0.0-3.0-0.203","+","null","","","","","",""
"","563","html-keyboard-response","423","417961","0.0-3.0-1.203","tênis","s","n","cog","word","S","exp","5"
"","null","html-keyboard-response","424","418476","0.0-3.0-0.204","+","null","","","","","",""
"","563","html-keyboard-response","425","419041","0.0-3.0-1.204","viver","s","v","cog","word","S","exp","5"
"","null","html-keyboard-response","426","419546","0.0-3.0-0.205","+","null","","","","","",""
"","617","html-keyboard-response","427","420166","0.0-3.0-1.205","barco","s","n","cog","word","S","exp","5"
"","null","html-keyboard-response","428","420674","0.0-3.0-0.206","+","null","","","","","",""
"","1456","html-keyboard-response","429","422132","0.0-3.0-1.206","pritas","n","null","noncog","pseudo","N","exp","null"
"","null","html-keyboard-response","430","422632","0.0-3.0-0.207","+","null","","","","","",""
"","1160","html-keyboard-response","431","423793","0.0-3.0-1.207","garastia","n","null","noncog","pseudo","N","exp","null"
"","null","html-keyboard-response","432","424298","0.0-3.0-0.208","+","null","","","","","",""
"","977","html-keyboard-response","433","425276","0.0-3.0-1.208","faínas","s","null","noncog","pseudo","N","exp","null"
"","null","html-keyboard-response","434","425780","0.0-3.0-0.209","+","null","","","","","",""
"","639","html-keyboard-response","435","426420","0.0-3.0-1.209","liberal","s","a","cog","word","S","exp","7"
"","null","html-keyboard-response","436","426930","0.0-3.0-0.210","+","null","","","","","",""
"","634","html-keyboard-response","437","427567","0.0-3.0-1.210","trair","s","v","cog","word","S","exp","5"
"","null","html-keyboard-response","438","428078","0.0-3.0-0.211","+","null","","","","","",""
"","578","html-keyboard-response","439","428656","0.0-3.0-1.211","brincar","s","v","noncog","word","S","exp","7"
"","null","html-keyboard-response","440","429164","0.0-3.0-0.212","+","null","","","","","",""
"","929","html-keyboard-response","441","430094","0.0-3.0-1.212","motros","n","null","noncog","pseudo","N","exp","null"
"","null","html-keyboard-response","442","430606","0.0-3.0-0.213","+","null","","","","","",""
"","1169","html-keyboard-response","443","431777","0.0-3.0-1.213","especial","s","a","cog","word","S","exp","8"
"","null","html-keyboard-response","444","432286","0.0-3.0-0.214","+","null","","","","","",""
"","614","html-keyboard-response","445","432900","0.0-3.0-1.214","filme","s","n","cog","word","S","exp","5"
"","null","html-keyboard-response","446","433409","0.0-3.0-0.215","+","null","","","","","",""
"","1046","html-keyboard-response","447","434456","0.0-3.0-1.215","mania","s","n","cog","word","S","exp","5"
"","null","html-keyboard-response","448","434967","0.0-3.0-0.216","+","null","","","","","",""
"","1529","html-keyboard-response","449","436496","0.0-3.0-1.216","prantal","n","null","noncog","pseudo","N","exp","null"
"","null","html-keyboard-response","450","437001","0.0-3.0-0.217","+","null","","","","","",""
"","741","html-keyboard-response","451","437742","0.0-3.0-1.217","ejerro","n","null","noncog","pseudo","N","exp","null"
"","null","html-keyboard-response","452","438250","0.0-3.0-0.218","+","null","","","","","",""
"","728","html-keyboard-response","453","438978","0.0-3.0-1.218","revista","s","n","cog","word","S","exp","7"
"","null","html-keyboard-response","454","439494","0.0-3.0-0.219","+","null","","","","","",""
"","1040","html-keyboard-response","455","440535","0.0-3.0-1.219","melão","s","n","cog","word","S","exp","5"
"","null","html-keyboard-response","456","441037","0.0-3.0-0.220","+","null","","","","","",""
"","1296","html-keyboard-response","457","442334","0.0-3.0-1.220","irratinte","n","null","noncog","pseudo","N","exp","null"
"","null","html-keyboard-response","458","442843","0.0-3.0-0.221","+","null","","","","","",""
"","723","html-keyboard-response","459","443569","0.0-3.0-1.221","bandido","s","n","cog","word","S","exp","7"
"","null","html-keyboard-response","460","444083","0.0-3.0-0.222","+","null","","","","","",""
"","594","html-keyboard-response","461","444678","0.0-3.0-1.222","açúcar","s","n","noncog","word","S","exp","6"
"","null","html-keyboard-response","462","445186","0.0-3.0-0.223","+","null","","","","","",""
"","513","html-keyboard-response","463","445699","0.0-3.0-1.223","país","s","n","noncog","word","S","exp","4"
"","null","html-keyboard-response","464","446207","0.0-3.0-0.224","+","null","","","","","",""
"","781","html-keyboard-response","465","446989","0.0-3.0-1.224","bancada","s","n","noncog","word","S","exp","7"
"","null","html-keyboard-response","466","447504","0.0-3.0-0.225","+","null","","","","","",""
"","777","html-keyboard-response","467","448281","0.0-3.0-1.225","podilo","n","null","noncog","pseudo","N","exp","null"
"","null","html-keyboard-response","468","448788","0.0-3.0-0.226","+","null","","","","","",""
"","1174","html-keyboard-response","469","449963","0.0-3.0-1.226","fratos","n","null","noncog","pseudo","N","exp","null"
"","null","html-keyboard-response","470","450470","0.0-3.0-0.227","+","null","","","","","",""
"","544","html-keyboard-response","471","451014","0.0-3.0-1.227","grátis","s","a","cog","word","S","exp","6"
"","null","html-keyboard-response","472","451518","0.0-3.0-0.228","+","null","","","","","",""
"","600","html-keyboard-response","473","452119","0.0-3.0-1.228","nacional","s","a","cog","word","S","exp","8"
"","null","html-keyboard-response","474","452629","0.0-3.0-0.229","+","null","","","","","",""
"","884","html-keyboard-response","475","453513","0.0-3.0-1.229","oper","n","null","noncog","pseudo","N","exp","null"
"","null","html-keyboard-response","476","454015","0.0-3.0-0.230","+","null","","","","","",""
"","1246","html-keyboard-response","477","455264","0.0-3.0-1.230","revear","n","null","noncog","pseudo","N","exp","null"
"","null","html-keyboard-response","478","455767","0.0-3.0-0.231","+","null","","","","","",""
"","1612","html-keyboard-response","479","457380","0.0-3.0-1.231","ofreta","n","null","noncog","pseudo","N","exp","null"
"","null","html-keyboard-response","480","457886","0.0-3.0-0.232","+","null","","","","","",""
"","1054","html-keyboard-response","481","458941","0.0-3.0-1.232","jastor","n","null","noncog","pseudo","N","exp","null"
"","null","html-keyboard-response","482","459448","0.0-3.0-0.233","+","null","","","","","",""
"","693","html-keyboard-response","483","460143","0.0-3.0-1.233","medalha","s","n","cog","word","S","exp","7"
"","null","html-keyboard-response","484","460656","0.0-3.0-0.234","+","null","","","","","",""
"","630","html-keyboard-response","485","461287","0.0-3.0-1.234","disbrituir","s","null","noncog","pseudo","N","exp","null"
"","null","html-keyboard-response","486","461794","0.0-3.0-0.235","+","null","","","","","",""
"","610","html-keyboard-response","487","462405","0.0-3.0-1.235","tímido","s","a","cog","word","S","exp","6"
"","null","html-keyboard-response","488","462910","0.0-3.0-0.236","+","null","","","","","",""
"","936","html-keyboard-response","489","463847","0.0-3.0-1.236","dilheira","n","null","noncog","pseudo","N","exp","null"
"","null","html-keyboard-response","490","464356","0.0-3.0-0.237","+","null","","","","","",""
"","922","html-keyboard-response","491","465279","0.0-3.0-1.237","crutas","n","null","noncog","pseudo","N","exp","null"
"","null","html-keyboard-response","492","465781","0.0-3.0-0.238","+","null","","","","","",""
"","841","html-keyboard-response","493","466625","0.0-3.0-1.238","aparme","n","null","noncog","pseudo","N","exp","null"
"","null","html-keyboard-response","494","467127","0.0-3.0-0.239","+","null","","","","","",""
"","954","html-keyboard-response","495","468082","0.0-3.0-1.239","hedoru","n","null","noncog","pseudo","N","exp","null"
