"view_history","rt","trial_type","trial_index","time_elapsed","internal_node_id","stimulus","response","trial_part","trial","word","question","answer","accuracy"
"[{""page_index"":0,""viewing_time"":41309},{""page_index"":1,""viewing_time"":2629}]","43938","instructions","0","43944","0.0-0.0","","","","","","","",""
"","null","html-keyboard-response","1","45067","0.0-1.0-0.0-0.0","<span style= ""font-size:30px; font-family: monospace"">+</span>","null","fixation","","","","",""
"","848","html-keyboard-response","2","46174","0.0-1.0-1.0","<span style=""font-size:30px; font-family: monospace"">O</span>"," ","","prac-sent","O","","",""
"","412","html-keyboard-response","3","46840","0.0-1.0-1.1","<span style=""font-size:30px; font-family: monospace"">dia</span>"," ","","prac-sent","dia","","",""
"","482","html-keyboard-response","4","47580","0.0-1.0-1.2","<span style=""font-size:30px; font-family: monospace"">estará</span>"," ","","prac-sent","estará","","",""
"","371","html-keyboard-response","5","48216","0.0-1.0-1.3","<span style=""font-size:30px; font-family: monospace"">cheio</span>"," ","","prac-sent","cheio","","",""
"","311","html-keyboard-response","6","48793","0.0-1.0-1.4","<span style=""font-size:30px; font-family: monospace"">de</span>"," ","","prac-sent","de","","",""
"","348","html-keyboard-response","7","49405","0.0-1.0-1.5","<span style=""font-size:30px; font-family: monospace"">nuvens</span>"," ","","prac-sent","nuvens","","",""
"","309","html-keyboard-response","8","49974","0.0-1.0-1.6","<span style=""font-size:30px; font-family: monospace"">hoje.</span>"," ","","prac-sent","hoje.","","",""
"","null","html-keyboard-response","9","51241","0.0-1.0-0.7-0.7","<span style= ""font-size:30px; font-family: monospace"">+</span>","null","fixation","","","","",""
"","558","html-keyboard-response","10","52055","0.0-1.0-1.7","<span style=""font-size:30px; font-family: monospace"">A</span>"," ","","prac-sent","A","","",""
"","384","html-keyboard-response","11","52693","0.0-1.0-1.8","<span style=""font-size:30px; font-family: monospace"">caneca</span>"," ","","prac-sent","caneca","","",""
"","389","html-keyboard-response","12","53336","0.0-1.0-1.9","<span style=""font-size:30px; font-family: monospace"">colorida</span>"," ","","prac-sent","colorida","","",""
"","439","html-keyboard-response","13","54037","0.0-1.0-1.10","<span style=""font-size:30px; font-family: monospace"">caiu</span>"," ","","prac-sent","caiu","","",""
"","379","html-keyboard-response","14","54680","0.0-1.0-1.11","<span style=""font-size:30px; font-family: monospace"">da</span>"," ","","prac-sent","da","","",""
"","360","html-keyboard-response","15","55300","0.0-1.0-1.12","<span style=""font-size:30px; font-family: monospace"">mesa</span>"," ","","prac-sent","mesa","","",""
"","380","html-keyboard-response","16","55943","0.0-1.0-1.13","<span style=""font-size:30px; font-family: monospace"">de</span>"," ","","prac-sent","de","","",""
"","307","html-keyboard-response","17","56511","0.0-1.0-1.14","<span style=""font-size:30px; font-family: monospace"">jantar.</span>"," ","","prac-comp","jantar.","","",""
"","1802","html-keyboard-response","18","58579","0.0-1.0-2.14-0.14","<span style=""font-size:30px; font-family: monospace"">A caneca permaneceu na mesa?</span>","n","","prac-comp","","A caneca permaneceu na mesa?","não","false"
"[{""page_index"":0,""viewing_time"":8791}]","8792","instructions","19","67887","0.0-2.0","","","","","","","",""
"","null","html-keyboard-response","20","69005","0.0-3.0-0.0-0.0","<span style= ""font-size:30px; font-family: monospace"">+</span>","null","fixation","","","","",""
"","481","html-keyboard-response","21","69744","0.0-3.0-1.0","<span style=""font-size:30px; font-family: monospace"">A</span>"," ","","exp-sent","A","","",""
"","405","html-keyboard-response","22","70412","0.0-3.0-1.1","<span style=""font-size:30px; font-family: monospace"">motorista</span>"," ","","exp-sent","motorista","","",""
"","405","html-keyboard-response","23","71075","0.0-3.0-1.2","<span style=""font-size:30px; font-family: monospace"">fez</span>"," ","","exp-sent","fez","","",""
"","431","html-keyboard-response","24","71763","0.0-3.0-1.3","<span style=""font-size:30px; font-family: monospace"">o</span>"," ","","exp-sent","o","","",""
"","340","html-keyboard-response","25","72354","0.0-3.0-1.4","<span style=""font-size:30px; font-family: monospace"">retorno</span>"," ","","exp-sent","retorno","","",""
"","329","html-keyboard-response","26","72938","0.0-3.0-1.5","<span style=""font-size:30px; font-family: monospace"">com</span>"," ","","exp-sent","com","","",""
"","387","html-keyboard-response","27","73584","0.0-3.0-1.6","<span style=""font-size:30px; font-family: monospace"">cuidado.</span>"," ","","exp-sent","cuidado.","","",""
"","null","html-keyboard-response","28","74840","0.0-3.0-0.7-0.7","<span style= ""font-size:30px; font-family: monospace"">+</span>","null","fixation","","","","",""
"","499","html-keyboard-response","29","75593","0.0-3.0-1.7","<span style=""font-size:30px; font-family: monospace"">Contos</span>"," ","","exp-sent","Contos","","",""
"","451","html-keyboard-response","30","76309","0.0-3.0-1.8","<span style=""font-size:30px; font-family: monospace"">de</span>"," ","","exp-sent","de","","",""
"","304","html-keyboard-response","31","76879","0.0-3.0-1.9","<span style=""font-size:30px; font-family: monospace"">ação</span>"," ","","exp-sent","ação","","",""
"","545","html-keyboard-response","32","77676","0.0-3.0-1.10","<span style=""font-size:30px; font-family: monospace"">têm</span>"," ","","exp-sent","têm","","",""
"","573","html-keyboard-response","33","78515","0.0-3.0-1.11","<span style=""font-size:30px; font-family: monospace"">chantagem</span>"," ","","exp-sent","chantagem","","",""
"","370","html-keyboard-response","34","79142","0.0-3.0-1.12","<span style=""font-size:30px; font-family: monospace"">e</span>"," ","","exp-sent","e","","",""
"","347","html-keyboard-response","35","79745","0.0-3.0-1.13","<span style=""font-size:30px; font-family: monospace"">muita</span>"," ","","exp-sent","muita","","",""
"","343","html-keyboard-response","36","80351","0.0-3.0-1.14","<span style=""font-size:30px; font-family: monospace"">luta.</span>"," ","","exp-sent","luta.","","",""
"","null","html-keyboard-response","37","81625","0.0-3.0-0.15-0.15","<span style= ""font-size:30px; font-family: monospace"">+</span>","null","fixation","","","","",""
"","799","html-keyboard-response","38","82681","0.0-3.0-1.15","<span style=""font-size:30px; font-family: monospace"">A</span>"," ","","exp-sent","A","","",""
"","568","html-keyboard-response","39","83506","0.0-3.0-1.16","<span style=""font-size:30px; font-family: monospace"">bisavó</span>"," ","","exp-sent","bisavó","","",""
"","690","html-keyboard-response","40","84458","0.0-3.0-1.17","<span style=""font-size:30px; font-family: monospace"">recebeu</span>"," ","","exp-sent","recebeu","","",""
"","625","html-keyboard-response","41","85340","0.0-3.0-1.18","<span style=""font-size:30px; font-family: monospace"">um</span>"," ","","exp-sent","um","","",""
"","715","html-keyboard-response","42","86315","0.0-3.0-1.19","<span style=""font-size:30px; font-family: monospace"">benefício</span>"," ","","exp-sent","benefício","","",""
"","394","html-keyboard-response","43","86964","0.0-3.0-1.20","<span style=""font-size:30px; font-family: monospace"">temporário</span>"," ","","exp-sent","temporário","","",""
"","333","html-keyboard-response","44","87554","0.0-3.0-1.21","<span style=""font-size:30px; font-family: monospace"">do</span>"," ","","exp-sent","do","","",""
"","332","html-keyboard-response","45","88143","0.0-3.0-1.22","<span style=""font-size:30px; font-family: monospace"">governo.</span>"," ","","exp-sent","governo.","","",""
"","null","html-keyboard-response","46","89406","0.0-3.0-0.23-0.23","<span style= ""font-size:30px; font-family: monospace"">+</span>","null","fixation","","","","",""
"","696","html-keyboard-response","47","90357","0.0-3.0-1.23","<span style=""font-size:30px; font-family: monospace"">As</span>"," ","","exp-sent","As","","",""
"","461","html-keyboard-response","48","91078","0.0-3.0-1.24","<span style=""font-size:30px; font-family: monospace"">crianças</span>"," ","","exp-sent","crianças","","",""
"","369","html-keyboard-response","49","91703","0.0-3.0-1.25","<span style=""font-size:30px; font-family: monospace"">brincaram</span>"," ","","exp-sent","brincaram","","",""
"","471","html-keyboard-response","50","92429","0.0-3.0-1.26","<span style=""font-size:30px; font-family: monospace"">no</span>"," ","","exp-sent","no","","",""
"","344","html-keyboard-response","51","93038","0.0-3.0-1.27","<span style=""font-size:30px; font-family: monospace"">balanço</span>"," ","","exp-sent","balanço","","",""
"","480","html-keyboard-response","52","93783","0.0-3.0-1.28","<span style=""font-size:30px; font-family: monospace"">a</span>"," ","","exp-sent","a","","",""
"","498","html-keyboard-response","53","94536","0.0-3.0-1.29","<span style=""font-size:30px; font-family: monospace"">tarde</span>"," ","","exp-sent","tarde","","",""
"","355","html-keyboard-response","54","95145","0.0-3.0-1.30","<span style=""font-size:30px; font-family: monospace"">toda.</span>"," ","","exp-sent","toda.","","",""
"","null","html-keyboard-response","55","96398","0.0-3.0-0.31-0.31","<span style= ""font-size:30px; font-family: monospace"">+</span>","null","fixation","","","","",""
"","664","html-keyboard-response","56","97320","0.0-3.0-1.31","<span style=""font-size:30px; font-family: monospace"">Ela</span>"," ","","exp-sent","Ela","","",""
"","617","html-keyboard-response","57","98188","0.0-3.0-1.32","<span style=""font-size:30px; font-family: monospace"">gosta</span>"," ","","exp-sent","gosta","","",""
"","340","html-keyboard-response","58","98788","0.0-3.0-1.33","<span style=""font-size:30px; font-family: monospace"">de</span>"," ","","exp-sent","de","","",""
"","420","html-keyboard-response","59","99475","0.0-3.0-1.34","<span style=""font-size:30px; font-family: monospace"">comida</span>"," ","","exp-sent","comida","","",""
"","304","html-keyboard-response","60","100043","0.0-3.0-1.35","<span style=""font-size:30px; font-family: monospace"">natural</span>"," ","","exp-sent","natural","","",""
"","397","html-keyboard-response","61","100698","0.0-3.0-1.36","<span style=""font-size:30px; font-family: monospace"">no</span>"," ","","exp-sent","no","","",""
"","354","html-keyboard-response","62","101304","0.0-3.0-1.37","<span style=""font-size:30px; font-family: monospace"">almoço.</span>"," ","","comp","almoço.","","",""
"","2080","html-keyboard-response","63","103638","0.0-3.0-2.37-0.37","<span style=""font-size:30px; font-family: monospace"">Ela gosta de comida natural no almoço?</span>","s","","comp","","Ela gosta de comida natural no almoço?","sim","false"
"","null","html-keyboard-response","64","105167","0.0-3.0-0.38-0.38","<span style= ""font-size:30px; font-family: monospace"">+</span>","null","fixation","","","","",""
"","455","html-keyboard-response","65","105875","0.0-3.0-1.38","<span style=""font-size:30px; font-family: monospace"">A</span>"," ","","exp-sent","A","","",""
"","447","html-keyboard-response","66","106584","0.0-3.0-1.39","<span style=""font-size:30px; font-family: monospace"">senhora</span>"," ","","exp-sent","senhora","","",""
"","780","html-keyboard-response","67","107624","0.0-3.0-1.40","<span style=""font-size:30px; font-family: monospace"">cumprimentou</span>"," ","","exp-sent","cumprimentou","","",""
"","352","html-keyboard-response","68","108227","0.0-3.0-1.41","<span style=""font-size:30px; font-family: monospace"">o</span>"," ","","exp-sent","o","","",""
"","359","html-keyboard-response","69","108841","0.0-3.0-1.42","<span style=""font-size:30px; font-family: monospace"">operador</span>"," ","","exp-sent","operador","","",""
"","315","html-keyboard-response","70","109415","0.0-3.0-1.43","<span style=""font-size:30px; font-family: monospace"">de</span>"," ","","exp-sent","de","","",""
"","331","html-keyboard-response","71","110002","0.0-3.0-1.44","<span style=""font-size:30px; font-family: monospace"">caixa.</span>"," ","","exp-sent","caixa.","","",""
"","null","html-keyboard-response","72","111264","0.0-3.0-0.45-0.45","<span style= ""font-size:30px; font-family: monospace"">+</span>","null","fixation","","","","",""
"","322","html-keyboard-response","73","111842","0.0-3.0-1.45","<span style=""font-size:30px; font-family: monospace"">A</span>"," ","","exp-sent","A","","",""
"","308","html-keyboard-response","74","112404","0.0-3.0-1.46","<span style=""font-size:30px; font-family: monospace"">gente</span>"," ","","exp-sent","gente","","",""
"","321","html-keyboard-response","75","112978","0.0-3.0-1.47","<span style=""font-size:30px; font-family: monospace"">viu</span>"," ","","exp-sent","viu","","",""
"","676","html-keyboard-response","76","113907","0.0-3.0-1.48","<span style=""font-size:30px; font-family: monospace"">o</span>"," ","","exp-sent","o","","",""
"","279","html-keyboard-response","77","114450","0.0-3.0-1.49","<span style=""font-size:30px; font-family: monospace"">eclipse</span>"," ","","exp-sent","eclipse","","",""
"","312","html-keyboard-response","78","115028","0.0-3.0-1.50","<span style=""font-size:30px; font-family: monospace"">lunar</span>"," ","","exp-sent","lunar","","",""
"","427","html-keyboard-response","79","115714","0.0-3.0-1.51","<span style=""font-size:30px; font-family: monospace"">durante</span>"," ","","exp-sent","durante","","",""
"","345","html-keyboard-response","80","116310","0.0-3.0-1.52","<span style=""font-size:30px; font-family: monospace"">o</span>"," ","","exp-sent","o","","",""
"","316","html-keyboard-response","81","116879","0.0-3.0-1.53","<span style=""font-size:30px; font-family: monospace"">dia.</span>"," ","","exp-sent","dia.","","",""
"","null","html-keyboard-response","82","118138","0.0-3.0-0.54-0.54","<span style= ""font-size:30px; font-family: monospace"">+</span>","null","fixation","","","","",""
"","307","html-keyboard-response","83","118703","0.0-3.0-1.54","<span style=""font-size:30px; font-family: monospace"">A</span>"," ","","exp-sent","A","","",""
"","546","html-keyboard-response","84","119511","0.0-3.0-1.55","<span style=""font-size:30px; font-family: monospace"">mordida</span>"," ","","exp-sent","mordida","","",""
"","298","html-keyboard-response","85","120069","0.0-3.0-1.56","<span style=""font-size:30px; font-family: monospace"">do</span>"," ","","exp-sent","do","","",""
"","336","html-keyboard-response","86","120667","0.0-3.0-1.57","<span style=""font-size:30px; font-family: monospace"">cachorro</span>"," ","","exp-sent","cachorro","","",""
"","423","html-keyboard-response","87","121344","0.0-3.0-1.58","<span style=""font-size:30px; font-family: monospace"">voraz</span>"," ","","exp-sent","voraz","","",""
"","424","html-keyboard-response","88","122030","0.0-3.0-1.59","<span style=""font-size:30px; font-family: monospace"">causou</span>"," ","","exp-sent","causou","","",""
"","474","html-keyboard-response","89","122765","0.0-3.0-1.60","<span style=""font-size:30px; font-family: monospace"">uma</span>"," ","","exp-sent","uma","","",""
"","431","html-keyboard-response","90","123453","0.0-3.0-1.61","<span style=""font-size:30px; font-family: monospace"">cicatriz.</span>"," ","","exp-sent","cicatriz.","","",""
"","null","html-keyboard-response","91","124719","0.0-3.0-0.62-0.62","<span style= ""font-size:30px; font-family: monospace"">+</span>","null","fixation","","","","",""
"","426","html-keyboard-response","92","125401","0.0-3.0-1.62","<span style=""font-size:30px; font-family: monospace"">Elas</span>"," ","","exp-sent","Elas","","",""
"","856","html-keyboard-response","93","126520","0.0-3.0-1.63","<span style=""font-size:30px; font-family: monospace"">não</span>"," ","","exp-sent","não","","",""
"","787","html-keyboard-response","94","127570","0.0-3.0-1.64","<span style=""font-size:30px; font-family: monospace"">viram</span>"," ","","exp-sent","viram","","",""
"","333","html-keyboard-response","95","128166","0.0-3.0-1.65","<span style=""font-size:30px; font-family: monospace"">nenhuma</span>"," ","","exp-sent","nenhuma","","",""
"","376","html-keyboard-response","96","128802","0.0-3.0-1.66","<span style=""font-size:30px; font-family: monospace"">diferença</span>"," ","","exp-sent","diferença","","",""
"","494","html-keyboard-response","97","129555","0.0-3.0-1.67","<span style=""font-size:30px; font-family: monospace"">entre</span>"," ","","exp-sent","entre","","",""
"","334","html-keyboard-response","98","130142","0.0-3.0-1.68","<span style=""font-size:30px; font-family: monospace"">os</span>"," ","","exp-sent","os","","",""
"","412","html-keyboard-response","99","130814","0.0-3.0-1.69","<span style=""font-size:30px; font-family: monospace"">textos.</span>"," ","","exp-sent","textos.","","",""
"","null","html-keyboard-response","100","132082","0.0-3.0-0.70-0.70","<span style= ""font-size:30px; font-family: monospace"">+</span>","null","fixation","","","","",""
"","672","html-keyboard-response","101","133009","0.0-3.0-1.70","<span style=""font-size:30px; font-family: monospace"">Amanhã</span>"," ","","exp-sent","Amanhã","","",""
"","449","html-keyboard-response","102","133717","0.0-3.0-1.71","<span style=""font-size:30px; font-family: monospace"">vai</span>"," ","","exp-sent","vai","","",""
"","486","html-keyboard-response","103","134458","0.0-3.0-1.72","<span style=""font-size:30px; font-family: monospace"">ter</span>"," ","","exp-sent","ter","","",""
"","379","html-keyboard-response","104","135100","0.0-3.0-1.73","<span style=""font-size:30px; font-family: monospace"">um</span>"," ","","exp-sent","um","","",""
"","242","html-keyboard-response","105","135602","0.0-3.0-1.74","<span style=""font-size:30px; font-family: monospace"">bazar</span>"," ","","exp-sent","bazar","","",""
"","354","html-keyboard-response","106","136213","0.0-3.0-1.75","<span style=""font-size:30px; font-family: monospace"">no</span>"," ","","exp-sent","no","","",""
"","342","html-keyboard-response","107","136817","0.0-3.0-1.76","<span style=""font-size:30px; font-family: monospace"">bairro.</span>"," ","","comp","bairro.","","",""
"","1746","html-keyboard-response","108","138827","0.0-3.0-2.76-0.76","<span style=""font-size:30px; font-family: monospace"">Amanhã vai acontecer um bazar no bairro?</span>","s","","comp","","Amanhã vai acontecer um bazar no bairro?","sim","false"
"","null","html-keyboard-response","109","140356","0.0-3.0-0.77-0.77","<span style= ""font-size:30px; font-family: monospace"">+</span>","null","fixation","","","","",""
"","550","html-keyboard-response","110","141160","0.0-3.0-1.77","<span style=""font-size:30px; font-family: monospace"">Barulho</span>"," ","","exp-sent","Barulho","","",""
"","721","html-keyboard-response","111","142139","0.0-3.0-1.78","<span style=""font-size:30px; font-family: monospace"">de</span>"," ","","exp-sent","de","","",""
"","358","html-keyboard-response","112","142762","0.0-3.0-1.79","<span style=""font-size:30px; font-family: monospace"">carros</span>"," ","","exp-sent","carros","","",""
"","380","html-keyboard-response","113","143405","0.0-3.0-1.80","<span style=""font-size:30px; font-family: monospace"">é</span>"," ","","exp-sent","é","","",""
"","290","html-keyboard-response","114","143955","0.0-3.0-1.81","<span style=""font-size:30px; font-family: monospace"">irritante</span>"," ","","exp-sent","irritante","","",""
"","366","html-keyboard-response","115","144576","0.0-3.0-1.82","<span style=""font-size:30px; font-family: monospace"">para</span>"," ","","exp-sent","para","","",""
"","371","html-keyboard-response","116","145205","0.0-3.0-1.83","<span style=""font-size:30px; font-family: monospace"">a</span>"," ","","exp-sent","a","","",""
"","335","html-keyboard-response","117","145806","0.0-3.0-1.84","<span style=""font-size:30px; font-family: monospace"">moça.</span>"," ","","exp-sent","moça.","","",""
"","null","html-keyboard-response","118","147072","0.0-3.0-0.85-0.85","<span style= ""font-size:30px; font-family: monospace"">+</span>","null","fixation","","","","",""
"","599","html-keyboard-response","119","147925","0.0-3.0-1.85","<span style=""font-size:30px; font-family: monospace"">A</span>"," ","","exp-sent","A","","",""
"","316","html-keyboard-response","120","148501","0.0-3.0-1.86","<span style=""font-size:30px; font-family: monospace"">loja</span>"," ","","exp-sent","loja","","",""
"","331","html-keyboard-response","121","149090","0.0-3.0-1.87","<span style=""font-size:30px; font-family: monospace"">também</span>"," ","","exp-sent","também","","",""
"","412","html-keyboard-response","122","149755","0.0-3.0-1.88","<span style=""font-size:30px; font-family: monospace"">vende</span>"," ","","exp-sent","vende","","",""
"","339","html-keyboard-response","123","150350","0.0-3.0-1.89","<span style=""font-size:30px; font-family: monospace"">taça</span>"," ","","exp-sent","taça","","",""
"","369","html-keyboard-response","124","150985","0.0-3.0-1.90","<span style=""font-size:30px; font-family: monospace"">de</span>"," ","","exp-sent","de","","",""
"","416","html-keyboard-response","125","151666","0.0-3.0-1.91","<span style=""font-size:30px; font-family: monospace"">vinho</span>"," ","","exp-sent","vinho","","",""
"","487","html-keyboard-response","126","152408","0.0-3.0-1.92","<span style=""font-size:30px; font-family: monospace"">e</span>"," ","","exp-sent","e","","",""
"","543","html-keyboard-response","127","153214","0.0-3.0-1.93","<span style=""font-size:30px; font-family: monospace"">espumante.</span>"," ","","exp-sent","espumante.","","",""
"","null","html-keyboard-response","128","154485","0.0-3.0-0.94-0.94","<span style= ""font-size:30px; font-family: monospace"">+</span>","null","fixation","","","","",""
"","388","html-keyboard-response","129","155131","0.0-3.0-1.94","<span style=""font-size:30px; font-family: monospace"">A</span>"," ","","exp-sent","A","","",""
"","544","html-keyboard-response","130","155926","0.0-3.0-1.95","<span style=""font-size:30px; font-family: monospace"">bruxa</span>"," ","","exp-sent","bruxa","","",""
"","316","html-keyboard-response","131","156493","0.0-3.0-1.96","<span style=""font-size:30px; font-family: monospace"">tinha</span>"," ","","exp-sent","tinha","","",""
"","427","html-keyboard-response","132","157177","0.0-3.0-1.97","<span style=""font-size:30px; font-family: monospace"">uma</span>"," ","","exp-sent","uma","","",""
"","469","html-keyboard-response","133","157902","0.0-3.0-1.98","<span style=""font-size:30px; font-family: monospace"">vassoura</span>"," ","","exp-sent","vassoura","","",""
"","429","html-keyboard-response","134","158591","0.0-3.0-1.99","<span style=""font-size:30px; font-family: monospace"">e</span>"," ","","exp-sent","e","","",""
"","386","html-keyboard-response","135","159228","0.0-3.0-1.100","<span style=""font-size:30px; font-family: monospace"">um</span>"," ","","exp-sent","um","","",""
"","412","html-keyboard-response","136","159901","0.0-3.0-1.101","<span style=""font-size:30px; font-family: monospace"">gato.</span>"," ","","exp-sent","gato.","","",""
"","null","html-keyboard-response","137","161159","0.0-3.0-0.102-0.102","<span style= ""font-size:30px; font-family: monospace"">+</span>","null","fixation","","","","",""
"","392","html-keyboard-response","138","161808","0.0-3.0-1.102","<span style=""font-size:30px; font-family: monospace"">Eu</span>"," ","","exp-sent","Eu","","",""
"","458","html-keyboard-response","139","162527","0.0-3.0-1.103","<span style=""font-size:30px; font-family: monospace"">me</span>"," ","","exp-sent","me","","",""
"","275","html-keyboard-response","140","163065","0.0-3.0-1.104","<span style=""font-size:30px; font-family: monospace"">divirto</span>"," ","","exp-sent","divirto","","",""
"","428","html-keyboard-response","141","163748","0.0-3.0-1.105","<span style=""font-size:30px; font-family: monospace"">em</span>"," ","","exp-sent","em","","",""
"","274","html-keyboard-response","142","164282","0.0-3.0-1.106","<span style=""font-size:30px; font-family: monospace"">festas</span>"," ","","exp-sent","festas","","",""
"","327","html-keyboard-response","143","164861","0.0-3.0-1.107","<span style=""font-size:30px; font-family: monospace"">de</span>"," ","","exp-sent","de","","",""
"","320","html-keyboard-response","144","165446","0.0-3.0-1.108","<span style=""font-size:30px; font-family: monospace"">criança.</span>"," ","","exp-sent","criança.","","",""
"","null","html-keyboard-response","145","166709","0.0-3.0-0.109-0.109","<span style= ""font-size:30px; font-family: monospace"">+</span>","null","fixation","","","","",""
"","306","html-keyboard-response","146","167272","0.0-3.0-1.109","<span style=""font-size:30px; font-family: monospace"">A</span>"," ","","exp-sent","A","","",""
"","365","html-keyboard-response","147","167891","0.0-3.0-1.110","<span style=""font-size:30px; font-family: monospace"">janela</span>"," ","","exp-sent","janela","","",""
"","370","html-keyboard-response","148","168517","0.0-3.0-1.111","<span style=""font-size:30px; font-family: monospace"">alta</span>"," ","","exp-sent","alta","","",""
"","715","html-keyboard-response","149","169488","0.0-3.0-1.112","<span style=""font-size:30px; font-family: monospace"">estava</span>"," ","","exp-sent","estava","","",""
"","474","html-keyboard-response","150","170222","0.0-3.0-1.113","<span style=""font-size:30px; font-family: monospace"">quebrada</span>"," ","","exp-sent","quebrada","","",""
"","472","html-keyboard-response","151","170953","0.0-3.0-1.114","<span style=""font-size:30px; font-family: monospace"">desde</span>"," ","","exp-sent","desde","","",""
"","363","html-keyboard-response","152","171578","0.0-3.0-1.115","<span style=""font-size:30px; font-family: monospace"">ontem.</span>"," ","","comp","ontem.","","",""
"","2156","html-keyboard-response","153","173994","0.0-3.0-2.115-0.115","<span style=""font-size:30px; font-family: monospace"">A janela alta estava quebrada?</span>","s","","comp","","A janela alta estava quebrada?","sim","false"
"","null","html-keyboard-response","154","175513","0.0-3.0-0.116-0.116","<span style= ""font-size:30px; font-family: monospace"">+</span>","null","fixation","","","","",""
"","344","html-keyboard-response","155","176110","0.0-3.0-1.116","<span style=""font-size:30px; font-family: monospace"">O</span>"," ","","exp-sent","O","","",""
"","667","html-keyboard-response","156","177032","0.0-3.0-1.117","<span style=""font-size:30px; font-family: monospace"">travesseiro</span>"," ","","exp-sent","travesseiro","","",""
"","311","html-keyboard-response","157","177610","0.0-3.0-1.118","<span style=""font-size:30px; font-family: monospace"">era</span>"," ","","exp-sent","era","","",""
"","340","html-keyboard-response","158","178207","0.0-3.0-1.119","<span style=""font-size:30px; font-family: monospace"">muito</span>"," ","","exp-sent","muito","","",""
"","369","html-keyboard-response","159","178838","0.0-3.0-1.120","<span style=""font-size:30px; font-family: monospace"">macio</span>"," ","","exp-sent","macio","","",""
"","367","html-keyboard-response","160","179468","0.0-3.0-1.121","<span style=""font-size:30px; font-family: monospace"">e</span>"," ","","exp-sent","e","","",""
"","317","html-keyboard-response","161","180050","0.0-3.0-1.122","<span style=""font-size:30px; font-family: monospace"">confortável.</span>"," ","","exp-sent","confortável.","","",""
"","null","html-keyboard-response","162","181329","0.0-3.0-0.123-0.123","<span style= ""font-size:30px; font-family: monospace"">+</span>","null","fixation","","","","",""
"","347","html-keyboard-response","163","181932","0.0-3.0-1.123","<span style=""font-size:30px; font-family: monospace"">Hoje</span>"," ","","exp-sent","Hoje","","",""
"","346","html-keyboard-response","164","182537","0.0-3.0-1.124","<span style=""font-size:30px; font-family: monospace"">a</span>"," ","","exp-sent","a","","",""
"","330","html-keyboard-response","165","183129","0.0-3.0-1.125","<span style=""font-size:30px; font-family: monospace"">atendente</span>"," ","","exp-sent","atendente","","",""
"","435","html-keyboard-response","166","183823","0.0-3.0-1.126","<span style=""font-size:30px; font-family: monospace"">estava</span>"," ","","exp-sent","estava","","",""
"","431","html-keyboard-response","167","184505","0.0-3.0-1.127","<span style=""font-size:30px; font-family: monospace"">furiosa</span>"," ","","exp-sent","furiosa","","",""
"","452","html-keyboard-response","168","185210","0.0-3.0-1.128","<span style=""font-size:30px; font-family: monospace"">com</span>"," ","","exp-sent","com","","",""
"","314","html-keyboard-response","169","185782","0.0-3.0-1.129","<span style=""font-size:30px; font-family: monospace"">o</span>"," ","","exp-sent","o","","",""
"","457","html-keyboard-response","170","186494","0.0-3.0-1.130","<span style=""font-size:30px; font-family: monospace"">cliente.</span>"," ","","exp-sent","cliente.","","",""
"","null","html-keyboard-response","171","187760","0.0-3.0-0.131-0.131","<span style= ""font-size:30px; font-family: monospace"">+</span>","null","fixation","","","","",""
"","443","html-keyboard-response","172","188458","0.0-3.0-1.131","<span style=""font-size:30px; font-family: monospace"">O</span>"," ","","exp-sent","O","","",""
"","361","html-keyboard-response","173","189077","0.0-3.0-1.132","<span style=""font-size:30px; font-family: monospace"">vizinho</span>"," ","","exp-sent","vizinho","","",""
"","369","html-keyboard-response","174","189713","0.0-3.0-1.133","<span style=""font-size:30px; font-family: monospace"">é</span>"," ","","exp-sent","é","","",""
"","301","html-keyboard-response","175","190273","0.0-3.0-1.134","<span style=""font-size:30px; font-family: monospace"">um</span>"," ","","exp-sent","um","","",""
"","350","html-keyboard-response","176","190875","0.0-3.0-1.135","<span style=""font-size:30px; font-family: monospace"">arquiteto</span>"," ","","exp-sent","arquiteto","","",""
"","331","html-keyboard-response","177","191472","0.0-3.0-1.136","<span style=""font-size:30px; font-family: monospace"">muito</span>"," ","","exp-sent","muito","","",""
"","524","html-keyboard-response","178","192250","0.0-3.0-1.137","<span style=""font-size:30px; font-family: monospace"">excêntrico.</span>"," ","","exp-sent","excêntrico.","","",""
"","null","html-keyboard-response","179","193529","0.0-3.0-0.138-0.138","<span style= ""font-size:30px; font-family: monospace"">+</span>","null","fixation","","","","",""
"","397","html-keyboard-response","180","194185","0.0-3.0-1.138","<span style=""font-size:30px; font-family: monospace"">A</span>"," ","","exp-sent","A","","",""
"","356","html-keyboard-response","181","194799","0.0-3.0-1.139","<span style=""font-size:30px; font-family: monospace"">nossa</span>"," ","","exp-sent","nossa","","",""
"","566","html-keyboard-response","182","195630","0.0-3.0-1.140","<span style=""font-size:30px; font-family: monospace"">colega</span>"," ","","exp-sent","colega","","",""
"","315","html-keyboard-response","183","196208","0.0-3.0-1.141","<span style=""font-size:30px; font-family: monospace"">foi</span>"," ","","exp-sent","foi","","",""
"","353","html-keyboard-response","184","196820","0.0-3.0-1.142","<span style=""font-size:30px; font-family: monospace"">má</span>"," ","","exp-sent","má","","",""
"","339","html-keyboard-response","185","197414","0.0-3.0-1.143","<span style=""font-size:30px; font-family: monospace"">com</span>"," ","","exp-sent","com","","",""
"","396","html-keyboard-response","186","198076","0.0-3.0-1.144","<span style=""font-size:30px; font-family: monospace"">as</span>"," ","","exp-sent","as","","",""
"","469","html-keyboard-response","187","198805","0.0-3.0-1.145","<span style=""font-size:30px; font-family: monospace"">crianças.</span>"," ","","exp-sent","crianças.","","",""
"","null","html-keyboard-response","188","200071","0.0-3.0-0.146-0.146","<span style= ""font-size:30px; font-family: monospace"">+</span>","null","fixation","","","","",""
"","288","html-keyboard-response","189","200616","0.0-3.0-1.146","<span style=""font-size:30px; font-family: monospace"">Virtudes</span>"," ","","exp-sent","Virtudes","","",""
"","632","html-keyboard-response","190","201502","0.0-3.0-1.147","<span style=""font-size:30px; font-family: monospace"">não</span>"," ","","exp-sent","não","","",""
"","292","html-keyboard-response","191","202051","0.0-3.0-1.148","<span style=""font-size:30px; font-family: monospace"">são</span>"," ","","exp-sent","são","","",""
"","438","html-keyboard-response","192","202745","0.0-3.0-1.149","<span style=""font-size:30px; font-family: monospace"">preguiça,</span>"," ","","exp-sent","preguiça,","","",""
"","444","html-keyboard-response","193","203445","0.0-3.0-1.150","<span style=""font-size:30px; font-family: monospace"">gula</span>"," ","","exp-sent","gula","","",""
"","409","html-keyboard-response","194","204105","0.0-3.0-1.151","<span style=""font-size:30px; font-family: monospace"">nem</span>"," ","","exp-sent","nem","","",""
"","452","html-keyboard-response","195","204818","0.0-3.0-1.152","<span style=""font-size:30px; font-family: monospace"">ganância.</span>"," ","","comp","ganância.","","",""
"","5968","html-keyboard-response","196","211046","0.0-3.0-2.152-0.152","<span style=""font-size:30px; font-family: monospace"">Preguiça é uma virtude?</span>","n","","comp","","Preguiça é uma virtude?","não","false"
"","null","html-keyboard-response","197","212573","0.0-3.0-0.153-0.153","<span style= ""font-size:30px; font-family: monospace"">+</span>","null","fixation","","","","",""
"","481","html-keyboard-response","198","213309","0.0-3.0-1.153","<span style=""font-size:30px; font-family: monospace"">O</span>"," ","","exp-sent","O","","",""
"","690","html-keyboard-response","199","214257","0.0-3.0-1.154","<span style=""font-size:30px; font-family: monospace"">texto</span>"," ","","exp-sent","texto","","",""
"","898","html-keyboard-response","200","215408","0.0-3.0-1.155","<span style=""font-size:30px; font-family: monospace"">trazia</span>"," ","","exp-sent","trazia","","",""
"","415","html-keyboard-response","201","216077","0.0-3.0-1.156","<span style=""font-size:30px; font-family: monospace"">um</span>"," ","","exp-sent","um","","",""
"","353","html-keyboard-response","202","216685","0.0-3.0-1.157","<span style=""font-size:30px; font-family: monospace"">argumento</span>"," ","","exp-sent","argumento","","",""
"","755","html-keyboard-response","203","217694","0.0-3.0-1.158","<span style=""font-size:30px; font-family: monospace"">central</span>"," ","","exp-sent","central","","",""
"","619","html-keyboard-response","204","218575","0.0-3.0-1.159","<span style=""font-size:30px; font-family: monospace"">para</span>"," ","","exp-sent","para","","",""
"","434","html-keyboard-response","205","219268","0.0-3.0-1.160","<span style=""font-size:30px; font-family: monospace"">a</span>"," ","","exp-sent","a","","",""
"","580","html-keyboard-response","206","220113","0.0-3.0-1.161","<span style=""font-size:30px; font-family: monospace"">conversa.</span>"," ","","exp-sent","conversa.","","",""
"","null","html-keyboard-response","207","221379","0.0-3.0-0.162-0.162","<span style= ""font-size:30px; font-family: monospace"">+</span>","null","fixation","","","","",""
"","563","html-keyboard-response","208","222199","0.0-3.0-1.162","<span style=""font-size:30px; font-family: monospace"">Ontem</span>"," ","","exp-sent","Ontem","","",""
"","477","html-keyboard-response","209","222929","0.0-3.0-1.163","<span style=""font-size:30px; font-family: monospace"">a</span>"," ","","exp-sent","a","","",""
"","374","html-keyboard-response","210","223561","0.0-3.0-1.164","<span style=""font-size:30px; font-family: monospace"">temperatura</span>"," ","","exp-sent","temperatura","","",""
"","456","html-keyboard-response","211","224282","0.0-3.0-1.165","<span style=""font-size:30px; font-family: monospace"">estava</span>"," ","","exp-sent","estava","","",""
"","347","html-keyboard-response","212","224892","0.0-3.0-1.166","<span style=""font-size:30px; font-family: monospace"">amena</span>"," ","","exp-sent","amena","","",""
"","504","html-keyboard-response","213","225660","0.0-3.0-1.167","<span style=""font-size:30px; font-family: monospace"">durante</span>"," ","","exp-sent","durante","","",""
"","340","html-keyboard-response","214","226265","0.0-3.0-1.168","<span style=""font-size:30px; font-family: monospace"">o</span>"," ","","exp-sent","o","","",""
"","357","html-keyboard-response","215","226875","0.0-3.0-1.169","<span style=""font-size:30px; font-family: monospace"">dia.</span>"," ","","exp-sent","dia.","","",""
"","null","html-keyboard-response","216","228155","0.0-3.0-0.170-0.170","<span style= ""font-size:30px; font-family: monospace"">+</span>","null","fixation","","","","",""
"","385","html-keyboard-response","217","228797","0.0-3.0-1.170","<span style=""font-size:30px; font-family: monospace"">Havia</span>"," ","","exp-sent","Havia","","",""
"","409","html-keyboard-response","218","229464","0.0-3.0-1.171","<span style=""font-size:30px; font-family: monospace"">um</span>"," ","","exp-sent","um","","",""
"","694","html-keyboard-response","219","230421","0.0-3.0-1.172","<span style=""font-size:30px; font-family: monospace"">machucado</span>"," ","","exp-sent","machucado","","",""
"","356","html-keyboard-response","220","231035","0.0-3.0-1.173","<span style=""font-size:30px; font-family: monospace"">no</span>"," ","","exp-sent","no","","",""
"","365","html-keyboard-response","221","231657","0.0-3.0-1.174","<span style=""font-size:30px; font-family: monospace"">dedo</span>"," ","","exp-sent","dedo","","",""
"","296","html-keyboard-response","222","232214","0.0-3.0-1.175","<span style=""font-size:30px; font-family: monospace"">da</span>"," ","","exp-sent","da","","",""
"","335","html-keyboard-response","223","232811","0.0-3.0-1.176","<span style=""font-size:30px; font-family: monospace"">criança.</span>"," ","","exp-sent","criança.","","",""
"","null","html-keyboard-response","224","234071","0.0-3.0-0.177-0.177","<span style= ""font-size:30px; font-family: monospace"">+</span>","null","fixation","","","","",""
"","270","html-keyboard-response","225","234594","0.0-3.0-1.177","<span style=""font-size:30px; font-family: monospace"">A</span>"," ","","exp-sent","A","","",""
"","384","html-keyboard-response","226","235235","0.0-3.0-1.178","<span style=""font-size:30px; font-family: monospace"">borboleta</span>"," ","","exp-sent","borboleta","","",""
"","418","html-keyboard-response","227","235911","0.0-3.0-1.179","<span style=""font-size:30px; font-family: monospace"">pousou</span>"," ","","exp-sent","pousou","","",""
"","365","html-keyboard-response","228","236534","0.0-3.0-1.180","<span style=""font-size:30px; font-family: monospace"">no</span>"," ","","exp-sent","no","","",""
"","336","html-keyboard-response","229","237123","0.0-3.0-1.181","<span style=""font-size:30px; font-family: monospace"">ombro</span>"," ","","exp-sent","ombro","","",""
"","334","html-keyboard-response","230","237710","0.0-3.0-1.182","<span style=""font-size:30px; font-family: monospace"">daquela</span>"," ","","exp-sent","daquela","","",""
"","339","html-keyboard-response","231","238316","0.0-3.0-1.183","<span style=""font-size:30px; font-family: monospace"">moça.</span>"," ","","exp-sent","moça.","","",""
"","null","html-keyboard-response","232","239586","0.0-3.0-0.184-0.184","<span style= ""font-size:30px; font-family: monospace"">+</span>","null","fixation","","","","",""
"","400","html-keyboard-response","233","240241","0.0-3.0-1.184","<span style=""font-size:30px; font-family: monospace"">Eu</span>"," ","","exp-sent","Eu","","",""
"","390","html-keyboard-response","234","240884","0.0-3.0-1.185","<span style=""font-size:30px; font-family: monospace"">quero</span>"," ","","exp-sent","quero","","",""
"","302","html-keyboard-response","235","241445","0.0-3.0-1.186","<span style=""font-size:30px; font-family: monospace"">um</span>"," ","","exp-sent","um","","",""
"","477","html-keyboard-response","236","242174","0.0-3.0-1.187","<span style=""font-size:30px; font-family: monospace"">namorado</span>"," ","","exp-sent","namorado","","",""
"","349","html-keyboard-response","237","242786","0.0-3.0-1.188","<span style=""font-size:30px; font-family: monospace"">honesto</span>"," ","","exp-sent","honesto","","",""
"","315","html-keyboard-response","238","243360","0.0-3.0-1.189","<span style=""font-size:30px; font-family: monospace"">e</span>"," ","","exp-sent","e","","",""
"","451","html-keyboard-response","239","244070","0.0-3.0-1.190","<span style=""font-size:30px; font-family: monospace"">compreensivo.</span>"," ","","comp","compreensivo.","","",""
"","1780","html-keyboard-response","240","246103","0.0-3.0-2.190-0.190","<span style=""font-size:30px; font-family: monospace"">Eu quero um namorado honesto?</span>","s","","comp","","Eu quero um namorado honesto?","sim","false"
"","null","html-keyboard-response","241","247618","0.0-3.0-0.191-0.191","<span style= ""font-size:30px; font-family: monospace"">+</span>","null","fixation","","","","",""
"","657","html-keyboard-response","242","248531","0.0-3.0-1.191","<span style=""font-size:30px; font-family: monospace"">Preciso</span>"," ","","exp-sent","Preciso","","",""
"","390","html-keyboard-response","243","249176","0.0-3.0-1.192","<span style=""font-size:30px; font-family: monospace"">de</span>"," ","","exp-sent","de","","",""
"","411","html-keyboard-response","244","249851","0.0-3.0-1.193","<span style=""font-size:30px; font-family: monospace"">um</span>"," ","","exp-sent","um","","",""
"","430","html-keyboard-response","245","250538","0.0-3.0-1.194","<span style=""font-size:30px; font-family: monospace"">relatório</span>"," ","","exp-sent","relatório","","",""
"","459","html-keyboard-response","246","251251","0.0-3.0-1.195","<span style=""font-size:30px; font-family: monospace"">oficial</span>"," ","","exp-sent","oficial","","",""
"","402","html-keyboard-response","247","251908","0.0-3.0-1.196","<span style=""font-size:30px; font-family: monospace"">para</span>"," ","","exp-sent","para","","",""
"","488","html-keyboard-response","248","252650","0.0-3.0-1.197","<span style=""font-size:30px; font-family: monospace"">amanhã.</span>"," ","","exp-sent","amanhã.","","",""
"","null","html-keyboard-response","249","253921","0.0-3.0-0.198-0.198","<span style= ""font-size:30px; font-family: monospace"">+</span>","null","fixation","","","","",""
"","43","html-keyboard-response","250","254219","0.0-3.0-1.198","<span style=""font-size:30px; font-family: monospace"">Ele</span>"," ","","exp-sent","Ele","","",""
"","678","html-keyboard-response","251","255158","0.0-3.0-1.199","<span style=""font-size:30px; font-family: monospace"">viu</span>"," ","","exp-sent","viu","","",""
"","318","html-keyboard-response","252","255735","0.0-3.0-1.200","<span style=""font-size:30px; font-family: monospace"">um</span>"," ","","exp-sent","um","","",""
"","528","html-keyboard-response","253","256524","0.0-3.0-1.201","<span style=""font-size:30px; font-family: monospace"">inseto</span>"," ","","exp-sent","inseto","","",""
"","576","html-keyboard-response","254","257357","0.0-3.0-1.202","<span style=""font-size:30px; font-family: monospace"">marrom</span>"," ","","exp-sent","marrom","","",""
"","604","html-keyboard-response","255","258211","0.0-3.0-1.203","<span style=""font-size:30px; font-family: monospace"">na</span>"," ","","exp-sent","na","","",""
"","429","html-keyboard-response","256","258894","0.0-3.0-1.204","<span style=""font-size:30px; font-family: monospace"">parede.</span>"," ","","exp-sent","parede.","","",""
"","null","html-keyboard-response","257","260159","0.0-3.0-0.205-0.205","<span style= ""font-size:30px; font-family: monospace"">+</span>","null","fixation","","","","",""
"","919","html-keyboard-response","258","261334","0.0-3.0-1.205","<span style=""font-size:30px; font-family: monospace"">O</span>"," ","","exp-sent","O","","",""
"","363","html-keyboard-response","259","261954","0.0-3.0-1.206","<span style=""font-size:30px; font-family: monospace"">avô</span>"," ","","exp-sent","avô","","",""
"","381","html-keyboard-response","260","262595","0.0-3.0-1.207","<span style=""font-size:30px; font-family: monospace"">fez</span>"," ","","exp-sent","fez","","",""
"","516","html-keyboard-response","261","263371","0.0-3.0-1.208","<span style=""font-size:30px; font-family: monospace"">uma</span>"," ","","exp-sent","uma","","",""
"","620","html-keyboard-response","262","264244","0.0-3.0-1.209","<span style=""font-size:30px; font-family: monospace"">lista</span>"," ","","exp-sent","lista","","",""
"","541","html-keyboard-response","263","265039","0.0-3.0-1.210","<span style=""font-size:30px; font-family: monospace"">de</span>"," ","","exp-sent","de","","",""
"","342","html-keyboard-response","264","265635","0.0-3.0-1.211","<span style=""font-size:30px; font-family: monospace"">compras</span>"," ","","exp-sent","compras","","",""
"","319","html-keyboard-response","265","266218","0.0-3.0-1.212","<span style=""font-size:30px; font-family: monospace"">do</span>"," ","","exp-sent","do","","",""
"","277","html-keyboard-response","266","266751","0.0-3.0-1.213","<span style=""font-size:30px; font-family: monospace"">mercado.</span>"," ","","exp-sent","mercado.","","",""
"","null","html-keyboard-response","267","268026","0.0-3.0-0.214-0.214","<span style= ""font-size:30px; font-family: monospace"">+</span>","null","fixation","","","","",""
"","404","html-keyboard-response","268","268686","0.0-3.0-1.214","<span style=""font-size:30px; font-family: monospace"">As</span>"," ","","exp-sent","As","","",""
"","336","html-keyboard-response","269","269274","0.0-3.0-1.215","<span style=""font-size:30px; font-family: monospace"">pessoas</span>"," ","","exp-sent","pessoas","","",""
"","312","html-keyboard-response","270","269840","0.0-3.0-1.216","<span style=""font-size:30px; font-family: monospace"">não</span>"," ","","exp-sent","não","","",""
"","300","html-keyboard-response","271","270401","0.0-3.0-1.217","<span style=""font-size:30px; font-family: monospace"">enviam</span>"," ","","exp-sent","enviam","","",""
"","458","html-keyboard-response","272","271119","0.0-3.0-1.218","<span style=""font-size:30px; font-family: monospace"">telegrama</span>"," ","","exp-sent","telegrama","","",""
"","355","html-keyboard-response","273","271730","0.0-3.0-1.219","<span style=""font-size:30px; font-family: monospace"">nos</span>"," ","","exp-sent","nos","","",""
"","308","html-keyboard-response","274","272291","0.0-3.0-1.220","<span style=""font-size:30px; font-family: monospace"">dias</span>"," ","","exp-sent","dias","","",""
"","339","html-keyboard-response","275","272897","0.0-3.0-1.221","<span style=""font-size:30px; font-family: monospace"">de</span>"," ","","exp-sent","de","","",""
"","272","html-keyboard-response","276","273435","0.0-3.0-1.222","<span style=""font-size:30px; font-family: monospace"">hoje.</span>"," ","","exp-sent","hoje.","","",""
"","null","html-keyboard-response","277","274694","0.0-3.0-0.223-0.223","<span style= ""font-size:30px; font-family: monospace"">+</span>","null","fixation","","","","",""
"","498","html-keyboard-response","278","275447","0.0-3.0-1.223","<span style=""font-size:30px; font-family: monospace"">Ele</span>"," ","","exp-sent","Ele","","",""
"","375","html-keyboard-response","279","276073","0.0-3.0-1.224","<span style=""font-size:30px; font-family: monospace"">não</span>"," ","","exp-sent","não","","",""
"","939","html-keyboard-response","280","277273","0.0-3.0-1.225","<span style=""font-size:30px; font-family: monospace"">gosta</span>"," ","","exp-sent","gosta","","",""
"","500","html-keyboard-response","281","278040","0.0-3.0-1.226","<span style=""font-size:30px; font-family: monospace"">de</span>"," ","","exp-sent","de","","",""
"","487","html-keyboard-response","282","278778","0.0-3.0-1.227","<span style=""font-size:30px; font-family: monospace"">tomate</span>"," ","","exp-sent","tomate","","",""
"","1702","html-keyboard-response","283","280743","0.0-3.0-1.228","<span style=""font-size:30px; font-family: monospace"">misturado</span>"," ","","exp-sent","misturado","","",""
"","372","html-keyboard-response","284","281379","0.0-3.0-1.229","<span style=""font-size:30px; font-family: monospace"">na</span>"," ","","exp-sent","na","","",""
"","793","html-keyboard-response","285","282426","0.0-3.0-1.230","<span style=""font-size:30px; font-family: monospace"">comida.</span>"," ","","comp","comida.","","",""
"","2838","html-keyboard-response","286","285524","0.0-3.0-2.230-0.230","<span style=""font-size:30px; font-family: monospace"">Ele gosta de tomate na comida?</span>","s","","comp","","Ele gosta de tomate na comida?","não","false"
"","null","html-keyboard-response","287","287042","0.0-3.0-0.231-0.231","<span style= ""font-size:30px; font-family: monospace"">+</span>","null","fixation","","","","",""
"","72","html-keyboard-response","288","287369","0.0-3.0-1.231","<span style=""font-size:30px; font-family: monospace"">Ganhamos</span>"," ","","exp-sent","Ganhamos","","",""
"","1878","html-keyboard-response","289","289514","0.0-3.0-1.232","<span style=""font-size:30px; font-family: monospace"">passagem</span>"," ","","exp-sent","passagem","","",""
"","361","html-keyboard-response","290","290128","0.0-3.0-1.233","<span style=""font-size:30px; font-family: monospace"">para</span>"," ","","exp-sent","para","","",""
"","373","html-keyboard-response","291","290759","0.0-3.0-1.234","<span style=""font-size:30px; font-family: monospace"">uma</span>"," ","","exp-sent","uma","","",""
"","701","html-keyboard-response","292","291712","0.0-3.0-1.235","<span style=""font-size:30px; font-family: monospace"">viagem</span>"," ","","exp-sent","viagem","","",""
"","963","html-keyboard-response","293","292930","0.0-3.0-1.236","<span style=""font-size:30px; font-family: monospace"">de</span>"," ","","exp-sent","de","","",""
"","396","html-keyboard-response","294","293591","0.0-3.0-1.237","<span style=""font-size:30px; font-family: monospace"">férias.</span>"," ","","exp-sent","férias.","","",""
"","null","html-keyboard-response","295","294844","0.0-3.0-0.238-0.238","<span style= ""font-size:30px; font-family: monospace"">+</span>","null","fixation","","","","",""
"","360","html-keyboard-response","296","295462","0.0-3.0-1.238","<span style=""font-size:30px; font-family: monospace"">Caiu</span>"," ","","exp-sent","Caiu","","",""
"","308","html-keyboard-response","297","296033","0.0-3.0-1.239","<span style=""font-size:30px; font-family: monospace"">algo</span>"," ","","exp-sent","algo","","",""
"","325","html-keyboard-response","298","296620","0.0-3.0-1.240","<span style=""font-size:30px; font-family: monospace"">no</span>"," ","","exp-sent","no","","",""
"","329","html-keyboard-response","299","297213","0.0-3.0-1.241","<span style=""font-size:30px; font-family: monospace"">meu</span>"," ","","exp-sent","meu","","",""
"","338","html-keyboard-response","300","297812","0.0-3.0-1.242","<span style=""font-size:30px; font-family: monospace"">olho</span>"," ","","exp-sent","olho","","",""
"","320","html-keyboard-response","301","298386","0.0-3.0-1.243","<span style=""font-size:30px; font-family: monospace"">ontem</span>"," ","","exp-sent","ontem","","",""
"","327","html-keyboard-response","302","298969","0.0-3.0-1.244","<span style=""font-size:30px; font-family: monospace"">de</span>"," ","","exp-sent","de","","",""
"","325","html-keyboard-response","303","299557","0.0-3.0-1.245","<span style=""font-size:30px; font-family: monospace"">tarde.</span>"," ","","exp-sent","tarde.","","",""
"","null","html-keyboard-response","304","300809","0.0-3.0-0.246-0.246","<span style= ""font-size:30px; font-family: monospace"">+</span>","null","fixation","","","","",""
"","1022","html-keyboard-response","305","302088","0.0-3.0-1.246","<span style=""font-size:30px; font-family: monospace"">Não</span>"," ","","exp-sent","Não","","",""
"","630","html-keyboard-response","306","302979","0.0-3.0-1.247","<span style=""font-size:30px; font-family: monospace"">havia</span>"," ","","exp-sent","havia","","",""
"","379","html-keyboard-response","307","303622","0.0-3.0-1.248","<span style=""font-size:30px; font-family: monospace"">mais</span>"," ","","exp-sent","mais","","",""
"","368","html-keyboard-response","308","304252","0.0-3.0-1.249","<span style=""font-size:30px; font-family: monospace"">nenhum</span>"," ","","exp-sent","nenhum","","",""
"","402","html-keyboard-response","309","304907","0.0-3.0-1.250","<span style=""font-size:30px; font-family: monospace"">ingresso</span>"," ","","exp-sent","ingresso","","",""
"","447","html-keyboard-response","310","305606","0.0-3.0-1.251","<span style=""font-size:30px; font-family: monospace"">para</span>"," ","","exp-sent","para","","",""
"","316","html-keyboard-response","311","306178","0.0-3.0-1.252","<span style=""font-size:30px; font-family: monospace"">o</span>"," ","","exp-sent","o","","",""
"","297","html-keyboard-response","312","306734","0.0-3.0-1.253","<span style=""font-size:30px; font-family: monospace"">evento.</span>"," ","","exp-sent","evento.","","",""
"","null","html-keyboard-response","313","308008","0.0-3.0-0.254-0.254","<span style= ""font-size:30px; font-family: monospace"">+</span>","null","fixation","","","","",""
"","370","html-keyboard-response","314","308633","0.0-3.0-1.254","<span style=""font-size:30px; font-family: monospace"">A</span>"," ","","exp-sent","A","","",""
"","565","html-keyboard-response","315","309453","0.0-3.0-1.255","<span style=""font-size:30px; font-family: monospace"">médica</span>"," ","","exp-sent","médica","","",""
"","326","html-keyboard-response","316","310032","0.0-3.0-1.256","<span style=""font-size:30px; font-family: monospace"">descobriu</span>"," ","","exp-sent","descobriu","","",""
"","298","html-keyboard-response","317","310592","0.0-3.0-1.257","<span style=""font-size:30px; font-family: monospace"">uma</span>"," ","","exp-sent","uma","","",""
"","462","html-keyboard-response","318","311316","0.0-3.0-1.258","<span style=""font-size:30px; font-family: monospace"">cura</span>"," ","","exp-sent","cura","","",""
"","254","html-keyboard-response","319","311827","0.0-3.0-1.259","<span style=""font-size:30px; font-family: monospace"">para</span>"," ","","exp-sent","para","","",""
"","299","html-keyboard-response","320","312386","0.0-3.0-1.260","<span style=""font-size:30px; font-family: monospace"">a</span>"," ","","exp-sent","a","","",""
"","328","html-keyboard-response","321","312973","0.0-3.0-1.261","<span style=""font-size:30px; font-family: monospace"">doença.</span>"," ","","exp-sent","doença.","","",""
"","null","html-keyboard-response","322","314233","0.0-3.0-0.262-0.262","<span style= ""font-size:30px; font-family: monospace"">+</span>","null","fixation","","","","",""
"","361","html-keyboard-response","323","314852","0.0-3.0-1.262","<span style=""font-size:30px; font-family: monospace"">O</span>"," ","","exp-sent","O","","",""
"","307","html-keyboard-response","324","315416","0.0-3.0-1.263","<span style=""font-size:30px; font-family: monospace"">menino</span>"," ","","exp-sent","menino","","",""
"","345","html-keyboard-response","325","316022","0.0-3.0-1.264","<span style=""font-size:30px; font-family: monospace"">riscou</span>"," ","","exp-sent","riscou","","",""
"","529","html-keyboard-response","326","316808","0.0-3.0-1.265","<span style=""font-size:30px; font-family: monospace"">o</span>"," ","","exp-sent","o","","",""
"","304","html-keyboard-response","327","317369","0.0-3.0-1.266","<span style=""font-size:30px; font-family: monospace"">caderno</span>"," ","","exp-sent","caderno","","",""
"","309","html-keyboard-response","328","317930","0.0-3.0-1.267","<span style=""font-size:30px; font-family: monospace"">com</span>"," ","","exp-sent","com","","",""
"","274","html-keyboard-response","329","318468","0.0-3.0-1.268","<span style=""font-size:30px; font-family: monospace"">a</span>"," ","","exp-sent","a","","",""
"","521","html-keyboard-response","330","319240","0.0-3.0-1.269","<span style=""font-size:30px; font-family: monospace"">caneta.</span>"," ","","comp","caneta.","","",""
"","1981","html-keyboard-response","331","321489","0.0-3.0-2.269-0.269","<span style=""font-size:30px; font-family: monospace"">O menino riscou a parede com a caneta?</span>","n","","comp","","O menino riscou a parede com a caneta?","não","false"
"","null","html-keyboard-response","332","322999","0.0-3.0-0.270-0.270","<span style= ""font-size:30px; font-family: monospace"">+</span>","null","fixation","","","","",""
"","360","html-keyboard-response","333","323617","0.0-3.0-1.270","<span style=""font-size:30px; font-family: monospace"">As</span>"," ","","exp-sent","As","","",""
"","296","html-keyboard-response","334","324175","0.0-3.0-1.271","<span style=""font-size:30px; font-family: monospace"">crianças</span>"," ","","exp-sent","crianças","","",""
"","294","html-keyboard-response","335","324731","0.0-3.0-1.272","<span style=""font-size:30px; font-family: monospace"">viram</span>"," ","","exp-sent","viram","","",""
"","409","html-keyboard-response","336","325395","0.0-3.0-1.273","<span style=""font-size:30px; font-family: monospace"">um</span>"," ","","exp-sent","um","","",""
"","615","html-keyboard-response","337","326274","0.0-3.0-1.274","<span style=""font-size:30px; font-family: monospace"">vaga-lume</span>"," ","","exp-sent","vaga-lume","","",""
"","374","html-keyboard-response","338","326911","0.0-3.0-1.275","<span style=""font-size:30px; font-family: monospace"">nos</span>"," ","","exp-sent","nos","","",""
"","350","html-keyboard-response","339","327525","0.0-3.0-1.276","<span style=""font-size:30px; font-family: monospace"">arbustos.</span>"," ","","exp-sent","arbustos.","","",""
"","null","html-keyboard-response","340","328788","0.0-3.0-0.277-0.277","<span style= ""font-size:30px; font-family: monospace"">+</span>","null","fixation","","","","",""
"","535","html-keyboard-response","341","329583","0.0-3.0-1.277","<span style=""font-size:30px; font-family: monospace"">Ontem</span>"," ","","exp-sent","Ontem","","",""
"","635","html-keyboard-response","342","330479","0.0-3.0-1.278","<span style=""font-size:30px; font-family: monospace"">o</span>"," ","","exp-sent","o","","",""
"","290","html-keyboard-response","343","331022","0.0-3.0-1.279","<span style=""font-size:30px; font-family: monospace"">funcionário</span>"," ","","exp-sent","funcionário","","",""
"","383","html-keyboard-response","344","331659","0.0-3.0-1.280","<span style=""font-size:30px; font-family: monospace"">pediu</span>"," ","","exp-sent","pediu","","",""
"","479","html-keyboard-response","345","332392","0.0-3.0-1.281","<span style=""font-size:30px; font-family: monospace"">autorização</span>"," ","","exp-sent","autorização","","",""
"","525","html-keyboard-response","346","333172","0.0-3.0-1.282","<span style=""font-size:30px; font-family: monospace"">para</span>"," ","","exp-sent","para","","",""
"","381","html-keyboard-response","347","333804","0.0-3.0-1.283","<span style=""font-size:30px; font-family: monospace"">a</span>"," ","","exp-sent","a","","",""
"","458","html-keyboard-response","348","334521","0.0-3.0-1.284","<span style=""font-size:30px; font-family: monospace"">colega.</span>"," ","","exp-sent","colega.","","",""
"","null","html-keyboard-response","349","335795","0.0-3.0-0.285-0.285","<span style= ""font-size:30px; font-family: monospace"">+</span>","null","fixation","","","","",""
"","373","html-keyboard-response","350","336429","0.0-3.0-1.285","<span style=""font-size:30px; font-family: monospace"">Eu</span>"," ","","exp-sent","Eu","","",""
"","363","html-keyboard-response","351","337058","0.0-3.0-1.286","<span style=""font-size:30px; font-family: monospace"">sempre</span>"," ","","exp-sent","sempre","","",""
"","613","html-keyboard-response","352","337930","0.0-3.0-1.287","<span style=""font-size:30px; font-family: monospace"">fujo</span>"," ","","exp-sent","fujo","","",""
"","277","html-keyboard-response","353","338468","0.0-3.0-1.288","<span style=""font-size:30px; font-family: monospace"">de</span>"," ","","exp-sent","de","","",""
"","279","html-keyboard-response","354","339004","0.0-3.0-1.289","<span style=""font-size:30px; font-family: monospace"">conflito</span>"," ","","exp-sent","conflito","","",""
"","370","html-keyboard-response","355","339639","0.0-3.0-1.290","<span style=""font-size:30px; font-family: monospace"">com</span>"," ","","exp-sent","com","","",""
"","499","html-keyboard-response","356","340391","0.0-3.0-1.291","<span style=""font-size:30px; font-family: monospace"">as</span>"," ","","exp-sent","as","","",""
"","295","html-keyboard-response","357","340950","0.0-3.0-1.292","<span style=""font-size:30px; font-family: monospace"">pessoas.</span>"," ","","exp-sent","pessoas.","","",""
"","null","html-keyboard-response","358","342223","0.0-3.0-0.293-0.293","<span style= ""font-size:30px; font-family: monospace"">+</span>","null","fixation","","","","",""
"","485","html-keyboard-response","359","342967","0.0-3.0-1.293","<span style=""font-size:30px; font-family: monospace"">O</span>"," ","","exp-sent","O","","",""
"","391","html-keyboard-response","360","343620","0.0-3.0-1.294","<span style=""font-size:30px; font-family: monospace"">bolo</span>"," ","","exp-sent","bolo","","",""
"","348","html-keyboard-response","361","344235","0.0-3.0-1.295","<span style=""font-size:30px; font-family: monospace"">era</span>"," ","","exp-sent","era","","",""
"","316","html-keyboard-response","362","344806","0.0-3.0-1.296","<span style=""font-size:30px; font-family: monospace"">de</span>"," ","","exp-sent","de","","",""
"","570","html-keyboard-response","363","345643","0.0-3.0-1.297","<span style=""font-size:30px; font-family: monospace"">abacaxi</span>"," ","","exp-sent","abacaxi","","",""
"","336","html-keyboard-response","364","346237","0.0-3.0-1.298","<span style=""font-size:30px; font-family: monospace"">e</span>"," ","","exp-sent","e","","",""
"","315","html-keyboard-response","365","346804","0.0-3.0-1.299","<span style=""font-size:30px; font-family: monospace"">creme</span>"," ","","exp-sent","creme","","",""
"","314","html-keyboard-response","366","347378","0.0-3.0-1.300","<span style=""font-size:30px; font-family: monospace"">de</span>"," ","","exp-sent","de","","",""
"","323","html-keyboard-response","367","347961","0.0-3.0-1.301","<span style=""font-size:30px; font-family: monospace"">coco.</span>"," ","","exp-sent","coco.","","",""
"","null","html-keyboard-response","368","349230","0.0-3.0-0.302-0.302","<span style= ""font-size:30px; font-family: monospace"">+</span>","null","fixation","","","","",""
"","436","html-keyboard-response","369","349923","0.0-3.0-1.302","<span style=""font-size:30px; font-family: monospace"">As</span>"," ","","exp-sent","As","","",""
"","288","html-keyboard-response","370","350476","0.0-3.0-1.303","<span style=""font-size:30px; font-family: monospace"">crianças</span>"," ","","exp-sent","crianças","","",""
"","298","html-keyboard-response","371","351032","0.0-3.0-1.304","<span style=""font-size:30px; font-family: monospace"">brincaram</span>"," ","","exp-sent","brincaram","","",""
"","300","html-keyboard-response","372","351589","0.0-3.0-1.305","<span style=""font-size:30px; font-family: monospace"">com</span>"," ","","exp-sent","com","","",""
"","245","html-keyboard-response","373","352089","0.0-3.0-1.306","<span style=""font-size:30px; font-family: monospace"">bolhas</span>"," ","","exp-sent","bolhas","","",""
"","328","html-keyboard-response","374","352679","0.0-3.0-1.307","<span style=""font-size:30px; font-family: monospace"">no</span>"," ","","exp-sent","no","","",""
"","315","html-keyboard-response","375","353249","0.0-3.0-1.308","<span style=""font-size:30px; font-family: monospace"">banho.</span>"," ","","comp","banho.","","",""
"","2150","html-keyboard-response","376","355657","0.0-3.0-2.308-0.308","<span style=""font-size:30px; font-family: monospace"">As crianças brincaram com bolhas?</span>","s","","comp","","As crianças brincaram com bolhas?","sim","false"
"","null","html-keyboard-response","377","357176","0.0-3.0-0.309-0.309","<span style= ""font-size:30px; font-family: monospace"">+</span>","null","fixation","","","","",""
"","317","html-keyboard-response","378","357752","0.0-3.0-1.309","<span style=""font-size:30px; font-family: monospace"">A</span>"," ","","exp-sent","A","","",""
"","327","html-keyboard-response","379","358331","0.0-3.0-1.310","<span style=""font-size:30px; font-family: monospace"">força</span>"," ","","exp-sent","força","","",""
"","267","html-keyboard-response","380","358855","0.0-3.0-1.311","<span style=""font-size:30px; font-family: monospace"">d'água</span>"," ","","exp-sent","d'água","","",""
"","521","html-keyboard-response","381","359629","0.0-3.0-1.312","<span style=""font-size:30px; font-family: monospace"">estava</span>"," ","","exp-sent","estava","","",""
"","290","html-keyboard-response","382","360184","0.0-3.0-1.313","<span style=""font-size:30px; font-family: monospace"">normal</span>"," ","","exp-sent","normal","","",""
"","309","html-keyboard-response","383","360747","0.0-3.0-1.314","<span style=""font-size:30px; font-family: monospace"">naquele</span>"," ","","exp-sent","naquele","","",""
"","295","html-keyboard-response","384","361295","0.0-3.0-1.315","<span style=""font-size:30px; font-family: monospace"">dia.</span>"," ","","exp-sent","dia.","","",""
"","null","html-keyboard-response","385","362567","0.0-3.0-0.316-0.316","<span style= ""font-size:30px; font-family: monospace"">+</span>","null","fixation","","","","",""
"","388","html-keyboard-response","386","363209","0.0-3.0-1.316","<span style=""font-size:30px; font-family: monospace"">A</span>"," ","","exp-sent","A","","",""
"","328","html-keyboard-response","387","363788","0.0-3.0-1.317","<span style=""font-size:30px; font-family: monospace"">médica</span>"," ","","exp-sent","médica","","",""
"","348","html-keyboard-response","388","364394","0.0-3.0-1.318","<span style=""font-size:30px; font-family: monospace"">ofereceu</span>"," ","","exp-sent","ofereceu","","",""
"","307","html-keyboard-response","389","364961","0.0-3.0-1.319","<span style=""font-size:30px; font-family: monospace"">a</span>"," ","","exp-sent","a","","",""
"","281","html-keyboard-response","390","365497","0.0-3.0-1.320","<span style=""font-size:30px; font-family: monospace"">pomada</span>"," ","","exp-sent","pomada","","",""
"","311","html-keyboard-response","391","366068","0.0-3.0-1.321","<span style=""font-size:30px; font-family: monospace"">para</span>"," ","","exp-sent","para","","",""
"","310","html-keyboard-response","392","366640","0.0-3.0-1.322","<span style=""font-size:30px; font-family: monospace"">o</span>"," ","","exp-sent","o","","",""
"","309","html-keyboard-response","393","367213","0.0-3.0-1.323","<span style=""font-size:30px; font-family: monospace"">avô.</span>"," ","","exp-sent","avô.","","",""
"","null","html-keyboard-response","394","368480","0.0-3.0-0.324-0.324","<span style= ""font-size:30px; font-family: monospace"">+</span>","null","fixation","","","","",""
"","446","html-keyboard-response","395","369181","0.0-3.0-1.324","<span style=""font-size:30px; font-family: monospace"">Ele</span>"," ","","exp-sent","Ele","","",""
"","303","html-keyboard-response","396","369744","0.0-3.0-1.325","<span style=""font-size:30px; font-family: monospace"">conversou</span>"," ","","exp-sent","conversou","","",""
"","320","html-keyboard-response","397","370323","0.0-3.0-1.326","<span style=""font-size:30px; font-family: monospace"">com</span>"," ","","exp-sent","com","","",""
"","272","html-keyboard-response","398","370850","0.0-3.0-1.327","<span style=""font-size:30px; font-family: monospace"">o</span>"," ","","exp-sent","o","","",""
"","267","html-keyboard-response","399","371381","0.0-3.0-1.328","<span style=""font-size:30px; font-family: monospace"">patrão</span>"," ","","exp-sent","patrão","","",""
"","319","html-keyboard-response","400","371957","0.0-3.0-1.329","<span style=""font-size:30px; font-family: monospace"">durante</span>"," ","","exp-sent","durante","","",""
"","327","html-keyboard-response","401","372540","0.0-3.0-1.330","<span style=""font-size:30px; font-family: monospace"">a</span>"," ","","exp-sent","a","","",""
"","369","html-keyboard-response","402","373161","0.0-3.0-1.331","<span style=""font-size:30px; font-family: monospace"">tarde.</span>"," ","","exp-sent","tarde.","","",""
"","null","html-keyboard-response","403","374431","0.0-3.0-0.332-0.332","<span style= ""font-size:30px; font-family: monospace"">+</span>","null","fixation","","","","",""
"","431","html-keyboard-response","404","375114","0.0-3.0-1.332","<span style=""font-size:30px; font-family: monospace"">Algumas</span>"," ","","exp-sent","Algumas","","",""
"","328","html-keyboard-response","405","375695","0.0-3.0-1.333","<span style=""font-size:30px; font-family: monospace"">pessoas</span>"," ","","exp-sent","pessoas","","",""
"","316","html-keyboard-response","406","376276","0.0-3.0-1.334","<span style=""font-size:30px; font-family: monospace"">acreditam</span>"," ","","exp-sent","acreditam","","",""
"","493","html-keyboard-response","407","377024","0.0-3.0-1.335","<span style=""font-size:30px; font-family: monospace"">em</span>"," ","","exp-sent","em","","",""
"","233","html-keyboard-response","408","377513","0.0-3.0-1.336","<span style=""font-size:30px; font-family: monospace"">espíritos</span>"," ","","exp-sent","espíritos","","",""
"","286","html-keyboard-response","409","378062","0.0-3.0-1.337","<span style=""font-size:30px; font-family: monospace"">e</span>"," ","","exp-sent","e","","",""
"","326","html-keyboard-response","410","378647","0.0-3.0-1.338","<span style=""font-size:30px; font-family: monospace"">em</span>"," ","","exp-sent","em","","",""
"","324","html-keyboard-response","411","379234","0.0-3.0-1.339","<span style=""font-size:30px; font-family: monospace"">outras</span>"," ","","exp-sent","outras","","",""
"","333","html-keyboard-response","412","379826","0.0-3.0-1.340","<span style=""font-size:30px; font-family: monospace"">vidas.</span>"," ","","exp-sent","vidas.","","",""
"","null","html-keyboard-response","413","381089","0.0-3.0-0.341-0.341","<span style= ""font-size:30px; font-family: monospace"">+</span>","null","fixation","","","","",""
"","347","html-keyboard-response","414","381695","0.0-3.0-1.341","<span style=""font-size:30px; font-family: monospace"">Ela</span>"," ","","exp-sent","Ela","","",""
"","314","html-keyboard-response","415","382269","0.0-3.0-1.342","<span style=""font-size:30px; font-family: monospace"">gosta</span>"," ","","exp-sent","gosta","","",""
"","296","html-keyboard-response","416","382825","0.0-3.0-1.343","<span style=""font-size:30px; font-family: monospace"">de</span>"," ","","exp-sent","de","","",""
"","304","html-keyboard-response","417","383382","0.0-3.0-1.344","<span style=""font-size:30px; font-family: monospace"">estudar</span>"," ","","exp-sent","estudar","","",""
"","428","html-keyboard-response","418","384075","0.0-3.0-1.345","<span style=""font-size:30px; font-family: monospace"">matemática</span>"," ","","exp-sent","matemática","","",""
"","280","html-keyboard-response","419","384610","0.0-3.0-1.346","<span style=""font-size:30px; font-family: monospace"">com</span>"," ","","exp-sent","com","","",""
"","320","html-keyboard-response","420","385194","0.0-3.0-1.347","<span style=""font-size:30px; font-family: monospace"">colegas.</span>"," ","","comp","colegas.","","",""
"","1457","html-keyboard-response","421","386902","0.0-3.0-2.347-0.347","<span style=""font-size:30px; font-family: monospace"">Ela gosta de estudar física?</span>","n","","comp","","Ela gosta de estudar física?","não","false"
"","null","html-keyboard-response","422","388406","0.0-3.0-0.348-0.348","<span style= ""font-size:30px; font-family: monospace"">+</span>","null","fixation","","","","",""
"","345","html-keyboard-response","423","389007","0.0-3.0-1.348","<span style=""font-size:30px; font-family: monospace"">Ele</span>"," ","","exp-sent","Ele","","",""
"","551","html-keyboard-response","424","389824","0.0-3.0-1.349","<span style=""font-size:30px; font-family: monospace"">é</span>"," ","","exp-sent","é","","",""
"","299","html-keyboard-response","425","390384","0.0-3.0-1.350","<span style=""font-size:30px; font-family: monospace"">um</span>"," ","","exp-sent","um","","",""
"","245","html-keyboard-response","426","390889","0.0-3.0-1.351","<span style=""font-size:30px; font-family: monospace"">pai</span>"," ","","exp-sent","pai","","",""
"","330","html-keyboard-response","427","391482","0.0-3.0-1.352","<span style=""font-size:30px; font-family: monospace"">ausente</span>"," ","","exp-sent","ausente","","",""
"","354","html-keyboard-response","428","392097","0.0-3.0-1.353","<span style=""font-size:30px; font-family: monospace"">e</span>"," ","","exp-sent","e","","",""
"","211","html-keyboard-response","429","392561","0.0-3.0-1.354","<span style=""font-size:30px; font-family: monospace"">muito</span>"," ","","exp-sent","muito","","",""
"","382","html-keyboard-response","430","393206","0.0-3.0-1.355","<span style=""font-size:30px; font-family: monospace"">fofoqueiro.</span>"," ","","exp-sent","fofoqueiro.","","",""
"","null","html-keyboard-response","431","394475","0.0-3.0-0.356-0.356","<span style= ""font-size:30px; font-family: monospace"">+</span>","null","fixation","","","","",""
"","546","html-keyboard-response","432","395273","0.0-3.0-1.356","<span style=""font-size:30px; font-family: monospace"">O</span>"," ","","exp-sent","O","","",""
"","328","html-keyboard-response","433","395854","0.0-3.0-1.357","<span style=""font-size:30px; font-family: monospace"">filho</span>"," ","","exp-sent","filho","","",""
"","432","html-keyboard-response","434","396548","0.0-3.0-1.358","<span style=""font-size:30px; font-family: monospace"">lavou</span>"," ","","exp-sent","lavou","","",""
"","700","html-keyboard-response","435","397504","0.0-3.0-1.359","<span style=""font-size:30px; font-family: monospace"">a</span>"," ","","exp-sent","a","","",""
"","418","html-keyboard-response","436","398182","0.0-3.0-1.360","<span style=""font-size:30px; font-family: monospace"">roupa</span>"," ","","exp-sent","roupa","","",""
"","417","html-keyboard-response","437","398863","0.0-3.0-1.361","<span style=""font-size:30px; font-family: monospace"">sem</span>"," ","","exp-sent","sem","","",""
"","485","html-keyboard-response","438","399603","0.0-3.0-1.362","<span style=""font-size:30px; font-family: monospace"">nenhuma</span>"," ","","exp-sent","nenhuma","","",""
"","325","html-keyboard-response","439","400192","0.0-3.0-1.363","<span style=""font-size:30px; font-family: monospace"">ajuda.</span>"," ","","exp-sent","ajuda.","","",""
"","null","html-keyboard-response","440","401460","0.0-3.0-0.364-0.364","<span style= ""font-size:30px; font-family: monospace"">+</span>","null","fixation","","","","",""
"","332","html-keyboard-response","441","402048","0.0-3.0-1.364","<span style=""font-size:30px; font-family: monospace"">O</span>"," ","","exp-sent","O","","",""
"","466","html-keyboard-response","442","402766","0.0-3.0-1.365","<span style=""font-size:30px; font-family: monospace"">menino</span>"," ","","exp-sent","menino","","",""
"","529","html-keyboard-response","443","403556","0.0-3.0-1.366","<span style=""font-size:30px; font-family: monospace"">quebrou</span>"," ","","exp-sent","quebrou","","",""
"","314","html-keyboard-response","444","404125","0.0-3.0-1.367","<span style=""font-size:30px; font-family: monospace"">a</span>"," ","","exp-sent","a","","",""
"","525","html-keyboard-response","445","404907","0.0-3.0-1.368","<span style=""font-size:30px; font-family: monospace"">perna</span>"," ","","exp-sent","perna","","",""
"","331","html-keyboard-response","446","405492","0.0-3.0-1.369","<span style=""font-size:30px; font-family: monospace"">nos</span>"," ","","exp-sent","nos","","",""
"","343","html-keyboard-response","447","406097","0.0-3.0-1.370","<span style=""font-size:30px; font-family: monospace"">esportes.</span>"," ","","exp-sent","esportes.","","",""
"","null","html-keyboard-response","448","407359","0.0-3.0-0.371-0.371","<span style= ""font-size:30px; font-family: monospace"">+</span>","null","fixation","","","","",""
"","83","html-keyboard-response","449","407701","0.0-3.0-1.371","<span style=""font-size:30px; font-family: monospace"">Ela</span>"," ","","exp-sent","Ela","","",""
"","429","html-keyboard-response","450","408383","0.0-3.0-1.372","<span style=""font-size:30px; font-family: monospace"">brincou</span>"," ","","exp-sent","brincou","","",""
"","610","html-keyboard-response","451","409246","0.0-3.0-1.373","<span style=""font-size:30px; font-family: monospace"">com</span>"," ","","exp-sent","com","","",""
"","312","html-keyboard-response","452","409813","0.0-3.0-1.374","<span style=""font-size:30px; font-family: monospace"">uma</span>"," ","","exp-sent","uma","","",""
"","353","html-keyboard-response","453","410426","0.0-3.0-1.375","<span style=""font-size:30px; font-family: monospace"">menina</span>"," ","","exp-sent","menina","","",""
"","312","html-keyboard-response","454","411004","0.0-3.0-1.376","<span style=""font-size:30px; font-family: monospace"">da</span>"," ","","exp-sent","da","","",""
"","318","html-keyboard-response","455","411587","0.0-3.0-1.377","<span style=""font-size:30px; font-family: monospace"">turma.</span>"," ","","exp-sent","turma.","","",""
"","null","html-keyboard-response","456","412849","0.0-3.0-0.378-0.378","<span style= ""font-size:30px; font-family: monospace"">+</span>","null","fixation","","","","",""
"","596","html-keyboard-response","457","413699","0.0-3.0-1.378","<span style=""font-size:30px; font-family: monospace"">Ele</span>"," ","","exp-sent","Ele","","",""
"","312","html-keyboard-response","458","414272","0.0-3.0-1.379","<span style=""font-size:30px; font-family: monospace"">esteve</span>"," ","","exp-sent","esteve","","",""
"","387","html-keyboard-response","459","414921","0.0-3.0-1.380","<span style=""font-size:30px; font-family: monospace"">no</span>"," ","","exp-sent","no","","",""
"","697","html-keyboard-response","460","415873","0.0-3.0-1.381","<span style=""font-size:30px; font-family: monospace"">escritório</span>"," ","","exp-sent","escritório","","",""
"","328","html-keyboard-response","461","416457","0.0-3.0-1.382","<span style=""font-size:30px; font-family: monospace"">o</span>"," ","","exp-sent","o","","",""
"","471","html-keyboard-response","462","417184","0.0-3.0-1.383","<span style=""font-size:30px; font-family: monospace"">dia</span>"," ","","exp-sent","dia","","",""
"","291","html-keyboard-response","463","417731","0.0-3.0-1.384","<span style=""font-size:30px; font-family: monospace"">inteiro.</span>"," ","","comp","inteiro.","","",""
"","1414","html-keyboard-response","464","419408","0.0-3.0-2.384-0.384","<span style=""font-size:30px; font-family: monospace"">Ele esteve no parque o dia inteiro?</span>","n","","comp","","Ele esteve no parque o dia inteiro?","não","false"
"","null","html-keyboard-response","465","420923","0.0-3.0-0.385-0.385","<span style= ""font-size:30px; font-family: monospace"">+</span>","null","fixation","","","","",""
"","108","html-keyboard-response","466","421284","0.0-3.0-1.385","<span style=""font-size:30px; font-family: monospace"">Este</span>"," ","","exp-sent","Este","","",""
"","428","html-keyboard-response","467","421971","0.0-3.0-1.386","<span style=""font-size:30px; font-family: monospace"">conto</span>"," ","","exp-sent","conto","","",""
"","734","html-keyboard-response","468","422967","0.0-3.0-1.387","<span style=""font-size:30px; font-family: monospace"">tem</span>"," ","","exp-sent","tem","","",""
"","364","html-keyboard-response","469","423588","0.0-3.0-1.388","<span style=""font-size:30px; font-family: monospace"">um</span>"," ","","exp-sent","um","","",""
"","359","html-keyboard-response","470","424207","0.0-3.0-1.389","<span style=""font-size:30px; font-family: monospace"">final</span>"," ","","exp-sent","final","","",""
"","330","html-keyboard-response","471","424798","0.0-3.0-1.390","<span style=""font-size:30px; font-family: monospace"">perfeito.</span>"," ","","exp-sent","perfeito.","","",""
"","null","html-keyboard-response","472","426061","0.0-3.0-0.391-0.391","<span style= ""font-size:30px; font-family: monospace"">+</span>","null","fixation","","","","",""
"","377","html-keyboard-response","473","426692","0.0-3.0-1.391","<span style=""font-size:30px; font-family: monospace"">Ele</span>"," ","","exp-sent","Ele","","",""
"","472","html-keyboard-response","474","427423","0.0-3.0-1.392","<span style=""font-size:30px; font-family: monospace"">precisa</span>"," ","","exp-sent","precisa","","",""
"","616","html-keyboard-response","475","428305","0.0-3.0-1.393","<span style=""font-size:30px; font-family: monospace"">de</span>"," ","","exp-sent","de","","",""
"","307","html-keyboard-response","476","428872","0.0-3.0-1.394","<span style=""font-size:30px; font-family: monospace"">um</span>"," ","","exp-sent","um","","",""
"","403","html-keyboard-response","477","429541","0.0-3.0-1.395","<span style=""font-size:30px; font-family: monospace"">protetor</span>"," ","","exp-sent","protetor","","",""
"","365","html-keyboard-response","478","430158","0.0-3.0-1.396","<span style=""font-size:30px; font-family: monospace"">de</span>"," ","","exp-sent","de","","",""
"","386","html-keyboard-response","479","430803","0.0-3.0-1.397","<span style=""font-size:30px; font-family: monospace"">ouvido.</span>"," ","","exp-sent","ouvido.","","",""
"","null","html-keyboard-response","480","432072","0.0-3.0-0.398-0.398","<span style= ""font-size:30px; font-family: monospace"">+</span>","null","fixation","","","","",""
"","60","html-keyboard-response","481","432388","0.0-3.0-1.398","<span style=""font-size:30px; font-family: monospace"">Os</span>"," ","","exp-sent","Os","","",""
"","508","html-keyboard-response","482","433161","0.0-3.0-1.399","<span style=""font-size:30px; font-family: monospace"">hábitos</span>"," ","","exp-sent","hábitos","","",""
"","408","html-keyboard-response","483","433827","0.0-3.0-1.400","<span style=""font-size:30px; font-family: monospace"">de</span>"," ","","exp-sent","de","","",""
"","440","html-keyboard-response","484","434528","0.0-3.0-1.401","<span style=""font-size:30px; font-family: monospace"">lugares</span>"," ","","exp-sent","lugares","","",""
"","361","html-keyboard-response","485","435150","0.0-3.0-1.402","<span style=""font-size:30px; font-family: monospace"">diferentes</span>"," ","","exp-sent","diferentes","","",""
"","338","html-keyboard-response","486","435753","0.0-3.0-1.403","<span style=""font-size:30px; font-family: monospace"">são</span>"," ","","exp-sent","são","","",""
"","347","html-keyboard-response","487","436351","0.0-3.0-1.404","<span style=""font-size:30px; font-family: monospace"">muito</span>"," ","","exp-sent","muito","","",""
"","311","html-keyboard-response","488","436927","0.0-3.0-1.405","<span style=""font-size:30px; font-family: monospace"">lindos.</span>"," ","","exp-sent","lindos.","","",""
"","null","html-keyboard-response","489","438205","0.0-3.0-0.406-0.406","<span style= ""font-size:30px; font-family: monospace"">+</span>","null","fixation","","","","",""
"","273","html-keyboard-response","490","438736","0.0-3.0-1.406","<span style=""font-size:30px; font-family: monospace"">O</span>"," ","","exp-sent","O","","",""
"","463","html-keyboard-response","491","439462","0.0-3.0-1.407","<span style=""font-size:30px; font-family: monospace"">médico</span>"," ","","exp-sent","médico","","",""
"","582","html-keyboard-response","492","440305","0.0-3.0-1.408","<span style=""font-size:30px; font-family: monospace"">corrigiu</span>"," ","","exp-sent","corrigiu","","",""
"","843","html-keyboard-response","493","441416","0.0-3.0-1.409","<span style=""font-size:30px; font-family: monospace"">a</span>"," ","","exp-sent","a","","",""
"","356","html-keyboard-response","494","442025","0.0-3.0-1.410","<span style=""font-size:30px; font-family: monospace"">postura</span>"," ","","exp-sent","postura","","",""
"","327","html-keyboard-response","495","442610","0.0-3.0-1.411","<span style=""font-size:30px; font-family: monospace"">das</span>"," ","","exp-sent","das","","",""
"","444","html-keyboard-response","496","443308","0.0-3.0-1.412","<span style=""font-size:30px; font-family: monospace"">costas</span>"," ","","exp-sent","costas","","",""
"","622","html-keyboard-response","497","444183","0.0-3.0-1.413","<span style=""font-size:30px; font-family: monospace"">da</span>"," ","","exp-sent","da","","",""
"","293","html-keyboard-response","498","444732","0.0-3.0-1.414","<span style=""font-size:30px; font-family: monospace"">pessoa.</span>"," ","","exp-sent","pessoa.","","",""
"","null","html-keyboard-response","499","445991","0.0-3.0-0.415-0.415","<span style= ""font-size:30px; font-family: monospace"">+</span>","null","fixation","","","","",""
"","223","html-keyboard-response","500","446470","0.0-3.0-1.415","<span style=""font-size:30px; font-family: monospace"">Aquele</span>"," ","","exp-sent","Aquele","","",""
"","337","html-keyboard-response","501","447064","0.0-3.0-1.416","<span style=""font-size:30px; font-family: monospace"">era</span>"," ","","exp-sent","era","","",""
"","290","html-keyboard-response","502","447605","0.0-3.0-1.417","<span style=""font-size:30px; font-family: monospace"">um</span>"," ","","exp-sent","um","","",""
"","348","html-keyboard-response","503","448210","0.0-3.0-1.418","<span style=""font-size:30px; font-family: monospace"">caso</span>"," ","","exp-sent","caso","","",""
"","226","html-keyboard-response","504","448691","0.0-3.0-1.419","<span style=""font-size:30px; font-family: monospace"">real</span>"," ","","exp-sent","real","","",""
"","333","html-keyboard-response","505","449278","0.0-3.0-1.420","<span style=""font-size:30px; font-family: monospace"">de</span>"," ","","exp-sent","de","","",""
"","300","html-keyboard-response","506","449831","0.0-3.0-1.421","<span style=""font-size:30px; font-family: monospace"">sequestro</span>"," ","","exp-sent","sequestro","","",""
"","318","html-keyboard-response","507","450409","0.0-3.0-1.422","<span style=""font-size:30px; font-family: monospace"">premeditado.</span>"," ","","comp","premeditado.","","",""
"","1799","html-keyboard-response","508","452469","0.0-3.0-2.422-0.422","<span style=""font-size:30px; font-family: monospace"">Aquele era um caso real de roubo?</span>","n","","comp","","Aquele era um caso real de roubo?","não","false"
"","null","html-keyboard-response","509","453983","0.0-3.0-0.423-0.423","<span style= ""font-size:30px; font-family: monospace"">+</span>","null","fixation","","","","",""
"","568","html-keyboard-response","510","454808","0.0-3.0-1.423","<span style=""font-size:30px; font-family: monospace"">O</span>"," ","","exp-sent","O","","",""
"","591","html-keyboard-response","511","455661","0.0-3.0-1.424","<span style=""font-size:30px; font-family: monospace"">moço</span>"," ","","exp-sent","moço","","",""
"","919","html-keyboard-response","512","456838","0.0-3.0-1.425","<span style=""font-size:30px; font-family: monospace"">usou</span>"," ","","exp-sent","usou","","",""
"","944","html-keyboard-response","513","458040","0.0-3.0-1.426","<span style=""font-size:30px; font-family: monospace"">várias</span>"," ","","exp-sent","várias","","",""
"","788","html-keyboard-response","514","459090","0.0-3.0-1.427","<span style=""font-size:30px; font-family: monospace"">velas</span>"," ","","exp-sent","velas","","",""
"","863","html-keyboard-response","515","460211","0.0-3.0-1.428","<span style=""font-size:30px; font-family: monospace"">no</span>"," ","","exp-sent","no","","",""
"","717","html-keyboard-response","516","461189","0.0-3.0-1.429","<span style=""font-size:30px; font-family: monospace"">enfeite</span>"," ","","exp-sent","enfeite","","",""
"","556","html-keyboard-response","517","462006","0.0-3.0-1.430","<span style=""font-size:30px; font-family: monospace"">de</span>"," ","","exp-sent","de","","",""
"","992","html-keyboard-response","518","463256","0.0-3.0-1.431","<span style=""font-size:30px; font-family: monospace"">mesa.</span>"," ","","exp-sent","mesa.","","",""
"","null","html-keyboard-response","519","464522","0.0-3.0-0.432-0.432","<span style= ""font-size:30px; font-family: monospace"">+</span>","null","fixation","","","","",""
"","669","html-keyboard-response","520","465451","0.0-3.0-1.432","<span style=""font-size:30px; font-family: monospace"">Gostamos</span>"," ","","exp-sent","Gostamos","","",""
"","356","html-keyboard-response","521","466059","0.0-3.0-1.433","<span style=""font-size:30px; font-family: monospace"">de</span>"," ","","exp-sent","de","","",""
"","719","html-keyboard-response","522","467031","0.0-3.0-1.434","<span style=""font-size:30px; font-family: monospace"">suco</span>"," ","","exp-sent","suco","","",""
"","438","html-keyboard-response","523","467735","0.0-3.0-1.435","<span style=""font-size:30px; font-family: monospace"">em</span>"," ","","exp-sent","em","","",""
"","392","html-keyboard-response","524","468393","0.0-3.0-1.436","<span style=""font-size:30px; font-family: monospace"">garrafa</span>"," ","","exp-sent","garrafa","","",""
"","381","html-keyboard-response","525","469036","0.0-3.0-1.437","<span style=""font-size:30px; font-family: monospace"">de</span>"," ","","exp-sent","de","","",""
"","331","html-keyboard-response","526","469624","0.0-3.0-1.438","<span style=""font-size:30px; font-family: monospace"">tamanho</span>"," ","","exp-sent","tamanho","","",""
"","450","html-keyboard-response","527","470339","0.0-3.0-1.439","<span style=""font-size:30px; font-family: monospace"">pequeno.</span>"," ","","exp-sent","pequeno.","","",""
"","null","html-keyboard-response","528","471602","0.0-3.0-0.440-0.440","<span style= ""font-size:30px; font-family: monospace"">+</span>","null","fixation","","","","",""
"","337","html-keyboard-response","529","472194","0.0-3.0-1.440","<span style=""font-size:30px; font-family: monospace"">Sua</span>"," ","","exp-sent","Sua","","",""
"","432","html-keyboard-response","530","472883","0.0-3.0-1.441","<span style=""font-size:30px; font-family: monospace"">filha</span>"," ","","exp-sent","filha","","",""
"","371","html-keyboard-response","531","473514","0.0-3.0-1.442","<span style=""font-size:30px; font-family: monospace"">é</span>"," ","","exp-sent","é","","",""
"","477","html-keyboard-response","532","474256","0.0-3.0-1.443","<span style=""font-size:30px; font-family: monospace"">muito</span>"," ","","exp-sent","muito","","",""
"","335","html-keyboard-response","533","474858","0.0-3.0-1.444","<span style=""font-size:30px; font-family: monospace"">capaz</span>"," ","","exp-sent","capaz","","",""
"","397","html-keyboard-response","534","475520","0.0-3.0-1.445","<span style=""font-size:30px; font-family: monospace"">e</span>"," ","","exp-sent","e","","",""
"","408","html-keyboard-response","535","476181","0.0-3.0-1.446","<span style=""font-size:30px; font-family: monospace"">esforçada.</span>"," ","","exp-sent","esforçada.","","",""
"","null","html-keyboard-response","536","477442","0.0-3.0-0.447-0.447","<span style= ""font-size:30px; font-family: monospace"">+</span>","null","fixation","","","","",""
"","354","html-keyboard-response","537","478055","0.0-3.0-1.447","<span style=""font-size:30px; font-family: monospace"">A</span>"," ","","exp-sent","A","","",""
"","467","html-keyboard-response","538","478773","0.0-3.0-1.448","<span style=""font-size:30px; font-family: monospace"">batida</span>"," ","","exp-sent","batida","","",""
"","304","html-keyboard-response","539","479329","0.0-3.0-1.449","<span style=""font-size:30px; font-family: monospace"">causou</span>"," ","","exp-sent","causou","","",""
"","487","html-keyboard-response","540","480073","0.0-3.0-1.450","<span style=""font-size:30px; font-family: monospace"">muita</span>"," ","","exp-sent","muita","","",""
"","971","html-keyboard-response","541","481309","0.0-3.0-1.451","<span style=""font-size:30px; font-family: monospace"">confusão</span>"," ","","exp-sent","confusão","","",""
"","392","html-keyboard-response","542","481963","0.0-3.0-1.452","<span style=""font-size:30px; font-family: monospace"">na</span>"," ","","exp-sent","na","","",""
"","473","html-keyboard-response","543","482694","0.0-3.0-1.453","<span style=""font-size:30px; font-family: monospace"">estrada.</span>"," ","","exp-sent","estrada.","","",""
"","null","html-keyboard-response","544","483955","0.0-3.0-0.454-0.454","<span style= ""font-size:30px; font-family: monospace"">+</span>","null","fixation","","","","",""
"","719","html-keyboard-response","545","484933","0.0-3.0-1.454","<span style=""font-size:30px; font-family: monospace"">Eu</span>"," ","","exp-sent","Eu","","",""
"","446","html-keyboard-response","546","485632","0.0-3.0-1.455","<span style=""font-size:30px; font-family: monospace"">cozinhei</span>"," ","","exp-sent","cozinhei","","",""
"","915","html-keyboard-response","547","486802","0.0-3.0-1.456","<span style=""font-size:30px; font-family: monospace"">um</span>"," ","","exp-sent","um","","",""
"","316","html-keyboard-response","548","487381","0.0-3.0-1.457","<span style=""font-size:30px; font-family: monospace"">almoço</span>"," ","","exp-sent","almoço","","",""
"","556","html-keyboard-response","549","488194","0.0-3.0-1.458","<span style=""font-size:30px; font-family: monospace"">nutritivo</span>"," ","","exp-sent","nutritivo","","",""
"","452","html-keyboard-response","550","488909","0.0-3.0-1.459","<span style=""font-size:30px; font-family: monospace"">para</span>"," ","","exp-sent","para","","",""
"","415","html-keyboard-response","551","489590","0.0-3.0-1.460","<span style=""font-size:30px; font-family: monospace"">hoje.</span>"," ","","comp","hoje.","","",""
"","1576","html-keyboard-response","552","491432","0.0-3.0-2.460-0.460","<span style=""font-size:30px; font-family: monospace"">O almoço era nutritivo?</span>","s","","comp","","O almoço era nutritivo?","sim","false"
"","null","html-keyboard-response","553","492950","0.0-3.0-0.461-0.461","<span style= ""font-size:30px; font-family: monospace"">+</span>","null","fixation","","","","",""
"","385","html-keyboard-response","554","493590","0.0-3.0-1.461","<span style=""font-size:30px; font-family: monospace"">Eu</span>"," ","","exp-sent","Eu","","",""
"","380","html-keyboard-response","555","494223","0.0-3.0-1.462","<span style=""font-size:30px; font-family: monospace"">gosto</span>"," ","","exp-sent","gosto","","",""
"","416","html-keyboard-response","556","494899","0.0-3.0-1.463","<span style=""font-size:30px; font-family: monospace"">de</span>"," ","","exp-sent","de","","",""
"","378","html-keyboard-response","557","495533","0.0-3.0-1.464","<span style=""font-size:30px; font-family: monospace"">molho</span>"," ","","exp-sent","molho","","",""
"","284","html-keyboard-response","558","496076","0.0-3.0-1.465","<span style=""font-size:30px; font-family: monospace"">picante</span>"," ","","exp-sent","picante","","",""
"","308","html-keyboard-response","559","496641","0.0-3.0-1.466","<span style=""font-size:30px; font-family: monospace"">nas</span>"," ","","exp-sent","nas","","",""
"","507","html-keyboard-response","560","497412","0.0-3.0-1.467","<span style=""font-size:30px; font-family: monospace"">batatas.</span>"," ","","exp-sent","batatas.","","",""
"","null","html-keyboard-response","561","498678","0.0-3.0-0.468-0.468","<span style= ""font-size:30px; font-family: monospace"">+</span>","null","fixation","","","","",""
"","403","html-keyboard-response","562","499335","0.0-3.0-1.468","<span style=""font-size:30px; font-family: monospace"">As</span>"," ","","exp-sent","As","","",""
"","503","html-keyboard-response","563","500092","0.0-3.0-1.469","<span style=""font-size:30px; font-family: monospace"">pessoas</span>"," ","","exp-sent","pessoas","","",""
"","574","html-keyboard-response","564","500932","0.0-3.0-1.470","<span style=""font-size:30px; font-family: monospace"">têm</span>"," ","","exp-sent","têm","","",""
"","451","html-keyboard-response","565","501640","0.0-3.0-1.471","<span style=""font-size:30px; font-family: monospace"">sua</span>"," ","","exp-sent","sua","","",""
"","588","html-keyboard-response","566","502484","0.0-3.0-1.472","<span style=""font-size:30px; font-family: monospace"">liberdade</span>"," ","","exp-sent","liberdade","","",""
"","381","html-keyboard-response","567","503117","0.0-3.0-1.473","<span style=""font-size:30px; font-family: monospace"">até</span>"," ","","exp-sent","até","","",""
"","372","html-keyboard-response","568","503743","0.0-3.0-1.474","<span style=""font-size:30px; font-family: monospace"">certo</span>"," ","","exp-sent","certo","","",""
"","233","html-keyboard-response","569","504228","0.0-3.0-1.475","<span style=""font-size:30px; font-family: monospace"">ponto.</span>"," ","","exp-sent","ponto.","","",""
"","null","html-keyboard-response","570","505505","0.0-3.0-0.476-0.476","<span style= ""font-size:30px; font-family: monospace"">+</span>","null","fixation","","","","",""
"","352","html-keyboard-response","571","506112","0.0-3.0-1.476","<span style=""font-size:30px; font-family: monospace"">A</span>"," ","","exp-sent","A","","",""
"","240","html-keyboard-response","572","506618","0.0-3.0-1.477","<span style=""font-size:30px; font-family: monospace"">empresa</span>"," ","","exp-sent","empresa","","",""
"","292","html-keyboard-response","573","507169","0.0-3.0-1.478","<span style=""font-size:30px; font-family: monospace"">enviou</span>"," ","","exp-sent","enviou","","",""
"","413","html-keyboard-response","574","507836","0.0-3.0-1.479","<span style=""font-size:30px; font-family: monospace"">o</span>"," ","","exp-sent","o","","",""
"","300","html-keyboard-response","575","508392","0.0-3.0-1.480","<span style=""font-size:30px; font-family: monospace"">aviso</span>"," ","","exp-sent","aviso","","",""
"","375","html-keyboard-response","576","509028","0.0-3.0-1.481","<span style=""font-size:30px; font-family: monospace"">hoje</span>"," ","","exp-sent","hoje","","",""
"","428","html-keyboard-response","577","509711","0.0-3.0-1.482","<span style=""font-size:30px; font-family: monospace"">de</span>"," ","","exp-sent","de","","",""
"","376","html-keyboard-response","578","510346","0.0-3.0-1.483","<span style=""font-size:30px; font-family: monospace"">tarde.</span>"," ","","exp-sent","tarde.","","",""
"","null","html-keyboard-response","579","511602","0.0-3.0-0.484-0.484","<span style= ""font-size:30px; font-family: monospace"">+</span>","null","fixation","","","","",""
"","369","html-keyboard-response","580","512226","0.0-3.0-1.484","<span style=""font-size:30px; font-family: monospace"">A</span>"," ","","exp-sent","A","","",""
"","342","html-keyboard-response","581","512829","0.0-3.0-1.485","<span style=""font-size:30px; font-family: monospace"">loja</span>"," ","","exp-sent","loja","","",""
"","385","html-keyboard-response","582","513464","0.0-3.0-1.486","<span style=""font-size:30px; font-family: monospace"">vende</span>"," ","","exp-sent","vende","","",""
"","424","html-keyboard-response","583","514142","0.0-3.0-1.487","<span style=""font-size:30px; font-family: monospace"">tanto</span>"," ","","exp-sent","tanto","","",""
"","578","html-keyboard-response","584","514987","0.0-3.0-1.488","<span style=""font-size:30px; font-family: monospace"">frituras</span>"," ","","exp-sent","frituras","","",""
"","323","html-keyboard-response","585","515567","0.0-3.0-1.489","<span style=""font-size:30px; font-family: monospace"">quanto</span>"," ","","exp-sent","quanto","","",""
