[
	{
		"view_history": [
			{
				"page_index": 0,
				"viewing_time": 2556
			}
		],
		"rt": 2556,
		"trial_type": "instructions",
		"trial_index": 0,
		"time_elapsed": 2559,
		"internal_node_id": "0.0-0.0"
	},
	{
		"rt": 418877,
		"response": {
			"tcle": "Concordo voluntariamente em participar da pesquisa conforme texto acima."
		},
		"question_order": [
			0
		],
		"trial_type": "survey-multi-choice",
		"trial_index": 1,
		"time_elapsed": 421643,
		"internal_node_id": "0.0-1.0"
	},
	{
		"rt": 83627,
		"response": {
			"email": "IGRI1"
		},
		"trial_type": "survey-text",
		"trial_index": 2,
		"time_elapsed": 506294,
		"internal_node_id": "0.0-2.0"
	}
]