[
	{
		"view_history": [
			{
				"page_index": 0,
				"viewing_time": 31904
			}
		],
		"rt": 31905,
		"trial_type": "instructions",
		"trial_index": 0,
		"time_elapsed": 31909,
		"internal_node_id": "0.0-0.0"
	},
	{
		"rt": 4481,
		"response": {
			"age": "18"
		},
		"trial_type": "survey-text",
		"trial_index": 1,
		"time_elapsed": 36511,
		"internal_node_id": "0.0-1.0"
	},
	{
		"rt": 4803,
		"response": {
			"sex": "Feminino"
		},
		"question_order": [
			0
		],
		"trial_type": "survey-multi-choice",
		"trial_index": 2,
		"time_elapsed": 41433,
		"internal_node_id": "0.0-2.0"
	},
	{
		"rt": 13651,
		"response": {
			"own_schooling": "Ensino Médio completo"
		},
		"question_order": [
			0
		],
		"trial_type": "survey-multi-choice",
		"trial_index": 3,
		"time_elapsed": 55194,
		"internal_node_id": "0.0-3.0"
	},
	{
		"rt": 14444,
		"response": {
			"mother_schooling": "Ensino Médio completo"
		},
		"question_order": [
			0
		],
		"trial_type": "survey-multi-choice",
		"trial_index": 4,
		"time_elapsed": 69747,
		"internal_node_id": "0.0-4.0"
	},
	{
		"rt": 7316,
		"response": {
			"father_schooling": "Ensino Fundamental"
		},
		"question_order": [
			0
		],
		"trial_type": "survey-multi-choice",
		"trial_index": 5,
		"time_elapsed": 77175,
		"internal_node_id": "0.0-5.0"
	},
	{
		"rt": 285385,
		"response": {
			"language_0": "espanhol",
			"listening_0": "6",
			"speaking_0": "7",
			"reading_0": "6",
			"writing_0": "6",
			"language_1": "crioulo haitiano",
			"listening_1": "1",
			"speaking_1": "2",
			"reading_1": "3",
			"writing_1": "3",
			"language_2": "português",
			"listening_2": "12",
			"speaking_2": "13",
			"reading_2": "12",
			"writing_2": "12",
			"language_3": "francês",
			"listening_3": "3",
			"speaking_3": "3",
			"reading_3": "3",
			"writing_3": "3"
		},
		"trial_type": "survey-html-form",
		"trial_index": 6,
		"time_elapsed": 362672,
		"internal_node_id": "0.0-6.0"
	},
	{
		"rt": 747142,
		"response": {
			"language_3": "F",
			"listening_3": "3",
			"speaking_3": "3",
			"reading_3": "2",
			"writing_3": "2",
			"language_1": "C",
			"listening_1": "2",
			"speaking_1": "2",
			"reading_1": "1",
			"writing_1": "2",
			"language_2": "P",
			"listening_2": "1",
			"speaking_2": "1",
			"reading_2": "1",
			"writing_2": "1"
		},
		"trial_type": "survey-html-form",
		"trial_index": 7,
		"time_elapsed": 1109924,
		"internal_node_id": "0.0-7.0"
	},
	{
		"rt": 38764,
		"response": {
			"country_of_origin": "Haiti"
		},
		"trial_type": "survey-text",
		"trial_index": 8,
		"time_elapsed": 1148808,
		"internal_node_id": "0.0-8.0"
	},
	{
		"rt": 19747,
		"response": {
			"country_of_residence": "Brasil 2017"
		},
		"trial_type": "survey-text",
		"trial_index": 9,
		"time_elapsed": 1168663,
		"internal_node_id": "0.0-9.0"
	},
	{
		"rt": 106762,
		"response": {
			"country_0": "Argentina",
			"duration_0": "3",
			"language_0": "espanhol",
			"frequency_0": "5",
			"country_1": "Argentina",
			"duration_1": "3",
			"language_1": "crioulo haitiano",
			"frequency_1": "4",
			"country_2": "",
			"duration_2": "",
			"language_2": "",
			"frequency_2": "",
			"country_3": "",
			"duration_3": "",
			"language_3": "",
			"frequency_3": ""
		},
		"trial_type": "survey-html-form",
		"trial_index": 10,
		"time_elapsed": 1275537,
		"internal_node_id": "0.0-10.0"
	},
	{
		"rt": 94143,
		"response": {
			"language_0": "E",
			"context_0": "1,2,3",
			"language_1": "C",
			"context_1": "1,2",
			"language_2": "P",
			"context_2": "1,2",
			"language_3": "F",
			"context_3": "1,2,3"
		},
		"trial_type": "survey-html-form",
		"trial_index": 11,
		"time_elapsed": 1369786,
		"internal_node_id": "0.0-11.0"
	},
	{
		"rt": 323692,
		"response": {
			"language_0": "E",
			"home_0": "-",
			"friends_0": "-",
			"school_0": "6",
			"work_0": "-",
			"computer_0": "-",
			"games_0": "13",
			"language_1": "C",
			"home_1": "1",
			"friends_1": "6",
			"school_1": "-",
			"work_1": "-",
			"computer_1": "-",
			"games_1": "-",
			"language_2": "P",
			"home_2": "-",
			"friends_2": "14",
			"school_2": "12",
			"work_2": "-",
			"computer_2": "12",
			"games_2": "13",
			"language_3": "F",
			"home_3": "-",
			"friends_3": "-",
			"school_3": "6",
			"work_3": "-",
			"computer_3": "5",
			"games_3": "14"
		},
		"trial_type": "survey-html-form",
		"trial_index": 12,
		"time_elapsed": 1693588,
		"internal_node_id": "0.0-12.0"
	},
	{
		"rt": 106621,
		"response": {
			"new_languages": 5
		},
		"question_order": [
			0
		],
		"trial_type": "survey-likert",
		"trial_index": 13,
		"time_elapsed": 1800328,
		"internal_node_id": "0.0-13.0"
	},
	{
		"rt": 208124,
		"response": {
			"language_0": "E",
			"listen_0": "6",
			"talk_0": "5",
			"read_0": "7",
			"write_0": "6",
			"language_1": "C",
			"listen_1": "7",
			"talk_1": "5",
			"read_1": "6",
			"write_1": "5",
			"language_2": "P",
			"listen_2": "5",
			"talk_2": "6",
			"read_2": "6",
			"write_2": "6",
			"language_3": "F",
			"listen_3": "5",
			"talk_3": "4",
			"read_3": "5",
			"write_3": "6"
		},
		"trial_type": "survey-html-form",
		"trial_index": 14,
		"time_elapsed": 2008564,
		"internal_node_id": "0.0-14.0"
	},
	{
		"rt": 439344,
		"response": {
			"language_0": "E",
			"tv_0": "-",
			"radio_0": "1",
			"read_fun_0": "12",
			"read_work_0": "-",
			"write_0": "1",
			"social_nets_0": "-",
			"language_1": "P",
			"tv_1": "4",
			"radio_1": "12",
			"read_fun_1": "6",
			"read_work_1": "2",
			"write_1": "2",
			"social_nets_1": "1",
			"language_2": "C",
			"tv_2": "1",
			"radio_2": "-",
			"read_fun_2": "-",
			"read_work_2": "-",
			"write_2": "-",
			"social_nets_2": "-",
			"language_3": "F",
			"tv_3": "1",
			"radio_3": "-",
			"read_fun_3": "1",
			"read_work_3": "-",
			"write_3": "-",
			"social_nets_3": "-"
		},
		"trial_type": "survey-html-form",
		"trial_index": 15,
		"time_elapsed": 2448018,
		"internal_node_id": "0.0-15.0"
	},
	{
		"rt": 110690,
		"response": {
			"language_0": "E",
			"family_0": "-",
			"friends_0": "-",
			"work_0": "-",
			"school_0": "-",
			"language_1": "C",
			"family_1": "3",
			"friends_1": "-",
			"work_1": "-",
			"school_1": "-",
			"language_2": "P",
			"family_2": "1",
			"friends_2": "4",
			"work_2": "-",
			"school_2": "2",
			"language_3": "F",
			"family_3": "-",
			"friends_3": "-",
			"work_3": "-",
			"school_3": "-"
		},
		"trial_type": "survey-html-form",
		"trial_index": 16,
		"time_elapsed": 2558822,
		"internal_node_id": "0.0-16.0"
	},
	{
		"rt": 80886,
		"response": {
			"language_0_0": "C",
			"language_0_1": "C",
			"language_0_2": "E",
			"language_0_3": "P",
			"language_1_0": "P",
			"language_1_1": "P",
			"language_1_2": "P",
			"language_1_3": "P",
			"language_2_0": "P",
			"language_2_1": "P,C",
			"language_2_2": "E",
			"language_2_3": "P",
			"language_3_0": "-",
			"language_3_1": "-",
			"language_3_2": "-",
			"language_3_3": "-"
		},
		"trial_type": "survey-html-form",
		"trial_index": 17,
		"time_elapsed": 2639821,
		"internal_node_id": "0.0-17.0"
	},
	{
		"rt": 336049,
		"response": {
			"language_2": "P",
			"think_2": "4",
			"selftalk_2": "4",
			"emotions_2": "5",
			"dream_2": "1",
			"math_2": "3",
			"remember_2": "4",
			"pray_2": "3",
			"language_1": "C",
			"think_1": "4",
			"selftalk_1": "2",
			"emotions_1": "4",
			"dream_1": "1",
			"math_1": "4",
			"remember_1": "2",
			"pray_1": "6",
			"language_3": "F",
			"think_3": "2",
			"selftalk_3": "2",
			"emotions_3": "1",
			"dream_3": "1",
			"math_3": "5",
			"remember_3": "4",
			"pray_3": "3"
		},
		"trial_type": "survey-html-form",
		"trial_index": 18,
		"time_elapsed": 2975982,
		"internal_node_id": "0.0-18.0"
	},
	{
		"rt": 18165,
		"response": {
			"dificuldade_visao_ou_audicao": "Não"
		},
		"question_order": [
			0
		],
		"trial_type": "survey-multi-choice",
		"trial_index": 19,
		"time_elapsed": 2994254,
		"internal_node_id": "0.0-19.0"
	},
	{
		"rt": 11589,
		"response": {
			"detalhes_dificuldades_audicao_ou_visao": ""
		},
		"trial_type": "survey-text",
		"trial_index": 20,
		"time_elapsed": 3005965,
		"internal_node_id": "0.0-20.0"
	},
	{
		"rt": 24787,
		"response": {
			"additional_info": "mangá em espanhol geralmente"
		},
		"trial_type": "survey-text",
		"trial_index": 21,
		"time_elapsed": 3030874,
		"internal_node_id": "0.0-21.0"
	}
]