[
	{
		"view_history": [
			{
				"page_index": 0,
				"viewing_time": 109885
			},
			{
				"page_index": 1,
				"viewing_time": 15657
			}
		],
		"rt": 125542,
		"trial_type": "instructions",
		"trial_index": 0,
		"time_elapsed": 125545,
		"internal_node_id": "0.0-0.0"
	},
	{
		"rt": null,
		"stimulus": "<span style= \"font-size:30px; font-family: monospace\">+</span>",
		"response": null,
		"trial_part": "fixation",
		"trial_type": "html-keyboard-response",
		"trial_index": 1,
		"time_elapsed": 126676,
		"internal_node_id": "0.0-1.0-0.0-0.0"
	},
	{
		"rt": 3099,
		"stimulus": "../audio/prac-question-1-1.mp3",
		"response": " ",
		"word": "O",
		"trial_type": "audio-keyboard-response",
		"trial_index": 2,
		"time_elapsed": 130894,
		"internal_node_id": "0.0-1.0-1.0"
	},
	{
		"rt": 1240,
		"stimulus": "../audio/prac-question-1-2.mp3",
		"response": " ",
		"word": "dia",
		"trial_type": "audio-keyboard-response",
		"trial_index": 3,
		"time_elapsed": 132558,
		"internal_node_id": "0.0-1.0-1.1"
	},
	{
		"rt": 1240,
		"stimulus": "../audio/prac-question-1-3.mp3",
		"response": " ",
		"word": "estará",
		"trial_type": "audio-keyboard-response",
		"trial_index": 4,
		"time_elapsed": 134161,
		"internal_node_id": "0.0-1.0-1.2"
	},
	{
		"rt": 1080,
		"stimulus": "../audio/prac-question-1-4.mp3",
		"response": " ",
		"word": "cheio",
		"trial_type": "audio-keyboard-response",
		"trial_index": 5,
		"time_elapsed": 135590,
		"internal_node_id": "0.0-1.0-1.3"
	},
	{
		"rt": 941,
		"stimulus": "../audio/prac-question-1-5.mp3",
		"response": " ",
		"word": "de",
		"trial_type": "audio-keyboard-response",
		"trial_index": 6,
		"time_elapsed": 136872,
		"internal_node_id": "0.0-1.0-1.4"
	},
	{
		"rt": 1120,
		"stimulus": "../audio/prac-question-1-6.mp3",
		"response": " ",
		"word": "nuvens",
		"trial_type": "audio-keyboard-response",
		"trial_index": 7,
		"time_elapsed": 138344,
		"internal_node_id": "0.0-1.0-1.5"
	},
	{
		"rt": 1429,
		"stimulus": "../audio/prac-question-1-7.mp3",
		"response": " ",
		"word": "hoje.",
		"trial_type": "audio-keyboard-response",
		"trial_index": 8,
		"time_elapsed": 140112,
		"internal_node_id": "0.0-1.0-1.6"
	},
	{
		"rt": null,
		"stimulus": "<span style= \"font-size:30px; font-family: monospace\">+</span>",
		"response": null,
		"trial_part": "fixation",
		"trial_type": "html-keyboard-response",
		"trial_index": 9,
		"time_elapsed": 141379,
		"internal_node_id": "0.0-1.0-0.7-0.7"
	},
	{
		"rt": 989,
		"stimulus": "../audio/prac-question-2-1.mp3",
		"response": " ",
		"word": "A",
		"trial_type": "audio-keyboard-response",
		"trial_index": 10,
		"time_elapsed": 142756,
		"internal_node_id": "0.0-1.0-1.7"
	},
	{
		"rt": 829,
		"stimulus": "../audio/prac-question-2-2.mp3",
		"response": " ",
		"word": "caneca",
		"trial_type": "audio-keyboard-response",
		"trial_index": 11,
		"time_elapsed": 143939,
		"internal_node_id": "0.0-1.0-1.8"
	},
	{
		"rt": 1120,
		"stimulus": "../audio/prac-question-2-3.mp3",
		"response": " ",
		"word": "colorida",
		"trial_type": "audio-keyboard-response",
		"trial_index": 12,
		"time_elapsed": 145409,
		"internal_node_id": "0.0-1.0-1.9"
	},
	{
		"rt": 1120,
		"stimulus": "../audio/prac-question-2-4.mp3",
		"response": " ",
		"word": "caiu",
		"trial_type": "audio-keyboard-response",
		"trial_index": 13,
		"time_elapsed": 146880,
		"internal_node_id": "0.0-1.0-1.10"
	},
	{
		"rt": 891,
		"stimulus": "../audio/prac-question-2-5.mp3",
		"response": " ",
		"word": "da",
		"trial_type": "audio-keyboard-response",
		"trial_index": 14,
		"time_elapsed": 148115,
		"internal_node_id": "0.0-1.0-1.11"
	},
	{
		"rt": 1251,
		"stimulus": "../audio/prac-question-2-6.mp3",
		"response": " ",
		"word": "mesa",
		"trial_type": "audio-keyboard-response",
		"trial_index": 15,
		"time_elapsed": 149715,
		"internal_node_id": "0.0-1.0-1.12"
	},
	{
		"rt": 819,
		"stimulus": "../audio/prac-question-2-7.mp3",
		"response": " ",
		"word": "de",
		"trial_type": "audio-keyboard-response",
		"trial_index": 16,
		"time_elapsed": 150864,
		"internal_node_id": "0.0-1.0-1.13"
	},
	{
		"rt": 1200,
		"stimulus": "../audio/prac-question-2-8.mp3",
		"response": " ",
		"word": "jantar.",
		"trial_type": "audio-keyboard-response",
		"trial_index": 17,
		"time_elapsed": 152411,
		"internal_node_id": "0.0-1.0-1.14"
	},
	{
		"rt": 2298,
		"stimulus": "<span style=\"font-size:25px; font-family: monospace\">A caneca era colorida?</span>",
		"response": "s",
		"question": "A caneca era colorida?",
		"answer": "null",
		"trial": "prac-sent",
		"trial_type": "html-keyboard-response",
		"trial_index": 18,
		"time_elapsed": 154971,
		"internal_node_id": "0.0-1.0-2.14-0.14",
		"accuracy": false
	},
	{
		"view_history": [
			{
				"page_index": 0,
				"viewing_time": 26722
			}
		],
		"rt": 26722,
		"trial_type": "instructions",
		"trial_index": 19,
		"time_elapsed": 182196,
		"internal_node_id": "0.0-2.0"
	},
	{
		"rt": null,
		"stimulus": "<span style= \"font-size:30px; font-family: monospace\">+</span>",
		"response": null,
		"trial_part": "fixation",
		"trial_type": "html-keyboard-response",
		"trial_index": 20,
		"time_elapsed": 183316,
		"internal_node_id": "0.0-3.0-0.0-0.0"
	},
	{
		"rt": 1360,
		"stimulus": "../audio/51-1-fem.mp3",
		"response": " ",
		"word": "Suco",
		"trial_type": "audio-keyboard-response",
		"trial_index": 21,
		"time_elapsed": 185078,
		"internal_node_id": "0.0-3.0-1.0"
	},
	{
		"rt": 960,
		"stimulus": "../audio/51-2-fem.mp3",
		"response": " ",
		"word": "de",
		"trial_type": "audio-keyboard-response",
		"trial_index": 22,
		"time_elapsed": 186399,
		"internal_node_id": "0.0-3.0-1.1"
	},
	{
		"rt": 1520,
		"stimulus": "../audio/51-3-fem.mp3",
		"response": " ",
		"word": "acerola",
		"trial_type": "audio-keyboard-response",
		"trial_index": 23,
		"time_elapsed": 188270,
		"internal_node_id": "0.0-3.0-1.2"
	},
	{
		"rt": 931,
		"stimulus": "../audio/51-4-fem.mp3",
		"response": " ",
		"word": "é",
		"trial_type": "audio-keyboard-response",
		"trial_index": 24,
		"time_elapsed": 189522,
		"internal_node_id": "0.0-3.0-1.3"
	},
	{
		"rt": 1349,
		"stimulus": "../audio/51-5-fem.mp3",
		"response": " ",
		"word": "azedo",
		"trial_type": "audio-keyboard-response",
		"trial_index": 25,
		"time_elapsed": 191234,
		"internal_node_id": "0.0-3.0-1.4"
	},
	{
		"rt": 1029,
		"stimulus": "../audio/51-6-fem.mp3",
		"response": " ",
		"word": "e",
		"trial_type": "audio-keyboard-response",
		"trial_index": 26,
		"time_elapsed": 192590,
		"internal_node_id": "0.0-3.0-1.5"
	},
	{
		"rt": 1501,
		"stimulus": "../audio/51-7-fem.mp3",
		"response": " ",
		"word": "até",
		"trial_type": "audio-keyboard-response",
		"trial_index": 27,
		"time_elapsed": 194430,
		"internal_node_id": "0.0-3.0-1.6"
	},
	{
		"rt": 1600,
		"stimulus": "../audio/51-8-fem.mp3",
		"response": " ",
		"word": "barato.",
		"trial_type": "audio-keyboard-response",
		"trial_index": 28,
		"time_elapsed": 196380,
		"internal_node_id": "0.0-3.0-1.7"
	},
	{
		"rt": null,
		"stimulus": "<span style= \"font-size:30px; font-family: monospace\">+</span>",
		"response": null,
		"trial_part": "fixation",
		"trial_type": "html-keyboard-response",
		"trial_index": 29,
		"time_elapsed": 197652,
		"internal_node_id": "0.0-3.0-0.8-0.8"
	},
	{
		"rt": 1411,
		"stimulus": "../audio/52-1-masc.mp3",
		"response": " ",
		"word": "Às",
		"trial_type": "audio-keyboard-response",
		"trial_index": 30,
		"time_elapsed": 199513,
		"internal_node_id": "0.0-3.0-1.8"
	},
	{
		"rt": 1179,
		"stimulus": "../audio/52-2-masc.mp3",
		"response": " ",
		"word": "vezes",
		"trial_type": "audio-keyboard-response",
		"trial_index": 31,
		"time_elapsed": 201055,
		"internal_node_id": "0.0-3.0-1.9"
	},
	{
		"rt": 1069,
		"stimulus": "../audio/52-3-masc.mp3",
		"response": " ",
		"word": "eu",
		"trial_type": "audio-keyboard-response",
		"trial_index": 32,
		"time_elapsed": 202457,
		"internal_node_id": "0.0-3.0-1.10"
	},
	{
		"rt": 960,
		"stimulus": "../audio/52-4-masc.mp3",
		"response": " ",
		"word": "tenho",
		"trial_type": "audio-keyboard-response",
		"trial_index": 33,
		"time_elapsed": 203760,
		"internal_node_id": "0.0-3.0-1.11"
	},
	{
		"rt": 1181,
		"stimulus": "../audio/52-5-masc.mp3",
		"response": " ",
		"word": "azia",
		"trial_type": "audio-keyboard-response",
		"trial_index": 34,
		"time_elapsed": 205271,
		"internal_node_id": "0.0-3.0-1.12"
	},
	{
		"rt": 1141,
		"stimulus": "../audio/52-6-masc.mp3",
		"response": " ",
		"word": "depois",
		"trial_type": "audio-keyboard-response",
		"trial_index": 35,
		"time_elapsed": 206757,
		"internal_node_id": "0.0-3.0-1.13"
	},
	{
		"rt": 912,
		"stimulus": "../audio/52-7-masc.mp3",
		"response": " ",
		"word": "da",
		"trial_type": "audio-keyboard-response",
		"trial_index": 36,
		"time_elapsed": 208006,
		"internal_node_id": "0.0-3.0-1.14"
	},
	{
		"rt": 1280,
		"stimulus": "../audio/52-8-masc.mp3",
		"response": " ",
		"word": "janta.",
		"trial_type": "audio-keyboard-response",
		"trial_index": 37,
		"time_elapsed": 209635,
		"internal_node_id": "0.0-3.0-1.15"
	},
	{
		"rt": null,
		"stimulus": "<span style= \"font-size:30px; font-family: monospace\">+</span>",
		"response": null,
		"trial_part": "fixation",
		"trial_type": "html-keyboard-response",
		"trial_index": 38,
		"time_elapsed": 210909,
		"internal_node_id": "0.0-3.0-0.16-0.16"
	},
	{
		"rt": 931,
		"stimulus": "../audio/53-1-masc.mp3",
		"response": " ",
		"word": "O",
		"trial_type": "audio-keyboard-response",
		"trial_index": 39,
		"time_elapsed": 212221,
		"internal_node_id": "0.0-3.0-1.16"
	},
	{
		"rt": 1368,
		"stimulus": "../audio/53-2-masc.mp3",
		"response": " ",
		"word": "médico",
		"trial_type": "audio-keyboard-response",
		"trial_index": 40,
		"time_elapsed": 213932,
		"internal_node_id": "0.0-3.0-1.17"
	},
	{
		"rt": 779,
		"stimulus": "../audio/53-3-masc.mp3",
		"response": " ",
		"word": "foi",
		"trial_type": "audio-keyboard-response",
		"trial_index": 41,
		"time_elapsed": 215056,
		"internal_node_id": "0.0-3.0-1.18"
	},
	{
		"rt": 989,
		"stimulus": "../audio/53-4-masc.mp3",
		"response": " ",
		"word": "bastante",
		"trial_type": "audio-keyboard-response",
		"trial_index": 42,
		"time_elapsed": 216391,
		"internal_node_id": "0.0-3.0-1.19"
	},
	{
		"rt": 952,
		"stimulus": "../audio/53-5-masc.mp3",
		"response": " ",
		"word": "preciso",
		"trial_type": "audio-keyboard-response",
		"trial_index": 43,
		"time_elapsed": 217682,
		"internal_node_id": "0.0-3.0-1.20"
	},
	{
		"rt": 920,
		"stimulus": "../audio/53-6-masc.mp3",
		"response": " ",
		"word": "durante",
		"trial_type": "audio-keyboard-response",
		"trial_index": 44,
		"time_elapsed": 218941,
		"internal_node_id": "0.0-3.0-1.21"
	},
	{
		"rt": 720,
		"stimulus": "../audio/53-7-masc.mp3",
		"response": " ",
		"word": "a",
		"trial_type": "audio-keyboard-response",
		"trial_index": 45,
		"time_elapsed": 220002,
		"internal_node_id": "0.0-3.0-1.22"
	},
	{
		"rt": 1051,
		"stimulus": "../audio/53-8-masc.mp3",
		"response": " ",
		"word": "cirurgia.",
		"trial_type": "audio-keyboard-response",
		"trial_index": 46,
		"time_elapsed": 221405,
		"internal_node_id": "0.0-3.0-1.23"
	},
	{
		"rt": null,
		"stimulus": "<span style= \"font-size:30px; font-family: monospace\">+</span>",
		"response": null,
		"trial_part": "fixation",
		"trial_type": "html-keyboard-response",
		"trial_index": 47,
		"time_elapsed": 222663,
		"internal_node_id": "0.0-3.0-0.24-0.24"
	},
	{
		"rt": 1571,
		"stimulus": "../audio/54-1-fem.mp3",
		"response": " ",
		"word": "Estou",
		"trial_type": "audio-keyboard-response",
		"trial_index": 48,
		"time_elapsed": 224625,
		"internal_node_id": "0.0-3.0-1.24"
	},
	{
		"rt": 920,
		"stimulus": "../audio/54-2-fem.mp3",
		"response": " ",
		"word": "com",
		"trial_type": "audio-keyboard-response",
		"trial_index": 49,
		"time_elapsed": 225880,
		"internal_node_id": "0.0-3.0-1.25"
	},
	{
		"rt": 901,
		"stimulus": "../audio/54-3-fem.mp3",
		"response": " ",
		"word": "medo",
		"trial_type": "audio-keyboard-response",
		"trial_index": 50,
		"time_elapsed": 227126,
		"internal_node_id": "0.0-3.0-1.26"
	},
	{
		"rt": 909,
		"stimulus": "../audio/54-4-fem.mp3",
		"response": " ",
		"word": "da",
		"trial_type": "audio-keyboard-response",
		"trial_index": 51,
		"time_elapsed": 228377,
		"internal_node_id": "0.0-3.0-1.27"
	},
	{
		"rt": 1208,
		"stimulus": "../audio/54-5-fem.mp3",
		"response": " ",
		"word": "atual",
		"trial_type": "audio-keyboard-response",
		"trial_index": 52,
		"time_elapsed": 229933,
		"internal_node_id": "0.0-3.0-1.28"
	},
	{
		"rt": 1579,
		"stimulus": "../audio/54-6-fem.mp3",
		"response": " ",
		"word": "organização",
		"trial_type": "audio-keyboard-response",
		"trial_index": 53,
		"time_elapsed": 231866,
		"internal_node_id": "0.0-3.0-1.29"
	},
	{
		"rt": 779,
		"stimulus": "../audio/54-7-fem.mp3",
		"response": " ",
		"word": "do",
		"trial_type": "audio-keyboard-response",
		"trial_index": 54,
		"time_elapsed": 232989,
		"internal_node_id": "0.0-3.0-1.30"
	},
	{
		"rt": 1352,
		"stimulus": "../audio/54-8-fem.mp3",
		"response": " ",
		"word": "país.",
		"trial_type": "audio-keyboard-response",
		"trial_index": 55,
		"time_elapsed": 234680,
		"internal_node_id": "0.0-3.0-1.31"
	},
	{
		"rt": null,
		"stimulus": "<span style= \"font-size:30px; font-family: monospace\">+</span>",
		"response": null,
		"trial_part": "fixation",
		"trial_type": "html-keyboard-response",
		"trial_index": 56,
		"time_elapsed": 235942,
		"internal_node_id": "0.0-3.0-0.32-0.32"
	},
	{
		"rt": 952,
		"stimulus": "../audio/55-1-masc.mp3",
		"response": " ",
		"word": "O",
		"trial_type": "audio-keyboard-response",
		"trial_index": 57,
		"time_elapsed": 237287,
		"internal_node_id": "0.0-3.0-1.32"
	},
	{
		"rt": 1251,
		"stimulus": "../audio/55-2-masc.mp3",
		"response": " ",
		"word": "insulto",
		"trial_type": "audio-keyboard-response",
		"trial_index": 58,
		"time_elapsed": 238881,
		"internal_node_id": "0.0-3.0-1.33"
	},
	{
		"rt": 1360,
		"stimulus": "../audio/55-3-masc.mp3",
		"response": " ",
		"word": "recente",
		"trial_type": "audio-keyboard-response",
		"trial_index": 59,
		"time_elapsed": 240581,
		"internal_node_id": "0.0-3.0-1.34"
	},
	{
		"rt": 1179,
		"stimulus": "../audio/55-4-masc.mp3",
		"response": " ",
		"word": "causou",
		"trial_type": "audio-keyboard-response",
		"trial_index": 60,
		"time_elapsed": 242104,
		"internal_node_id": "0.0-3.0-1.35"
	},
	{
		"rt": 1600,
		"stimulus": "../audio/55-5-masc.mp3",
		"response": " ",
		"word": "indignação",
		"trial_type": "audio-keyboard-response",
		"trial_index": 61,
		"time_elapsed": 244056,
		"internal_node_id": "0.0-3.0-1.36"
	},
	{
		"rt": 920,
		"stimulus": "../audio/55-6-masc.mp3",
		"response": " ",
		"word": "em",
		"trial_type": "audio-keyboard-response",
		"trial_index": 62,
		"time_elapsed": 245315,
		"internal_node_id": "0.0-3.0-1.37"
	},
	{
		"rt": 1021,
		"stimulus": "../audio/55-7-masc.mp3",
		"response": " ",
		"word": "todos.",
		"trial_type": "audio-keyboard-response",
		"trial_index": 63,
		"time_elapsed": 246672,
		"internal_node_id": "0.0-3.0-1.38"
	},
	{
		"rt": 2344,
		"stimulus": "<span style=\"font-size:25px; font-family: monospace\">O insulto causou calmaria?</span>",
		"response": "n",
		"question": "O insulto causou calmaria?",
		"answer": "null",
		"trial": "exp-sent",
		"trial_type": "html-keyboard-response",
		"trial_index": 64,
		"time_elapsed": 249270,
		"internal_node_id": "0.0-3.0-2.38-0.38",
		"accuracy": false
	},
	{
		"rt": null,
		"stimulus": "<span style= \"font-size:30px; font-family: monospace\">+</span>",
		"response": null,
		"trial_part": "fixation",
		"trial_type": "html-keyboard-response",
		"trial_index": 65,
		"time_elapsed": 250779,
		"internal_node_id": "0.0-3.0-0.39-0.39"
	},
	{
		"rt": 1109,
		"stimulus": "../audio/41-1-fem.mp3",
		"response": " ",
		"word": "A",
		"trial_type": "audio-keyboard-response",
		"trial_index": 66,
		"time_elapsed": 252276,
		"internal_node_id": "0.0-3.0-1.39"
	},
	{
		"rt": 1411,
		"stimulus": "../audio/41-2-fem.mp3",
		"response": " ",
		"word": "novela",
		"trial_type": "audio-keyboard-response",
		"trial_index": 67,
		"time_elapsed": 254041,
		"internal_node_id": "0.0-3.0-1.40"
	},
	{
		"rt": 1349,
		"stimulus": "../audio/41-3-fem.mp3",
		"response": " ",
		"word": "falava",
		"trial_type": "audio-keyboard-response",
		"trial_index": 68,
		"time_elapsed": 255756,
		"internal_node_id": "0.0-3.0-1.41"
	},
	{
		"rt": 792,
		"stimulus": "../audio/41-4-fem.mp3",
		"response": " ",
		"word": "de",
		"trial_type": "audio-keyboard-response",
		"trial_index": 69,
		"time_elapsed": 256883,
		"internal_node_id": "0.0-3.0-1.42"
	},
	{
		"rt": 1149,
		"stimulus": "../audio/41-5-fem.mp3",
		"response": " ",
		"word": "paixão",
		"trial_type": "audio-keyboard-response",
		"trial_index": 70,
		"time_elapsed": 258373,
		"internal_node_id": "0.0-3.0-1.43"
	},
	{
		"rt": 731,
		"stimulus": "../audio/41-6-fem.mp3",
		"response": " ",
		"word": "e",
		"trial_type": "audio-keyboard-response",
		"trial_index": 71,
		"time_elapsed": 259432,
		"internal_node_id": "0.0-3.0-1.44"
	},
	{
		"rt": 1131,
		"stimulus": "../audio/41-7-fem.mp3",
		"response": " ",
		"word": "comédia.",
		"trial_type": "audio-keyboard-response",
		"trial_index": 72,
		"time_elapsed": 260901,
		"internal_node_id": "0.0-3.0-1.45"
	},
	{
		"rt": null,
		"stimulus": "<span style= \"font-size:30px; font-family: monospace\">+</span>",
		"response": null,
		"trial_part": "fixation",
		"trial_type": "html-keyboard-response",
		"trial_index": 73,
		"time_elapsed": 262171,
		"internal_node_id": "0.0-3.0-0.46-0.46"
	},
	{
		"rt": 1109,
		"stimulus": "../audio/42-1-masc.mp3",
		"response": " ",
		"word": "Eu",
		"trial_type": "audio-keyboard-response",
		"trial_index": 74,
		"time_elapsed": 263669,
		"internal_node_id": "0.0-3.0-1.46"
	},
	{
		"rt": 931,
		"stimulus": "../audio/42-2-masc.mp3",
		"response": " ",
		"word": "fui",
		"trial_type": "audio-keyboard-response",
		"trial_index": 75,
		"time_elapsed": 264956,
		"internal_node_id": "0.0-3.0-1.47"
	},
	{
		"rt": 880,
		"stimulus": "../audio/42-3-masc.mp3",
		"response": " ",
		"word": "a",
		"trial_type": "audio-keyboard-response",
		"trial_index": 76,
		"time_elapsed": 266172,
		"internal_node_id": "0.0-3.0-1.48"
	},
	{
		"rt": 960,
		"stimulus": "../audio/42-4-masc.mp3",
		"response": " ",
		"word": "uma",
		"trial_type": "audio-keyboard-response",
		"trial_index": 77,
		"time_elapsed": 267470,
		"internal_node_id": "0.0-3.0-1.49"
	},
	{
		"rt": 912,
		"stimulus": "../audio/42-5-masc.mp3",
		"response": " ",
		"word": "loja",
		"trial_type": "audio-keyboard-response",
		"trial_index": 78,
		"time_elapsed": 268720,
		"internal_node_id": "0.0-3.0-1.50"
	},
	{
		"rt": 672,
		"stimulus": "../audio/42-6-masc.mp3",
		"response": " ",
		"word": "de",
		"trial_type": "audio-keyboard-response",
		"trial_index": 79,
		"time_elapsed": 269726,
		"internal_node_id": "0.0-3.0-1.51"
	},
	{
		"rt": 819,
		"stimulus": "../audio/42-7-masc.mp3",
		"response": " ",
		"word": "móveis",
		"trial_type": "audio-keyboard-response",
		"trial_index": 80,
		"time_elapsed": 270892,
		"internal_node_id": "0.0-3.0-1.52"
	},
	{
		"rt": 811,
		"stimulus": "../audio/42-8-masc.mp3",
		"response": " ",
		"word": "no",
		"trial_type": "audio-keyboard-response",
		"trial_index": 81,
		"time_elapsed": 272047,
		"internal_node_id": "0.0-3.0-1.53"
	},
	{
		"rt": 1109,
		"stimulus": "../audio/42-9-masc.mp3",
		"response": " ",
		"word": "bairro.",
		"trial_type": "audio-keyboard-response",
		"trial_index": 82,
		"time_elapsed": 273508,
		"internal_node_id": "0.0-3.0-1.54"
	},
	{
		"rt": null,
		"stimulus": "<span style= \"font-size:30px; font-family: monospace\">+</span>",
		"response": null,
		"trial_part": "fixation",
		"trial_type": "html-keyboard-response",
		"trial_index": 83,
		"time_elapsed": 274774,
		"internal_node_id": "0.0-3.0-0.55-0.55"
	},
	{
		"rt": 880,
		"stimulus": "../audio/43-1-masc.mp3",
		"response": " ",
		"word": "Eu",
		"trial_type": "audio-keyboard-response",
		"trial_index": 84,
		"time_elapsed": 276063,
		"internal_node_id": "0.0-3.0-1.55"
	},
	{
		"rt": 1240,
		"stimulus": "../audio/43-2-masc.mp3",
		"response": " ",
		"word": "achei",
		"trial_type": "audio-keyboard-response",
		"trial_index": 85,
		"time_elapsed": 277657,
		"internal_node_id": "0.0-3.0-1.56"
	},
	{
		"rt": 920,
		"stimulus": "../audio/43-3-masc.mp3",
		"response": " ",
		"word": "um",
		"trial_type": "audio-keyboard-response",
		"trial_index": 86,
		"time_elapsed": 278911,
		"internal_node_id": "0.0-3.0-1.57"
	},
	{
		"rt": 1168,
		"stimulus": "../audio/43-4-masc.mp3",
		"response": " ",
		"word": "colchão",
		"trial_type": "audio-keyboard-response",
		"trial_index": 87,
		"time_elapsed": 280410,
		"internal_node_id": "0.0-3.0-1.58"
	},
	{
		"rt": 1099,
		"stimulus": "../audio/43-5-masc.mp3",
		"response": " ",
		"word": "velho",
		"trial_type": "audio-keyboard-response",
		"trial_index": 88,
		"time_elapsed": 281852,
		"internal_node_id": "0.0-3.0-1.59"
	},
	{
		"rt": 1000,
		"stimulus": "../audio/43-6-masc.mp3",
		"response": " ",
		"word": "e",
		"trial_type": "audio-keyboard-response",
		"trial_index": 89,
		"time_elapsed": 283196,
		"internal_node_id": "0.0-3.0-1.60"
	},
	{
		"rt": 1331,
		"stimulus": "../audio/43-7-masc.mp3",
		"response": " ",
		"word": "imundo",
		"trial_type": "audio-keyboard-response",
		"trial_index": 90,
		"time_elapsed": 284875,
		"internal_node_id": "0.0-3.0-1.61"
	},
	{
		"rt": 1149,
		"stimulus": "../audio/43-8-masc.mp3",
		"response": " ",
		"word": "na",
		"trial_type": "audio-keyboard-response",
		"trial_index": 91,
		"time_elapsed": 286374,
		"internal_node_id": "0.0-3.0-1.62"
	},
	{
		"rt": 1149,
		"stimulus": "../audio/43-9-masc.mp3",
		"response": " ",
		"word": "casa.",
		"trial_type": "audio-keyboard-response",
		"trial_index": 92,
		"time_elapsed": 287869,
		"internal_node_id": "0.0-3.0-1.63"
	},
	{
		"rt": null,
		"stimulus": "<span style= \"font-size:30px; font-family: monospace\">+</span>",
		"response": null,
		"trial_part": "fixation",
		"trial_type": "html-keyboard-response",
		"trial_index": 93,
		"time_elapsed": 289140,
		"internal_node_id": "0.0-3.0-0.64-0.64"
	},
	{
		"rt": 1608,
		"stimulus": "../audio/44-1-fem.mp3",
		"response": " ",
		"word": "Meus",
		"trial_type": "audio-keyboard-response",
		"trial_index": 94,
		"time_elapsed": 291129,
		"internal_node_id": "0.0-3.0-1.64"
	},
	{
		"rt": 1509,
		"stimulus": "../audio/44-2-fem.mp3",
		"response": " ",
		"word": "irmãos",
		"trial_type": "audio-keyboard-response",
		"trial_index": 95,
		"time_elapsed": 292991,
		"internal_node_id": "0.0-3.0-1.65"
	},
	{
		"rt": 1120,
		"stimulus": "../audio/44-3-fem.mp3",
		"response": " ",
		"word": "brigam",
		"trial_type": "audio-keyboard-response",
		"trial_index": 96,
		"time_elapsed": 294460,
		"internal_node_id": "0.0-3.0-1.66"
	},
	{
		"rt": 640,
		"stimulus": "../audio/44-4-fem.mp3",
		"response": " ",
		"word": "por",
		"trial_type": "audio-keyboard-response",
		"trial_index": 97,
		"time_elapsed": 295437,
		"internal_node_id": "0.0-3.0-1.67"
	},
	{
		"rt": 931,
		"stimulus": "../audio/44-5-fem.mp3",
		"response": " ",
		"word": "bobagem",
		"trial_type": "audio-keyboard-response",
		"trial_index": 98,
		"time_elapsed": 296699,
		"internal_node_id": "0.0-3.0-1.68"
	},
	{
		"rt": 720,
		"stimulus": "../audio/44-6-fem.mp3",
		"response": " ",
		"word": "todos",
		"trial_type": "audio-keyboard-response",
		"trial_index": 99,
		"time_elapsed": 297760,
		"internal_node_id": "0.0-3.0-1.69"
	},
	{
		"rt": 712,
		"stimulus": "../audio/44-7-fem.mp3",
		"response": " ",
		"word": "os",
		"trial_type": "audio-keyboard-response",
		"trial_index": 100,
		"time_elapsed": 298809,
		"internal_node_id": "0.0-3.0-1.70"
	},
	{
		"rt": 1080,
		"stimulus": "../audio/44-8-fem.mp3",
		"response": " ",
		"word": "dias.",
		"trial_type": "audio-keyboard-response",
		"trial_index": 101,
		"time_elapsed": 300235,
		"internal_node_id": "0.0-3.0-1.71"
	},
	{
		"rt": null,
		"stimulus": "<span style= \"font-size:30px; font-family: monospace\">+</span>",
		"response": null,
		"trial_part": "fixation",
		"trial_type": "html-keyboard-response",
		"trial_index": 102,
		"time_elapsed": 301504,
		"internal_node_id": "0.0-3.0-0.72-0.72"
	},
	{
		"rt": 1011,
		"stimulus": "../audio/45-1-masc.mp3",
		"response": " ",
		"word": "O",
		"trial_type": "audio-keyboard-response",
		"trial_index": 103,
		"time_elapsed": 302899,
		"internal_node_id": "0.0-3.0-1.72"
	},
	{
		"rt": 1189,
		"stimulus": "../audio/45-2-masc.mp3",
		"response": " ",
		"word": "homem",
		"trial_type": "audio-keyboard-response",
		"trial_index": 104,
		"time_elapsed": 304431,
		"internal_node_id": "0.0-3.0-1.73"
	},
	{
		"rt": 829,
		"stimulus": "../audio/45-3-masc.mp3",
		"response": " ",
		"word": "pagou",
		"trial_type": "audio-keyboard-response",
		"trial_index": 105,
		"time_elapsed": 305627,
		"internal_node_id": "0.0-3.0-1.74"
	},
	{
		"rt": 851,
		"stimulus": "../audio/45-4-masc.mp3",
		"response": " ",
		"word": "o",
		"trial_type": "audio-keyboard-response",
		"trial_index": 106,
		"time_elapsed": 306820,
		"internal_node_id": "0.0-3.0-1.75"
	},
	{
		"rt": 989,
		"stimulus": "../audio/45-5-masc.mp3",
		"response": " ",
		"word": "aluguel",
		"trial_type": "audio-keyboard-response",
		"trial_index": 107,
		"time_elapsed": 308151,
		"internal_node_id": "0.0-3.0-1.76"
	},
	{
		"rt": 869,
		"stimulus": "../audio/45-6-masc.mp3",
		"response": " ",
		"word": "com",
		"trial_type": "audio-keyboard-response",
		"trial_index": 108,
		"time_elapsed": 309350,
		"internal_node_id": "0.0-3.0-1.77"
	},
	{
		"rt": 1192,
		"stimulus": "../audio/45-7-masc.mp3",
		"response": " ",
		"word": "atraso.",
		"trial_type": "audio-keyboard-response",
		"trial_index": 109,
		"time_elapsed": 310887,
		"internal_node_id": "0.0-3.0-1.78"
	},
	{
		"rt": 1814,
		"stimulus": "<span style=\"font-size:25px; font-family: monospace\">O homem pagou o aluguel em dia?</span>",
		"response": "n",
		"question": "O homem pagou o aluguel em dia?",
		"answer": "null",
		"trial": "exp-sent",
		"trial_type": "html-keyboard-response",
		"trial_index": 110,
		"time_elapsed": 312960,
		"internal_node_id": "0.0-3.0-2.78-0.78",
		"accuracy": false
	},
	{
		"rt": null,
		"stimulus": "<span style= \"font-size:30px; font-family: monospace\">+</span>",
		"response": null,
		"trial_part": "fixation",
		"trial_type": "html-keyboard-response",
		"trial_index": 111,
		"time_elapsed": 314475,
		"internal_node_id": "0.0-3.0-0.79-0.79"
	},
	{
		"rt": 1101,
		"stimulus": "../audio/58-1-masc.mp3",
		"response": " ",
		"word": "Havia",
		"trial_type": "audio-keyboard-response",
		"trial_index": 112,
		"time_elapsed": 315952,
		"internal_node_id": "0.0-3.0-1.79"
	},
	{
		"rt": 989,
		"stimulus": "../audio/58-2-masc.mp3",
		"response": " ",
		"word": "apenas",
		"trial_type": "audio-keyboard-response",
		"trial_index": 113,
		"time_elapsed": 317302,
		"internal_node_id": "0.0-3.0-1.80"
	},
	{
		"rt": 760,
		"stimulus": "../audio/58-3-masc.mp3",
		"response": " ",
		"word": "um",
		"trial_type": "audio-keyboard-response",
		"trial_index": 114,
		"time_elapsed": 318403,
		"internal_node_id": "0.0-3.0-1.81"
	},
	{
		"rt": 1139,
		"stimulus": "../audio/58-4-masc.mp3",
		"response": " ",
		"word": "último",
		"trial_type": "audio-keyboard-response",
		"trial_index": 115,
		"time_elapsed": 319892,
		"internal_node_id": "0.0-3.0-1.82"
	},
	{
		"rt": 1080,
		"stimulus": "../audio/58-5-masc.mp3",
		"response": " ",
		"word": "herdeiro",
		"trial_type": "audio-keyboard-response",
		"trial_index": 116,
		"time_elapsed": 321310,
		"internal_node_id": "0.0-3.0-1.83"
	},
	{
		"rt": 779,
		"stimulus": "../audio/58-6-masc.mp3",
		"response": " ",
		"word": "do",
		"trial_type": "audio-keyboard-response",
		"trial_index": 117,
		"time_elapsed": 322426,
		"internal_node_id": "0.0-3.0-1.84"
	},
	{
		"rt": 960,
		"stimulus": "../audio/58-7-masc.mp3",
		"response": " ",
		"word": "dinheiro.",
		"trial_type": "audio-keyboard-response",
		"trial_index": 118,
		"time_elapsed": 323736,
		"internal_node_id": "0.0-3.0-1.85"
	},
	{
		"rt": null,
		"stimulus": "<span style= \"font-size:30px; font-family: monospace\">+</span>",
		"response": null,
		"trial_part": "fixation",
		"trial_type": "html-keyboard-response",
		"trial_index": 119,
		"time_elapsed": 325003,
		"internal_node_id": "0.0-3.0-0.86-0.86"
	},
	{
		"rt": 821,
		"stimulus": "../audio/57-1-masc.mp3",
		"response": " ",
		"word": "O",
		"trial_type": "audio-keyboard-response",
		"trial_index": 120,
		"time_elapsed": 326208,
		"internal_node_id": "0.0-3.0-1.86"
	},
	{
		"rt": 1059,
		"stimulus": "../audio/57-2-masc.mp3",
		"response": " ",
		"word": "capitão",
		"trial_type": "audio-keyboard-response",
		"trial_index": 121,
		"time_elapsed": 327624,
		"internal_node_id": "0.0-3.0-1.87"
	},
	{
		"rt": 848,
		"stimulus": "../audio/57-3-masc.mp3",
		"response": " ",
		"word": "deu",
		"trial_type": "audio-keyboard-response",
		"trial_index": 122,
		"time_elapsed": 328814,
		"internal_node_id": "0.0-3.0-1.88"
	},
	{
		"rt": 899,
		"stimulus": "../audio/57-4-masc.mp3",
		"response": " ",
		"word": "uma",
		"trial_type": "audio-keyboard-response",
		"trial_index": 123,
		"time_elapsed": 330059,
		"internal_node_id": "0.0-3.0-1.89"
	},
	{
		"rt": 1048,
		"stimulus": "../audio/57-5-masc.mp3",
		"response": " ",
		"word": "instrução",
		"trial_type": "audio-keyboard-response",
		"trial_index": 124,
		"time_elapsed": 331452,
		"internal_node_id": "0.0-3.0-1.90"
	},
	{
		"rt": 760,
		"stimulus": "../audio/57-6-masc.mp3",
		"response": " ",
		"word": "para",
		"trial_type": "audio-keyboard-response",
		"trial_index": 125,
		"time_elapsed": 332541,
		"internal_node_id": "0.0-3.0-1.91"
	},
	{
		"rt": 699,
		"stimulus": "../audio/57-7-masc.mp3",
		"response": " ",
		"word": "as",
		"trial_type": "audio-keyboard-response",
		"trial_index": 126,
		"time_elapsed": 333569,
		"internal_node_id": "0.0-3.0-1.92"
	},
	{
		"rt": 771,
		"stimulus": "../audio/57-8-masc.mp3",
		"response": " ",
		"word": "pessoas.",
		"trial_type": "audio-keyboard-response",
		"trial_index": 127,
		"time_elapsed": 334685,
		"internal_node_id": "0.0-3.0-1.93"
	},
	{
		"rt": null,
		"stimulus": "<span style= \"font-size:30px; font-family: monospace\">+</span>",
		"response": null,
		"trial_part": "fixation",
		"trial_type": "html-keyboard-response",
		"trial_index": 128,
		"time_elapsed": 335948,
		"internal_node_id": "0.0-3.0-0.94-0.94"
	},
	{
		"rt": 1000,
		"stimulus": "../audio/56-1-masc.mp3",
		"response": " ",
		"word": "A",
		"trial_type": "audio-keyboard-response",
		"trial_index": 129,
		"time_elapsed": 337328,
		"internal_node_id": "0.0-3.0-1.94"
	},
	{
		"rt": 979,
		"stimulus": "../audio/56-2-masc.mp3",
		"response": " ",
		"word": "moça",
		"trial_type": "audio-keyboard-response",
		"trial_index": 130,
		"time_elapsed": 338656,
		"internal_node_id": "0.0-3.0-1.95"
	},
	{
		"rt": 821,
		"stimulus": "../audio/56-3-masc.mp3",
		"response": " ",
		"word": "foi",
		"trial_type": "audio-keyboard-response",
		"trial_index": 131,
		"time_elapsed": 339803,
		"internal_node_id": "0.0-3.0-1.96"
	},
	{
		"rt": 669,
		"stimulus": "../audio/56-4-masc.mp3",
		"response": " ",
		"word": "à",
		"trial_type": "audio-keyboard-response",
		"trial_index": 132,
		"time_elapsed": 340819,
		"internal_node_id": "0.0-3.0-1.97"
	},
	{
		"rt": 859,
		"stimulus": "../audio/56-5-masc.mp3",
		"response": " ",
		"word": "agência",
		"trial_type": "audio-keyboard-response",
		"trial_index": 133,
		"time_elapsed": 342028,
		"internal_node_id": "0.0-3.0-1.98"
	},
	{
		"rt": 861,
		"stimulus": "../audio/56-6-masc.mp3",
		"response": " ",
		"word": "bancária",
		"trial_type": "audio-keyboard-response",
		"trial_index": 134,
		"time_elapsed": 343248,
		"internal_node_id": "0.0-3.0-1.99"
	},
	{
		"rt": 931,
		"stimulus": "../audio/56-7-masc.mp3",
		"response": " ",
		"word": "ontem",
		"trial_type": "audio-keyboard-response",
		"trial_index": 135,
		"time_elapsed": 344519,
		"internal_node_id": "0.0-3.0-1.100"
	},
	{
		"rt": 872,
		"stimulus": "../audio/56-8-masc.mp3",
		"response": " ",
		"word": "de",
		"trial_type": "audio-keyboard-response",
		"trial_index": 136,
		"time_elapsed": 345719,
		"internal_node_id": "0.0-3.0-1.101"
	},
	{
		"rt": 920,
		"stimulus": "../audio/56-9-masc.mp3",
		"response": " ",
		"word": "tarde.",
		"trial_type": "audio-keyboard-response",
		"trial_index": 137,
		"time_elapsed": 346985,
		"internal_node_id": "0.0-3.0-1.102"
	},
	{
		"rt": null,
		"stimulus": "<span style= \"font-size:30px; font-family: monospace\">+</span>",
		"response": null,
		"trial_part": "fixation",
		"trial_type": "html-keyboard-response",
		"trial_index": 138,
		"time_elapsed": 348249,
		"internal_node_id": "0.0-3.0-0.103-0.103"
	},
	{
		"rt": 1080,
		"stimulus": "../audio/59-1-fem.mp3",
		"response": " ",
		"word": "O",
		"trial_type": "audio-keyboard-response",
		"trial_index": 139,
		"time_elapsed": 349705,
		"internal_node_id": "0.0-3.0-1.103"
	},
	{
		"rt": 880,
		"stimulus": "../audio/59-2-fem.mp3",
		"response": " ",
		"word": "carteiro",
		"trial_type": "audio-keyboard-response",
		"trial_index": 140,
		"time_elapsed": 350945,
		"internal_node_id": "0.0-3.0-1.104"
	},
	{
		"rt": 1000,
		"stimulus": "../audio/59-3-fem.mp3",
		"response": " ",
		"word": "fez",
		"trial_type": "audio-keyboard-response",
		"trial_index": 141,
		"time_elapsed": 352287,
		"internal_node_id": "0.0-3.0-1.105"
	},
	{
		"rt": 800,
		"stimulus": "../audio/59-4-fem.mp3",
		"response": " ",
		"word": "uma",
		"trial_type": "audio-keyboard-response",
		"trial_index": 142,
		"time_elapsed": 353431,
		"internal_node_id": "0.0-3.0-1.106"
	},
	{
		"rt": 1272,
		"stimulus": "../audio/59-5-fem.mp3",
		"response": " ",
		"word": "tentativa",
		"trial_type": "audio-keyboard-response",
		"trial_index": 143,
		"time_elapsed": 355040,
		"internal_node_id": "0.0-3.0-1.107"
	},
	{
		"rt": 861,
		"stimulus": "../audio/59-6-fem.mp3",
		"response": " ",
		"word": "de",
		"trial_type": "audio-keyboard-response",
		"trial_index": 144,
		"time_elapsed": 356235,
		"internal_node_id": "0.0-3.0-1.108"
	},
	{
		"rt": 1251,
		"stimulus": "../audio/59-7-fem.mp3",
		"response": " ",
		"word": "entrega.",
		"trial_type": "audio-keyboard-response",
		"trial_index": 145,
		"time_elapsed": 357842,
		"internal_node_id": "0.0-3.0-1.109"
	},
	{
		"rt": null,
		"stimulus": "<span style= \"font-size:30px; font-family: monospace\">+</span>",
		"response": null,
		"trial_part": "fixation",
		"trial_type": "html-keyboard-response",
		"trial_index": 146,
		"time_elapsed": 359109,
		"internal_node_id": "0.0-3.0-0.110-0.110"
	},
	{
		"rt": 2181,
		"stimulus": "../audio/60-1-masc.mp3",
		"response": " ",
		"word": "Ondas",
		"trial_type": "audio-keyboard-response",
		"trial_index": 147,
		"time_elapsed": 361674,
		"internal_node_id": "0.0-3.0-1.110"
	},
	{
		"rt": 1120,
		"stimulus": "../audio/60-2-masc.mp3",
		"response": " ",
		"word": "têm",
		"trial_type": "audio-keyboard-response",
		"trial_index": 148,
		"time_elapsed": 363180,
		"internal_node_id": "0.0-3.0-1.111"
	},
	{
		"rt": 909,
		"stimulus": "../audio/60-3-masc.mp3",
		"response": " ",
		"word": "um",
		"trial_type": "audio-keyboard-response",
		"trial_index": 149,
		"time_elapsed": 364421,
		"internal_node_id": "0.0-3.0-1.112"
	},
	{
		"rt": 1461,
		"stimulus": "../audio/60-4-masc.mp3",
		"response": " ",
		"word": "impacto",
		"trial_type": "audio-keyboard-response",
		"trial_index": 150,
		"time_elapsed": 366235,
		"internal_node_id": "0.0-3.0-1.113"
	},
	{
		"rt": 1469,
		"stimulus": "../audio/60-5-masc.mp3",
		"response": " ",
		"word": "destrutivo",
		"trial_type": "audio-keyboard-response",
		"trial_index": 151,
		"time_elapsed": 368051,
		"internal_node_id": "0.0-3.0-1.114"
	},
	{
		"rt": 1029,
		"stimulus": "../audio/60-6-masc.mp3",
		"response": " ",
		"word": "no",
		"trial_type": "audio-keyboard-response",
		"trial_index": 152,
		"time_elapsed": 369410,
		"internal_node_id": "0.0-3.0-1.115"
	},
	{
		"rt": 1440,
		"stimulus": "../audio/60-7-masc.mp3",
		"response": " ",
		"word": "litoral.",
		"trial_type": "audio-keyboard-response",
		"trial_index": 153,
		"time_elapsed": 371190,
		"internal_node_id": "0.0-3.0-1.116"
	},
	{
		"rt": 3877,
		"stimulus": "<span style=\"font-size:25px; font-family: monospace\">Ondas têm um impacto destrutivo?</span>",
		"response": "s",
		"question": "Ondas têm um impacto destrutivo?",
		"answer": "null",
		"trial": "exp-sent",
		"trial_type": "html-keyboard-response",
		"trial_index": 154,
		"time_elapsed": 375324,
		"internal_node_id": "0.0-3.0-2.116-0.116",
		"accuracy": false
	},
	{
		"rt": null,
		"stimulus": "<span style= \"font-size:30px; font-family: monospace\">+</span>",
		"response": null,
		"trial_part": "fixation",
		"trial_type": "html-keyboard-response",
		"trial_index": 155,
		"time_elapsed": 376839,
		"internal_node_id": "0.0-3.0-0.117-0.117"
	},
	{
		"rt": 1160,
		"stimulus": "../audio/28-1-fem.mp3",
		"response": " ",
		"word": "O",
		"trial_type": "audio-keyboard-response",
		"trial_index": 156,
		"time_elapsed": 378390,
		"internal_node_id": "0.0-3.0-1.117"
	},
	{
		"rt": 1019,
		"stimulus": "../audio/28-2-fem.mp3",
		"response": " ",
		"word": "time",
		"trial_type": "audio-keyboard-response",
		"trial_index": 157,
		"time_elapsed": 379783,
		"internal_node_id": "0.0-3.0-1.118"
	},
	{
		"rt": 1032,
		"stimulus": "../audio/28-3-fem.mp3",
		"response": " ",
		"word": "quer",
		"trial_type": "audio-keyboard-response",
		"trial_index": 158,
		"time_elapsed": 381169,
		"internal_node_id": "0.0-3.0-1.119"
	},
	{
		"rt": 869,
		"stimulus": "../audio/28-4-fem.mp3",
		"response": " ",
		"word": "a",
		"trial_type": "audio-keyboard-response",
		"trial_index": 159,
		"time_elapsed": 382378,
		"internal_node_id": "0.0-3.0-1.120"
	},
	{
		"rt": 1381,
		"stimulus": "../audio/28-5-fem.mp3",
		"response": " ",
		"word": "vitória",
		"trial_type": "audio-keyboard-response",
		"trial_index": 160,
		"time_elapsed": 384109,
		"internal_node_id": "0.0-3.0-1.121"
	},
	{
		"rt": 968,
		"stimulus": "../audio/28-6-fem.mp3",
		"response": " ",
		"word": "no",
		"trial_type": "audio-keyboard-response",
		"trial_index": 161,
		"time_elapsed": 385412,
		"internal_node_id": "0.0-3.0-1.122"
	},
	{
		"rt": 1240,
		"stimulus": "../audio/28-7-fem.mp3",
		"response": " ",
		"word": "jogo",
		"trial_type": "audio-keyboard-response",
		"trial_index": 162,
		"time_elapsed": 386996,
		"internal_node_id": "0.0-3.0-1.123"
	},
	{
		"rt": 1171,
		"stimulus": "../audio/28-8-fem.mp3",
		"response": " ",
		"word": "de",
		"trial_type": "audio-keyboard-response",
		"trial_index": 163,
		"time_elapsed": 388501,
		"internal_node_id": "0.0-3.0-1.124"
	},
	{
		"rt": 1619,
		"stimulus": "../audio/28-9-fem.mp3",
		"response": " ",
		"word": "vôlei.",
		"trial_type": "audio-keyboard-response",
		"trial_index": 164,
		"time_elapsed": 390465,
		"internal_node_id": "0.0-3.0-1.125"
	},
	{
		"rt": null,
		"stimulus": "<span style= \"font-size:30px; font-family: monospace\">+</span>",
		"response": null,
		"trial_part": "fixation",
		"trial_type": "html-keyboard-response",
		"trial_index": 165,
		"time_elapsed": 391735,
		"internal_node_id": "0.0-3.0-0.126-0.126"
	},
	{
		"rt": 1299,
		"stimulus": "../audio/27-1-fem.mp3",
		"response": " ",
		"word": "O",
		"trial_type": "audio-keyboard-response",
		"trial_index": 166,
		"time_elapsed": 393414,
		"internal_node_id": "0.0-3.0-1.126"
	},
	{
		"rt": 1709,
		"stimulus": "../audio/27-2-fem.mp3",
		"response": " ",
		"word": "dinheiro",
		"trial_type": "audio-keyboard-response",
		"trial_index": 167,
		"time_elapsed": 395474,
		"internal_node_id": "0.0-3.0-1.127"
	},
	{
		"rt": 1251,
		"stimulus": "../audio/27-3-fem.mp3",
		"response": " ",
		"word": "chegou",
		"trial_type": "audio-keyboard-response",
		"trial_index": 168,
		"time_elapsed": 397102,
		"internal_node_id": "0.0-3.0-1.128"
	},
	{
		"rt": 1379,
		"stimulus": "../audio/27-4-fem.mp3",
		"response": " ",
		"word": "à",
		"trial_type": "audio-keyboard-response",
		"trial_index": 169,
		"time_elapsed": 398815,
		"internal_node_id": "0.0-3.0-1.129"
	},
	{
		"rt": 1560,
		"stimulus": "../audio/27-5-fem.mp3",
		"response": " ",
		"word": "elite",
		"trial_type": "audio-keyboard-response",
		"trial_index": 170,
		"time_elapsed": 400716,
		"internal_node_id": "0.0-3.0-1.130"
	},
	{
		"rt": 1381,
		"stimulus": "../audio/27-6-fem.mp3",
		"response": " ",
		"word": "deste",
		"trial_type": "audio-keyboard-response",
		"trial_index": 171,
		"time_elapsed": 402445,
		"internal_node_id": "0.0-3.0-1.131"
	},
	{
		"rt": 2371,
		"stimulus": "../audio/27-7-fem.mp3",
		"response": " ",
		"word": "país.",
		"trial_type": "audio-keyboard-response",
		"trial_index": 172,
		"time_elapsed": 405163,
		"internal_node_id": "0.0-3.0-1.132"
	},
	{
		"rt": null,
		"stimulus": "<span style= \"font-size:30px; font-family: monospace\">+</span>",
		"response": null,
		"trial_part": "fixation",
		"trial_type": "html-keyboard-response",
		"trial_index": 173,
		"time_elapsed": 406422,
		"internal_node_id": "0.0-3.0-0.133-0.133"
	},
	{
		"rt": 1328,
		"stimulus": "../audio/29-1-masc.mp3",
		"response": " ",
		"word": "Hoje",
		"trial_type": "audio-keyboard-response",
		"trial_index": 174,
		"time_elapsed": 408130,
		"internal_node_id": "0.0-3.0-1.133"
	},
	{
		"rt": 1211,
		"stimulus": "../audio/29-2-masc.mp3",
		"response": " ",
		"word": "vamos",
		"trial_type": "audio-keyboard-response",
		"trial_index": 175,
		"time_elapsed": 409679,
		"internal_node_id": "0.0-3.0-1.134"
	},
	{
		"rt": 1120,
		"stimulus": "../audio/29-3-masc.mp3",
		"response": " ",
		"word": "fazer",
		"trial_type": "audio-keyboard-response",
		"trial_index": 176,
		"time_elapsed": 411140,
		"internal_node_id": "0.0-3.0-1.135"
	},
	{
		"rt": 808,
		"stimulus": "../audio/29-4-masc.mp3",
		"response": " ",
		"word": "uma",
		"trial_type": "audio-keyboard-response",
		"trial_index": 177,
		"time_elapsed": 412290,
		"internal_node_id": "0.0-3.0-1.136"
	},
	{
		"rt": 1099,
		"stimulus": "../audio/29-5-masc.mp3",
		"response": " ",
		"word": "atividade",
		"trial_type": "audio-keyboard-response",
		"trial_index": 178,
		"time_elapsed": 413744,
		"internal_node_id": "0.0-3.0-1.137"
	},
	{
		"rt": 840,
		"stimulus": "../audio/29-6-masc.mp3",
		"response": " ",
		"word": "sobre",
		"trial_type": "audio-keyboard-response",
		"trial_index": 179,
		"time_elapsed": 414923,
		"internal_node_id": "0.0-3.0-1.138"
	},
	{
		"rt": 920,
		"stimulus": "../audio/29-7-masc.mp3",
		"response": " ",
		"word": "fauna",
		"trial_type": "audio-keyboard-response",
		"trial_index": 180,
		"time_elapsed": 416182,
		"internal_node_id": "0.0-3.0-1.139"
	},
	{
		"rt": 1349,
		"stimulus": "../audio/29-8-masc.mp3",
		"response": " ",
		"word": "marinha.",
		"trial_type": "audio-keyboard-response",
		"trial_index": 181,
		"time_elapsed": 418173,
		"internal_node_id": "0.0-3.0-1.140"
	},
	{
		"rt": null,
		"stimulus": "<span style= \"font-size:30px; font-family: monospace\">+</span>",
		"response": null,
		"trial_part": "fixation",
		"trial_type": "html-keyboard-response",
		"trial_index": 182,
		"time_elapsed": 419444,
		"internal_node_id": "0.0-3.0-0.141-0.141"
	},
	{
		"rt": 1160,
		"stimulus": "../audio/26-1-masc.mp3",
		"response": " ",
		"word": "Amanhã",
		"trial_type": "audio-keyboard-response",
		"trial_index": 183,
		"time_elapsed": 420980,
		"internal_node_id": "0.0-3.0-1.141"
	},
	{
		"rt": 1040,
		"stimulus": "../audio/26-2-masc.mp3",
		"response": " ",
		"word": "temos",
		"trial_type": "audio-keyboard-response",
		"trial_index": 184,
		"time_elapsed": 422365,
		"internal_node_id": "0.0-3.0-1.142"
	},
	{
		"rt": 1051,
		"stimulus": "../audio/26-3-masc.mp3",
		"response": " ",
		"word": "festa",
		"trial_type": "audio-keyboard-response",
		"trial_index": 185,
		"time_elapsed": 423769,
		"internal_node_id": "0.0-3.0-1.143"
	},
	{
		"rt": 1040,
		"stimulus": "../audio/26-4-masc.mp3",
		"response": " ",
		"word": "na",
		"trial_type": "audio-keyboard-response",
		"trial_index": 186,
		"time_elapsed": 425162,
		"internal_node_id": "0.0-3.0-1.144"
	},
	{
		"rt": 1141,
		"stimulus": "../audio/26-5-masc.mp3",
		"response": " ",
		"word": "piscina",
		"trial_type": "audio-keyboard-response",
		"trial_index": 187,
		"time_elapsed": 426643,
		"internal_node_id": "0.0-3.0-1.145"
	},
	{
		"rt": 1101,
		"stimulus": "../audio/26-6-masc.mp3",
		"response": " ",
		"word": "o",
		"trial_type": "audio-keyboard-response",
		"trial_index": 188,
		"time_elapsed": 428078,
		"internal_node_id": "0.0-3.0-1.146"
	},
	{
		"rt": 1141,
		"stimulus": "../audio/26-7-masc.mp3",
		"response": " ",
		"word": "dia",
		"trial_type": "audio-keyboard-response",
		"trial_index": 189,
		"time_elapsed": 429567,
		"internal_node_id": "0.0-3.0-1.147"
	},
	{
		"rt": 1549,
		"stimulus": "../audio/26-8-masc.mp3",
		"response": " ",
		"word": "todo.",
		"trial_type": "audio-keyboard-response",
		"trial_index": 190,
		"time_elapsed": 431466,
		"internal_node_id": "0.0-3.0-1.148"
	},
	{
		"rt": null,
		"stimulus": "<span style= \"font-size:30px; font-family: monospace\">+</span>",
		"response": null,
		"trial_part": "fixation",
		"trial_type": "html-keyboard-response",
		"trial_index": 191,
		"time_elapsed": 432737,
		"internal_node_id": "0.0-3.0-0.149-0.149"
	},
	{
		"rt": 1139,
		"stimulus": "../audio/30-1-masc.mp3",
		"response": " ",
		"word": "O",
		"trial_type": "audio-keyboard-response",
		"trial_index": 192,
		"time_elapsed": 434260,
		"internal_node_id": "0.0-3.0-1.149"
	},
	{
		"rt": 1488,
		"stimulus": "../audio/30-2-masc.mp3",
		"response": " ",
		"word": "funcionário",
		"trial_type": "audio-keyboard-response",
		"trial_index": 193,
		"time_elapsed": 436093,
		"internal_node_id": "0.0-3.0-1.150"
	},
	{
		"rt": 1280,
		"stimulus": "../audio/30-3-masc.mp3",
		"response": " ",
		"word": "entregou",
		"trial_type": "audio-keyboard-response",
		"trial_index": 194,
		"time_elapsed": 437721,
		"internal_node_id": "0.0-3.0-1.151"
	},
	{
		"rt": 1171,
		"stimulus": "../audio/30-4-masc.mp3",
		"response": " ",
		"word": "o",
		"trial_type": "audio-keyboard-response",
		"trial_index": 195,
		"time_elapsed": 439231,
		"internal_node_id": "0.0-3.0-1.152"
	},
	{
		"rt": 1771,
		"stimulus": "../audio/30-5-masc.mp3",
		"response": " ",
		"word": "restante",
		"trial_type": "audio-keyboard-response",
		"trial_index": 196,
		"time_elapsed": 441364,
		"internal_node_id": "0.0-3.0-1.153"
	},
	{
		"rt": 901,
		"stimulus": "../audio/30-6-masc.mp3",
		"response": " ",
		"word": "do",
		"trial_type": "audio-keyboard-response",
		"trial_index": 197,
		"time_elapsed": 442631,
		"internal_node_id": "0.0-3.0-1.154"
	},
	{
		"rt": 1360,
		"stimulus": "../audio/30-7-masc.mp3",
		"response": " ",
		"word": "dinheiro.",
		"trial_type": "audio-keyboard-response",
		"trial_index": 198,
		"time_elapsed": 444332,
		"internal_node_id": "0.0-3.0-1.155"
	},
	{
		"rt": 3178,
		"stimulus": "<span style=\"font-size:25px; font-family: monospace\">O funcionário entregou o contrato?</span>",
		"response": "n",
		"question": "O funcionário entregou o contrato?",
		"answer": "null",
		"trial": "exp-sent",
		"trial_type": "html-keyboard-response",
		"trial_index": 199,
		"time_elapsed": 447762,
		"internal_node_id": "0.0-3.0-2.155-0.155",
		"accuracy": false
	},
	{
		"rt": null,
		"stimulus": "<span style= \"font-size:30px; font-family: monospace\">+</span>",
		"response": null,
		"trial_part": "fixation",
		"trial_type": "html-keyboard-response",
		"trial_index": 200,
		"time_elapsed": 449273,
		"internal_node_id": "0.0-3.0-0.156-0.156"
	},
	{
		"rt": 1691,
		"stimulus": "../audio/07-1-masc.mp3",
		"response": " ",
		"word": "Meu",
		"trial_type": "audio-keyboard-response",
		"trial_index": 201,
		"time_elapsed": 451346,
		"internal_node_id": "0.0-3.0-1.156"
	},
	{
		"rt": 1211,
		"stimulus": "../audio/07-2-masc.mp3",
		"response": " ",
		"word": "filho",
		"trial_type": "audio-keyboard-response",
		"trial_index": 202,
		"time_elapsed": 452939,
		"internal_node_id": "0.0-3.0-1.157"
	},
	{
		"rt": 720,
		"stimulus": "../audio/07-3-masc.mp3",
		"response": " ",
		"word": "é",
		"trial_type": "audio-keyboard-response",
		"trial_index": 203,
		"time_elapsed": 454015,
		"internal_node_id": "0.0-3.0-1.158"
	},
	{
		"rt": 909,
		"stimulus": "../audio/07-4-masc.mp3",
		"response": " ",
		"word": "muito",
		"trial_type": "audio-keyboard-response",
		"trial_index": 204,
		"time_elapsed": 455269,
		"internal_node_id": "0.0-3.0-1.159"
	},
	{
		"rt": 1141,
		"stimulus": "../audio/07-5-masc.mp3",
		"response": " ",
		"word": "responsável",
		"trial_type": "audio-keyboard-response",
		"trial_index": 205,
		"time_elapsed": 456762,
		"internal_node_id": "0.0-3.0-1.160"
	},
	{
		"rt": 1099,
		"stimulus": "../audio/07-6-masc.mp3",
		"response": " ",
		"word": "nos",
		"trial_type": "audio-keyboard-response",
		"trial_index": 206,
		"time_elapsed": 458216,
		"internal_node_id": "0.0-3.0-1.161"
	},
	{
		"rt": 1059,
		"stimulus": "../audio/07-7-masc.mp3",
		"response": " ",
		"word": "estudos.",
		"trial_type": "audio-keyboard-response",
		"trial_index": 207,
		"time_elapsed": 459625,
		"internal_node_id": "0.0-3.0-1.162"
	},
	{
		"rt": null,
		"stimulus": "<span style= \"font-size:30px; font-family: monospace\">+</span>",
		"response": null,
		"trial_part": "fixation",
		"trial_type": "html-keyboard-response",
		"trial_index": 208,
		"time_elapsed": 460891,
		"internal_node_id": "0.0-3.0-0.163-0.163"
	},
	{
		"rt": 1459,
		"stimulus": "../audio/06-1-fem.mp3",
		"response": " ",
		"word": "Ouvimos",
		"trial_type": "audio-keyboard-response",
		"trial_index": 209,
		"time_elapsed": 462746,
		"internal_node_id": "0.0-3.0-1.163"
	},
	{
		"rt": 1000,
		"stimulus": "../audio/06-2-fem.mp3",
		"response": " ",
		"word": "a",
		"trial_type": "audio-keyboard-response",
		"trial_index": 210,
		"time_elapsed": 464084,
		"internal_node_id": "0.0-3.0-1.164"
	},
	{
		"rt": 1221,
		"stimulus": "../audio/06-3-fem.mp3",
		"response": " ",
		"word": "fala",
		"trial_type": "audio-keyboard-response",
		"trial_index": 211,
		"time_elapsed": 465645,
		"internal_node_id": "0.0-3.0-1.165"
	},
	{
		"rt": 949,
		"stimulus": "../audio/06-4-fem.mp3",
		"response": " ",
		"word": "do",
		"trial_type": "audio-keyboard-response",
		"trial_index": 212,
		"time_elapsed": 466937,
		"internal_node_id": "0.0-3.0-1.166"
	},
	{
		"rt": 1469,
		"stimulus": "../audio/06-5-fem.mp3",
		"response": " ",
		"word": "profeta",
		"trial_type": "audio-keyboard-response",
		"trial_index": 213,
		"time_elapsed": 468755,
		"internal_node_id": "0.0-3.0-1.167"
	},
	{
		"rt": 912,
		"stimulus": "../audio/06-6-fem.mp3",
		"response": " ",
		"word": "no",
		"trial_type": "audio-keyboard-response",
		"trial_index": 214,
		"time_elapsed": 470008,
		"internal_node_id": "0.0-3.0-1.168"
	},
	{
		"rt": 1371,
		"stimulus": "../audio/06-7-fem.mp3",
		"response": " ",
		"word": "púlpito",
		"trial_type": "audio-keyboard-response",
		"trial_index": 215,
		"time_elapsed": 471727,
		"internal_node_id": "0.0-3.0-1.169"
	},
	{
		"rt": 1560,
		"stimulus": "../audio/06-8-fem.mp3",
		"response": " ",
		"word": "da",
		"trial_type": "audio-keyboard-response",
		"trial_index": 216,
		"time_elapsed": 473611,
		"internal_node_id": "0.0-3.0-1.170"
	},
	{
		"rt": 1659,
		"stimulus": "../audio/06-9-fem.mp3",
		"response": " ",
		"word": "igreja.",
		"trial_type": "audio-keyboard-response",
		"trial_index": 217,
		"time_elapsed": 475623,
		"internal_node_id": "0.0-3.0-1.171"
	},
	{
		"rt": null,
		"stimulus": "<span style= \"font-size:30px; font-family: monospace\">+</span>",
		"response": null,
		"trial_part": "fixation",
		"trial_type": "html-keyboard-response",
		"trial_index": 218,
		"time_elapsed": 476897,
		"internal_node_id": "0.0-3.0-0.172-0.172"
	},
	{
		"rt": 869,
		"stimulus": "../audio/09-1-masc.mp3",
		"response": " ",
		"word": "O",
		"trial_type": "audio-keyboard-response",
		"trial_index": 219,
		"time_elapsed": 478150,
		"internal_node_id": "0.0-3.0-1.172"
	},
	{
		"rt": 891,
		"stimulus": "../audio/09-2-masc.mp3",
		"response": " ",
		"word": "rapaz",
		"trial_type": "audio-keyboard-response",
		"trial_index": 220,
		"time_elapsed": 479387,
		"internal_node_id": "0.0-3.0-1.173"
	},
	{
		"rt": 672,
		"stimulus": "../audio/09-3-masc.mp3",
		"response": " ",
		"word": "limpou",
		"trial_type": "audio-keyboard-response",
		"trial_index": 221,
		"time_elapsed": 480404,
		"internal_node_id": "0.0-3.0-1.174"
	},
	{
		"rt": 872,
		"stimulus": "../audio/09-4-masc.mp3",
		"response": " ",
		"word": "o",
		"trial_type": "audio-keyboard-response",
		"trial_index": 222,
		"time_elapsed": 481609,
		"internal_node_id": "0.0-3.0-1.175"
	},
	{
		"rt": 880,
		"stimulus": "../audio/09-5-masc.mp3",
		"response": " ",
		"word": "terreno",
		"trial_type": "audio-keyboard-response",
		"trial_index": 223,
		"time_elapsed": 482840,
		"internal_node_id": "0.0-3.0-1.176"
	},
	{
		"rt": 632,
		"stimulus": "../audio/09-6-masc.mp3",
		"response": " ",
		"word": "com",
		"trial_type": "audio-keyboard-response",
		"trial_index": 224,
		"time_elapsed": 483808,
		"internal_node_id": "0.0-3.0-1.177"
	},
	{
		"rt": 800,
		"stimulus": "../audio/09-7-masc.mp3",
		"response": " ",
		"word": "uma",
		"trial_type": "audio-keyboard-response",
		"trial_index": 225,
		"time_elapsed": 484954,
		"internal_node_id": "0.0-3.0-1.178"
	},
	{
		"rt": 661,
		"stimulus": "../audio/09-8-masc.mp3",
		"response": " ",
		"word": "pá.",
		"trial_type": "audio-keyboard-response",
		"trial_index": 226,
		"time_elapsed": 485950,
		"internal_node_id": "0.0-3.0-1.179"
	},
	{
		"rt": null,
		"stimulus": "<span style= \"font-size:30px; font-family: monospace\">+</span>",
		"response": null,
		"trial_part": "fixation",
		"trial_type": "html-keyboard-response",
		"trial_index": 227,
		"time_elapsed": 487202,
		"internal_node_id": "0.0-3.0-0.180-0.180"
	},
	{
		"rt": 901,
		"stimulus": "../audio/08-1-masc.mp3",
		"response": " ",
		"word": "A",
		"trial_type": "audio-keyboard-response",
		"trial_index": 228,
		"time_elapsed": 488482,
		"internal_node_id": "0.0-3.0-1.180"
	},
	{
		"rt": 1171,
		"stimulus": "../audio/08-2-masc.mp3",
		"response": " ",
		"word": "receita",
		"trial_type": "audio-keyboard-response",
		"trial_index": 229,
		"time_elapsed": 489997,
		"internal_node_id": "0.0-3.0-1.181"
	},
	{
		"rt": 941,
		"stimulus": "../audio/08-3-masc.mp3",
		"response": " ",
		"word": "pede",
		"trial_type": "audio-keyboard-response",
		"trial_index": 230,
		"time_elapsed": 491280,
		"internal_node_id": "0.0-3.0-1.182"
	},
	{
		"rt": 651,
		"stimulus": "../audio/08-4-masc.mp3",
		"response": " ",
		"word": "um",
		"trial_type": "audio-keyboard-response",
		"trial_index": 231,
		"time_elapsed": 492269,
		"internal_node_id": "0.0-3.0-1.183"
	},
	{
		"rt": 901,
		"stimulus": "../audio/08-5-masc.mp3",
		"response": " ",
		"word": "litro",
		"trial_type": "audio-keyboard-response",
		"trial_index": 232,
		"time_elapsed": 493520,
		"internal_node_id": "0.0-3.0-1.184"
	},
	{
		"rt": 648,
		"stimulus": "../audio/08-6-masc.mp3",
		"response": " ",
		"word": "de",
		"trial_type": "audio-keyboard-response",
		"trial_index": 233,
		"time_elapsed": 494498,
		"internal_node_id": "0.0-3.0-1.185"
	},
	{
		"rt": 709,
		"stimulus": "../audio/08-7-masc.mp3",
		"response": " ",
		"word": "leite",
		"trial_type": "audio-keyboard-response",
		"trial_index": 234,
		"time_elapsed": 495546,
		"internal_node_id": "0.0-3.0-1.186"
	},
	{
		"rt": 701,
		"stimulus": "../audio/08-8-masc.mp3",
		"response": " ",
		"word": "integral.",
		"trial_type": "audio-keyboard-response",
		"trial_index": 235,
		"time_elapsed": 496595,
		"internal_node_id": "0.0-3.0-1.187"
	},
	{
		"rt": null,
		"stimulus": "<span style= \"font-size:30px; font-family: monospace\">+</span>",
		"response": null,
		"trial_part": "fixation",
		"trial_type": "html-keyboard-response",
		"trial_index": 236,
		"time_elapsed": 497849,
		"internal_node_id": "0.0-3.0-0.188-0.188"
	},
	{
		"rt": 1221,
		"stimulus": "../audio/10-1-masc.mp3",
		"response": " ",
		"word": "O",
		"trial_type": "audio-keyboard-response",
		"trial_index": 237,
		"time_elapsed": 499515,
		"internal_node_id": "0.0-3.0-1.188"
	},
	{
		"rt": 1011,
		"stimulus": "../audio/10-2-masc.mp3",
		"response": " ",
		"word": "pássaro",
		"trial_type": "audio-keyboard-response",
		"trial_index": 238,
		"time_elapsed": 500882,
		"internal_node_id": "0.0-3.0-1.189"
	},
	{
		"rt": 859,
		"stimulus": "../audio/10-3-masc.mp3",
		"response": " ",
		"word": "azul",
		"trial_type": "audio-keyboard-response",
		"trial_index": 239,
		"time_elapsed": 502097,
		"internal_node_id": "0.0-3.0-1.190"
	},
	{
		"rt": 1219,
		"stimulus": "../audio/10-4-masc.mp3",
		"response": " ",
		"word": "estava",
		"trial_type": "audio-keyboard-response",
		"trial_index": 240,
		"time_elapsed": 503659,
		"internal_node_id": "0.0-3.0-1.191"
	},
	{
		"rt": 939,
		"stimulus": "../audio/10-5-masc.mp3",
		"response": " ",
		"word": "vivo",
		"trial_type": "audio-keyboard-response",
		"trial_index": 241,
		"time_elapsed": 504946,
		"internal_node_id": "0.0-3.0-1.192"
	},
	{
		"rt": 909,
		"stimulus": "../audio/10-6-masc.mp3",
		"response": " ",
		"word": "e",
		"trial_type": "audio-keyboard-response",
		"trial_index": 242,
		"time_elapsed": 506183,
		"internal_node_id": "0.0-3.0-1.193"
	},
	{
		"rt": 960,
		"stimulus": "../audio/10-7-masc.mp3",
		"response": " ",
		"word": "em",
		"trial_type": "audio-keyboard-response",
		"trial_index": 243,
		"time_elapsed": 507479,
		"internal_node_id": "0.0-3.0-1.194"
	},
	{
		"rt": 1651,
		"stimulus": "../audio/10-8-masc.mp3",
		"response": " ",
		"word": "segurança.",
		"trial_type": "audio-keyboard-response",
		"trial_index": 244,
		"time_elapsed": 509478,
		"internal_node_id": "0.0-3.0-1.195"
	},
	{
		"rt": 4119,
		"stimulus": "<span style=\"font-size:25px; font-family: monospace\">O pássaro vermelho estava em segurança?</span>",
		"response": "n",
		"question": "O pássaro vermelho estava em segurança?",
		"answer": "null",
		"trial": "exp-sent",
		"trial_type": "html-keyboard-response",
		"trial_index": 245,
		"time_elapsed": 513853,
		"internal_node_id": "0.0-3.0-2.195-0.195",
		"accuracy": false
	},
	{
		"rt": null,
		"stimulus": "<span style= \"font-size:30px; font-family: monospace\">+</span>",
		"response": null,
		"trial_part": "fixation",
		"trial_type": "html-keyboard-response",
		"trial_index": 246,
		"time_elapsed": 515365,
		"internal_node_id": "0.0-3.0-0.196-0.196"
	},
	{
		"rt": 1109,
		"stimulus": "../audio/32-1-fem.mp3",
		"response": " ",
		"word": "A",
		"trial_type": "audio-keyboard-response",
		"trial_index": 247,
		"time_elapsed": 516864,
		"internal_node_id": "0.0-3.0-1.196"
	},
	{
		"rt": 2560,
		"stimulus": "../audio/32-2-fem.mp3",
		"response": " ",
		"word": "tia",
		"trial_type": "audio-keyboard-response",
		"trial_index": 248,
		"time_elapsed": 519771,
		"internal_node_id": "0.0-3.0-1.197"
	},
	{
		"rt": 1389,
		"stimulus": "../audio/32-3-fem.mp3",
		"response": " ",
		"word": "comprou",
		"trial_type": "audio-keyboard-response",
		"trial_index": 249,
		"time_elapsed": 521545,
		"internal_node_id": "0.0-3.0-1.198"
	},
	{
		"rt": 739,
		"stimulus": "../audio/32-4-fem.mp3",
		"response": " ",
		"word": "um",
		"trial_type": "audio-keyboard-response",
		"trial_index": 250,
		"time_elapsed": 522610,
		"internal_node_id": "0.0-3.0-1.199"
	},
	{
		"rt": 739,
		"stimulus": "../audio/32-5-fem.mp3",
		"response": " ",
		"word": "pilão",
		"trial_type": "audio-keyboard-response",
		"trial_index": 251,
		"time_elapsed": 523705,
		"internal_node_id": "0.0-3.0-1.200"
	},
	{
		"rt": 1088,
		"stimulus": "../audio/32-6-fem.mp3",
		"response": " ",
		"word": "para",
		"trial_type": "audio-keyboard-response",
		"trial_index": 252,
		"time_elapsed": 525129,
		"internal_node_id": "0.0-3.0-1.201"
	},
	{
		"rt": 909,
		"stimulus": "../audio/32-7-fem.mp3",
		"response": " ",
		"word": "a",
		"trial_type": "audio-keyboard-response",
		"trial_index": 253,
		"time_elapsed": 526387,
		"internal_node_id": "0.0-3.0-1.202"
	},
	{
		"rt": 1400,
		"stimulus": "../audio/32-8-fem.mp3",
		"response": " ",
		"word": "cozinha.",
		"trial_type": "audio-keyboard-response",
		"trial_index": 254,
		"time_elapsed": 528136,
		"internal_node_id": "0.0-3.0-1.203"
	},
	{
		"rt": null,
		"stimulus": "<span style= \"font-size:30px; font-family: monospace\">+</span>",
		"response": null,
		"trial_part": "fixation",
		"trial_type": "html-keyboard-response",
		"trial_index": 255,
		"time_elapsed": 529412,
		"internal_node_id": "0.0-3.0-0.204-0.204"
	},
	{
		"rt": 1109,
		"stimulus": "../audio/33-1-masc.mp3",
		"response": " ",
		"word": "Eles",
		"trial_type": "audio-keyboard-response",
		"trial_index": 256,
		"time_elapsed": 530917,
		"internal_node_id": "0.0-3.0-1.204"
	},
	{
		"rt": 1101,
		"stimulus": "../audio/33-2-masc.mp3",
		"response": " ",
		"word": "sabem",
		"trial_type": "audio-keyboard-response",
		"trial_index": 257,
		"time_elapsed": 532365,
		"internal_node_id": "0.0-3.0-1.205"
	},
	{
		"rt": 1141,
		"stimulus": "../audio/33-3-masc.mp3",
		"response": " ",
		"word": "do",
		"trial_type": "audio-keyboard-response",
		"trial_index": 258,
		"time_elapsed": 533840,
		"internal_node_id": "0.0-3.0-1.206"
	},
	{
		"rt": 1499,
		"stimulus": "../audio/33-4-masc.mp3",
		"response": " ",
		"word": "seu",
		"trial_type": "audio-keyboard-response",
		"trial_index": 259,
		"time_elapsed": 535694,
		"internal_node_id": "0.0-3.0-1.207"
	},
	{
		"rt": 1109,
		"stimulus": "../audio/33-5-masc.mp3",
		"response": " ",
		"word": "privilégio",
		"trial_type": "audio-keyboard-response",
		"trial_index": 260,
		"time_elapsed": 537153,
		"internal_node_id": "0.0-3.0-1.208"
	},
	{
		"rt": 891,
		"stimulus": "../audio/33-6-masc.mp3",
		"response": " ",
		"word": "nessa",
		"trial_type": "audio-keyboard-response",
		"trial_index": 261,
		"time_elapsed": 538391,
		"internal_node_id": "0.0-3.0-1.209"
	},
	{
		"rt": 1040,
		"stimulus": "../audio/33-7-masc.mp3",
		"response": " ",
		"word": "confusão.",
		"trial_type": "audio-keyboard-response",
		"trial_index": 262,
		"time_elapsed": 539784,
		"internal_node_id": "0.0-3.0-1.210"
	},
	{
		"rt": null,
		"stimulus": "<span style= \"font-size:30px; font-family: monospace\">+</span>",
		"response": null,
		"trial_part": "fixation",
		"trial_type": "html-keyboard-response",
		"trial_index": 263,
		"time_elapsed": 541058,
		"internal_node_id": "0.0-3.0-0.211-0.211"
	},
	{
		"rt": 909,
		"stimulus": "../audio/31-1-masc.mp3",
		"response": " ",
		"word": "O",
		"trial_type": "audio-keyboard-response",
		"trial_index": 264,
		"time_elapsed": 542359,
		"internal_node_id": "0.0-3.0-1.211"
	},
	{
		"rt": 1131,
		"stimulus": "../audio/31-2-masc.mp3",
		"response": " ",
		"word": "padeiro",
		"trial_type": "audio-keyboard-response",
		"trial_index": 265,
		"time_elapsed": 543827,
		"internal_node_id": "0.0-3.0-1.212"
	},
	{
		"rt": 992,
		"stimulus": "../audio/31-3-masc.mp3",
		"response": " ",
		"word": "usou",
		"trial_type": "audio-keyboard-response",
		"trial_index": 266,
		"time_elapsed": 545167,
		"internal_node_id": "0.0-3.0-1.213"
	},
	{
		"rt": 840,
		"stimulus": "../audio/31-4-masc.mp3",
		"response": " ",
		"word": "a",
		"trial_type": "audio-keyboard-response",
		"trial_index": 267,
		"time_elapsed": 546354,
		"internal_node_id": "0.0-3.0-1.214"
	},
	{
		"rt": 1181,
		"stimulus": "../audio/31-5-masc.mp3",
		"response": " ",
		"word": "balança",
		"trial_type": "audio-keyboard-response",
		"trial_index": 268,
		"time_elapsed": 547879,
		"internal_node_id": "0.0-3.0-1.215"
	},
	{
		"rt": 891,
		"stimulus": "../audio/31-6-masc.mp3",
		"response": " ",
		"word": "o",
		"trial_type": "audio-keyboard-response",
		"trial_index": 269,
		"time_elapsed": 549115,
		"internal_node_id": "0.0-3.0-1.216"
	},
	{
		"rt": 901,
		"stimulus": "../audio/31-7-masc.mp3",
		"response": " ",
		"word": "dia",
		"trial_type": "audio-keyboard-response",
		"trial_index": 270,
		"time_elapsed": 550366,
		"internal_node_id": "0.0-3.0-1.217"
	},
	{
		"rt": 1171,
		"stimulus": "../audio/31-8-masc.mp3",
		"response": " ",
		"word": "inteiro.",
		"trial_type": "audio-keyboard-response",
		"trial_index": 271,
		"time_elapsed": 551886,
		"internal_node_id": "0.0-3.0-1.218"
	},
	{
		"rt": null,
		"stimulus": "<span style= \"font-size:30px; font-family: monospace\">+</span>",
		"response": null,
		"trial_part": "fixation",
		"trial_type": "html-keyboard-response",
		"trial_index": 272,
		"time_elapsed": 553138,
		"internal_node_id": "0.0-3.0-0.219-0.219"
	},
	{
		"rt": 1269,
		"stimulus": "../audio/34-1-masc.mp3",
		"response": " ",
		"word": "Cobrança",
		"trial_type": "audio-keyboard-response",
		"trial_index": 273,
		"time_elapsed": 554799,
		"internal_node_id": "0.0-3.0-1.219"
	},
	{
		"rt": 1229,
		"stimulus": "../audio/34-2-masc.mp3",
		"response": " ",
		"word": "excessiva",
		"trial_type": "audio-keyboard-response",
		"trial_index": 274,
		"time_elapsed": 556376,
		"internal_node_id": "0.0-3.0-1.220"
	},
	{
		"rt": 989,
		"stimulus": "../audio/34-3-masc.mp3",
		"response": " ",
		"word": "é",
		"trial_type": "audio-keyboard-response",
		"trial_index": 275,
		"time_elapsed": 557699,
		"internal_node_id": "0.0-3.0-1.221"
	},
	{
		"rt": 869,
		"stimulus": "../audio/34-4-masc.mp3",
		"response": " ",
		"word": "um",
		"trial_type": "audio-keyboard-response",
		"trial_index": 276,
		"time_elapsed": 558918,
		"internal_node_id": "0.0-3.0-1.222"
	},
	{
		"rt": 912,
		"stimulus": "../audio/34-5-masc.mp3",
		"response": " ",
		"word": "fardo",
		"trial_type": "audio-keyboard-response",
		"trial_index": 277,
		"time_elapsed": 560167,
		"internal_node_id": "0.0-3.0-1.223"
	},
	{
		"rt": 1240,
		"stimulus": "../audio/34-6-masc.mp3",
		"response": " ",
		"word": "para",
		"trial_type": "audio-keyboard-response",
		"trial_index": 278,
		"time_elapsed": 561734,
		"internal_node_id": "0.0-3.0-1.224"
	},
	{
		"rt": 1051,
		"stimulus": "../audio/34-7-masc.mp3",
		"response": " ",
		"word": "a",
		"trial_type": "audio-keyboard-response",
		"trial_index": 279,
		"time_elapsed": 563111,
		"internal_node_id": "0.0-3.0-1.225"
	},
	{
		"rt": 1520,
		"stimulus": "../audio/34-8-masc.mp3",
		"response": " ",
		"word": "cabeça.",
		"trial_type": "audio-keyboard-response",
		"trial_index": 280,
		"time_elapsed": 564982,
		"internal_node_id": "0.0-3.0-1.226"
	},
	{
		"rt": null,
		"stimulus": "<span style= \"font-size:30px; font-family: monospace\">+</span>",
		"response": null,
		"trial_part": "fixation",
		"trial_type": "html-keyboard-response",
		"trial_index": 281,
		"time_elapsed": 566245,
		"internal_node_id": "0.0-3.0-0.227-0.227"
	},
	{
		"rt": 1080,
		"stimulus": "../audio/35-1-masc.mp3",
		"response": " ",
		"word": "A",
		"trial_type": "audio-keyboard-response",
		"trial_index": 282,
		"time_elapsed": 567714,
		"internal_node_id": "0.0-3.0-1.227"
	},
	{
		"rt": 1240,
		"stimulus": "../audio/35-2-masc.mp3",
		"response": " ",
		"word": "receita",
		"trial_type": "audio-keyboard-response",
		"trial_index": 283,
		"time_elapsed": 569279,
		"internal_node_id": "0.0-3.0-1.228"
	},
	{
		"rt": 1051,
		"stimulus": "../audio/35-3-masc.mp3",
		"response": " ",
		"word": "para",
		"trial_type": "audio-keyboard-response",
		"trial_index": 284,
		"time_elapsed": 570630,
		"internal_node_id": "0.0-3.0-1.229"
	},
	{
		"rt": 821,
		"stimulus": "../audio/35-4-masc.mp3",
		"response": " ",
		"word": "a",
		"trial_type": "audio-keyboard-response",
		"trial_index": 285,
		"time_elapsed": 571791,
		"internal_node_id": "0.0-3.0-1.230"
	},
	{
		"rt": 1021,
		"stimulus": "../audio/35-5-masc.mp3",
		"response": " ",
		"word": "preparação",
		"trial_type": "audio-keyboard-response",
		"trial_index": 286,
		"time_elapsed": 573152,
		"internal_node_id": "0.0-3.0-1.231"
	},
	{
		"rt": 909,
		"stimulus": "../audio/35-6-masc.mp3",
		"response": " ",
		"word": "do",
		"trial_type": "audio-keyboard-response",
		"trial_index": 287,
		"time_elapsed": 574391,
		"internal_node_id": "0.0-3.0-1.232"
	},
	{
		"rt": 1112,
		"stimulus": "../audio/35-7-masc.mp3",
		"response": " ",
		"word": "bolo",
		"trial_type": "audio-keyboard-response",
		"trial_index": 288,
		"time_elapsed": 575799,
		"internal_node_id": "0.0-3.0-1.233"
	},
	{
		"rt": 781,
		"stimulus": "../audio/35-8-masc.mp3",
		"response": " ",
		"word": "é",
		"trial_type": "audio-keyboard-response",
		"trial_index": 289,
		"time_elapsed": 576874,
		"internal_node_id": "0.0-3.0-1.234"
	},
	{
		"rt": 931,
		"stimulus": "../audio/35-9-masc.mp3",
		"response": " ",
		"word": "leve.",
		"trial_type": "audio-keyboard-response",
		"trial_index": 290,
		"time_elapsed": 578112,
		"internal_node_id": "0.0-3.0-1.235"
	},
	{
		"rt": 2348,
		"stimulus": "<span style=\"font-size:25px; font-family: monospace\">A receita do bolo é pesada?</span>",
		"response": "n",
		"question": "A receita do bolo é pesada?",
		"answer": "null",
		"trial": "exp-sent",
		"trial_type": "html-keyboard-response",
		"trial_index": 291,
		"time_elapsed": 580712,
		"internal_node_id": "0.0-3.0-2.235-0.235",
		"accuracy": false
	},
	{
		"rt": null,
		"stimulus": "<span style= \"font-size:30px; font-family: monospace\">+</span>",
		"response": null,
		"trial_part": "fixation",
		"trial_type": "html-keyboard-response",
		"trial_index": 292,
		"time_elapsed": 582234,
		"internal_node_id": "0.0-3.0-0.236-0.236"
	},
	{
		"rt": 1288,
		"stimulus": "../audio/01-1-fem.mp3",
		"response": " ",
		"word": "O",
		"trial_type": "audio-keyboard-response",
		"trial_index": 293,
		"time_elapsed": 583895,
		"internal_node_id": "0.0-3.0-1.236"
	},
	{
		"rt": 1149,
		"stimulus": "../audio/01-2-fem.mp3",
		"response": " ",
		"word": "menino",
		"trial_type": "audio-keyboard-response",
		"trial_index": 294,
		"time_elapsed": 585380,
		"internal_node_id": "0.0-3.0-1.237"
	},
	{
		"rt": 909,
		"stimulus": "../audio/01-3-fem.mp3",
		"response": " ",
		"word": "derrubou",
		"trial_type": "audio-keyboard-response",
		"trial_index": 295,
		"time_elapsed": 586628,
		"internal_node_id": "0.0-3.0-1.238"
	},
	{
		"rt": 581,
		"stimulus": "../audio/01-4-fem.mp3",
		"response": " ",
		"word": "a",
		"trial_type": "audio-keyboard-response",
		"trial_index": 296,
		"time_elapsed": 587525,
		"internal_node_id": "0.0-3.0-1.239"
	},
	{
		"rt": 571,
		"stimulus": "../audio/01-5-fem.mp3",
		"response": " ",
		"word": "guitarra",
		"trial_type": "audio-keyboard-response",
		"trial_index": 297,
		"time_elapsed": 588437,
		"internal_node_id": "0.0-3.0-1.240"
	},
	{
		"rt": 760,
		"stimulus": "../audio/01-6-fem.mp3",
		"response": " ",
		"word": "no",
		"trial_type": "audio-keyboard-response",
		"trial_index": 298,
		"time_elapsed": 589541,
		"internal_node_id": "0.0-3.0-1.241"
	},
	{
		"rt": 861,
		"stimulus": "../audio/01-7-fem.mp3",
		"response": " ",
		"word": "chão.",
		"trial_type": "audio-keyboard-response",
		"trial_index": 299,
		"time_elapsed": 590721,
		"internal_node_id": "0.0-3.0-1.242"
	},
	{
		"rt": null,
		"stimulus": "<span style= \"font-size:30px; font-family: monospace\">+</span>",
		"response": null,
		"trial_part": "fixation",
		"trial_type": "html-keyboard-response",
		"trial_index": 300,
		"time_elapsed": 591988,
		"internal_node_id": "0.0-3.0-0.243-0.243"
	},
	{
		"rt": 1131,
		"stimulus": "../audio/02-2-masc.mp3",
		"response": " ",
		"word": "Havia",
		"trial_type": "audio-keyboard-response",
		"trial_index": 301,
		"time_elapsed": 593470,
		"internal_node_id": "0.0-3.0-1.243"
	},
	{
		"rt": 1160,
		"stimulus": "../audio/02-2-masc.mp3",
		"response": " ",
		"word": "um",
		"trial_type": "audio-keyboard-response",
		"trial_index": 302,
		"time_elapsed": 594896,
		"internal_node_id": "0.0-3.0-1.244"
	},
	{
		"rt": 1232,
		"stimulus": "../audio/02-3-masc.mp3",
		"response": " ",
		"word": "cheiro",
		"trial_type": "audio-keyboard-response",
		"trial_index": 303,
		"time_elapsed": 596478,
		"internal_node_id": "0.0-3.0-1.245"
	},
	{
		"rt": 859,
		"stimulus": "../audio/02-4-masc.mp3",
		"response": " ",
		"word": "de",
		"trial_type": "audio-keyboard-response",
		"trial_index": 304,
		"time_elapsed": 597651,
		"internal_node_id": "0.0-3.0-1.246"
	},
	{
		"rt": 1491,
		"stimulus": "../audio/02-5-masc.mp3",
		"response": " ",
		"word": "gasolina",
		"trial_type": "audio-keyboard-response",
		"trial_index": 305,
		"time_elapsed": 599465,
		"internal_node_id": "0.0-3.0-1.247"
	},
	{
		"rt": 1131,
		"stimulus": "../audio/02-6-masc.mp3",
		"response": " ",
		"word": "na",
		"trial_type": "audio-keyboard-response",
		"trial_index": 306,
		"time_elapsed": 600914,
		"internal_node_id": "0.0-3.0-1.248"
	},
	{
		"rt": 1200,
		"stimulus": "../audio/02-7-masc.mp3",
		"response": " ",
		"word": "garagem.",
		"trial_type": "audio-keyboard-response",
		"trial_index": 307,
		"time_elapsed": 602432,
		"internal_node_id": "0.0-3.0-1.249"
	},
	{
		"rt": null,
		"stimulus": "<span style= \"font-size:30px; font-family: monospace\">+</span>",
		"response": null,
		"trial_part": "fixation",
		"trial_type": "html-keyboard-response",
		"trial_index": 308,
		"time_elapsed": 603702,
		"internal_node_id": "0.0-3.0-0.250-0.250"
	},
	{
		"rt": 1501,
		"stimulus": "../audio/04-1-masc.mp3",
		"response": " ",
		"word": "Duzentos",
		"trial_type": "audio-keyboard-response",
		"trial_index": 309,
		"time_elapsed": 605566,
		"internal_node_id": "0.0-3.0-1.250"
	},
	{
		"rt": 1008,
		"stimulus": "../audio/04-2-masc.mp3",
		"response": " ",
		"word": "carros",
		"trial_type": "audio-keyboard-response",
		"trial_index": 310,
		"time_elapsed": 606891,
		"internal_node_id": "0.0-3.0-1.251"
	},
	{
		"rt": 968,
		"stimulus": "../audio/04-3-masc.mp3",
		"response": " ",
		"word": "passaram",
		"trial_type": "audio-keyboard-response",
		"trial_index": 311,
		"time_elapsed": 608174,
		"internal_node_id": "0.0-3.0-1.252"
	},
	{
		"rt": 899,
		"stimulus": "../audio/04-4-masc.mp3",
		"response": " ",
		"word": "pela",
		"trial_type": "audio-keyboard-response",
		"trial_index": 312,
		"time_elapsed": 609419,
		"internal_node_id": "0.0-3.0-1.253"
	},
	{
		"rt": 819,
		"stimulus": "../audio/04-5-masc.mp3",
		"response": " ",
		"word": "ponte",
		"trial_type": "audio-keyboard-response",
		"trial_index": 313,
		"time_elapsed": 610570,
		"internal_node_id": "0.0-3.0-1.254"
	},
	{
		"rt": 920,
		"stimulus": "../audio/04-6-masc.mp3",
		"response": " ",
		"word": "hoje",
		"trial_type": "audio-keyboard-response",
		"trial_index": 314,
		"time_elapsed": 611827,
		"internal_node_id": "0.0-3.0-1.255"
	},
	{
		"rt": 869,
		"stimulus": "../audio/04-7-masc.mp3",
		"response": " ",
		"word": "de",
		"trial_type": "audio-keyboard-response",
		"trial_index": 315,
		"time_elapsed": 613030,
		"internal_node_id": "0.0-3.0-1.256"
	},
	{
		"rt": 1861,
		"stimulus": "../audio/04-8-masc.mp3",
		"response": " ",
		"word": "tarde.",
		"trial_type": "audio-keyboard-response",
		"trial_index": 316,
		"time_elapsed": 615248,
		"internal_node_id": "0.0-3.0-1.257"
	},
	{
		"rt": null,
		"stimulus": "<span style= \"font-size:30px; font-family: monospace\">+</span>",
		"response": null,
		"trial_part": "fixation",
		"trial_type": "html-keyboard-response",
		"trial_index": 317,
		"time_elapsed": 616508,
		"internal_node_id": "0.0-3.0-0.258-0.258"
	},
	{
		"rt": 1032,
		"stimulus": "../audio/03-1-masc.mp3",
		"response": " ",
		"word": "O",
		"trial_type": "audio-keyboard-response",
		"trial_index": 318,
		"time_elapsed": 617928,
		"internal_node_id": "0.0-3.0-1.258"
	},
	{
		"rt": 1429,
		"stimulus": "../audio/03-2-masc.mp3",
		"response": " ",
		"word": "coelho",
		"trial_type": "audio-keyboard-response",
		"trial_index": 319,
		"time_elapsed": 619705,
		"internal_node_id": "0.0-3.0-1.259"
	},
	{
		"rt": 1568,
		"stimulus": "../audio/03-3-masc.mp3",
		"response": " ",
		"word": "foi",
		"trial_type": "audio-keyboard-response",
		"trial_index": 320,
		"time_elapsed": 621610,
		"internal_node_id": "0.0-3.0-1.260"
	},
	{
		"rt": 1299,
		"stimulus": "../audio/03-4-masc.mp3",
		"response": " ",
		"word": "bastante",
		"trial_type": "audio-keyboard-response",
		"trial_index": 321,
		"time_elapsed": 623250,
		"internal_node_id": "0.0-3.0-1.261"
	},
	{
		"rt": 2141,
		"stimulus": "../audio/03-5-masc.mp3",
		"response": " ",
		"word": "dócil",
		"trial_type": "audio-keyboard-response",
		"trial_index": 322,
		"time_elapsed": 625755,
		"internal_node_id": "0.0-3.0-1.262"
	},
	{
		"rt": 981,
		"stimulus": "../audio/03-6-masc.mp3",
		"response": " ",
		"word": "com",
		"trial_type": "audio-keyboard-response",
		"trial_index": 323,
		"time_elapsed": 627118,
		"internal_node_id": "0.0-3.0-1.263"
	},
	{
		"rt": 1061,
		"stimulus": "../audio/03-7-masc.mp3",
		"response": " ",
		"word": "as",
		"trial_type": "audio-keyboard-response",
		"trial_index": 324,
		"time_elapsed": 628509,
		"internal_node_id": "0.0-3.0-1.264"
	},
	{
		"rt": 2208,
		"stimulus": "../audio/03-8-masc.mp3",
		"response": " ",
		"word": "crianças.",
		"trial_type": "audio-keyboard-response",
		"trial_index": 325,
		"time_elapsed": 631052,
		"internal_node_id": "0.0-3.0-1.265"
	},
	{
		"rt": null,
		"stimulus": "<span style= \"font-size:30px; font-family: monospace\">+</span>",
		"response": null,
		"trial_part": "fixation",
		"trial_type": "html-keyboard-response",
		"trial_index": 326,
		"time_elapsed": 632318,
		"internal_node_id": "0.0-3.0-0.266-0.266"
	},
	{
		"rt": 1011,
		"stimulus": "../audio/05-1-masc.mp3",
		"response": " ",
		"word": "A",
		"trial_type": "audio-keyboard-response",
		"trial_index": 327,
		"time_elapsed": 633718,
		"internal_node_id": "0.0-3.0-1.266"
	},
	{
		"rt": 1579,
		"stimulus": "../audio/05-2-masc.mp3",
		"response": " ",
		"word": "vendedora",
		"trial_type": "audio-keyboard-response",
		"trial_index": 328,
		"time_elapsed": 635658,
		"internal_node_id": "0.0-3.0-1.267"
	},
	{
		"rt": 1520,
		"stimulus": "../audio/05-3-masc.mp3",
		"response": " ",
		"word": "ajudou",
		"trial_type": "audio-keyboard-response",
		"trial_index": 329,
		"time_elapsed": 637522,
		"internal_node_id": "0.0-3.0-1.268"
	},
	{
		"rt": 771,
		"stimulus": "../audio/05-4-masc.mp3",
		"response": " ",
		"word": "um",
		"trial_type": "audio-keyboard-response",
		"trial_index": 330,
		"time_elapsed": 638626,
		"internal_node_id": "0.0-3.0-1.269"
	},
	{
		"rt": 840,
		"stimulus": "../audio/05-5-masc.mp3",
		"response": " ",
		"word": "turista",
		"trial_type": "audio-keyboard-response",
		"trial_index": 331,
		"time_elapsed": 639803,
		"internal_node_id": "0.0-3.0-1.270"
	},
	{
		"rt": 811,
		"stimulus": "../audio/05-6-masc.mp3",
		"response": " ",
		"word": "na",
		"trial_type": "audio-keyboard-response",
		"trial_index": 332,
		"time_elapsed": 640953,
		"internal_node_id": "0.0-3.0-1.271"
	},
	{
		"rt": 861,
		"stimulus": "../audio/05-7-masc.mp3",
		"response": " ",
		"word": "loja.",
		"trial_type": "audio-keyboard-response",
		"trial_index": 333,
		"time_elapsed": 642168,
		"internal_node_id": "0.0-3.0-1.272"
	},
	{
		"rt": 2744,
		"stimulus": "<span style=\"font-size:25px; font-family: monospace\">A vendedora ajudou um turista?</span>",
		"response": "s",
		"question": "A vendedora ajudou um turista?",
		"answer": "null",
		"trial": "exp-sent",
		"trial_type": "html-keyboard-response",
		"trial_index": 334,
		"time_elapsed": 645174,
		"internal_node_id": "0.0-3.0-2.272-0.272",
		"accuracy": false
	},
	{
		"rt": null,
		"stimulus": "<span style= \"font-size:30px; font-family: monospace\">+</span>",
		"response": null,
		"trial_part": "fixation",
		"trial_type": "html-keyboard-response",
		"trial_index": 335,
		"time_elapsed": 646688,
		"internal_node_id": "0.0-3.0-0.273-0.273"
	},
	{
		"rt": 931,
		"stimulus": "../audio/22-1-fem.mp3",
		"response": " ",
		"word": "Eu",
		"trial_type": "audio-keyboard-response",
		"trial_index": 336,
		"time_elapsed": 648002,
		"internal_node_id": "0.0-3.0-1.273"
	},
	{
		"rt": 1200,
		"stimulus": "../audio/22-2-fem.mp3",
		"response": " ",
		"word": "detesto",
		"trial_type": "audio-keyboard-response",
		"trial_index": 337,
		"time_elapsed": 649553,
		"internal_node_id": "0.0-3.0-1.274"
	},
	{
		"rt": 1109,
		"stimulus": "../audio/22-3-fem.mp3",
		"response": " ",
		"word": "fumaça",
		"trial_type": "audio-keyboard-response",
		"trial_index": 338,
		"time_elapsed": 651012,
		"internal_node_id": "0.0-3.0-1.275"
	},
	{
		"rt": 829,
		"stimulus": "../audio/22-4-fem.mp3",
		"response": " ",
		"word": "de",
		"trial_type": "audio-keyboard-response",
		"trial_index": 339,
		"time_elapsed": 652185,
		"internal_node_id": "0.0-3.0-1.276"
	},
	{
		"rt": 1560,
		"stimulus": "../audio/22-5-fem.mp3",
		"response": " ",
		"word": "cachimbo",
		"trial_type": "audio-keyboard-response",
		"trial_index": 340,
		"time_elapsed": 654093,
		"internal_node_id": "0.0-3.0-1.277"
	},
	{
		"rt": 1120,
		"stimulus": "../audio/22-6-fem.mp3",
		"response": " ",
		"word": "e",
		"trial_type": "audio-keyboard-response",
		"trial_index": 341,
		"time_elapsed": 655543,
		"internal_node_id": "0.0-3.0-1.278"
	},
	{
		"rt": 768,
		"stimulus": "../audio/22-7-fem.mp3",
		"response": " ",
		"word": "de",
		"trial_type": "audio-keyboard-response",
		"trial_index": 342,
		"time_elapsed": 656656,
		"internal_node_id": "0.0-3.0-1.279"
	},
	{
		"rt": 1920,
		"stimulus": "../audio/22-8-fem.mp3",
		"response": " ",
		"word": "cigarro.",
		"trial_type": "audio-keyboard-response",
		"trial_index": 343,
		"time_elapsed": 658922,
		"internal_node_id": "0.0-3.0-1.280"
	},
	{
		"rt": null,
		"stimulus": "<span style= \"font-size:30px; font-family: monospace\">+</span>",
		"response": null,
		"trial_part": "fixation",
		"trial_type": "html-keyboard-response",
		"trial_index": 344,
		"time_elapsed": 660196,
		"internal_node_id": "0.0-3.0-0.281-0.281"
	},
	{
		"rt": 949,
		"stimulus": "../audio/24-1-fem.mp3",
		"response": " ",
		"word": "As",
		"trial_type": "audio-keyboard-response",
		"trial_index": 345,
		"time_elapsed": 661543,
		"internal_node_id": "0.0-3.0-1.281"
	},
	{
		"rt": 1272,
		"stimulus": "../audio/24-2-fem.mp3",
		"response": " ",
		"word": "crianças",
		"trial_type": "audio-keyboard-response",
		"trial_index": 346,
		"time_elapsed": 663162,
		"internal_node_id": "0.0-3.0-1.282"
	},
	{
		"rt": 811,
		"stimulus": "../audio/24-3-fem.mp3",
		"response": " ",
		"word": "vão",
		"trial_type": "audio-keyboard-response",
		"trial_index": 347,
		"time_elapsed": 664307,
		"internal_node_id": "0.0-3.0-1.283"
	},
	{
		"rt": 1168,
		"stimulus": "../audio/24-4-fem.mp3",
		"response": " ",
		"word": "ao",
		"trial_type": "audio-keyboard-response",
		"trial_index": 348,
		"time_elapsed": 665810,
		"internal_node_id": "0.0-3.0-1.284"
	},
	{
		"rt": 1480,
		"stimulus": "../audio/24-5-fem.mp3",
		"response": " ",
		"word": "cinema",
		"trial_type": "audio-keyboard-response",
		"trial_index": 349,
		"time_elapsed": 667638,
		"internal_node_id": "0.0-3.0-1.285"
	},
	{
		"rt": 1192,
		"stimulus": "../audio/24-6-fem.mp3",
		"response": " ",
		"word": "mais",
		"trial_type": "audio-keyboard-response",
		"trial_index": 350,
		"time_elapsed": 669158,
		"internal_node_id": "0.0-3.0-1.286"
	},
	{
		"rt": 2021,
		"stimulus": "../audio/24-7-fem.mp3",
		"response": " ",
		"word": "tarde.",
		"trial_type": "audio-keyboard-response",
		"trial_index": 351,
		"time_elapsed": 671517,
		"internal_node_id": "0.0-3.0-1.287"
	},
	{
		"rt": null,
		"stimulus": "<span style= \"font-size:30px; font-family: monospace\">+</span>",
		"response": null,
		"trial_part": "fixation",
		"trial_type": "html-keyboard-response",
		"trial_index": 352,
		"time_elapsed": 672780,
		"internal_node_id": "0.0-3.0-0.288-0.288"
	},
	{
		"rt": 1411,
		"stimulus": "../audio/23-1-fem.mp3",
		"response": " ",
		"word": "Português",
		"trial_type": "audio-keyboard-response",
		"trial_index": 353,
		"time_elapsed": 674585,
		"internal_node_id": "0.0-3.0-1.288"
	},
	{
		"rt": 891,
		"stimulus": "../audio/23-2-fem.mp3",
		"response": " ",
		"word": "é",
		"trial_type": "audio-keyboard-response",
		"trial_index": 354,
		"time_elapsed": 675824,
		"internal_node_id": "0.0-3.0-1.289"
	},
	{
		"rt": 949,
		"stimulus": "../audio/23-3-fem.mp3",
		"response": " ",
		"word": "um",
		"trial_type": "audio-keyboard-response",
		"trial_index": 355,
		"time_elapsed": 677110,
		"internal_node_id": "0.0-3.0-1.290"
	},
	{
		"rt": 1381,
		"stimulus": "../audio/23-4-fem.mp3",
		"response": " ",
		"word": "assunto",
		"trial_type": "audio-keyboard-response",
		"trial_index": 356,
		"time_elapsed": 678838,
		"internal_node_id": "0.0-3.0-1.291"
	},
	{
		"rt": 1731,
		"stimulus": "../audio/23-5-fem.mp3",
		"response": " ",
		"word": "elementar",
		"trial_type": "audio-keyboard-response",
		"trial_index": 357,
		"time_elapsed": 680917,
		"internal_node_id": "0.0-3.0-1.292"
	},
	{
		"rt": 949,
		"stimulus": "../audio/23-6-fem.mp3",
		"response": " ",
		"word": "para",
		"trial_type": "audio-keyboard-response",
		"trial_index": 358,
		"time_elapsed": 682266,
		"internal_node_id": "0.0-3.0-1.293"
	},
	{
		"rt": 1019,
		"stimulus": "../audio/23-7-fem.mp3",
		"response": " ",
		"word": "os",
		"trial_type": "audio-keyboard-response",
		"trial_index": 359,
		"time_elapsed": 683628,
		"internal_node_id": "0.0-3.0-1.294"
	},
	{
		"rt": 1592,
		"stimulus": "../audio/23-8-fem.mp3",
		"response": " ",
		"word": "alunos.",
		"trial_type": "audio-keyboard-response",
		"trial_index": 360,
		"time_elapsed": 685562,
		"internal_node_id": "0.0-3.0-1.295"
	},
	{
		"rt": null,
		"stimulus": "<span style= \"font-size:30px; font-family: monospace\">+</span>",
		"response": null,
		"trial_part": "fixation",
		"trial_type": "html-keyboard-response",
		"trial_index": 361,
		"time_elapsed": 686830,
		"internal_node_id": "0.0-3.0-0.296-0.296"
	},
	{
		"rt": 1720,
		"stimulus": "../audio/21-1-fem.mp3",
		"response": " ",
		"word": "Precisamos",
		"trial_type": "audio-keyboard-response",
		"trial_index": 362,
		"time_elapsed": 688940,
		"internal_node_id": "0.0-3.0-1.296"
	},
	{
		"rt": 808,
		"stimulus": "../audio/21-2-fem.mp3",
		"response": " ",
		"word": "de",
		"trial_type": "audio-keyboard-response",
		"trial_index": 363,
		"time_elapsed": 690137,
		"internal_node_id": "0.0-3.0-1.297"
	},
	{
		"rt": 1480,
		"stimulus": "../audio/21-3-fem.mp3",
		"response": " ",
		"word": "paciência",
		"trial_type": "audio-keyboard-response",
		"trial_index": 364,
		"time_elapsed": 691972,
		"internal_node_id": "0.0-3.0-1.298"
	},
	{
		"rt": 819,
		"stimulus": "../audio/21-4-fem.mp3",
		"response": " ",
		"word": "e",
		"trial_type": "audio-keyboard-response",
		"trial_index": 365,
		"time_elapsed": 693129,
		"internal_node_id": "0.0-3.0-1.299"
	},
	{
		"rt": 1389,
		"stimulus": "../audio/21-5-fem.mp3",
		"response": " ",
		"word": "bondade",
		"trial_type": "audio-keyboard-response",
		"trial_index": 366,
		"time_elapsed": 694871,
		"internal_node_id": "0.0-3.0-1.300"
	},
	{
		"rt": 1200,
		"stimulus": "../audio/21-6-fem.mp3",
		"response": " ",
		"word": "para",
		"trial_type": "audio-keyboard-response",
		"trial_index": 367,
		"time_elapsed": 696414,
		"internal_node_id": "0.0-3.0-1.301"
	},
	{
		"rt": 1048,
		"stimulus": "../audio/21-7-fem.mp3",
		"response": " ",
		"word": "um",
		"trial_type": "audio-keyboard-response",
		"trial_index": 368,
		"time_elapsed": 697810,
		"internal_node_id": "0.0-3.0-1.302"
	},
	{
		"rt": 1589,
		"stimulus": "../audio/21-8-fem.mp3",
		"response": " ",
		"word": "mundo",
		"trial_type": "audio-keyboard-response",
		"trial_index": 369,
		"time_elapsed": 699756,
		"internal_node_id": "0.0-3.0-1.303"
	},
	{
		"rt": 1901,
		"stimulus": "../audio/21-9-fem.mp3",
		"response": " ",
		"word": "melhor.",
		"trial_type": "audio-keyboard-response",
		"trial_index": 370,
		"time_elapsed": 702008,
		"internal_node_id": "0.0-3.0-1.304"
	},
	{
		"rt": null,
		"stimulus": "<span style= \"font-size:30px; font-family: monospace\">+</span>",
		"response": null,
		"trial_part": "fixation",
		"trial_type": "html-keyboard-response",
		"trial_index": 371,
		"time_elapsed": 703279,
		"internal_node_id": "0.0-3.0-0.305-0.305"
	},
	{
		"rt": 1221,
		"stimulus": "../audio/25-1-masc.mp3",
		"response": " ",
		"word": "Ela",
		"trial_type": "audio-keyboard-response",
		"trial_index": 372,
		"time_elapsed": 704886,
		"internal_node_id": "0.0-3.0-1.305"
	},
	{
		"rt": 1040,
		"stimulus": "../audio/25-2-masc.mp3",
		"response": " ",
		"word": "faz",
		"trial_type": "audio-keyboard-response",
		"trial_index": 373,
		"time_elapsed": 706265,
		"internal_node_id": "0.0-3.0-1.306"
	},
	{
		"rt": 1029,
		"stimulus": "../audio/25-3-masc.mp3",
		"response": " ",
		"word": "tanto",
		"trial_type": "audio-keyboard-response",
		"trial_index": 374,
		"time_elapsed": 707636,
		"internal_node_id": "0.0-3.0-1.307"
	},
	{
		"rt": 891,
		"stimulus": "../audio/25-4-masc.mp3",
		"response": " ",
		"word": "cabelo",
		"trial_type": "audio-keyboard-response",
		"trial_index": 375,
		"time_elapsed": 708888,
		"internal_node_id": "0.0-3.0-1.308"
	},
	{
		"rt": 1029,
		"stimulus": "../audio/25-5-masc.mp3",
		"response": " ",
		"word": "liso",
		"trial_type": "audio-keyboard-response",
		"trial_index": 376,
		"time_elapsed": 710273,
		"internal_node_id": "0.0-3.0-1.309"
	},
	{
		"rt": 1072,
		"stimulus": "../audio/25-6-masc.mp3",
		"response": " ",
		"word": "quanto",
		"trial_type": "audio-keyboard-response",
		"trial_index": 377,
		"time_elapsed": 711681,
		"internal_node_id": "0.0-3.0-1.310"
	},
	{
		"rt": 1469,
		"stimulus": "../audio/25-7-masc.mp3",
		"response": " ",
		"word": "cacheado.",
		"trial_type": "audio-keyboard-response",
		"trial_index": 378,
		"time_elapsed": 713498,
		"internal_node_id": "0.0-3.0-1.311"
	},
	{
		"rt": 3334,
		"stimulus": "<span style=\"font-size:25px; font-family: monospace\">Ela só faz cabelo cacheado?</span>",
		"response": "n",
		"question": "Ela só faz cabelo cacheado?",
		"answer": "null",
		"trial": "exp-sent",
		"trial_type": "html-keyboard-response",
		"trial_index": 379,
		"time_elapsed": 717096,
		"internal_node_id": "0.0-3.0-2.311-0.311",
		"accuracy": false
	},
	{
		"rt": null,
		"stimulus": "<span style= \"font-size:30px; font-family: monospace\">+</span>",
		"response": null,
		"trial_part": "fixation",
		"trial_type": "html-keyboard-response",
		"trial_index": 380,
		"time_elapsed": 718612,
		"internal_node_id": "0.0-3.0-0.312-0.312"
	},
	{
		"rt": 909,
		"stimulus": "../audio/49-1-masc.mp3",
		"response": " ",
		"word": "Eu",
		"trial_type": "audio-keyboard-response",
		"trial_index": 381,
		"time_elapsed": 719876,
		"internal_node_id": "0.0-3.0-1.312"
	},
	{
		"rt": 1120,
		"stimulus": "../audio/49-2-masc.mp3",
		"response": " ",
		"word": "quero",
		"trial_type": "audio-keyboard-response",
		"trial_index": 382,
		"time_elapsed": 721348,
		"internal_node_id": "0.0-3.0-1.313"
	},
	{
		"rt": 909,
		"stimulus": "../audio/49-3-masc.mp3",
		"response": " ",
		"word": "um",
		"trial_type": "audio-keyboard-response",
		"trial_index": 383,
		"time_elapsed": 722590,
		"internal_node_id": "0.0-3.0-1.314"
	},
	{
		"rt": 840,
		"stimulus": "../audio/49-4-masc.mp3",
		"response": " ",
		"word": "lanche",
		"trial_type": "audio-keyboard-response",
		"trial_index": 384,
		"time_elapsed": 723771,
		"internal_node_id": "0.0-3.0-1.315"
	},
	{
		"rt": 880,
		"stimulus": "../audio/49-5-masc.mp3",
		"response": " ",
		"word": "duplo",
		"trial_type": "audio-keyboard-response",
		"trial_index": 385,
		"time_elapsed": 725001,
		"internal_node_id": "0.0-3.0-1.316"
	},
	{
		"rt": 781,
		"stimulus": "../audio/49-6-masc.mp3",
		"response": " ",
		"word": "e",
		"trial_type": "audio-keyboard-response",
		"trial_index": 386,
		"time_elapsed": 726124,
		"internal_node_id": "0.0-3.0-1.317"
	},
	{
		"rt": 880,
		"stimulus": "../audio/49-7-masc.mp3",
		"response": " ",
		"word": "um",
		"trial_type": "audio-keyboard-response",
		"trial_index": 387,
		"time_elapsed": 727348,
		"internal_node_id": "0.0-3.0-1.318"
	},
	{
		"rt": 880,
		"stimulus": "../audio/49-8-masc.mp3",
		"response": " ",
		"word": "suco.",
		"trial_type": "audio-keyboard-response",
		"trial_index": 388,
		"time_elapsed": 728570,
		"internal_node_id": "0.0-3.0-1.319"
	},
	{
		"rt": null,
		"stimulus": "<span style= \"font-size:30px; font-family: monospace\">+</span>",
		"response": null,
		"trial_part": "fixation",
		"trial_type": "html-keyboard-response",
		"trial_index": 389,
		"time_elapsed": 729835,
		"internal_node_id": "0.0-3.0-0.320-0.320"
	},
	{
		"rt": 1091,
		"stimulus": "../audio/47-1-fem.mp3",
		"response": " ",
		"word": "O",
		"trial_type": "audio-keyboard-response",
		"trial_index": 390,
		"time_elapsed": 731307,
		"internal_node_id": "0.0-3.0-1.320"
	},
	{
		"rt": 960,
		"stimulus": "../audio/47-2-fem.mp3",
		"response": " ",
		"word": "tio",
		"trial_type": "audio-keyboard-response",
		"trial_index": 391,
		"time_elapsed": 732610,
		"internal_node_id": "0.0-3.0-1.321"
	},
	{
		"rt": 1069,
		"stimulus": "../audio/47-3-fem.mp3",
		"response": " ",
		"word": "recusou",
		"trial_type": "audio-keyboard-response",
		"trial_index": 392,
		"time_elapsed": 734028,
		"internal_node_id": "0.0-3.0-1.322"
	},
	{
		"rt": 821,
		"stimulus": "../audio/47-4-fem.mp3",
		"response": " ",
		"word": "a",
		"trial_type": "audio-keyboard-response",
		"trial_index": 393,
		"time_elapsed": 735191,
		"internal_node_id": "0.0-3.0-1.323"
	},
	{
		"rt": 1651,
		"stimulus": "../audio/47-5-fem.mp3",
		"response": " ",
		"word": "sobremesa",
		"trial_type": "audio-keyboard-response",
		"trial_index": 394,
		"time_elapsed": 737199,
		"internal_node_id": "0.0-3.0-1.324"
	},
	{
		"rt": 941,
		"stimulus": "../audio/47-6-fem.mp3",
		"response": " ",
		"word": "no",
		"trial_type": "audio-keyboard-response",
		"trial_index": 395,
		"time_elapsed": 738480,
		"internal_node_id": "0.0-3.0-1.325"
	},
	{
		"rt": 1549,
		"stimulus": "../audio/47-7-fem.mp3",
		"response": " ",
		"word": "almoço.",
		"trial_type": "audio-keyboard-response",
		"trial_index": 396,
		"time_elapsed": 740372,
		"internal_node_id": "0.0-3.0-1.326"
	},
	{
		"rt": null,
		"stimulus": "<span style= \"font-size:30px; font-family: monospace\">+</span>",
		"response": null,
		"trial_part": "fixation",
		"trial_type": "html-keyboard-response",
		"trial_index": 397,
		"time_elapsed": 741645,
		"internal_node_id": "0.0-3.0-0.327-0.327"
	},
	{
		"rt": 1021,
		"stimulus": "../audio/48-1-fem.mp3",
		"response": " ",
		"word": "Ela",
		"trial_type": "audio-keyboard-response",
		"trial_index": 398,
		"time_elapsed": 743124,
		"internal_node_id": "0.0-3.0-1.327"
	},
	{
		"rt": 1051,
		"stimulus": "../audio/48-2-fem.mp3",
		"response": " ",
		"word": "come",
		"trial_type": "audio-keyboard-response",
		"trial_index": 399,
		"time_elapsed": 744523,
		"internal_node_id": "0.0-3.0-1.328"
	},
	{
		"rt": 1280,
		"stimulus": "../audio/48-3-fem.mp3",
		"response": " ",
		"word": "feijão",
		"trial_type": "audio-keyboard-response",
		"trial_index": 400,
		"time_elapsed": 746161,
		"internal_node_id": "0.0-3.0-1.329"
	},
	{
		"rt": 920,
		"stimulus": "../audio/48-4-fem.mp3",
		"response": " ",
		"word": "com",
		"trial_type": "audio-keyboard-response",
		"trial_index": 401,
		"time_elapsed": 747426,
		"internal_node_id": "0.0-3.0-1.330"
	},
	{
		"rt": 1541,
		"stimulus": "../audio/48-5-fem.mp3",
		"response": " ",
		"word": "arroz",
		"trial_type": "audio-keyboard-response",
		"trial_index": 402,
		"time_elapsed": 749316,
		"internal_node_id": "0.0-3.0-1.331"
	},
	{
		"rt": 1349,
		"stimulus": "../audio/48-6-fem.mp3",
		"response": " ",
		"word": "todos",
		"trial_type": "audio-keyboard-response",
		"trial_index": 403,
		"time_elapsed": 751010,
		"internal_node_id": "0.0-3.0-1.332"
	},
	{
		"rt": 971,
		"stimulus": "../audio/48-7-fem.mp3",
		"response": " ",
		"word": "os",
		"trial_type": "audio-keyboard-response",
		"trial_index": 404,
		"time_elapsed": 752327,
		"internal_node_id": "0.0-3.0-1.333"
	},
	{
		"rt": 1600,
		"stimulus": "../audio/48-8-fem.mp3",
		"response": " ",
		"word": "dias.",
		"trial_type": "audio-keyboard-response",
		"trial_index": 405,
		"time_elapsed": 754279,
		"internal_node_id": "0.0-3.0-1.334"
	},
	{
		"rt": null,
		"stimulus": "<span style= \"font-size:30px; font-family: monospace\">+</span>",
		"response": null,
		"trial_part": "fixation",
		"trial_type": "html-keyboard-response",
		"trial_index": 406,
		"time_elapsed": 755549,
		"internal_node_id": "0.0-3.0-0.335-0.335"
	},
	{
		"rt": 941,
		"stimulus": "../audio/46-1-masc.mp3",
		"response": " ",
		"word": "Meu",
		"trial_type": "audio-keyboard-response",
		"trial_index": 407,
		"time_elapsed": 756879,
		"internal_node_id": "0.0-3.0-1.335"
	},
	{
		"rt": 792,
		"stimulus": "../audio/46-2-masc.mp3",
		"response": " ",
		"word": "primo",
		"trial_type": "audio-keyboard-response",
		"trial_index": 408,
		"time_elapsed": 758002,
		"internal_node_id": "0.0-3.0-1.336"
	},
	{
		"rt": 829,
		"stimulus": "../audio/46-3-masc.mp3",
		"response": " ",
		"word": "estava",
		"trial_type": "audio-keyboard-response",
		"trial_index": 409,
		"time_elapsed": 759171,
		"internal_node_id": "0.0-3.0-1.337"
	},
	{
		"rt": 749,
		"stimulus": "../audio/46-4-masc.mp3",
		"response": " ",
		"word": "muito",
		"trial_type": "audio-keyboard-response",
		"trial_index": 410,
		"time_elapsed": 760265,
		"internal_node_id": "0.0-3.0-1.338"
	},
	{
		"rt": 811,
		"stimulus": "../audio/46-5-masc.mp3",
		"response": " ",
		"word": "deprimido",
		"trial_type": "audio-keyboard-response",
		"trial_index": 411,
		"time_elapsed": 761420,
		"internal_node_id": "0.0-3.0-1.339"
	},
	{
		"rt": 819,
		"stimulus": "../audio/46-6-masc.mp3",
		"response": " ",
		"word": "no",
		"trial_type": "audio-keyboard-response",
		"trial_index": 412,
		"time_elapsed": 762581,
		"internal_node_id": "0.0-3.0-1.340"
	},
	{
		"rt": 621,
		"stimulus": "../audio/46-7-masc.mp3",
		"response": " ",
		"word": "inverno.",
		"trial_type": "audio-keyboard-response",
		"trial_index": 413,
		"time_elapsed": 763558,
		"internal_node_id": "0.0-3.0-1.341"
	},
	{
		"rt": null,
		"stimulus": "<span style= \"font-size:30px; font-family: monospace\">+</span>",
		"response": null,
		"trial_part": "fixation",
		"trial_type": "html-keyboard-response",
		"trial_index": 414,
		"time_elapsed": 764820,
		"internal_node_id": "0.0-3.0-0.342-0.342"
	},
	{
		"rt": 739,
		"stimulus": "../audio/50-1-masc.mp3",
		"response": " ",
		"word": "O",
		"trial_type": "audio-keyboard-response",
		"trial_index": 415,
		"time_elapsed": 765972,
		"internal_node_id": "0.0-3.0-1.342"
	},
	{
		"rt": 989,
		"stimulus": "../audio/50-2-masc.mp3",
		"response": " ",
		"word": "pássaro",
		"trial_type": "audio-keyboard-response",
		"trial_index": 416,
		"time_elapsed": 767300,
		"internal_node_id": "0.0-3.0-1.343"
	},
	{
		"rt": 979,
		"stimulus": "../audio/50-3-masc.mp3",
		"response": " ",
		"word": "fugiu",
		"trial_type": "audio-keyboard-response",
		"trial_index": 417,
		"time_elapsed": 768611,
		"internal_node_id": "0.0-3.0-1.344"
	},
	{
		"rt": 880,
		"stimulus": "../audio/50-4-masc.mp3",
		"response": " ",
		"word": "da",
		"trial_type": "audio-keyboard-response",
		"trial_index": 418,
		"time_elapsed": 769835,
		"internal_node_id": "0.0-3.0-1.345"
	},
	{
		"rt": 869,
		"stimulus": "../audio/50-5-masc.mp3",
		"response": " ",
		"word": "gaiola",
		"trial_type": "audio-keyboard-response",
		"trial_index": 419,
		"time_elapsed": 771057,
		"internal_node_id": "0.0-3.0-1.346"
	},
	{
		"rt": 840,
		"stimulus": "../audio/50-6-masc.mp3",
		"response": " ",
		"word": "pela",
		"trial_type": "audio-keyboard-response",
		"trial_index": 420,
		"time_elapsed": 772234,
		"internal_node_id": "0.0-3.0-1.347"
	},
	{
		"rt": 1029,
		"stimulus": "../audio/50-7-masc.mp3",
		"response": " ",
		"word": "portinhola.",
		"trial_type": "audio-keyboard-response",
		"trial_index": 421,
		"time_elapsed": 773611,
		"internal_node_id": "0.0-3.0-1.348"
	},
	{
		"rt": 5999,
		"stimulus": "<span style=\"font-size:25px; font-family: monospace\">O pássaro fugiu da gaiola?</span>",
		"response": "n",
