"view_history","rt","trial_type","trial_index","time_elapsed","internal_node_id","stimulus","response","portuguese","kreyol"
"[{""page_index"":0,""viewing_time"":34518}]","34518","instructions","0","34526","0.0-0.0","","","",""
"","null","html-keyboard-response","1","35133","0.0-1.0-0.0","+","null","",""
"","3762","audio-keyboard-response","2","38945","0.0-1.0-1.0","../audio/teste-vocab--120.mp3","s","induzir","pwovoke"
"","null","html-keyboard-response","3","39446","0.0-1.0-0.1","+","null","",""
"","2374","audio-keyboard-response","4","41850","0.0-1.0-1.1","../audio/teste-vocab--80.mp3","s","binóculo","longvi"
"","null","html-keyboard-response","5","42354","0.0-1.0-0.2","+","null","",""
"","3193","audio-keyboard-response","6","45578","0.0-1.0-1.2","../audio/teste-vocab--92.mp3","s","esférico","won"
"","null","html-keyboard-response","7","46082","0.0-1.0-0.3","+","null","",""
"","2531","audio-keyboard-response","8","48663","0.0-1.0-1.3","../audio/teste-vocab--115.mp3","s","perpendicular","pèpandikilè"
"","null","html-keyboard-response","9","49164","0.0-1.0-0.4","+","null","",""
"","1573","audio-keyboard-response","10","50769","0.0-1.0-1.4","../audio/teste-vocab--14.mp3","s","ler","li"
"","null","html-keyboard-response","11","51271","0.0-1.0-0.5","+","null","",""
"","2038","audio-keyboard-response","12","53350","0.0-1.0-1.5","../audio/teste-vocab--111.mp3","s","jubilosa","rejwisans"
"","null","html-keyboard-response","13","53855","0.0-1.0-0.6","+","null","",""
"","2543","audio-keyboard-response","14","56446","0.0-1.0-1.6","../audio/teste-vocab--66.mp3","s","cooperação","koperasyon"
"","null","html-keyboard-response","15","56949","0.0-1.0-0.7","+","null","",""
"","1695","audio-keyboard-response","16","58685","0.0-1.0-1.7","../audio/teste-vocab--77.mp3","s","comércio","komès"
"","null","html-keyboard-response","17","59190","0.0-1.0-0.8","+","null","",""
"","1620","audio-keyboard-response","18","60848","0.0-1.0-1.8","../audio/teste-vocab--18.mp3","s","abelha","myèl"
"","null","html-keyboard-response","19","61349","0.0-1.0-0.9","+","null","",""
"","2392","audio-keyboard-response","20","63771","0.0-1.0-1.9","../audio/teste-vocab--116.mp3","s","vestuário","vestyè"
"","null","html-keyboard-response","21","64275","0.0-1.0-0.10","+","null","",""
"","2032","audio-keyboard-response","22","66332","0.0-1.0-1.10","../audio/teste-vocab--60.mp3","s","secretaria","sekretè"
"","null","html-keyboard-response","23","66835","0.0-1.0-0.11","+","null","",""
"","2891","audio-keyboard-response","24","69764","0.0-1.0-1.11","../audio/teste-vocab--109.mp3","s","anfíbio","anfibyen"
"","null","html-keyboard-response","25","70266","0.0-1.0-0.12","+","null","",""
"","1997","audio-keyboard-response","26","72294","0.0-1.0-1.12","../audio/teste-vocab--63.mp3","s","transparente","transparan"
"","null","html-keyboard-response","27","72797","0.0-1.0-0.13","+","null","",""
"","2003","audio-keyboard-response","28","74837","0.0-1.0-1.13","../audio/teste-vocab--90.mp3","s","carniça","kanivò"
"","null","html-keyboard-response","29","75340","0.0-1.0-0.14","+","null","",""
"","1985","audio-keyboard-response","30","77360","0.0-1.0-1.14","../audio/teste-vocab--58.mp3","s","nutritivo","nourisan"
"","null","html-keyboard-response","31","77861","0.0-1.0-0.15","+","null","",""
"","2258","audio-keyboard-response","32","80161","0.0-1.0-1.15","../audio/teste-vocab--72.mp3","s","ilha","zile"
"","null","html-keyboard-response","33","80663","0.0-1.0-0.16","+","null","",""
"","1695","audio-keyboard-response","34","82401","0.0-1.0-1.16","../audio/teste-vocab--28.mp3","s","águia","èg"
"","null","html-keyboard-response","35","82902","0.0-1.0-0.17","+","null","",""
"","2345","audio-keyboard-response","36","85281","0.0-1.0-1.17","../audio/teste-vocab--129.mp3","s","elipse","elips"
"","null","html-keyboard-response","37","85783","0.0-1.0-0.18","+","null","",""
"","1730","audio-keyboard-response","38","87543","0.0-1.0-1.18","../audio/teste-vocab--68.mp3","s","surpreendido","sezi"
"","null","html-keyboard-response","39","88047","0.0-1.0-0.19","+","null","",""
"","1997","audio-keyboard-response","40","90087","0.0-1.0-1.19","../audio/teste-vocab--125.mp3","s","lamaçal","labou"
"","null","html-keyboard-response","41","90592","0.0-1.0-0.20","+","null","",""
"","1765","audio-keyboard-response","42","92390","0.0-1.0-1.20","../audio/teste-vocab--57.mp3","s","raiz","rasin"
"","null","html-keyboard-response","43","92891","0.0-1.0-0.21","+","null","",""
"","2072","audio-keyboard-response","44","95002","0.0-1.0-1.21","../audio/teste-vocab--89.mp3","s","classificar","klasifika"
"","null","html-keyboard-response","45","95507","0.0-1.0-0.22","+","null","",""
"","2287","audio-keyboard-response","46","97833","0.0-1.0-1.22","../audio/teste-vocab--69.mp3","s","pingar","degoute"
"","null","html-keyboard-response","47","98334","0.0-1.0-0.23","+","null","",""
"","2293","audio-keyboard-response","48","100661","0.0-1.0-1.23","../audio/teste-vocab--71.mp3","s","caule","tij"
"","null","html-keyboard-response","49","101165","0.0-1.0-0.24","+","null","",""
"","1904","audio-keyboard-response","50","103104","0.0-1.0-1.24","../audio/teste-vocab--40.mp3","s","bebida","bwason"
"","null","html-keyboard-response","51","103605","0.0-1.0-0.25","+","null","",""
"","2090","audio-keyboard-response","52","105734","0.0-1.0-1.25","../audio/teste-vocab--98.mp3","s","instruir","enstwi"
"","null","html-keyboard-response","53","106235","0.0-1.0-0.26","+","null","",""
"","2937","audio-keyboard-response","54","109216","0.0-1.0-1.26","../audio/teste-vocab--112.mp3","s","aparição","aparisyon"
"","null","html-keyboard-response","55","109717","0.0-1.0-0.27","+","null","",""
"","2368","audio-keyboard-response","56","112121","0.0-1.0-1.27","../audio/teste-vocab--79.mp3","s","moldura"," chanbranl"
"","null","html-keyboard-response","57","112626","0.0-1.0-0.28","+","null","",""
"","2218","audio-keyboard-response","58","114885","0.0-1.0-1.28","../audio/teste-vocab--75.mp3","s","carpinteiro","chapantye"
"","null","html-keyboard-response","59","115389","0.0-1.0-0.29","+","null","",""
"","1863","audio-keyboard-response","60","117285","0.0-1.0-1.29","../audio/teste-vocab--38.mp3","s","cerimônia","seremoni"
"","null","html-keyboard-response","61","117787","0.0-1.0-0.30","+","null","",""
"","1916","audio-keyboard-response","62","119739","0.0-1.0-1.30","../audio/teste-vocab--91.mp3","s","bússola","bousòl"
"","null","html-keyboard-response","63","120243","0.0-1.0-0.31","+","null","",""
"","1602","audio-keyboard-response","64","121880","0.0-1.0-1.31","../audio/teste-vocab--47.mp3","s","envelope","anvlope"
"","null","html-keyboard-response","65","122384","0.0-1.0-0.32","+","null","",""
"","1718","audio-keyboard-response","66","124143","0.0-1.0-1.32","../audio/teste-vocab--53.mp3","s","orientar","oryante"
"","null","html-keyboard-response","67","124648","0.0-1.0-0.33","+","null","",""
"","1585","audio-keyboard-response","68","126270","0.0-1.0-1.33","../audio/teste-vocab--20.mp3","s","medir","mezire"
"","null","html-keyboard-response","69","126773","0.0-1.0-0.34","+","null","",""
"","1707","audio-keyboard-response","70","128519","0.0-1.0-1.34","../audio/teste-vocab--114.mp3","s","fragmentar","dechire"
"","null","html-keyboard-response","71","129021","0.0-1.0-0.35","+","null","",""
"","1608","audio-keyboard-response","72","130662","0.0-1.0-1.35","../audio/teste-vocab--78.mp3","s","quarteto","qwatèt"
"","null","html-keyboard-response","73","131168","0.0-1.0-0.36","+","null","",""
"","1591","audio-keyboard-response","74","132787","0.0-1.0-1.36","../audio/teste-vocab--106.mp3","s","lubrificar","grese"
"","null","html-keyboard-response","75","133292","0.0-1.0-0.37","+","null","",""
"","1289","audio-keyboard-response","76","134614","0.0-1.0-1.37","../audio/teste-vocab--117.mp3","s","córnea","kòn"
"","null","html-keyboard-response","77","135118","0.0-1.0-0.38","+","null","",""
"","1718","audio-keyboard-response","78","136872","0.0-1.0-1.38","../audio/teste-vocab--54.mp3","s","arbusto","raje"
"","null","html-keyboard-response","79","137373","0.0-1.0-0.39","+","null","",""
"","1643","audio-keyboard-response","80","139052","0.0-1.0-1.39","../audio/teste-vocab--97.mp3","s","frágil","frajil"
"","null","html-keyboard-response","81","139556","0.0-1.0-0.40","+","null","",""
"","1666","audio-keyboard-response","82","141263","0.0-1.0-1.40","../audio/teste-vocab--09.mp3","s","vela","bouji"
"","null","html-keyboard-response","83","141768","0.0-1.0-0.41","+","null","",""
"","1927","audio-keyboard-response","84","143735","0.0-1.0-1.41","../audio/teste-vocab--70.mp3","s","funil","antónwa"
"","null","html-keyboard-response","85","144237","0.0-1.0-0.42","+","null","",""
"","1875","audio-keyboard-response","86","146148","0.0-1.0-1.42","../audio/teste-vocab--76.mp3","s","arquivar","achive"
"","null","html-keyboard-response","87","146650","0.0-1.0-0.43","+","null","",""
"","1846","audio-keyboard-response","88","148526","0.0-1.0-1.43","../audio/teste-vocab--67.mp3","s","corrimão","ranp"
"","null","html-keyboard-response","89","149030","0.0-1.0-0.44","+","null","",""
"","2316","audio-keyboard-response","90","151376","0.0-1.0-1.44","../audio/teste-vocab--99.mp3","s","arqueólogo","akeyológ"
"","null","html-keyboard-response","91","151881","0.0-1.0-0.45","+","null","",""
"","1724","audio-keyboard-response","92","153653","0.0-1.0-1.45","../audio/teste-vocab--84.mp3","s","confiar","konfye"
"","null","html-keyboard-response","93","154156","0.0-1.0-0.46","+","null","",""
"","1672","audio-keyboard-response","94","155867","0.0-1.0-1.46","../audio/teste-vocab--05.mp3","s","limpar","netwaye"
"","null","html-keyboard-response","95","156370","0.0-1.0-0.47","+","null","",""
"","1869","audio-keyboard-response","96","158271","0.0-1.0-1.47","../audio/teste-vocab--95.mp3","s","submergir","plonje"
"","null","html-keyboard-response","97","158776","0.0-1.0-0.48","+","null","",""
"","1521","audio-keyboard-response","98","160331","0.0-1.0-1.48","../audio/teste-vocab--39.mp3","s","cobra","koulèv"
"","null","html-keyboard-response","99","160832","0.0-1.0-0.49","+","null","",""
"","1591","audio-keyboard-response","100","162461","0.0-1.0-1.49","../audio/teste-vocab--41.mp3","s","médico","doktè,"
"","null","html-keyboard-response","101","162963","0.0-1.0-0.50","+","null","",""
"","1370","audio-keyboard-response","102","164372","0.0-1.0-1.50","../audio/teste-vocab--104.mp3","s","ira","pwal"
"","null","html-keyboard-response","103","164874","0.0-1.0-0.51","+","null","",""
"","1527","audio-keyboard-response","104","166429","0.0-1.0-1.51","../audio/teste-vocab--121.mp3","s","atônito","sezi"
"","null","html-keyboard-response","105","166933","0.0-1.0-0.52","+","null","",""
"","1265","audio-keyboard-response","106","168237","0.0-1.0-1.52","../audio/teste-vocab--15.mp3","s","flecha","flèch"
"","null","html-keyboard-response","107","168739","0.0-1.0-0.53","+","null","",""
"","1591","audio-keyboard-response","108","170364","0.0-1.0-1.53","../audio/teste-vocab--33.mp3","s","uniforme","inifòm"
"","null","html-keyboard-response","109","170865","0.0-1.0-0.54","+","null","",""
"","2241","audio-keyboard-response","110","173147","0.0-1.0-1.54","../audio/teste-vocab--103.mp3","s","utensílio","istansil"
"","null","html-keyboard-response","111","173650","0.0-1.0-0.55","+","null","",""
"","2653","audio-keyboard-response","112","176340","0.0-1.0-1.55","../audio/teste-vocab--118.mp3","s","paralelogramo","paralelogram"
"","null","html-keyboard-response","113","176843","0.0-1.0-0.56","+","null","",""
"","1643","audio-keyboard-response","114","178515","0.0-1.0-1.56","../audio/teste-vocab--24.mp3","s","acidente","aksidan"
"","null","html-keyboard-response","115","179020","0.0-1.0-0.57","+","null","",""
"","1666","audio-keyboard-response","116","180716","0.0-1.0-1.57","../audio/teste-vocab--96.mp3","s","árido","sechrès"
"","null","html-keyboard-response","117","181220","0.0-1.0-0.58","+","null","",""
"","1498","audio-keyboard-response","118","182741","0.0-1.0-1.58","../audio/teste-vocab--124.mp3","s","obelisco","obelisk"
"","null","html-keyboard-response","119","183246","0.0-1.0-0.59","+","null","",""
"","1509","audio-keyboard-response","120","184794","0.0-1.0-1.59","../audio/teste-vocab--86.mp3","s","pensar","panse"
"","null","html-keyboard-response","121","185295","0.0-1.0-0.60","+","null","",""
"","1503","audio-keyboard-response","122","186834","0.0-1.0-1.60","../audio/teste-vocab--12.mp3","s","jaula","kaj"
"","null","html-keyboard-response","123","187336","0.0-1.0-0.61","+","null","",""
"","1567","audio-keyboard-response","124","188939","0.0-1.0-1.61","../audio/teste-vocab--06.mp3","s","barco","bato"
"","null","html-keyboard-response","125","189440","0.0-1.0-0.62","+","null","",""
"","1596","audio-keyboard-response","126","191072","0.0-1.0-1.62","../audio/teste-vocab--82.mp3","s","roer","ronje"
"","null","html-keyboard-response","127","191576","0.0-1.0-0.63","+","null","",""
"","1521","audio-keyboard-response","128","193140","0.0-1.0-1.63","../audio/teste-vocab--03.mp3","s","balançar","balanse"
"","null","html-keyboard-response","129","193643","0.0-1.0-0.64","+","null","",""
"","1765","audio-keyboard-response","130","195443","0.0-1.0-1.64","../audio/teste-vocab--56.mp3","s","agricultura","agrikilti"
"","null","html-keyboard-response","131","195948","0.0-1.0-0.65","+","null","",""
"","1469","audio-keyboard-response","132","197455","0.0-1.0-1.65","../audio/teste-vocab--13.mp3","s","ambulância","anbilans"
"","null","html-keyboard-response","133","197958","0.0-1.0-0.66","+","null","",""
"","1515","audio-keyboard-response","134","199504","0.0-1.0-1.66","../audio/teste-vocab--02.mp3","s","homem","gason"
"","null","html-keyboard-response","135","200005","0.0-1.0-0.67","+","null","",""
"","1295","audio-keyboard-response","136","201331","0.0-1.0-1.67","../audio/teste-vocab--19.mp3","s","hora","è"
"","null","html-keyboard-response","137","201834","0.0-1.0-0.68","+","null","",""
"","2287","audio-keyboard-response","138","204152","0.0-1.0-1.68","../audio/teste-vocab--43.mp3","s","mecânico","mekanisyen"
"","null","html-keyboard-response","139","204655","0.0-1.0-0.69","+","null","",""
"","1370","audio-keyboard-response","140","206065","0.0-1.0-1.69","../audio/teste-vocab--55.mp3","s","bosque","forè"
"","null","html-keyboard-response","141","206567","0.0-1.0-0.70","+","null","",""
"","1858","audio-keyboard-response","142","208454","0.0-1.0-1.70","../audio/teste-vocab--51.mp3","s","recolher","kolekte"
"","null","html-keyboard-response","143","208957","0.0-1.0-0.71","+","null","",""
"","1538","audio-keyboard-response","144","210525","0.0-1.0-1.71","../audio/teste-vocab--46.mp3","s","ombro","zepòl"
"","null","html-keyboard-response","145","211030","0.0-1.0-0.72","+","null","",""
"","1712","audio-keyboard-response","146","212776","0.0-1.0-1.72","../audio/teste-vocab--107.mp3","s","elo","emay"
"","null","html-keyboard-response","147","213277","0.0-1.0-0.73","+","null","",""
"","1695","audio-keyboard-response","148","215008","0.0-1.0-1.73","../audio/teste-vocab--62.mp3","s","carretel","bobin"
"","null","html-keyboard-response","149","215511","0.0-1.0-0.74","+","null","",""
"","3872","audio-keyboard-response","150","219413","0.0-1.0-1.74","../audio/teste-vocab--101.mp3","n","incandescente","enkandesan"
"","null","html-keyboard-response","151","219917","0.0-1.0-0.75","+","null","",""
"","2334","audio-keyboard-response","152","222287","0.0-1.0-1.75","../audio/teste-vocab--65.mp3","s","discussão","diskisyon"
"","null","html-keyboard-response","153","222791","0.0-1.0-0.76","+","null","",""
"","1503","audio-keyboard-response","154","224324","0.0-1.0-1.76","../audio/teste-vocab--130.mp3","s","gentil","dou"
"","null","html-keyboard-response","155","224825","0.0-1.0-0.77","+","null","",""
"","1335","audio-keyboard-response","156","226194","0.0-1.0-1.77","../audio/teste-vocab--30.mp3","s","pintor","pent"
"","null","html-keyboard-response","157","226697","0.0-1.0-0.78","+","null","",""
"","1411","audio-keyboard-response","158","228133","0.0-1.0-1.78","../audio/teste-vocab--73.mp3","s","ângulo","ang"
"","null","html-keyboard-response","159","228636","0.0-1.0-0.79","+","null","",""
"","2061","audio-keyboard-response","160","230737","0.0-1.0-1.79","../audio/teste-vocab--44.mp3","s","premiar","rekonpanse"
"","null","html-keyboard-response","161","231239","0.0-1.0-0.80","+","null","",""
"","2101","audio-keyboard-response","162","233377","0.0-1.0-1.80","../audio/teste-vocab--81.mp3","s","judicial","jidisyè"
"","null","html-keyboard-response","163","233878","0.0-1.0-0.81","+","null","",""
"","1544","audio-keyboard-response","164","235462","0.0-1.0-1.81","../audio/teste-vocab--27.mp3","s","rio","rivyè"
"","null","html-keyboard-response","165","235963","0.0-1.0-0.82","+","null","",""
"","1614","audio-keyboard-response","166","237619","0.0-1.0-1.82","../audio/teste-vocab--127.mp3","s","côncavo","konkav"
"","null","html-keyboard-response","167","238122","0.0-1.0-0.83","+","null","",""
"","1678","audio-keyboard-response","168","239850","0.0-1.0-1.83","../audio/teste-vocab--74.mp3","s","desilusão","dezilizyon"
"","null","html-keyboard-response","169","240351","0.0-1.0-0.84","+","null","",""
"","1782","audio-keyboard-response","170","242163","0.0-1.0-1.84","../audio/teste-vocab--94.mp3","s","paralelo","paralèl"
"","null","html-keyboard-response","171","242668","0.0-1.0-0.85","+","null","",""
"","1498","audio-keyboard-response","172","244204","0.0-1.0-1.85","../audio/teste-vocab--49.mp3","s","humano","moun"
"","null","html-keyboard-response","173","244706","0.0-1.0-0.86","+","null","",""
"","1353","audio-keyboard-response","174","246093","0.0-1.0-1.86","../audio/teste-vocab--34.mp3","s","tronco","twon"
"","null","html-keyboard-response","175","246598","0.0-1.0-0.87","+","null","",""
"","1260","audio-keyboard-response","176","247884","0.0-1.0-1.87","../audio/teste-vocab--10.mp3","s","corneta","kòn"
"","null","html-keyboard-response","177","248386","0.0-1.0-0.88","+","null","",""
"","1829","audio-keyboard-response","178","250244","0.0-1.0-1.88","../audio/teste-vocab--102.mp3","s","arrogante","arogan"
"","null","html-keyboard-response","179","250748","0.0-1.0-0.89","+","null","",""
"","1712","audio-keyboard-response","180","252500","0.0-1.0-1.89","../audio/teste-vocab--23.mp3","s","acariciar","karese"
"","null","html-keyboard-response","181","253001","0.0-1.0-0.90","+","null","",""
"","1950","audio-keyboard-response","182","254988","0.0-1.0-1.90","../audio/teste-vocab--128.mp3","s","incisivo","ensisiv"
"","null","html-keyboard-response","183","255491","0.0-1.0-0.91","+","null","",""
"","1399","audio-keyboard-response","184","256976","0.0-1.0-1.91","../audio/teste-vocab--26.mp3","s","cotovelo","koud"
"","null","html-keyboard-response","185","257477","0.0-1.0-0.92","+","null","",""
"","1202","audio-keyboard-response","186","258718","0.0-1.0-1.92","../audio/teste-vocab--108.mp3","s","moradia","kay"
"","null","html-keyboard-response","187","259223","0.0-1.0-0.93","+","null","",""
"","1753","audio-keyboard-response","188","261003","0.0-1.0-1.93","../audio/teste-vocab--87.mp3","s","ave","zwazo"
"","null","html-keyboard-response","189","261505","0.0-1.0-0.94","+","null","",""
"","1387","audio-keyboard-response","190","262937","0.0-1.0-1.94","../audio/teste-vocab--16.mp3","s","pescoço","kou"
"","null","html-keyboard-response","191","263438","0.0-1.0-0.95","+","null","",""
"","1736","audio-keyboard-response","192","265224","0.0-1.0-1.95","../audio/teste-vocab--110.mp3","s","prodígio","pwodij"
"","null","html-keyboard-response","193","265726","0.0-1.0-0.96","+","null","",""
"","1591","audio-keyboard-response","194","267355","0.0-1.0-1.96","../audio/teste-vocab--88.mp3","s","portátil","pòtab"
"","null","html-keyboard-response","195","267856","0.0-1.0-0.97","+","null","",""
"","1486","audio-keyboard-response","196","269377","0.0-1.0-1.97","../audio/teste-vocab--17.mp3","s","móvel","mobil"
"","null","html-keyboard-response","197","269882","0.0-1.0-0.98","+","null","",""
"","1765","audio-keyboard-response","198","271686","0.0-1.0-1.98","../audio/teste-vocab--32.mp3","s","descascar","dekale"
"","null","html-keyboard-response","199","272187","0.0-1.0-0.99","+","null","",""
"","1991","audio-keyboard-response","200","274210","0.0-1.0-1.99","../audio/teste-vocab--100.mp3","s","consumir","konsome"
"","null","html-keyboard-response","201","274712","0.0-1.0-0.100","+","null","",""
"","1631","audio-keyboard-response","202","276386","0.0-1.0-1.100","../audio/teste-vocab--119.mp3","s","numeroso","anpil"
"","null","html-keyboard-response","203","276889","0.0-1.0-0.101","+","null","",""
"","3982","audio-keyboard-response","204","280908","0.0-1.0-1.101","../audio/teste-vocab--122.mp3","s","transeunte","pasajè"
"","null","html-keyboard-response","205","281414","0.0-1.0-0.102","+","null","",""
"","1527","audio-keyboard-response","206","282969","0.0-1.0-1.102","../audio/teste-vocab--21.mp3","s","baleia","balèn"
"","null","html-keyboard-response","207","283472","0.0-1.0-0.103","+","null","",""
"","1608","audio-keyboard-response","208","285111","0.0-1.0-1.103","../audio/teste-vocab--22.mp3","s","quebrado","kraze"
"","null","html-keyboard-response","209","285614","0.0-1.0-0.104","+","null","",""
"","1707","audio-keyboard-response","210","287370","0.0-1.0-1.104","../audio/teste-vocab--31.mp3","s","vazio","vid"
"","null","html-keyboard-response","211","287873","0.0-1.0-0.105","+","null","",""
"","1765","audio-keyboard-response","212","289670","0.0-1.0-1.105","../audio/teste-vocab--11.mp3","s","joelho","jenou"
"","null","html-keyboard-response","213","290174","0.0-1.0-0.106","+","null","",""
"","1811","audio-keyboard-response","214","292024","0.0-1.0-1.106","../audio/teste-vocab--85.mp3","s","trio","trio"
"","null","html-keyboard-response","215","292528","0.0-1.0-0.107","+","null","",""
"","1533","audio-keyboard-response","216","294097","0.0-1.0-1.107","../audio/teste-vocab--35.mp3","s","líquido","likid"
"","null","html-keyboard-response","217","294601","0.0-1.0-0.108","+","null","",""
"","1718","audio-keyboard-response","218","296356","0.0-1.0-1.108","../audio/teste-vocab--25.mp3","s","canguru","kanguwou"
"","null","html-keyboard-response","219","296859","0.0-1.0-0.109","+","null","",""
"","1422","audio-keyboard-response","220","298315","0.0-1.0-1.109","../audio/teste-vocab--48.mp3","s","joia","bijou"
"","null","html-keyboard-response","221","298816","0.0-1.0-0.110","+","null","",""
"","1492","audio-keyboard-response","222","300341","0.0-1.0-1.110","../audio/teste-vocab--126.mp3","s","ambulante","promennen"
"","null","html-keyboard-response","223","300842","0.0-1.0-0.111","+","null","",""
"","1753","audio-keyboard-response","224","302634","0.0-1.0-1.111","../audio/teste-vocab--37.mp3","s","músico","mizisyen"
"","null","html-keyboard-response","225","303135","0.0-1.0-0.112","+","null","",""
"","1440","audio-keyboard-response","226","304612","0.0-1.0-1.112","../audio/teste-vocab--45.mp3","s","dentista","dantis"
"","null","html-keyboard-response","227","305114","0.0-1.0-0.113","+","null","",""
"","2159","audio-keyboard-response","228","307301","0.0-1.0-1.113","../audio/teste-vocab--93.mp3","s","felino","leopa"
"","null","html-keyboard-response","229","307802","0.0-1.0-0.114","+","null","",""
"","1474","audio-keyboard-response","230","309313","0.0-1.0-1.114","../audio/teste-vocab--83.mp3","s","morsa","mòs"
"","null","html-keyboard-response","231","309816","0.0-1.0-0.115","+","null","",""
"","1678","audio-keyboard-response","232","311526","0.0-1.0-1.115","../audio/teste-vocab--64.mp3","s","colher","kiyè"
"","null","html-keyboard-response","233","312031","0.0-1.0-0.116","+","null","",""
"","1492","audio-keyboard-response","234","313602","0.0-1.0-1.116","../audio/teste-vocab--36.mp3","s","grupo","gwoup"
"","null","html-keyboard-response","235","314107","0.0-1.0-0.117","+","null","",""
"","1573","audio-keyboard-response","236","315721","0.0-1.0-1.117","../audio/teste-vocab--123.mp3","s","emissão","emisyon"
"","null","html-keyboard-response","237","316222","0.0-1.0-0.118","+","null","",""
"","1701","audio-keyboard-response","238","317968","0.0-1.0-1.118","../audio/teste-vocab--113.mp3","s","ascender","limen"
"","null","html-keyboard-response","239","318472","0.0-1.0-0.119","+","null","",""
"","1086","audio-keyboard-response","240","319588","0.0-1.0-1.119","../audio/teste-vocab--59.mp3","s","par","pè"
"","null","html-keyboard-response","241","320093","0.0-1.0-0.120","+","null","",""
"","1260","audio-keyboard-response","242","321378","0.0-1.0-1.120","../audio/teste-vocab--04.mp3","s","roda","wonn"
"","null","html-keyboard-response","243","321883","0.0-1.0-0.121","+","null","",""
"","1550","audio-keyboard-response","244","323459","0.0-1.0-1.121","../audio/teste-vocab--50.mp3","s","artista","atis"
"","null","html-keyboard-response","245","323963","0.0-1.0-0.122","+","null","",""
"","1178","audio-keyboard-response","246","325178","0.0-1.0-1.122","../audio/teste-vocab--08.mp3","s","vaca","vach"
"","null","html-keyboard-response","247","325682","0.0-1.0-0.123","+","null","",""
"","1248","audio-keyboard-response","248","326965","0.0-1.0-1.123","../audio/teste-vocab--07.mp3","s","abajur","lanp"
"","null","html-keyboard-response","249","327466","0.0-1.0-0.124","+","null","",""
"","1846","audio-keyboard-response","250","329345","0.0-1.0-1.124","../audio/teste-vocab--52.mp3","s","construção","konstriksyon"
"","null","html-keyboard-response","251","329847","0.0-1.0-0.125","+","null","",""
"","1312","audio-keyboard-response","252","331189","0.0-1.0-1.125","../audio/teste-vocab--42.mp3","s","isolamento","izòlman"
"","null","html-keyboard-response","253","331693","0.0-1.0-0.126","+","null","",""
"","1608","audio-keyboard-response","254","333334","0.0-1.0-1.126","../audio/teste-vocab--29.mp3","s","rasgar","chire"
"","null","html-keyboard-response","255","333837","0.0-1.0-0.127","+","null","",""
"","2183","audio-keyboard-response","256","336060","0.0-1.0-1.127","../audio/teste-vocab--61.mp3","s","iluminação","iliminasyon"
"","null","html-keyboard-response","257","336562","0.0-1.0-0.128","+","null","",""
"","1712","audio-keyboard-response","258","338304","0.0-1.0-1.128","../audio/teste-vocab--105.mp3","s","cítrico","sitrik"
"","null","html-keyboard-response","259","338808","0.0-1.0-0.129","+","null","",""
"","1533","audio-keyboard-response","260","340377","0.0-1.0-1.129","../audio/teste-vocab--01.mp3","s","boneca","pope"
