[
	{
		"view_history": [
			{
				"page_index": 0,
				"viewing_time": 123701
			},
			{
				"page_index": 1,
				"viewing_time": 4300
			}
		],
		"rt": 128003,
		"trial_type": "instructions",
		"trial_index": 0,
		"time_elapsed": 128009,
		"internal_node_id": "0.0-0.0"
	},
	{
		"rt": null,
		"stimulus": "<span style= \"font-size:30px; font-family: monospace\">+</span>",
		"response": null,
		"trial_part": "fixation",
		"trial_type": "html-keyboard-response",
		"trial_index": 1,
		"time_elapsed": 129116,
		"internal_node_id": "0.0-1.0-0.0-0.0"
	},
	{
		"rt": 2734,
		"stimulus": "../audio/prac-question-1-1.mp3",
		"response": " ",
		"word": "O",
		"trial_type": "audio-keyboard-response",
		"trial_index": 2,
		"time_elapsed": 132188,
		"internal_node_id": "0.0-1.0-1.0"
	},
	{
		"rt": 1283,
		"stimulus": "../audio/prac-question-1-2.mp3",
		"response": " ",
		"word": "dia",
		"trial_type": "audio-keyboard-response",
		"trial_index": 3,
		"time_elapsed": 133749,
		"internal_node_id": "0.0-1.0-1.1"
	},
	{
		"rt": 1753,
		"stimulus": "../audio/prac-question-1-3.mp3",
		"response": " ",
		"word": "estará",
		"trial_type": "audio-keyboard-response",
		"trial_index": 4,
		"time_elapsed": 135782,
		"internal_node_id": "0.0-1.0-1.2"
	},
	{
		"rt": 1144,
		"stimulus": "../audio/prac-question-1-4.mp3",
		"response": " ",
		"word": "cheio",
		"trial_type": "audio-keyboard-response",
		"trial_index": 5,
		"time_elapsed": 137209,
		"internal_node_id": "0.0-1.0-1.3"
	},
	{
		"rt": 894,
		"stimulus": "../audio/prac-question-1-5.mp3",
		"response": " ",
		"word": "de",
		"trial_type": "audio-keyboard-response",
		"trial_index": 6,
		"time_elapsed": 138376,
		"internal_node_id": "0.0-1.0-1.4"
	},
	{
		"rt": 1300,
		"stimulus": "../audio/prac-question-1-6.mp3",
		"response": " ",
		"word": "nuvens",
		"trial_type": "audio-keyboard-response",
		"trial_index": 7,
		"time_elapsed": 139957,
		"internal_node_id": "0.0-1.0-1.5"
	},
	{
		"rt": 969,
		"stimulus": "../audio/prac-question-1-7.mp3",
		"response": " ",
		"word": "hoje.",
		"trial_type": "audio-keyboard-response",
		"trial_index": 8,
		"time_elapsed": 141201,
		"internal_node_id": "0.0-1.0-1.6"
	},
	{
		"rt": null,
		"stimulus": "<span style= \"font-size:30px; font-family: monospace\">+</span>",
		"response": null,
		"trial_part": "fixation",
		"trial_type": "html-keyboard-response",
		"trial_index": 9,
		"time_elapsed": 142462,
		"internal_node_id": "0.0-1.0-0.7-0.7"
	},
	{
		"rt": 842,
		"stimulus": "../audio/prac-question-2-1.mp3",
		"response": " ",
		"word": "A",
		"trial_type": "audio-keyboard-response",
		"trial_index": 10,
		"time_elapsed": 143581,
		"internal_node_id": "0.0-1.0-1.7"
	},
	{
		"rt": 865,
		"stimulus": "../audio/prac-question-2-2.mp3",
		"response": " ",
		"word": "caneca",
		"trial_type": "audio-keyboard-response",
		"trial_index": 11,
		"time_elapsed": 144724,
		"internal_node_id": "0.0-1.0-1.8"
	},
	{
		"rt": 116,
		"stimulus": "../audio/prac-question-2-3.mp3",
		"response": " ",
		"word": "colorida",
		"trial_type": "audio-keyboard-response",
		"trial_index": 12,
		"time_elapsed": 145120,
		"internal_node_id": "0.0-1.0-1.9"
	},
	{
		"rt": 981,
		"stimulus": "../audio/prac-question-2-4.mp3",
		"response": " ",
		"word": "caiu",
		"trial_type": "audio-keyboard-response",
		"trial_index": 13,
		"time_elapsed": 146379,
		"internal_node_id": "0.0-1.0-1.10"
	},
	{
		"rt": 708,
		"stimulus": "../audio/prac-question-2-5.mp3",
		"response": " ",
		"word": "da",
		"trial_type": "audio-keyboard-response",
		"trial_index": 14,
		"time_elapsed": 147362,
		"internal_node_id": "0.0-1.0-1.11"
	},
	{
		"rt": 1062,
		"stimulus": "../audio/prac-question-2-6.mp3",
		"response": " ",
		"word": "mesa",
		"trial_type": "audio-keyboard-response",
		"trial_index": 15,
		"time_elapsed": 148701,
		"internal_node_id": "0.0-1.0-1.12"
	},
	{
		"rt": 714,
		"stimulus": "../audio/prac-question-2-7.mp3",
		"response": " ",
		"word": "de",
		"trial_type": "audio-keyboard-response",
		"trial_index": 16,
		"time_elapsed": 149684,
		"internal_node_id": "0.0-1.0-1.13"
	},
	{
		"rt": 22030,
		"stimulus": "../audio/prac-question-2-8.mp3",
		"response": " ",
		"word": "jantar.",
		"trial_type": "audio-keyboard-response",
		"trial_index": 17,
		"time_elapsed": 171987,
		"internal_node_id": "0.0-1.0-1.14"
	},
	{
		"rt": 40689,
		"stimulus": "<span style=\"font-size:25px; font-family: monospace\">A caneca era colorida?</span>",
		"response": "s",
		"question": "A caneca era colorida?",
		"answer": "null",
		"trial": "prac-sent",
		"trial_type": "html-keyboard-response",
		"trial_index": 18,
		"time_elapsed": 212932,
		"internal_node_id": "0.0-1.0-2.14-0.14",
		"accuracy": false
	},
	{
		"view_history": [
			{
				"page_index": 0,
				"viewing_time": 69368
			}
		],
		"rt": 69368,
		"trial_type": "instructions",
		"trial_index": 19,
		"time_elapsed": 282807,
		"internal_node_id": "0.0-2.0"
	},
	{
		"rt": null,
		"stimulus": "<span style= \"font-size:30px; font-family: monospace\">+</span>",
		"response": null,
		"trial_part": "fixation",
		"trial_type": "html-keyboard-response",
		"trial_index": 20,
		"time_elapsed": 283917,
		"internal_node_id": "0.0-3.0-0.0-0.0"
	},
	{
		"rt": 1741,
		"stimulus": "../audio/66-1-fem.mp3",
		"response": " ",
		"word": "Não",
		"trial_type": "audio-keyboard-response",
		"trial_index": 21,
		"time_elapsed": 285963,
		"internal_node_id": "0.0-3.0-1.0"
	},
	{
		"rt": 2113,
		"stimulus": "../audio/66-2-fem.mp3",
		"response": " ",
		"word": "gosto",
		"trial_type": "audio-keyboard-response",
		"trial_index": 22,
		"time_elapsed": 288357,
		"internal_node_id": "0.0-3.0-1.1"
	},
	{
		"rt": 35,
		"stimulus": "../audio/66-3-fem.mp3",
		"response": " ",
		"word": "de",
		"trial_type": "audio-keyboard-response",
		"trial_index": 23,
		"time_elapsed": 288676,
		"internal_node_id": "0.0-3.0-1.2"
	},
	{
		"rt": 1486,
		"stimulus": "../audio/66-4-fem.mp3",
		"response": " ",
		"word": "gente",
		"trial_type": "audio-keyboard-response",
		"trial_index": 24,
		"time_elapsed": 290435,
		"internal_node_id": "0.0-3.0-1.3"
	},
	{
		"rt": 1678,
		"stimulus": "../audio/66-5-fem.mp3",
		"response": " ",
		"word": "egoísta",
		"trial_type": "audio-keyboard-response",
		"trial_index": 25,
		"time_elapsed": 292401,
		"internal_node_id": "0.0-3.0-1.4"
	},
	{
		"rt": 319,
		"stimulus": "../audio/66-6-fem.mp3",
		"response": " ",
		"word": "nem",
		"trial_type": "audio-keyboard-response",
		"trial_index": 26,
		"time_elapsed": 292997,
		"internal_node_id": "0.0-3.0-1.5"
	},
	{
		"rt": 12,
		"stimulus": "../audio/66-7-fem.mp3",
		"response": " ",
		"word": "chata.",
		"trial_type": "audio-keyboard-response",
		"trial_index": 27,
		"time_elapsed": 293291,
		"internal_node_id": "0.0-3.0-1.6"
	},
	{
		"rt": null,
		"stimulus": "<span style= \"font-size:30px; font-family: monospace\">+</span>",
		"response": null,
		"trial_part": "fixation",
		"trial_type": "html-keyboard-response",
		"trial_index": 28,
		"time_elapsed": 294550,
		"internal_node_id": "0.0-3.0-0.7-0.7"
	},
	{
		"rt": 1666,
		"stimulus": "../audio/68-1-masc.mp3",
		"response": " ",
		"word": "Meu",
		"trial_type": "audio-keyboard-response",
		"trial_index": 29,
		"time_elapsed": 296493,
		"internal_node_id": "0.0-3.0-1.7"
	},
	{
		"rt": 1196,
		"stimulus": "../audio/68-2-masc.mp3",
		"response": " ",
		"word": "irmão",
		"trial_type": "audio-keyboard-response",
		"trial_index": 30,
		"time_elapsed": 297972,
		"internal_node_id": "0.0-3.0-1.8"
	},
	{
		"rt": 1045,
		"stimulus": "../audio/68-3-masc.mp3",
		"response": " ",
		"word": "teve",
		"trial_type": "audio-keyboard-response",
		"trial_index": 31,
		"time_elapsed": 299293,
		"internal_node_id": "0.0-3.0-1.9"
	},
	{
		"rt": 894,
		"stimulus": "../audio/68-4-masc.mp3",
		"response": " ",
		"word": "um",
		"trial_type": "audio-keyboard-response",
		"trial_index": 32,
		"time_elapsed": 300467,
		"internal_node_id": "0.0-3.0-1.10"
	},
	{
		"rt": 1445,
		"stimulus": "../audio/68-5-masc.mp3",
		"response": " ",
		"word": "noivado",
		"trial_type": "audio-keyboard-response",
		"trial_index": 33,
		"time_elapsed": 302196,
		"internal_node_id": "0.0-3.0-1.11"
	},
	{
		"rt": 1045,
		"stimulus": "../audio/68-6-masc.mp3",
		"response": " ",
		"word": "longo",
		"trial_type": "audio-keyboard-response",
		"trial_index": 34,
		"time_elapsed": 303524,
		"internal_node_id": "0.0-3.0-1.12"
	},
	{
		"rt": 778,
		"stimulus": "../audio/68-7-masc.mp3",
		"response": " ",
		"word": "e",
		"trial_type": "audio-keyboard-response",
		"trial_index": 35,
		"time_elapsed": 304581,
		"internal_node_id": "0.0-3.0-1.13"
	},
	{
		"rt": 1190,
		"stimulus": "../audio/68-8-masc.mp3",
		"response": " ",
		"word": "maravilhoso.",
		"trial_type": "audio-keyboard-response",
		"trial_index": 36,
		"time_elapsed": 306046,
		"internal_node_id": "0.0-3.0-1.14"
	},
	{
		"rt": null,
		"stimulus": "<span style= \"font-size:30px; font-family: monospace\">+</span>",
		"response": null,
		"trial_part": "fixation",
		"trial_type": "html-keyboard-response",
		"trial_index": 37,
		"time_elapsed": 307304,
		"internal_node_id": "0.0-3.0-0.15-0.15"
	},
	{
		"rt": 772,
		"stimulus": "../audio/69-1-masc.mp3",
		"response": " ",
		"word": "A",
		"trial_type": "audio-keyboard-response",
		"trial_index": 38,
		"time_elapsed": 308362,
		"internal_node_id": "0.0-3.0-1.15"
	},
	{
		"rt": 987,
		"stimulus": "../audio/69-2-masc.mp3",
		"response": " ",
		"word": "loja",
		"trial_type": "audio-keyboard-response",
		"trial_index": 39,
		"time_elapsed": 309623,
		"internal_node_id": "0.0-3.0-1.16"
	},
	{
		"rt": 1115,
		"stimulus": "../audio/69-3-masc.mp3",
		"response": " ",
		"word": "recebeu",
		"trial_type": "audio-keyboard-response",
		"trial_index": 40,
		"time_elapsed": 311012,
		"internal_node_id": "0.0-3.0-1.17"
	},
	{
		"rt": 1033,
		"stimulus": "../audio/69-4-masc.mp3",
		"response": " ",
		"word": "uma",
		"trial_type": "audio-keyboard-response",
		"trial_index": 41,
		"time_elapsed": 312315,
		"internal_node_id": "0.0-3.0-1.18"
	},
	{
		"rt": 1149,
		"stimulus": "../audio/69-5-masc.mp3",
		"response": " ",
		"word": "poltrona",
		"trial_type": "audio-keyboard-response",
		"trial_index": 42,
		"time_elapsed": 313744,
		"internal_node_id": "0.0-3.0-1.19"
	},
	{
		"rt": 720,
		"stimulus": "../audio/69-6-masc.mp3",
		"response": " ",
		"word": "de",
		"trial_type": "audio-keyboard-response",
		"trial_index": 43,
		"time_elapsed": 314737,
		"internal_node_id": "0.0-3.0-1.20"
	},
	{
		"rt": 1062,
		"stimulus": "../audio/69-7-masc.mp3",
		"response": " ",
		"word": "couro",
		"trial_type": "audio-keyboard-response",
		"trial_index": 44,
		"time_elapsed": 316076,
		"internal_node_id": "0.0-3.0-1.21"
	},
	{
		"rt": 1016,
		"stimulus": "../audio/69-8-masc.mp3",
		"response": " ",
		"word": "preto.",
		"trial_type": "audio-keyboard-response",
		"trial_index": 45,
		"time_elapsed": 317367,
		"internal_node_id": "0.0-3.0-1.22"
	},
	{
		"rt": null,
		"stimulus": "<span style= \"font-size:30px; font-family: monospace\">+</span>",
		"response": null,
		"trial_part": "fixation",
		"trial_type": "html-keyboard-response",
		"trial_index": 46,
		"time_elapsed": 318624,
		"internal_node_id": "0.0-3.0-0.23-0.23"
	},
	{
		"rt": 888,
		"stimulus": "../audio/67-1-masc.mp3",
		"response": " ",
		"word": "Minha",
		"trial_type": "audio-keyboard-response",
		"trial_index": 47,
		"time_elapsed": 319797,
		"internal_node_id": "0.0-3.0-1.23"
	},
	{
		"rt": 778,
		"stimulus": "../audio/67-2-masc.mp3",
		"response": " ",
		"word": "tia",
		"trial_type": "audio-keyboard-response",
		"trial_index": 48,
		"time_elapsed": 320850,
		"internal_node_id": "0.0-3.0-1.24"
	},
	{
		"rt": 935,
		"stimulus": "../audio/67-3-masc.mp3",
		"response": " ",
		"word": "comprou",
		"trial_type": "audio-keyboard-response",
		"trial_index": 49,
		"time_elapsed": 322056,
		"internal_node_id": "0.0-3.0-1.25"
	},
	{
		"rt": 807,
		"stimulus": "../audio/67-4-masc.mp3",
		"response": " ",
		"word": "um",
		"trial_type": "audio-keyboard-response",
		"trial_index": 50,
		"time_elapsed": 323141,
		"internal_node_id": "0.0-3.0-1.26"
	},
	{
		"rt": 993,
		"stimulus": "../audio/67-5-masc.mp3",
		"response": " ",
		"word": "cordão",
		"trial_type": "audio-keyboard-response",
		"trial_index": 51,
		"time_elapsed": 324414,
		"internal_node_id": "0.0-3.0-1.27"
	},
	{
		"rt": 888,
		"stimulus": "../audio/67-6-masc.mp3",
		"response": " ",
		"word": "para",
		"trial_type": "audio-keyboard-response",
		"trial_index": 52,
		"time_elapsed": 325574,
		"internal_node_id": "0.0-3.0-1.28"
	},
	{
		"rt": 1057,
		"stimulus": "../audio/67-7-masc.mp3",
		"response": " ",
		"word": "o",
		"trial_type": "audio-keyboard-response",
		"trial_index": 53,
		"time_elapsed": 326901,
		"internal_node_id": "0.0-3.0-1.29"
	},
	{
		"rt": 964,
		"stimulus": "../audio/67-8-masc.mp3",
		"response": " ",
		"word": "varal.",
		"trial_type": "audio-keyboard-response",
		"trial_index": 54,
		"time_elapsed": 328144,
		"internal_node_id": "0.0-3.0-1.30"
	},
	{
		"rt": null,
		"stimulus": "<span style= \"font-size:30px; font-family: monospace\">+</span>",
		"response": null,
		"trial_part": "fixation",
		"trial_type": "html-keyboard-response",
		"trial_index": 55,
		"time_elapsed": 329404,
		"internal_node_id": "0.0-3.0-0.31-0.31"
	},
	{
		"rt": 807,
		"stimulus": "../audio/70-1-masc.mp3",
		"response": " ",
		"word": "O",
		"trial_type": "audio-keyboard-response",
		"trial_index": 56,
		"time_elapsed": 330497,
		"internal_node_id": "0.0-3.0-1.31"
	},
	{
		"rt": 848,
		"stimulus": "../audio/70-2-masc.mp3",
		"response": " ",
		"word": "meu",
		"trial_type": "audio-keyboard-response",
		"trial_index": 57,
		"time_elapsed": 331617,
		"internal_node_id": "0.0-3.0-1.32"
	},
	{
		"rt": 755,
		"stimulus": "../audio/70-3-masc.mp3",
		"response": " ",
		"word": "filho",
		"trial_type": "audio-keyboard-response",
		"trial_index": 58,
		"time_elapsed": 332641,
		"internal_node_id": "0.0-3.0-1.33"
	},
	{
		"rt": 737,
		"stimulus": "../audio/70-4-masc.mp3",
		"response": " ",
		"word": "tem",
		"trial_type": "audio-keyboard-response",
		"trial_index": 59,
		"time_elapsed": 333651,
		"internal_node_id": "0.0-3.0-1.34"
	},
	{
		"rt": 1022,
		"stimulus": "../audio/70-5-masc.mp3",
		"response": " ",
		"word": "medo",
		"trial_type": "audio-keyboard-response",
		"trial_index": 60,
		"time_elapsed": 334943,
		"internal_node_id": "0.0-3.0-1.35"
	},
	{
		"rt": 679,
		"stimulus": "../audio/70-6-masc.mp3",
		"response": " ",
		"word": "de",
		"trial_type": "audio-keyboard-response",
		"trial_index": 61,
		"time_elapsed": 335895,
		"internal_node_id": "0.0-3.0-1.36"
	},
	{
		"rt": 1068,
		"stimulus": "../audio/70-7-masc.mp3",
		"response": " ",
		"word": "enguia",
		"trial_type": "audio-keyboard-response",
		"trial_index": 62,
		"time_elapsed": 337283,
		"internal_node_id": "0.0-3.0-1.37"
	},
	{
		"rt": 685,
		"stimulus": "../audio/70-8-masc.mp3",
		"response": " ",
		"word": "e",
		"trial_type": "audio-keyboard-response",
		"trial_index": 63,
		"time_elapsed": 338240,
		"internal_node_id": "0.0-3.0-1.38"
	},
	{
		"rt": 1306,
		"stimulus": "../audio/70-9-masc.mp3",
		"response": " ",
		"word": "beija-flor.",
		"trial_type": "audio-keyboard-response",
		"trial_index": 64,
		"time_elapsed": 339826,
		"internal_node_id": "0.0-3.0-1.39"
	},
	{
		"rt": 19498,
		"stimulus": "<span style=\"font-size:25px; font-family: monospace\">O filho tem medo de tigre?</span>",
		"response": "n",
		"question": "O filho tem medo de tigre?",
		"answer": "null",
		"trial": "exp-sent",
		"trial_type": "html-keyboard-response",
		"trial_index": 65,
		"time_elapsed": 359577,
		"internal_node_id": "0.0-3.0-2.39-0.39",
		"accuracy": false
	},
	{
		"rt": null,
		"stimulus": "<span style= \"font-size:30px; font-family: monospace\">+</span>",
		"response": null,
		"trial_part": "fixation",
		"trial_type": "html-keyboard-response",
		"trial_index": 66,
		"time_elapsed": 361083,
		"internal_node_id": "0.0-3.0-0.40-0.40"
	},
	{
		"rt": 1358,
		"stimulus": "../audio/04-1-fem.mp3",
		"response": " ",
		"word": "Duzentos",
		"trial_type": "audio-keyboard-response",
		"trial_index": 67,
		"time_elapsed": 362721,
		"internal_node_id": "0.0-3.0-1.40"
	},
	{
		"rt": 917,
		"stimulus": "../audio/04-2-fem.mp3",
		"response": " ",
		"word": "carros",
		"trial_type": "audio-keyboard-response",
		"trial_index": 68,
		"time_elapsed": 363910,
		"internal_node_id": "0.0-3.0-1.41"
	},
	{
		"rt": 1144,
		"stimulus": "../audio/04-3-fem.mp3",
		"response": " ",
		"word": "passaram",
		"trial_type": "audio-keyboard-response",
		"trial_index": 69,
		"time_elapsed": 365357,
		"internal_node_id": "0.0-3.0-1.42"
	},
	{
		"rt": 900,
		"stimulus": "../audio/04-4-fem.mp3",
		"response": " ",
		"word": "pela",
		"trial_type": "audio-keyboard-response",
		"trial_index": 70,
		"time_elapsed": 366528,
		"internal_node_id": "0.0-3.0-1.43"
	},
	{
		"rt": 964,
		"stimulus": "../audio/04-5-fem.mp3",
		"response": " ",
		"word": "ponte",
		"trial_type": "audio-keyboard-response",
		"trial_index": 71,
		"time_elapsed": 367766,
		"internal_node_id": "0.0-3.0-1.44"
	},
	{
		"rt": 969,
		"stimulus": "../audio/04-6-fem.mp3",
		"response": " ",
		"word": "hoje",
		"trial_type": "audio-keyboard-response",
		"trial_index": 72,
		"time_elapsed": 369008,
		"internal_node_id": "0.0-3.0-1.45"
	},
	{
		"rt": 708,
		"stimulus": "../audio/04-7-fem.mp3",
		"response": " ",
		"word": "de",
		"trial_type": "audio-keyboard-response",
		"trial_index": 73,
		"time_elapsed": 369988,
		"internal_node_id": "0.0-3.0-1.46"
	},
	{
		"rt": 981,
		"stimulus": "../audio/04-8-fem.mp3",
		"response": " ",
		"word": "tarde.",
		"trial_type": "audio-keyboard-response",
		"trial_index": 74,
		"time_elapsed": 371311,
		"internal_node_id": "0.0-3.0-1.47"
	},
	{
		"rt": null,
		"stimulus": "<span style= \"font-size:30px; font-family: monospace\">+</span>",
		"response": null,
		"trial_part": "fixation",
		"trial_type": "html-keyboard-response",
		"trial_index": 75,
		"time_elapsed": 372570,
		"internal_node_id": "0.0-3.0-0.48-0.48"
	},
	{
		"rt": 743,
		"stimulus": "../audio/02-2-fem.mp3",
		"response": " ",
		"word": "Havia",
		"trial_type": "audio-keyboard-response",
		"trial_index": 76,
		"time_elapsed": 373592,
		"internal_node_id": "0.0-3.0-1.48"
	},
	{
		"rt": 749,
		"stimulus": "../audio/02-2-fem.mp3",
		"response": " ",
		"word": "um",
		"trial_type": "audio-keyboard-response",
		"trial_index": 77,
		"time_elapsed": 374592,
		"internal_node_id": "0.0-3.0-1.49"
	},
	{
		"rt": 766,
		"stimulus": "../audio/02-3-fem.mp3",
		"response": " ",
		"word": "cheiro",
		"trial_type": "audio-keyboard-response",
		"trial_index": 78,
		"time_elapsed": 375638,
		"internal_node_id": "0.0-3.0-1.50"
	},
	{
		"rt": 644,
		"stimulus": "../audio/02-4-fem.mp3",
		"response": " ",
		"word": "de",
		"trial_type": "audio-keyboard-response",
		"trial_index": 79,
		"time_elapsed": 376558,
		"internal_node_id": "0.0-3.0-1.51"
	},
	{
		"rt": 1033,
		"stimulus": "../audio/02-5-fem.mp3",
		"response": " ",
		"word": "gasolina",
		"trial_type": "audio-keyboard-response",
		"trial_index": 80,
		"time_elapsed": 377871,
		"internal_node_id": "0.0-3.0-1.52"
	},
	{
		"rt": 824,
		"stimulus": "../audio/02-6-fem.mp3",
		"response": " ",
		"word": "na",
		"trial_type": "audio-keyboard-response",
		"trial_index": 81,
		"time_elapsed": 378967,
		"internal_node_id": "0.0-3.0-1.53"
	},
	{
		"rt": 1010,
		"stimulus": "../audio/02-7-fem.mp3",
		"response": " ",
		"word": "garagem.",
		"trial_type": "audio-keyboard-response",
		"trial_index": 82,
		"time_elapsed": 380263,
		"internal_node_id": "0.0-3.0-1.54"
	},
	{
		"rt": null,
		"stimulus": "<span style= \"font-size:30px; font-family: monospace\">+</span>",
		"response": null,
		"trial_part": "fixation",
		"trial_type": "html-keyboard-response",
		"trial_index": 83,
		"time_elapsed": 381517,
		"internal_node_id": "0.0-3.0-0.55-0.55"
	},
	{
		"rt": 964,
		"stimulus": "../audio/01-1-masc.mp3",
		"response": " ",
		"word": "O",
		"trial_type": "audio-keyboard-response",
		"trial_index": 84,
		"time_elapsed": 382760,
		"internal_node_id": "0.0-3.0-1.55"
	},
	{
		"rt": 894,
		"stimulus": "../audio/01-2-masc.mp3",
		"response": " ",
		"word": "menino",
		"trial_type": "audio-keyboard-response",
		"trial_index": 85,
		"time_elapsed": 383936,
		"internal_node_id": "0.0-3.0-1.56"
	},
	{
		"rt": 1086,
		"stimulus": "../audio/01-3-masc.mp3",
		"response": " ",
		"word": "derrubou",
		"trial_type": "audio-keyboard-response",
		"trial_index": 86,
		"time_elapsed": 385297,
		"internal_node_id": "0.0-3.0-1.57"
	},
	{
		"rt": 766,
		"stimulus": "../audio/01-4-masc.mp3",
		"response": " ",
		"word": "a",
		"trial_type": "audio-keyboard-response",
		"trial_index": 87,
		"time_elapsed": 386339,
		"internal_node_id": "0.0-3.0-1.58"
	},
	{
		"rt": 1265,
		"stimulus": "../audio/01-5-masc.mp3",
		"response": " ",
		"word": "guitarra",
		"trial_type": "audio-keyboard-response",
		"trial_index": 88,
		"time_elapsed": 387883,
		"internal_node_id": "0.0-3.0-1.59"
	},
	{
		"rt": 766,
		"stimulus": "../audio/01-6-masc.mp3",
		"response": " ",
		"word": "no",
		"trial_type": "audio-keyboard-response",
		"trial_index": 89,
		"time_elapsed": 388922,
		"internal_node_id": "0.0-3.0-1.60"
	},
	{
		"rt": 772,
		"stimulus": "../audio/01-7-masc.mp3",
		"response": " ",
		"word": "chão.",
		"trial_type": "audio-keyboard-response",
		"trial_index": 90,
		"time_elapsed": 389967,
		"internal_node_id": "0.0-3.0-1.61"
	},
	{
		"rt": null,
		"stimulus": "<span style= \"font-size:30px; font-family: monospace\">+</span>",
		"response": null,
		"trial_part": "fixation",
		"trial_type": "html-keyboard-response",
		"trial_index": 91,
		"time_elapsed": 391223,
		"internal_node_id": "0.0-3.0-0.62-0.62"
	},
	{
		"rt": 685,
		"stimulus": "../audio/03-1-fem.mp3",
		"response": " ",
		"word": "O",
		"trial_type": "audio-keyboard-response",
		"trial_index": 92,
		"time_elapsed": 392187,
		"internal_node_id": "0.0-3.0-1.62"
	},
	{
		"rt": 1080,
		"stimulus": "../audio/03-2-fem.mp3",
		"response": " ",
		"word": "coelho",
		"trial_type": "audio-keyboard-response",
		"trial_index": 93,
		"time_elapsed": 393549,
		"internal_node_id": "0.0-3.0-1.63"
	},
	{
		"rt": 929,
		"stimulus": "../audio/03-3-fem.mp3",
		"response": " ",
		"word": "foi",
		"trial_type": "audio-keyboard-response",
		"trial_index": 94,
		"time_elapsed": 394754,
		"internal_node_id": "0.0-3.0-1.64"
	},
	{
		"rt": 1074,
		"stimulus": "../audio/03-4-fem.mp3",
		"response": " ",
		"word": "bastante",
		"trial_type": "audio-keyboard-response",
		"trial_index": 95,
		"time_elapsed": 396110,
		"internal_node_id": "0.0-3.0-1.65"
	},
	{
		"rt": 888,
		"stimulus": "../audio/03-5-fem.mp3",
		"response": " ",
		"word": "dócil",
		"trial_type": "audio-keyboard-response",
		"trial_index": 96,
		"time_elapsed": 397269,
		"internal_node_id": "0.0-3.0-1.66"
	},
	{
		"rt": 789,
		"stimulus": "../audio/03-6-fem.mp3",
		"response": " ",
		"word": "com",
		"trial_type": "audio-keyboard-response",
		"trial_index": 97,
		"time_elapsed": 398334,
		"internal_node_id": "0.0-3.0-1.67"
	},
	{
		"rt": 969,
		"stimulus": "../audio/03-7-fem.mp3",
		"response": " ",
		"word": "as",
		"trial_type": "audio-keyboard-response",
		"trial_index": 98,
		"time_elapsed": 399577,
		"internal_node_id": "0.0-3.0-1.68"
	},
	{
		"rt": 1027,
		"stimulus": "../audio/03-8-fem.mp3",
		"response": " ",
		"word": "crianças.",
		"trial_type": "audio-keyboard-response",
		"trial_index": 99,
		"time_elapsed": 400884,
		"internal_node_id": "0.0-3.0-1.69"
	},
	{
		"rt": null,
		"stimulus": "<span style= \"font-size:30px; font-family: monospace\">+</span>",
		"response": null,
		"trial_part": "fixation",
		"trial_type": "html-keyboard-response",
		"trial_index": 100,
		"time_elapsed": 402143,
		"internal_node_id": "0.0-3.0-0.70-0.70"
	},
	{
		"rt": 917,
		"stimulus": "../audio/05-1-fem.mp3",
		"response": " ",
		"word": "A",
		"trial_type": "audio-keyboard-response",
		"trial_index": 101,
		"time_elapsed": 403335,
		"internal_node_id": "0.0-3.0-1.70"
	},
	{
		"rt": 1103,
		"stimulus": "../audio/05-2-fem.mp3",
		"response": " ",
		"word": "vendedora",
		"trial_type": "audio-keyboard-response",
		"trial_index": 102,
		"time_elapsed": 404715,
		"internal_node_id": "0.0-3.0-1.71"
	},
	{
		"rt": 1086,
		"stimulus": "../audio/05-3-fem.mp3",
		"response": " ",
		"word": "ajudou",
		"trial_type": "audio-keyboard-response",
		"trial_index": 103,
		"time_elapsed": 406081,
		"internal_node_id": "0.0-3.0-1.72"
	},
	{
		"rt": 749,
		"stimulus": "../audio/05-4-fem.mp3",
		"response": " ",
		"word": "um",
		"trial_type": "audio-keyboard-response",
		"trial_index": 104,
		"time_elapsed": 407101,
		"internal_node_id": "0.0-3.0-1.73"
	},
	{
		"rt": 917,
		"stimulus": "../audio/05-5-fem.mp3",
		"response": " ",
		"word": "turista",
		"trial_type": "audio-keyboard-response",
		"trial_index": 105,
		"time_elapsed": 408292,
		"internal_node_id": "0.0-3.0-1.74"
	},
	{
		"rt": 906,
		"stimulus": "../audio/05-6-fem.mp3",
		"response": " ",
		"word": "na",
		"trial_type": "audio-keyboard-response",
		"trial_index": 106,
		"time_elapsed": 409470,
		"internal_node_id": "0.0-3.0-1.75"
	},
	{
		"rt": 917,
		"stimulus": "../audio/05-7-fem.mp3",
		"response": " ",
		"word": "loja.",
		"trial_type": "audio-keyboard-response",
		"trial_index": 107,
		"time_elapsed": 410662,
		"internal_node_id": "0.0-3.0-1.76"
	},
	{
		"rt": 6237,
		"stimulus": "<span style=\"font-size:25px; font-family: monospace\">A vendedora ajudou um turista?</span>",
		"response": "s",
		"question": "A vendedora ajudou um turista?",
		"answer": "null",
		"trial": "exp-sent",
		"trial_type": "html-keyboard-response",
		"trial_index": 108,
		"time_elapsed": 417152,
		"internal_node_id": "0.0-3.0-2.76-0.76",
		"accuracy": false
	},
	{
		"rt": null,
		"stimulus": "<span style= \"font-size:30px; font-family: monospace\">+</span>",
		"response": null,
		"trial_part": "fixation",
		"trial_type": "html-keyboard-response",
		"trial_index": 109,
		"time_elapsed": 418658,
		"internal_node_id": "0.0-3.0-0.77-0.77"
	},
	{
		"rt": 917,
		"stimulus": "../audio/59-1-masc.mp3",
		"response": " ",
		"word": "O",
		"trial_type": "audio-keyboard-response",
		"trial_index": 110,
		"time_elapsed": 419854,
		"internal_node_id": "0.0-3.0-1.77"
	},
	{
		"rt": 1091,
		"stimulus": "../audio/59-2-masc.mp3",
		"response": " ",
		"word": "carteiro",
		"trial_type": "audio-keyboard-response",
		"trial_index": 111,
		"time_elapsed": 421222,
		"internal_node_id": "0.0-3.0-1.78"
	},
	{
		"rt": 824,
		"stimulus": "../audio/59-3-masc.mp3",
		"response": " ",
		"word": "fez",
		"trial_type": "audio-keyboard-response",
		"trial_index": 112,
		"time_elapsed": 422491,
		"internal_node_id": "0.0-3.0-1.79"
	},
	{
		"rt": 807,
		"stimulus": "../audio/59-4-masc.mp3",
		"response": " ",
		"word": "uma",
		"trial_type": "audio-keyboard-response",
		"trial_index": 113,
		"time_elapsed": 423580,
		"internal_node_id": "0.0-3.0-1.80"
	},
	{
		"rt": 1016,
		"stimulus": "../audio/59-5-masc.mp3",
		"response": " ",
		"word": "tentativa",
		"trial_type": "audio-keyboard-response",
		"trial_index": 114,
		"time_elapsed": 424871,
		"internal_node_id": "0.0-3.0-1.81"
	},
	{
		"rt": 714,
		"stimulus": "../audio/59-6-masc.mp3",
		"response": " ",
		"word": "de",
		"trial_type": "audio-keyboard-response",
		"trial_index": 115,
		"time_elapsed": 425858,
		"internal_node_id": "0.0-3.0-1.82"
	},
	{
		"rt": 917,
		"stimulus": "../audio/59-7-masc.mp3",
		"response": " ",
		"word": "entrega.",
		"trial_type": "audio-keyboard-response",
		"trial_index": 116,
		"time_elapsed": 427049,
		"internal_node_id": "0.0-3.0-1.83"
	},
	{
		"rt": null,
		"stimulus": "<span style= \"font-size:30px; font-family: monospace\">+</span>",
		"response": null,
		"trial_part": "fixation",
		"trial_type": "html-keyboard-response",
		"trial_index": 117,
		"time_elapsed": 428307,
		"internal_node_id": "0.0-3.0-0.84-0.84"
	},
	{
		"rt": 807,
		"stimulus": "../audio/58-1-masc.mp3",
		"response": " ",
		"word": "Havia",
		"trial_type": "audio-keyboard-response",
		"trial_index": 118,
		"time_elapsed": 429392,
		"internal_node_id": "0.0-3.0-1.84"
	},
	{
		"rt": 853,
		"stimulus": "../audio/58-2-masc.mp3",
		"response": " ",
		"word": "apenas",
		"trial_type": "audio-keyboard-response",
		"trial_index": 119,
		"time_elapsed": 430529,
		"internal_node_id": "0.0-3.0-1.85"
	},
	{
		"rt": 697,
		"stimulus": "../audio/58-3-masc.mp3",
		"response": " ",
		"word": "um",
		"trial_type": "audio-keyboard-response",
		"trial_index": 120,
		"time_elapsed": 431495,
		"internal_node_id": "0.0-3.0-1.86"
	},
	{
		"rt": 998,
		"stimulus": "../audio/58-4-masc.mp3",
		"response": " ",
		"word": "último",
		"trial_type": "audio-keyboard-response",
		"trial_index": 121,
		"time_elapsed": 432768,
		"internal_node_id": "0.0-3.0-1.87"
	},
	{
		"rt": 830,
		"stimulus": "../audio/58-5-masc.mp3",
		"response": " ",
		"word": "herdeiro",
		"trial_type": "audio-keyboard-response",
		"trial_index": 122,
		"time_elapsed": 433874,
		"internal_node_id": "0.0-3.0-1.88"
	},
	{
		"rt": 714,
		"stimulus": "../audio/58-6-masc.mp3",
		"response": " ",
		"word": "do",
		"trial_type": "audio-keyboard-response",
		"trial_index": 123,
		"time_elapsed": 434856,
		"internal_node_id": "0.0-3.0-1.89"
	},
	{
		"rt": 795,
		"stimulus": "../audio/58-7-masc.mp3",
		"response": " ",
		"word": "dinheiro.",
		"trial_type": "audio-keyboard-response",
		"trial_index": 124,
		"time_elapsed": 435925,
		"internal_node_id": "0.0-3.0-1.90"
	},
	{
		"rt": null,
		"stimulus": "<span style= \"font-size:30px; font-family: monospace\">+</span>",
		"response": null,
		"trial_part": "fixation",
		"trial_type": "html-keyboard-response",
		"trial_index": 125,
		"time_elapsed": 437182,
		"internal_node_id": "0.0-3.0-0.91-0.91"
	},
	{
		"rt": 598,
		"stimulus": "../audio/57-1-fem.mp3",
		"response": " ",
		"word": "O",
		"trial_type": "audio-keyboard-response",
		"trial_index": 126,
		"time_elapsed": 438180,
		"internal_node_id": "0.0-3.0-1.91"
	},
	{
		"rt": 1144,
		"stimulus": "../audio/57-2-fem.mp3",
		"response": " ",
		"word": "capitão",
		"trial_type": "audio-keyboard-response",
		"trial_index": 127,
		"time_elapsed": 439592,
		"internal_node_id": "0.0-3.0-1.92"
	},
	{
		"rt": 784,
		"stimulus": "../audio/57-3-fem.mp3",
		"response": " ",
		"word": "deu",
		"trial_type": "audio-keyboard-response",
		"trial_index": 128,
		"time_elapsed": 440661,
		"internal_node_id": "0.0-3.0-1.93"
	},
	{
		"rt": 900,
		"stimulus": "../audio/57-4-fem.mp3",
		"response": " ",
		"word": "uma",
		"trial_type": "audio-keyboard-response",
		"trial_index": 129,
		"time_elapsed": 441836,
		"internal_node_id": "0.0-3.0-1.94"
	},
	{
		"rt": 1440,
		"stimulus": "../audio/57-5-fem.mp3",
		"response": " ",
		"word": "instrução",
		"trial_type": "audio-keyboard-response",
		"trial_index": 130,
		"time_elapsed": 443551,
		"internal_node_id": "0.0-3.0-1.95"
	},
	{
		"rt": 906,
		"stimulus": "../audio/57-6-fem.mp3",
		"response": " ",
		"word": "para",
		"trial_type": "audio-keyboard-response",
		"trial_index": 131,
		"time_elapsed": 444730,
		"internal_node_id": "0.0-3.0-1.96"
	},
	{
		"rt": 842,
		"stimulus": "../audio/57-7-fem.mp3",
		"response": " ",
		"word": "as",
		"trial_type": "audio-keyboard-response",
		"trial_index": 132,
		"time_elapsed": 445844,
		"internal_node_id": "0.0-3.0-1.97"
	},
	{
		"rt": 1004,
		"stimulus": "../audio/57-8-fem.mp3",
		"response": " ",
		"word": "pessoas.",
		"trial_type": "audio-keyboard-response",
		"trial_index": 133,
		"time_elapsed": 447130,
		"internal_node_id": "0.0-3.0-1.98"
	},
	{
		"rt": null,
		"stimulus": "<span style= \"font-size:30px; font-family: monospace\">+</span>",
		"response": null,
		"trial_part": "fixation",
		"trial_type": "html-keyboard-response",
		"trial_index": 134,
		"time_elapsed": 448386,
		"internal_node_id": "0.0-3.0-0.99-0.99"
	},
	{
		"rt": 621,
		"stimulus": "../audio/56-1-masc.mp3",
		"response": " ",
		"word": "A",
		"trial_type": "audio-keyboard-response",
		"trial_index": 135,
		"time_elapsed": 449288,
		"internal_node_id": "0.0-3.0-1.99"
	},
	{
		"rt": 917,
		"stimulus": "../audio/56-2-masc.mp3",
		"response": " ",
		"word": "moça",
		"trial_type": "audio-keyboard-response",
		"trial_index": 136,
		"time_elapsed": 450477,
		"internal_node_id": "0.0-3.0-1.100"
	},
	{
		"rt": 639,
		"stimulus": "../audio/56-3-masc.mp3",
		"response": " ",
		"word": "foi",
		"trial_type": "audio-keyboard-response",
		"trial_index": 137,
		"time_elapsed": 451388,
		"internal_node_id": "0.0-3.0-1.101"
	},
	{
		"rt": 766,
		"stimulus": "../audio/56-4-masc.mp3",
		"response": " ",
		"word": "à",
		"trial_type": "audio-keyboard-response",
		"trial_index": 138,
		"time_elapsed": 452438,
		"internal_node_id": "0.0-3.0-1.102"
	},
	{
		"rt": 911,
		"stimulus": "../audio/56-5-masc.mp3",
		"response": " ",
		"word": "agência",
		"trial_type": "audio-keyboard-response",
		"trial_index": 139,
		"time_elapsed": 453629,
		"internal_node_id": "0.0-3.0-1.103"
	},
	{
		"rt": 824,
		"stimulus": "../audio/56-6-masc.mp3",
		"response": " ",
		"word": "bancária",
		"trial_type": "audio-keyboard-response",
		"trial_index": 140,
		"time_elapsed": 454735,
		"internal_node_id": "0.0-3.0-1.104"
	},
	{
		"rt": 964,
		"stimulus": "../audio/56-7-masc.mp3",
		"response": " ",
		"word": "ontem",
		"trial_type": "audio-keyboard-response",
		"trial_index": 141,
		"time_elapsed": 455975,
		"internal_node_id": "0.0-3.0-1.105"
	},
	{
		"rt": 726,
		"stimulus": "../audio/56-8-masc.mp3",
		"response": " ",
		"word": "de",
		"trial_type": "audio-keyboard-response",
		"trial_index": 142,
		"time_elapsed": 456975,
		"internal_node_id": "0.0-3.0-1.106"
	},
	{
		"rt": 894,
		"stimulus": "../audio/56-9-masc.mp3",
		"response": " ",
		"word": "tarde.",
		"trial_type": "audio-keyboard-response",
		"trial_index": 143,
		"time_elapsed": 458150,
		"internal_node_id": "0.0-3.0-1.107"
	},
	{
		"rt": null,
		"stimulus": "<span style= \"font-size:30px; font-family: monospace\">+</span>",
		"response": null,
		"trial_part": "fixation",
		"trial_type": "html-keyboard-response",
		"trial_index": 144,
		"time_elapsed": 459405,
		"internal_node_id": "0.0-3.0-0.108-0.108"
	},
	{
		"rt": 1155,
		"stimulus": "../audio/60-1-fem.mp3",
		"response": " ",
		"word": "Ondas",
		"trial_type": "audio-keyboard-response",
		"trial_index": 145,
		"time_elapsed": 460846,
		"internal_node_id": "0.0-3.0-1.108"
	},
	{
		"rt": 778,
		"stimulus": "../audio/60-2-fem.mp3",
		"response": " ",
		"word": "têm",
		"trial_type": "audio-keyboard-response",
		"trial_index": 146,
		"time_elapsed": 461899,
		"internal_node_id": "0.0-3.0-1.109"
	},
	{
		"rt": 743,
		"stimulus": "../audio/60-3-fem.mp3",
		"response": " ",
		"word": "um",
		"trial_type": "audio-keyboard-response",
		"trial_index": 147,
		"time_elapsed": 462908,
		"internal_node_id": "0.0-3.0-1.110"
	},
	{
		"rt": 1265,
		"stimulus": "../audio/60-4-fem.mp3",
		"response": " ",
		"word": "impacto",
		"trial_type": "audio-keyboard-response",
		"trial_index": 148,
		"time_elapsed": 464445,
		"internal_node_id": "0.0-3.0-1.111"
	},
	{
		"rt": 987,
		"stimulus": "../audio/60-5-fem.mp3",
		"response": " ",
		"word": "destrutivo",
		"trial_type": "audio-keyboard-response",
		"trial_index": 149,
		"time_elapsed": 465716,
		"internal_node_id": "0.0-3.0-1.112"
	},
	{
		"rt": 906,
		"stimulus": "../audio/60-6-fem.mp3",
		"response": " ",
		"word": "no",
		"trial_type": "audio-keyboard-response",
		"trial_index": 150,
		"time_elapsed": 466894,
		"internal_node_id": "0.0-3.0-1.113"
	},
	{
		"rt": 969,
		"stimulus": "../audio/60-7-fem.mp3",
		"response": " ",
		"word": "litoral.",
		"trial_type": "audio-keyboard-response",
		"trial_index": 151,
		"time_elapsed": 468141,
		"internal_node_id": "0.0-3.0-1.114"
	},
	{
		"rt": 42549,
		"stimulus": "<span style=\"font-size:25px; font-family: monospace\">Ondas têm um impacto destrutivo?</span>",
		"response": "n",
		"question": "Ondas têm um impacto destrutivo?",
		"answer": "null",
		"trial": "exp-sent",
		"trial_type": "html-keyboard-response",
		"trial_index": 152,
		"time_elapsed": 510948,
		"internal_node_id": "0.0-3.0-2.114-0.114",
		"accuracy": false
	},
	{
		"rt": null,
		"stimulus": "<span style= \"font-size:30px; font-family: monospace\">+</span>",
		"response": null,
		"trial_part": "fixation",
		"trial_type": "html-keyboard-response",
		"trial_index": 153,
		"time_elapsed": 512454,
		"internal_node_id": "0.0-3.0-0.115-0.115"
	},
	{
		"rt": 1503,
		"stimulus": "../audio/54-1-fem.mp3",
		"response": " ",
		"word": "Estou",
		"trial_type": "audio-keyboard-response",
		"trial_index": 154,
		"time_elapsed": 514257,
		"internal_node_id": "0.0-3.0-1.115"
	},
	{
		"rt": 760,
		"stimulus": "../audio/54-2-fem.mp3",
		"response": " ",
		"word": "com",
		"trial_type": "audio-keyboard-response",
		"trial_index": 155,
		"time_elapsed": 515286,
		"internal_node_id": "0.0-3.0-1.116"
	},
	{
		"rt": 1335,
		"stimulus": "../audio/54-3-fem.mp3",
		"response": " ",
		"word": "medo",
		"trial_type": "audio-keyboard-response",
		"trial_index": 156,
		"time_elapsed": 516901,
		"internal_node_id": "0.0-3.0-1.117"
	},
	{
		"rt": 731,
		"stimulus": "../audio/54-4-fem.mp3",
		"response": " ",
		"word": "da",
		"trial_type": "audio-keyboard-response",
		"trial_index": 157,
		"time_elapsed": 517908,
		"internal_node_id": "0.0-3.0-1.118"
	},
	{
		"rt": 1178,
		"stimulus": "../audio/54-5-fem.mp3",
		"response": " ",
		"word": "atual",
		"trial_type": "audio-keyboard-response",
		"trial_index": 158,
		"time_elapsed": 519362,
		"internal_node_id": "0.0-3.0-1.119"
	},
	{
		"rt": 1596,
		"stimulus": "../audio/54-6-fem.mp3",
		"response": " ",
		"word": "organização",
		"trial_type": "audio-keyboard-response",
		"trial_index": 159,
		"time_elapsed": 521243,
		"internal_node_id": "0.0-3.0-1.120"
	},
	{
		"rt": 749,
		"stimulus": "../audio/54-7-fem.mp3",
		"response": " ",
		"word": "do",
		"trial_type": "audio-keyboard-response",
		"trial_index": 160,
		"time_elapsed": 522270,
		"internal_node_id": "0.0-3.0-1.121"
	},
	{
		"rt": 906,
		"stimulus": "../audio/54-8-fem.mp3",
		"response": " ",
		"word": "país.",
		"trial_type": "audio-keyboard-response",
		"trial_index": 161,
		"time_elapsed": 523457,
		"internal_node_id": "0.0-3.0-1.122"
	},
	{
		"rt": null,
		"stimulus": "<span style= \"font-size:30px; font-family: monospace\">+</span>",
		"response": null,
		"trial_part": "fixation",
		"trial_type": "html-keyboard-response",
		"trial_index": 162,
		"time_elapsed": 524713,
		"internal_node_id": "0.0-3.0-0.123-0.123"
	},
	{
		"rt": 714,
		"stimulus": "../audio/53-1-masc.mp3",
		"response": " ",
		"word": "O",
		"trial_type": "audio-keyboard-response",
		"trial_index": 163,
		"time_elapsed": 525713,
		"internal_node_id": "0.0-3.0-1.123"
	},
	{
		"rt": 853,
		"stimulus": "../audio/53-2-masc.mp3",
		"response": " ",
		"word": "médico",
		"trial_type": "audio-keyboard-response",
		"trial_index": 164,
		"time_elapsed": 526845,
		"internal_node_id": "0.0-3.0-1.124"
	},
	{
		"rt": 685,
		"stimulus": "../audio/53-3-masc.mp3",
		"response": " ",
		"word": "foi",
		"trial_type": "audio-keyboard-response",
		"trial_index": 165,
		"time_elapsed": 527796,
		"internal_node_id": "0.0-3.0-1.125"
	},
	{
		"rt": 975,
		"stimulus": "../audio/53-4-masc.mp3",
		"response": " ",
		"word": "bastante",
		"trial_type": "audio-keyboard-response",
		"trial_index": 166,
		"time_elapsed": 529053,
		"internal_node_id": "0.0-3.0-1.126"
	},
	{
		"rt": 940,
		"stimulus": "../audio/53-5-masc.mp3",
		"response": " ",
		"word": "preciso",
		"trial_type": "audio-keyboard-response",
		"trial_index": 167,
		"time_elapsed": 530271,
		"internal_node_id": "0.0-3.0-1.127"
	},
	{
		"rt": 760,
		"stimulus": "../audio/53-6-masc.mp3",
		"response": " ",
		"word": "durante",
		"trial_type": "audio-keyboard-response",
		"trial_index": 168,
		"time_elapsed": 531313,
		"internal_node_id": "0.0-3.0-1.128"
	},
	{
		"rt": 859,
		"stimulus": "../audio/53-7-masc.mp3",
		"response": " ",
		"word": "a",
		"trial_type": "audio-keyboard-response",
		"trial_index": 169,
		"time_elapsed": 532449,
		"internal_node_id": "0.0-3.0-1.129"
	},
	{
		"rt": 1138,
		"stimulus": "../audio/53-8-masc.mp3",
		"response": " ",
		"word": "cirurgia.",
		"trial_type": "audio-keyboard-response",
		"trial_index": 170,
		"time_elapsed": 533857,
		"internal_node_id": "0.0-3.0-1.130"
	},
	{
		"rt": null,
		"stimulus": "<span style= \"font-size:30px; font-family: monospace\">+</span>",
		"response": null,
		"trial_part": "fixation",
		"trial_type": "html-keyboard-response",
		"trial_index": 171,
		"time_elapsed": 535116,
		"internal_node_id": "0.0-3.0-0.131-0.131"
	},
	{
		"rt": 627,
		"stimulus": "../audio/52-1-masc.mp3",
		"response": " ",
		"word": "Às",
		"trial_type": "audio-keyboard-response",
		"trial_index": 172,
		"time_elapsed": 536024,
		"internal_node_id": "0.0-3.0-1.131"
	},
	{
		"rt": 824,
		"stimulus": "../audio/52-2-masc.mp3",
		"response": " ",
		"word": "vezes",
		"trial_type": "audio-keyboard-response",
		"trial_index": 173,
		"time_elapsed": 537121,
		"internal_node_id": "0.0-3.0-1.132"
	},
	{
		"rt": 720,
		"stimulus": "../audio/52-3-masc.mp3",
		"response": " ",
		"word": "eu",
		"trial_type": "audio-keyboard-response",
		"trial_index": 174,
		"time_elapsed": 538118,
		"internal_node_id": "0.0-3.0-1.133"
	},
	{
		"rt": 830,
		"stimulus": "../audio/52-4-masc.mp3",
		"response": " ",
		"word": "tenho",
		"trial_type": "audio-keyboard-response",
		"trial_index": 175,
		"time_elapsed": 539223,
		"internal_node_id": "0.0-3.0-1.134"
	},
	{
		"rt": 1080,
		"stimulus": "../audio/52-5-masc.mp3",
		"response": " ",
		"word": "azia",
		"trial_type": "audio-keyboard-response",
		"trial_index": 176,
		"time_elapsed": 540577,
		"internal_node_id": "0.0-3.0-1.135"
	},
	{
		"rt": 935,
		"stimulus": "../audio/52-6-masc.mp3",
		"response": " ",
		"word": "depois",
		"trial_type": "audio-keyboard-response",
		"trial_index": 177,
		"time_elapsed": 541781,
		"internal_node_id": "0.0-3.0-1.136"
	},
	{
		"rt": 801,
		"stimulus": "../audio/52-7-masc.mp3",
		"response": " ",
		"word": "da",
		"trial_type": "audio-keyboard-response",
		"trial_index": 178,
		"time_elapsed": 542858,
		"internal_node_id": "0.0-3.0-1.137"
	},
	{
		"rt": 778,
		"stimulus": "../audio/52-8-masc.mp3",
		"response": " ",
		"word": "janta.",
		"trial_type": "audio-keyboard-response",
		"trial_index": 179,
		"time_elapsed": 543911,
		"internal_node_id": "0.0-3.0-1.138"
	},
	{
		"rt": null,
		"stimulus": "<span style= \"font-size:30px; font-family: monospace\">+</span>",
		"response": null,
		"trial_part": "fixation",
		"trial_type": "html-keyboard-response",
		"trial_index": 180,
		"time_elapsed": 545171,
		"internal_node_id": "0.0-3.0-0.139-0.139"
	},
	{
		"rt": 1051,
		"stimulus": "../audio/51-1-fem.mp3",
		"response": " ",
		"word": "Suco",
		"trial_type": "audio-keyboard-response",
		"trial_index": 181,
		"time_elapsed": 546501,
		"internal_node_id": "0.0-3.0-1.139"
	},
	{
		"rt": 726,
		"stimulus": "../audio/51-2-fem.mp3",
		"response": " ",
		"word": "de",
		"trial_type": "audio-keyboard-response",
		"trial_index": 182,
		"time_elapsed": 547507,
		"internal_node_id": "0.0-3.0-1.140"
	},
	{
		"rt": 1399,
		"stimulus": "../audio/51-3-fem.mp3",
		"response": " ",
		"word": "acerola",
		"trial_type": "audio-keyboard-response",
		"trial_index": 183,
		"time_elapsed": 549184,
		"internal_node_id": "0.0-3.0-1.141"
	},
	{
		"rt": 662,
		"stimulus": "../audio/51-4-fem.mp3",
		"response": " ",
		"word": "é",
		"trial_type": "audio-keyboard-response",
		"trial_index": 184,
		"time_elapsed": 550117,
		"internal_node_id": "0.0-3.0-1.142"
	},
	{
		"rt": 1144,
		"stimulus": "../audio/51-5-fem.mp3",
		"response": " ",
		"word": "azedo",
		"trial_type": "audio-keyboard-response",
		"trial_index": 185,
		"time_elapsed": 551541,
		"internal_node_id": "0.0-3.0-1.143"
	},
	{
		"rt": 708,
		"stimulus": "../audio/51-6-fem.mp3",
		"response": " ",
		"word": "e",
		"trial_type": "audio-keyboard-response",
		"trial_index": 186,
		"time_elapsed": 552524,
		"internal_node_id": "0.0-3.0-1.144"
	},
	{
		"rt": 1004,
		"stimulus": "../audio/51-7-fem.mp3",
		"response": " ",
		"word": "até",
		"trial_type": "audio-keyboard-response",
		"trial_index": 187,
		"time_elapsed": 553800,
		"internal_node_id": "0.0-3.0-1.145"
	},
	{
		"rt": 1045,
		"stimulus": "../audio/51-8-fem.mp3",
		"response": " ",
		"word": "barato.",
		"trial_type": "audio-keyboard-response",
		"trial_index": 188,
		"time_elapsed": 555120,
		"internal_node_id": "0.0-3.0-1.146"
	},
	{
		"rt": null,
		"stimulus": "<span style= \"font-size:30px; font-family: monospace\">+</span>",
		"response": null,
		"trial_part": "fixation",
		"trial_type": "html-keyboard-response",
		"trial_index": 189,
		"time_elapsed": 556374,
		"internal_node_id": "0.0-3.0-0.147-0.147"
	},
	{
		"rt": 714,
		"stimulus": "../audio/55-1-masc.mp3",
		"response": " ",
		"word": "O",
		"trial_type": "audio-keyboard-response",
		"trial_index": 190,
		"time_elapsed": 557371,
		"internal_node_id": "0.0-3.0-1.147"
	},
	{
		"rt": 1027,
		"stimulus": "../audio/55-2-masc.mp3",
		"response": " ",
		"word": "insulto",
		"trial_type": "audio-keyboard-response",
		"trial_index": 191,
		"time_elapsed": 558676,
		"internal_node_id": "0.0-3.0-1.148"
	},
	{
		"rt": 987,
		"stimulus": "../audio/55-3-masc.mp3",
		"response": " ",
		"word": "recente",
		"trial_type": "audio-keyboard-response",
		"trial_index": 192,
		"time_elapsed": 559941,
		"internal_node_id": "0.0-3.0-1.149"
	},
	{
		"rt": 1004,
		"stimulus": "../audio/55-4-masc.mp3",
		"response": " ",
		"word": "causou",
		"trial_type": "audio-keyboard-response",
		"trial_index": 193,
		"time_elapsed": 561220,
		"internal_node_id": "0.0-3.0-1.150"
	},
	{
		"rt": 1428,
		"stimulus": "../audio/55-5-masc.mp3",
		"response": " ",
		"word": "indignação",
		"trial_type": "audio-keyboard-response",
		"trial_index": 194,
		"time_elapsed": 562930,
		"internal_node_id": "0.0-3.0-1.151"
	},
	{
		"rt": 917,
		"stimulus": "../audio/55-6-masc.mp3",
		"response": " ",
		"word": "em",
		"trial_type": "audio-keyboard-response",
		"trial_index": 195,
		"time_elapsed": 564121,
		"internal_node_id": "0.0-3.0-1.152"
	},
	{
		"rt": 853,
		"stimulus": "../audio/55-7-masc.mp3",
		"response": " ",
		"word": "todos.",
		"trial_type": "audio-keyboard-response",
		"trial_index": 196,
		"time_elapsed": 565254,
		"internal_node_id": "0.0-3.0-1.153"
	},
	{
		"rt": 8594,
		"stimulus": "<span style=\"font-size:25px; font-family: monospace\">O insulto causou calmaria?</span>",
		"response": "n",
		"question": "O insulto causou calmaria?",
		"answer": "null",
		"trial": "exp-sent",
		"trial_type": "html-keyboard-response",
		"trial_index": 197,
		"time_elapsed": 574100,
		"internal_node_id": "0.0-3.0-2.153-0.153",
		"accuracy": false
	},
	{
		"rt": null,
		"stimulus": "<span style= \"font-size:30px; font-family: monospace\">+</span>",
		"response": null,
		"trial_part": "fixation",
		"trial_type": "html-keyboard-response",
		"trial_index": 198,
		"time_elapsed": 575607,
		"internal_node_id": "0.0-3.0-0.154-0.154"
	},
	{
		"rt": 969,
		"stimulus": "../audio/62-1-masc.mp3",
		"response": " ",
		"word": "As",
		"trial_type": "audio-keyboard-response",
		"trial_index": 199,
		"time_elapsed": 576853,
		"internal_node_id": "0.0-3.0-1.154"
	},
	{
		"rt": 1370,
		"stimulus": "../audio/62-2-masc.mp3",
		"response": " ",
		"word": "artesãs",
		"trial_type": "audio-keyboard-response",
		"trial_index": 200,
		"time_elapsed": 578496,
		"internal_node_id": "0.0-3.0-1.155"
	},
	{
		"rt": 964,
		"stimulus": "../audio/62-3-masc.mp3",
		"response": " ",
		"word": "gostam",
		"trial_type": "audio-keyboard-response",
		"trial_index": 201,
		"time_elapsed": 579731,
		"internal_node_id": "0.0-3.0-1.156"
	},
	{
		"rt": 795,
		"stimulus": "../audio/62-4-masc.mp3",
		"response": " ",
		"word": "de",
		"trial_type": "audio-keyboard-response",
		"trial_index": 202,
		"time_elapsed": 580797,
		"internal_node_id": "0.0-3.0-1.157"
	},
	{
		"rt": 1149,
		"stimulus": "../audio/62-5-masc.mp3",
		"response": " ",
		"word": "maquiagem",
		"trial_type": "audio-keyboard-response",
		"trial_index": 203,
		"time_elapsed": 582221,
		"internal_node_id": "0.0-3.0-1.158"
	},
	{
		"rt": 720,
		"stimulus": "../audio/62-6-masc.mp3",
		"response": " ",
		"word": "e",
		"trial_type": "audio-keyboard-response",
		"trial_index": 204,
		"time_elapsed": 583216,
		"internal_node_id": "0.0-3.0-1.159"
	},
	{
		"rt": 714,
		"stimulus": "../audio/62-7-masc.mp3",
		"response": " ",
		"word": "de",
		"trial_type": "audio-keyboard-response",
		"trial_index": 205,
		"time_elapsed": 584199,
		"internal_node_id": "0.0-3.0-1.160"
	},
	{
		"rt": 853,
		"stimulus": "../audio/62-8-masc.mp3",
		"response": " ",
		"word": "crochê.",
		"trial_type": "audio-keyboard-response",
		"trial_index": 206,
		"time_elapsed": 585325,
		"internal_node_id": "0.0-3.0-1.161"
	},
	{
		"rt": null,
		"stimulus": "<span style= \"font-size:30px; font-family: monospace\">+</span>",
		"response": null,
		"trial_part": "fixation",
		"trial_type": "html-keyboard-response",
		"trial_index": 207,
		"time_elapsed": 586583,
		"internal_node_id": "0.0-3.0-0.162-0.162"
	},
	{
		"rt": 668,
		"stimulus": "../audio/63-1-masc.mp3",
		"response": " ",
		"word": "A",
		"trial_type": "audio-keyboard-response",
		"trial_index": 208,
		"time_elapsed": 587531,
		"internal_node_id": "0.0-3.0-1.162"
	},
	{
		"rt": 900,
		"stimulus": "../audio/63-2-masc.mp3",
		"response": " ",
		"word": "chuva",
		"trial_type": "audio-keyboard-response",
		"trial_index": 209,
		"time_elapsed": 588719,
		"internal_node_id": "0.0-3.0-1.163"
	},
	{
		"rt": 946,
		"stimulus": "../audio/63-3-masc.mp3",
		"response": " ",
		"word": "entrou",
		"trial_type": "audio-keyboard-response",
		"trial_index": 210,
		"time_elapsed": 589939,
		"internal_node_id": "0.0-3.0-1.164"
	},
	{
		"rt": 853,
		"stimulus": "../audio/63-4-masc.mp3",
		"response": " ",
		"word": "pela",
		"trial_type": "audio-keyboard-response",
		"trial_index": 211,
		"time_elapsed": 591076,
		"internal_node_id": "0.0-3.0-1.165"
	},
	{
		"rt": 1126,
		"stimulus": "../audio/63-5-masc.mp3",
		"response": " ",
		"word": "abertura",
		"trial_type": "audio-keyboard-response",
		"trial_index": 212,
		"time_elapsed": 592479,
		"internal_node_id": "0.0-3.0-1.166"
	},
	{
		"rt": 819,
		"stimulus": "../audio/63-6-masc.mp3",
		"response": " ",
		"word": "na",
		"trial_type": "audio-keyboard-response",
		"trial_index": 213,
		"time_elapsed": 593572,
		"internal_node_id": "0.0-3.0-1.167"
	},
	{
		"rt": 1027,
		"stimulus": "../audio/63-7-masc.mp3",
		"response": " ",
		"word": "janela.",
		"trial_type": "audio-keyboard-response",
		"trial_index": 214,
		"time_elapsed": 594872,
		"internal_node_id": "0.0-3.0-1.168"
	},
	{
		"rt": null,
		"stimulus": "<span style= \"font-size:30px; font-family: monospace\">+</span>",
		"response": null,
		"trial_part": "fixation",
		"trial_type": "html-keyboard-response",
		"trial_index": 215,
		"time_elapsed": 596128,
		"internal_node_id": "0.0-3.0-0.169-0.169"
	},
	{
		"rt": 650,
		"stimulus": "../audio/64-1-masc.mp3",
		"response": " ",
		"word": "O",
		"trial_type": "audio-keyboard-response",
		"trial_index": 216,
		"time_elapsed": 597057,
		"internal_node_id": "0.0-3.0-1.169"
	},
	{
		"rt": 859,
		"stimulus": "../audio/64-2-masc.mp3",
		"response": " ",
		"word": "dia",
		"trial_type": "audio-keyboard-response",
		"trial_index": 217,
		"time_elapsed": 598191,
		"internal_node_id": "0.0-3.0-1.170"
	},
	{
		"rt": 819,
		"stimulus": "../audio/64-3-masc.mp3",
		"response": " ",
		"word": "começou",
		"trial_type": "audio-keyboard-response",
		"trial_index": 218,
		"time_elapsed": 599285,
		"internal_node_id": "0.0-3.0-1.171"
	},
	{
		"rt": 743,
		"stimulus": "../audio/64-4-masc.mp3",
		"response": " ",
		"word": "com",
		"trial_type": "audio-keyboard-response",
		"trial_index": 219,
		"time_elapsed": 600300,
		"internal_node_id": "0.0-3.0-1.172"
	},
	{
		"rt": 859,
		"stimulus": "../audio/64-5-masc.mp3",
		"response": " ",
		"word": "garoa",
		"trial_type": "audio-keyboard-response",
		"trial_index": 220,
		"time_elapsed": 601440,
		"internal_node_id": "0.0-3.0-1.173"
	},
	{
		"rt": 923,
		"stimulus": "../audio/64-6-masc.mp3",
		"response": " ",
		"word": "gelada",
		"trial_type": "audio-keyboard-response",
		"trial_index": 221,
		"time_elapsed": 602642,
		"internal_node_id": "0.0-3.0-1.174"
	},
	{
		"rt": 702,
		"stimulus": "../audio/64-7-masc.mp3",
		"response": " ",
		"word": "e",
		"trial_type": "audio-keyboard-response",
		"trial_index": 222,
		"time_elapsed": 603611,
		"internal_node_id": "0.0-3.0-1.175"
	},
	{
		"rt": 1022,
		"stimulus": "../audio/64-8-masc.mp3",
		"response": " ",
		"word": "leve.",
		"trial_type": "audio-keyboard-response",
		"trial_index": 223,
		"time_elapsed": 604909,
		"internal_node_id": "0.0-3.0-1.176"
	},
	{
		"rt": null,
		"stimulus": "<span style= \"font-size:30px; font-family: monospace\">+</span>",
		"response": null,
		"trial_part": "fixation",
		"trial_type": "html-keyboard-response",
		"trial_index": 224,
		"time_elapsed": 606165,
		"internal_node_id": "0.0-3.0-0.177-0.177"
	},
	{
		"rt": 1045,
		"stimulus": "../audio/61-1-fem.mp3",
		"response": " ",
		"word": "Aquele",
		"trial_type": "audio-keyboard-response",
		"trial_index": 225,
		"time_elapsed": 607489,
		"internal_node_id": "0.0-3.0-1.177"
	},
	{
		"rt": 1033,
		"stimulus": "../audio/61-2-fem.mp3",
		"response": " ",
		"word": "senhor",
		"trial_type": "audio-keyboard-response",
		"trial_index": 226,
		"time_elapsed": 608797,
		"internal_node_id": "0.0-3.0-1.178"
	},
	{
		"rt": 697,
		"stimulus": "../audio/61-3-fem.mp3",
		"response": " ",
		"word": "é",
		"trial_type": "audio-keyboard-response",
		"trial_index": 227,
		"time_elapsed": 609770,
		"internal_node_id": "0.0-3.0-1.179"
	},
	{
		"rt": 1103,
		"stimulus": "../audio/61-4-fem.mp3",
		"response": " ",
		"word": "muito",
		"trial_type": "audio-keyboard-response",
		"trial_index": 228,
		"time_elapsed": 611157,
		"internal_node_id": "0.0-3.0-1.180"
	},
	{
		"rt": 1306,
		"stimulus": "../audio/61-5-fem.mp3",
		"response": " ",
		"word": "sovina",
		"trial_type": "audio-keyboard-response",
		"trial_index": 229,
		"time_elapsed": 612745,
		"internal_node_id": "0.0-3.0-1.181"
	},
	{
		"rt": 766,
		"stimulus": "../audio/61-6-fem.mp3",
		"response": " ",
		"word": "e",
		"trial_type": "audio-keyboard-response",
		"trial_index": 230,
		"time_elapsed": 613785,
		"internal_node_id": "0.0-3.0-1.182"
	},
	{
		"rt": 1260,
		"stimulus": "../audio/61-7-fem.mp3",
		"response": " ",
		"word": "inflexível.",
		"trial_type": "audio-keyboard-response",
		"trial_index": 231,
		"time_elapsed": 615331,
		"internal_node_id": "0.0-3.0-1.183"
	},
	{
		"rt": null,
		"stimulus": "<span style= \"font-size:30px; font-family: monospace\">+</span>",
		"response": null,
		"trial_part": "fixation",
		"trial_type": "html-keyboard-response",
		"trial_index": 232,
		"time_elapsed": 616591,
		"internal_node_id": "0.0-3.0-0.184-0.184"
	},
	{
		"rt": 859,
		"stimulus": "../audio/65-1-fem.mp3",
		"response": " ",
		"word": "O",
		"trial_type": "audio-keyboard-response",
		"trial_index": 233,
		"time_elapsed": 617742,
		"internal_node_id": "0.0-3.0-1.184"
	},
	{
		"rt": 1062,
		"stimulus": "../audio/65-2-fem.mp3",
		"response": " ",
		"word": "fantasma",
		"trial_type": "audio-keyboard-response",
		"trial_index": 234,
		"time_elapsed": 619088,
		"internal_node_id": "0.0-3.0-1.185"
	},
	{
		"rt": 819,
		"stimulus": "../audio/65-3-fem.mp3",
		"response": " ",
		"word": "veio",
		"trial_type": "audio-keyboard-response",
		"trial_index": 235,
		"time_elapsed": 620190,
		"internal_node_id": "0.0-3.0-1.186"
	},
	{
		"rt": 795,
		"stimulus": "../audio/65-4-fem.mp3",
		"response": " ",
		"word": "da",
		"trial_type": "audio-keyboard-response",
		"trial_index": 236,
		"time_elapsed": 621261,
		"internal_node_id": "0.0-3.0-1.187"
	},
	{
		"rt": 1097,
		"stimulus": "../audio/65-5-fem.mp3",
		"response": " ",
		"word": "escuridão",
		"trial_type": "audio-keyboard-response",
		"trial_index": 237,
		"time_elapsed": 622641,
		"internal_node_id": "0.0-3.0-1.188"
	},
	{
		"rt": 1027,
		"stimulus": "../audio/65-6-fem.mp3",
		"response": " ",
		"word": "do",
		"trial_type": "audio-keyboard-response",
		"trial_index": 238,
		"time_elapsed": 623948,
		"internal_node_id": "0.0-3.0-1.189"
	},
	{
		"rt": 1236,
		"stimulus": "../audio/65-7-fem.mp3",
		"response": " ",
		"word": "armário.",
		"trial_type": "audio-keyboard-response",
		"trial_index": 239,
		"time_elapsed": 625569,
		"internal_node_id": "0.0-3.0-1.190"
	},
	{
		"rt": 7431,
		"stimulus": "<span style=\"font-size:25px; font-family: monospace\">O fantasma veio da escuridão do armário?</span>",
		"response": "s",
		"question": "O fantasma veio da escuridão do armário?",
		"answer": "null",
		"trial": "exp-sent",
		"trial_type": "html-keyboard-response",
		"trial_index": 240,
		"time_elapsed": 633254,
		"internal_node_id": "0.0-3.0-2.190-0.190",
		"accuracy": false
	},
	{
		"rt": null,
		"stimulus": "<span style= \"font-size:30px; font-family: monospace\">+</span>",
		"response": null,
		"trial_part": "fixation",
		"trial_type": "html-keyboard-response",
		"trial_index": 241,
		"time_elapsed": 634762,
		"internal_node_id": "0.0-3.0-0.191-0.191"
	},
	{
		"rt": 755,
		"stimulus": "../audio/19-1-fem.mp3",
		"response": " ",
		"word": "O",
		"trial_type": "audio-keyboard-response",
		"trial_index": 242,
		"time_elapsed": 635805,
		"internal_node_id": "0.0-3.0-1.191"
	},
	{
		"rt": 981,
		"stimulus": "../audio/19-2-fem.mp3",
		"response": " ",
		"word": "menino",
		"trial_type": "audio-keyboard-response",
		"trial_index": 243,
		"time_elapsed": 637064,
		"internal_node_id": "0.0-3.0-1.192"
	},
	{
		"rt": 993,
		"stimulus": "../audio/19-3-fem.mp3",
		"response": " ",
		"word": "ganhou",
		"trial_type": "audio-keyboard-response",
		"trial_index": 244,
		"time_elapsed": 638327,
		"internal_node_id": "0.0-3.0-1.193"
	},
	{
		"rt": 848,
		"stimulus": "../audio/19-4-fem.mp3",
		"response": " ",
		"word": "uma",
		"trial_type": "audio-keyboard-response",
		"trial_index": 245,
		"time_elapsed": 639448,
		"internal_node_id": "0.0-3.0-1.194"
	},
	{
		"rt": 830,
		"stimulus": "../audio/19-5-fem.mp3",
		"response": " ",
		"word": "bala",
		"trial_type": "audio-keyboard-response",
		"trial_index": 246,
		"time_elapsed": 640551,
		"internal_node_id": "0.0-3.0-1.195"
	},
	{
		"rt": 981,
		"stimulus": "../audio/19-6-fem.mp3",
		"response": " ",
		"word": "depois",
		"trial_type": "audio-keyboard-response",
		"trial_index": 247,
		"time_elapsed": 641806,
		"internal_node_id": "0.0-3.0-1.196"
	},
	{
		"rt": 691,
		"stimulus": "../audio/19-7-fem.mp3",
		"response": " ",
		"word": "do",
		"trial_type": "audio-keyboard-response",
		"trial_index": 248,
		"time_elapsed": 642773,
		"internal_node_id": "0.0-3.0-1.197"
	},
	{
		"rt": 1022,
		"stimulus": "../audio/19-8-fem.mp3",
		"response": " ",
		"word": "almoço.",
		"trial_type": "audio-keyboard-response",
		"trial_index": 249,
		"time_elapsed": 644073,
		"internal_node_id": "0.0-3.0-1.198"
	},
	{
		"rt": null,
		"stimulus": "<span style= \"font-size:30px; font-family: monospace\">+</span>",
		"response": null,
		"trial_part": "fixation",
		"trial_type": "html-keyboard-response",
		"trial_index": 250,
		"time_elapsed": 645333,
		"internal_node_id": "0.0-3.0-0.199-0.199"
	},
	{
		"rt": 610,
		"stimulus": "../audio/18-1-fem.mp3",
		"response": " ",
		"word": "O",
		"trial_type": "audio-keyboard-response",
		"trial_index": 251,
		"time_elapsed": 646224,
		"internal_node_id": "0.0-3.0-1.199"
	},
	{
		"rt": 877,
		"stimulus": "../audio/18-2-fem.mp3",
		"response": " ",
		"word": "enredo",
		"trial_type": "audio-keyboard-response",
		"trial_index": 252,
		"time_elapsed": 647380,
		"internal_node_id": "0.0-3.0-1.200"
	},
	{
		"rt": 900,
		"stimulus": "../audio/18-3-fem.mp3",
		"response": " ",
		"word": "traz",
		"trial_type": "audio-keyboard-response",
		"trial_index": 253,
		"time_elapsed": 648552,
		"internal_node_id": "0.0-3.0-1.201"
	},
	{
		"rt": 650,
		"stimulus": "../audio/18-4-fem.mp3",
		"response": " ",
		"word": "um",
		"trial_type": "audio-keyboard-response",
		"trial_index": 254,
		"time_elapsed": 649480,
		"internal_node_id": "0.0-3.0-1.202"
	},
	{
		"rt": 894,
		"stimulus": "../audio/18-5-fem.mp3",
		"response": " ",
		"word": "dragão",
		"trial_type": "audio-keyboard-response",
		"trial_index": 255,
		"time_elapsed": 650652,
		"internal_node_id": "0.0-3.0-1.203"
	},
	{
		"rt": 911,
		"stimulus": "../audio/18-6-fem.mp3",
		"response": " ",
		"word": "forte",
		"trial_type": "audio-keyboard-response",
		"trial_index": 256,
		"time_elapsed": 651846,
		"internal_node_id": "0.0-3.0-1.204"
	},
	{
		"rt": 598,
		"stimulus": "../audio/18-7-fem.mp3",
		"response": " ",
		"word": "e",
		"trial_type": "audio-keyboard-response",
		"trial_index": 257,
		"time_elapsed": 652712,
		"internal_node_id": "0.0-3.0-1.205"
	},
	{
		"rt": 1167,
		"stimulus": "../audio/18-8-fem.mp3",
		"response": " ",
		"word": "solitário.",
		"trial_type": "audio-keyboard-response",
		"trial_index": 258,
		"time_elapsed": 654161,
		"internal_node_id": "0.0-3.0-1.206"
	},
	{
		"rt": null,
		"stimulus": "<span style= \"font-size:30px; font-family: monospace\">+</span>",
		"response": null,
		"trial_part": "fixation",
		"trial_type": "html-keyboard-response",
		"trial_index": 259,
		"time_elapsed": 655416,
		"internal_node_id": "0.0-3.0-0.207-0.207"
	},
	{
		"rt": 778,
		"stimulus": "../audio/17-1-fem.mp3",
		"response": " ",
		"word": "Falaram",
		"trial_type": "audio-keyboard-response",
		"trial_index": 260,
		"time_elapsed": 656479,
		"internal_node_id": "0.0-3.0-1.207"
	},
	{
		"rt": 720,
		"stimulus": "../audio/17-2-fem.mp3",
		"response": " ",
		"word": "da",
		"trial_type": "audio-keyboard-response",
		"trial_index": 261,
		"time_elapsed": 657476,
		"internal_node_id": "0.0-3.0-1.208"
	},
	{
		"rt": 807,
		"stimulus": "../audio/17-3-fem.mp3",
		"response": " ",
		"word": "lei",
		"trial_type": "audio-keyboard-response",
		"trial_index": 262,
		"time_elapsed": 658553,
		"internal_node_id": "0.0-3.0-1.209"
	},
	{
		"rt": 772,
		"stimulus": "../audio/17-4-fem.mp3",
		"response": " ",
		"word": "no",
		"trial_type": "audio-keyboard-response",
		"trial_index": 263,
		"time_elapsed": 659596,
		"internal_node_id": "0.0-3.0-1.210"
	},
	{
		"rt": 900,
		"stimulus": "../audio/17-5-fem.mp3",
		"response": " ",
		"word": "ministério",
		"trial_type": "audio-keyboard-response",
		"trial_index": 264,
		"time_elapsed": 660776,
		"internal_node_id": "0.0-3.0-1.211"
	},
	{
		"rt": 1010,
		"stimulus": "../audio/17-6-fem.mp3",
		"response": " ",
		"word": "diversas",
		"trial_type": "audio-keyboard-response",
		"trial_index": 265,
		"time_elapsed": 662066,
		"internal_node_id": "0.0-3.0-1.212"
	},
	{
		"rt": 830,
		"stimulus": "../audio/17-7-fem.mp3",
		"response": " ",
		"word": "vezes.",
		"trial_type": "audio-keyboard-response",
		"trial_index": 266,
		"time_elapsed": 663174,
		"internal_node_id": "0.0-3.0-1.213"
	},
	{
		"rt": null,
		"stimulus": "<span style= \"font-size:30px; font-family: monospace\">+</span>",
		"response": null,
		"trial_part": "fixation",
		"trial_type": "html-keyboard-response",
		"trial_index": 267,
		"time_elapsed": 664432,
		"internal_node_id": "0.0-3.0-0.214-0.214"
	},
	{
		"rt": 627,
		"stimulus": "../audio/16-1-masc.mp3",
		"response": " ",
		"word": "Eu",
		"trial_type": "audio-keyboard-response",
		"trial_index": 268,
		"time_elapsed": 665340,
		"internal_node_id": "0.0-3.0-1.214"
	},
	{
		"rt": 842,
		"stimulus": "../audio/16-2-masc.mp3",
		"response": " ",
		"word": "nunca",
		"trial_type": "audio-keyboard-response",
		"trial_index": 269,
		"time_elapsed": 666462,
		"internal_node_id": "0.0-3.0-1.215"
	},
	{
		"rt": 830,
		"stimulus": "../audio/16-3-masc.mp3",
		"response": " ",
		"word": "conheci",
		"trial_type": "audio-keyboard-response",
		"trial_index": 270,
		"time_elapsed": 667567,
		"internal_node_id": "0.0-3.0-1.216"
	},
	{
		"rt": 679,
		"stimulus": "../audio/16-4-masc.mp3",
		"response": " ",
		"word": "um",
		"trial_type": "audio-keyboard-response",
		"trial_index": 271,
		"time_elapsed": 668529,
		"internal_node_id": "0.0-3.0-1.217"
	},
	{
		"rt": 836,
		"stimulus": "../audio/16-5-masc.mp3",
		"response": " ",
		"word": "general",
		"trial_type": "audio-keyboard-response",
		"trial_index": 272,
		"time_elapsed": 669637,
		"internal_node_id": "0.0-3.0-1.218"
	},
	{
		"rt": 772,
		"stimulus": "../audio/16-6-masc.mp3",
		"response": " ",
		"word": "do",
		"trial_type": "audio-keyboard-response",
		"trial_index": 273,
		"time_elapsed": 670681,
		"internal_node_id": "0.0-3.0-1.219"
	},
	{
		"rt": 824,
		"stimulus": "../audio/16-7-masc.mp3",
		"response": " ",
		"word": "exército.",
		"trial_type": "audio-keyboard-response",
		"trial_index": 274,
		"time_elapsed": 671785,
		"internal_node_id": "0.0-3.0-1.220"
	},
	{
		"rt": null,
		"stimulus": "<span style= \"font-size:30px; font-family: monospace\">+</span>",
		"response": null,
		"trial_part": "fixation",
		"trial_type": "html-keyboard-response",
		"trial_index": 275,
		"time_elapsed": 673041,
		"internal_node_id": "0.0-3.0-0.221-0.221"
	},
	{
		"rt": 621,
		"stimulus": "../audio/20-1-masc.mp3",
		"response": " ",
		"word": "O",
		"trial_type": "audio-keyboard-response",
		"trial_index": 276,
		"time_elapsed": 673945,
		"internal_node_id": "0.0-3.0-1.221"
	},
	{
		"rt": 755,
		"stimulus": "../audio/20-2-masc.mp3",
		"response": " ",
		"word": "colega",
		"trial_type": "audio-keyboard-response",
		"trial_index": 277,
		"time_elapsed": 674979,
		"internal_node_id": "0.0-3.0-1.222"
	},
	{
		"rt": 917,
		"stimulus": "../audio/20-3-masc.mp3",
		"response": " ",
		"word": "parecia",
		"trial_type": "audio-keyboard-response",
		"trial_index": 278,
		"time_elapsed": 676172,
		"internal_node_id": "0.0-3.0-1.223"
	},
	{
		"rt": 935,
		"stimulus": "../audio/20-4-masc.mp3",
		"response": " ",
		"word": "muito",
		"trial_type": "audio-keyboard-response",
		"trial_index": 279,
		"time_elapsed": 677381,
		"internal_node_id": "0.0-3.0-1.224"
	},
	{
		"rt": 940,
		"stimulus": "../audio/20-5-masc.mp3",
		"response": " ",
		"word": "gripado",
		"trial_type": "audio-keyboard-response",
		"trial_index": 280,
		"time_elapsed": 678596,
		"internal_node_id": "0.0-3.0-1.225"
	},
	{
		"rt": 859,
		"stimulus": "../audio/20-6-masc.mp3",
		"response": " ",
		"word": "no",
		"trial_type": "audio-keyboard-response",
		"trial_index": 281,
		"time_elapsed": 679739,
		"internal_node_id": "0.0-3.0-1.226"
	},
	{
		"rt": 801,
		"stimulus": "../audio/20-7-masc.mp3",
		"response": " ",
		"word": "dia",
		"trial_type": "audio-keyboard-response",
		"trial_index": 282,
		"time_elapsed": 680809,
		"internal_node_id": "0.0-3.0-1.227"
	},
	{
		"rt": 836,
		"stimulus": "../audio/20-8-masc.mp3",
		"response": " ",
		"word": "anterior.",
		"trial_type": "audio-keyboard-response",
		"trial_index": 283,
		"time_elapsed": 681923,
		"internal_node_id": "0.0-3.0-1.228"
	},
	{
		"rt": 7505,
		"stimulus": "<span style=\"font-size:25px; font-family: monospace\">O colega parecia muito gripado?</span>",
		"response": "s",
		"question": "O colega parecia muito gripado?",
		"answer": "null",
		"trial": "exp-sent",
		"trial_type": "html-keyboard-response",
		"trial_index": 284,
		"time_elapsed": 689683,
		"internal_node_id": "0.0-3.0-2.228-0.228",
		"accuracy": false
	},
	{
		"rt": null,
		"stimulus": "<span style= \"font-size:30px; font-family: monospace\">+</span>",
		"response": null,
		"trial_part": "fixation",
		"trial_type": "html-keyboard-response",
		"trial_index": 285,
		"time_elapsed": 691188,
		"internal_node_id": "0.0-3.0-0.229-0.229"
	},
	{
		"rt": 1312,
		"stimulus": "../audio/43-1-masc.mp3",
		"response": " ",
		"word": "Eu",
		"trial_type": "audio-keyboard-response",
		"trial_index": 286,
		"time_elapsed": 692780,
		"internal_node_id": "0.0-3.0-1.229"
	},
	{
		"rt": 900,
		"stimulus": "../audio/43-2-masc.mp3",
		"response": " ",
		"word": "achei",
		"trial_type": "audio-keyboard-response",
		"trial_index": 287,
		"time_elapsed": 693955,
		"internal_node_id": "0.0-3.0-1.230"
	},
	{
		"rt": 813,
		"stimulus": "../audio/43-3-masc.mp3",
		"response": " ",
		"word": "um",
		"trial_type": "audio-keyboard-response",
		"trial_index": 288,
		"time_elapsed": 695097,
		"internal_node_id": "0.0-3.0-1.231"
	},
	{
		"rt": 946,
		"stimulus": "../audio/43-4-masc.mp3",
		"response": " ",
		"word": "colchão",
		"trial_type": "audio-keyboard-response",
		"trial_index": 289,
		"time_elapsed": 696324,
		"internal_node_id": "0.0-3.0-1.232"
	},
	{
		"rt": 726,
		"stimulus": "../audio/43-5-masc.mp3",
		"response": " ",
		"word": "velho",
		"trial_type": "audio-keyboard-response",
		"trial_index": 290,
		"time_elapsed": 697322,
		"internal_node_id": "0.0-3.0-1.233"
	},
	{
		"rt": 702,
		"stimulus": "../audio/43-6-masc.mp3",
		"response": " ",
		"word": "e",
		"trial_type": "audio-keyboard-response",
		"trial_index": 291,
		"time_elapsed": 698297,
		"internal_node_id": "0.0-3.0-1.234"
	},
	{
		"rt": 993,
		"stimulus": "../audio/43-7-masc.mp3",
		"response": " ",
		"word": "imundo",
		"trial_type": "audio-keyboard-response",
		"trial_index": 292,
		"time_elapsed": 699564,
		"internal_node_id": "0.0-3.0-1.235"
	},
	{
		"rt": 900,
		"stimulus": "../audio/43-8-masc.mp3",
		"response": " ",
		"word": "na",
		"trial_type": "audio-keyboard-response",
		"trial_index": 293,
		"time_elapsed": 700739,
		"internal_node_id": "0.0-3.0-1.236"
	},
	{
		"rt": 882,
		"stimulus": "../audio/43-9-masc.mp3",
		"response": " ",
		"word": "casa.",
		"trial_type": "audio-keyboard-response",
		"trial_index": 294,
		"time_elapsed": 701894,
		"internal_node_id": "0.0-3.0-1.237"
	},
	{
		"rt": null,
		"stimulus": "<span style= \"font-size:30px; font-family: monospace\">+</span>",
		"response": null,
		"trial_part": "fixation",
		"trial_type": "html-keyboard-response",
		"trial_index": 295,
		"time_elapsed": 703152,
		"internal_node_id": "0.0-3.0-0.238-0.238"
	},
	{
		"rt": 673,
		"stimulus": "../audio/42-1-masc.mp3",
		"response": " ",
		"word": "Eu",
		"trial_type": "audio-keyboard-response",
		"trial_index": 296,
		"time_elapsed": 704105,
		"internal_node_id": "0.0-3.0-1.238"
	},
	{
		"rt": 772,
		"stimulus": "../audio/42-2-masc.mp3",
		"response": " ",
		"word": "fui",
		"trial_type": "audio-keyboard-response",
		"trial_index": 297,
		"time_elapsed": 705151,
		"internal_node_id": "0.0-3.0-1.239"
	},
	{
		"rt": 731,
		"stimulus": "../audio/42-3-masc.mp3",
		"response": " ",
		"word": "a",
		"trial_type": "audio-keyboard-response",
		"trial_index": 298,
		"time_elapsed": 706158,
		"internal_node_id": "0.0-3.0-1.240"
	},
	{
		"rt": 819,
		"stimulus": "../audio/42-4-masc.mp3",
		"response": " ",
		"word": "uma",
		"trial_type": "audio-keyboard-response",
		"trial_index": 299,
		"time_elapsed": 707251,
		"internal_node_id": "0.0-3.0-1.241"
	},
	{
		"rt": 766,
		"stimulus": "../audio/42-5-masc.mp3",
		"response": " ",
		"word": "loja",
		"trial_type": "audio-keyboard-response",
		"trial_index": 300,
		"time_elapsed": 708290,
		"internal_node_id": "0.0-3.0-1.242"
	},
	{
		"rt": 662,
		"stimulus": "../audio/42-6-masc.mp3",
		"response": " ",
		"word": "de",
		"trial_type": "audio-keyboard-response",
		"trial_index": 301,
		"time_elapsed": 709229,
		"internal_node_id": "0.0-3.0-1.243"
	},
	{
		"rt": 772,
		"stimulus": "../audio/42-7-masc.mp3",
		"response": " ",
		"word": "móveis",
		"trial_type": "audio-keyboard-response",
		"trial_index": 302,
		"time_elapsed": 710277,
		"internal_node_id": "0.0-3.0-1.244"
	},
	{
		"rt": 749,
		"stimulus": "../audio/42-8-masc.mp3",
		"response": " ",
		"word": "no",
		"trial_type": "audio-keyboard-response",
		"trial_index": 303,
		"time_elapsed": 711302,
		"internal_node_id": "0.0-3.0-1.245"
	},
	{
		"rt": 702,
		"stimulus": "../audio/42-9-masc.mp3",
		"response": " ",
		"word": "bairro.",
		"trial_type": "audio-keyboard-response",
		"trial_index": 304,
		"time_elapsed": 712279,
		"internal_node_id": "0.0-3.0-1.246"
	},
	{
		"rt": null,
		"stimulus": "<span style= \"font-size:30px; font-family: monospace\">+</span>",
		"response": null,
		"trial_part": "fixation",
		"trial_type": "html-keyboard-response",
		"trial_index": 305,
		"time_elapsed": 713537,
		"internal_node_id": "0.0-3.0-0.247-0.247"
	},
	{
		"rt": 836,
		"stimulus": "../audio/44-1-masc.mp3",
		"response": " ",
		"word": "Meus",
		"trial_type": "audio-keyboard-response",
		"trial_index": 306,
		"time_elapsed": 714646,
		"internal_node_id": "0.0-3.0-1.247"
	},
	{
		"rt": 801,
		"stimulus": "../audio/44-2-masc.mp3",
		"response": " ",
		"word": "irmãos",
		"trial_type": "audio-keyboard-response",
		"trial_index": 307,
		"time_elapsed": 715729,
		"internal_node_id": "0.0-3.0-1.248"
	},
	{
		"rt": 784,
		"stimulus": "../audio/44-3-masc.mp3",
		"response": " ",
		"word": "brigam",
		"trial_type": "audio-keyboard-response",
		"trial_index": 308,
		"time_elapsed": 716792,
		"internal_node_id": "0.0-3.0-1.249"
	},
	{
		"rt": 784,
		"stimulus": "../audio/44-4-masc.mp3",
		"response": " ",
		"word": "por",
		"trial_type": "audio-keyboard-response",
		"trial_index": 309,
		"time_elapsed": 717847,
		"internal_node_id": "0.0-3.0-1.250"
	},
	{
		"rt": 975,
		"stimulus": "../audio/44-5-masc.mp3",
		"response": " ",
		"word": "bobagem",
		"trial_type": "audio-keyboard-response",
		"trial_index": 310,
		"time_elapsed": 719110,
		"internal_node_id": "0.0-3.0-1.251"
	},
	{
		"rt": 795,
		"stimulus": "../audio/44-6-masc.mp3",
		"response": " ",
		"word": "todos",
		"trial_type": "audio-keyboard-response",
		"trial_index": 311,
		"time_elapsed": 720181,
		"internal_node_id": "0.0-3.0-1.252"
	},
	{
		"rt": 836,
		"stimulus": "../audio/44-7-masc.mp3",
		"response": " ",
		"word": "os",
		"trial_type": "audio-keyboard-response",
		"trial_index": 312,
		"time_elapsed": 721291,
		"internal_node_id": "0.0-3.0-1.253"
	},
	{
		"rt": 766,
		"stimulus": "../audio/44-8-masc.mp3",
		"response": " ",
		"word": "dias.",
		"trial_type": "audio-keyboard-response",
		"trial_index": 313,
		"time_elapsed": 722337,
		"internal_node_id": "0.0-3.0-1.254"
	},
	{
		"rt": null,
		"stimulus": "<span style= \"font-size:30px; font-family: monospace\">+</span>",
		"response": null,
		"trial_part": "fixation",
		"trial_type": "html-keyboard-response",
		"trial_index": 314,
		"time_elapsed": 723598,
		"internal_node_id": "0.0-3.0-0.255-0.255"
	},
	{
		"rt": 610,
		"stimulus": "../audio/41-1-fem.mp3",
		"response": " ",
		"word": "A",
		"trial_type": "audio-keyboard-response",
		"trial_index": 315,
		"time_elapsed": 724486,
		"internal_node_id": "0.0-3.0-1.255"
	},
	{
		"rt": 1097,
		"stimulus": "../audio/41-2-fem.mp3",
		"response": " ",
		"word": "novela",
		"trial_type": "audio-keyboard-response",
		"trial_index": 316,
		"time_elapsed": 725863,
		"internal_node_id": "0.0-3.0-1.256"
	},
	{
		"rt": 894,
		"stimulus": "../audio/41-3-fem.mp3",
		"response": " ",
		"word": "falava",
		"trial_type": "audio-keyboard-response",
		"trial_index": 317,
		"time_elapsed": 727036,
		"internal_node_id": "0.0-3.0-1.257"
	},
	{
		"rt": 737,
		"stimulus": "../audio/41-4-fem.mp3",
		"response": " ",
		"word": "de",
		"trial_type": "audio-keyboard-response",
		"trial_index": 318,
		"time_elapsed": 728041,
		"internal_node_id": "0.0-3.0-1.258"
	},
	{
		"rt": 964,
		"stimulus": "../audio/41-5-fem.mp3",
		"response": " ",
		"word": "paixão",
		"trial_type": "audio-keyboard-response",
		"trial_index": 319,
		"time_elapsed": 729285,
		"internal_node_id": "0.0-3.0-1.259"
	},
	{
		"rt": 615,
		"stimulus": "../audio/41-6-fem.mp3",
		"response": " ",
		"word": "e",
		"trial_type": "audio-keyboard-response",
		"trial_index": 320,
		"time_elapsed": 730173,
		"internal_node_id": "0.0-3.0-1.260"
	},
	{
		"rt": 911,
		"stimulus": "../audio/41-7-fem.mp3",
		"response": " ",
		"word": "comédia.",
		"trial_type": "audio-keyboard-response",
		"trial_index": 321,
		"time_elapsed": 731355,
		"internal_node_id": "0.0-3.0-1.261"
	},
	{
		"rt": null,
		"stimulus": "<span style= \"font-size:30px; font-family: monospace\">+</span>",
		"response": null,
		"trial_part": "fixation",
		"trial_type": "html-keyboard-response",
		"trial_index": 322,
		"time_elapsed": 732613,
		"internal_node_id": "0.0-3.0-0.262-0.262"
	},
	{
		"rt": 563,
		"stimulus": "../audio/45-1-masc.mp3",
		"response": " ",
		"word": "O",
		"trial_type": "audio-keyboard-response",
		"trial_index": 323,
		"time_elapsed": 733456,
		"internal_node_id": "0.0-3.0-1.262"
	},
	{
		"rt": 836,
		"stimulus": "../audio/45-2-masc.mp3",
		"response": " ",
		"word": "homem",
		"trial_type": "audio-keyboard-response",
		"trial_index": 324,
		"time_elapsed": 734567,
		"internal_node_id": "0.0-3.0-1.263"
	},
	{
		"rt": 871,
		"stimulus": "../audio/45-3-masc.mp3",
		"response": " ",
		"word": "pagou",
		"trial_type": "audio-keyboard-response",
		"trial_index": 325,
		"time_elapsed": 735708,
		"internal_node_id": "0.0-3.0-1.264"
	},
	{
		"rt": 668,
		"stimulus": "../audio/45-4-masc.mp3",
		"response": " ",
		"word": "o",
		"trial_type": "audio-keyboard-response",
		"trial_index": 326,
		"time_elapsed": 736646,
		"internal_node_id": "0.0-3.0-1.265"
	},
	{
		"rt": 923,
		"stimulus": "../audio/45-5-masc.mp3",
		"response": " ",
		"word": "aluguel",
		"trial_type": "audio-keyboard-response",
		"trial_index": 327,
		"time_elapsed": 737842,
		"internal_node_id": "0.0-3.0-1.266"
	},
	{
		"rt": 714,
		"stimulus": "../audio/45-6-masc.mp3",
		"response": " ",
		"word": "com",
		"trial_type": "audio-keyboard-response",
		"trial_index": 328,
		"time_elapsed": 738828,
		"internal_node_id": "0.0-3.0-1.267"
	},
	{
		"rt": 859,
		"stimulus": "../audio/45-7-masc.mp3",
		"response": " ",
		"word": "atraso.",
		"trial_type": "audio-keyboard-response",
		"trial_index": 329,
		"time_elapsed": 739961,
		"internal_node_id": "0.0-3.0-1.268"
	},
	{
		"rt": 7088,
		"stimulus": "<span style=\"font-size:25px; font-family: monospace\">O homem pagou o aluguel em dia?</span>",
		"response": "n",
		"question": "O homem pagou o aluguel em dia?",
		"answer": "null",
		"trial": "exp-sent",
		"trial_type": "html-keyboard-response",
		"trial_index": 330,
		"time_elapsed": 747301,
		"internal_node_id": "0.0-3.0-2.268-0.268",
		"accuracy": false
	},
	{
		"rt": null,
		"stimulus": "<span style= \"font-size:30px; font-family: monospace\">+</span>",
		"response": null,
		"trial_part": "fixation",
		"trial_type": "html-keyboard-response",
		"trial_index": 331,
		"time_elapsed": 748804,
		"internal_node_id": "0.0-3.0-0.269-0.269"
	},
	{
		"rt": 1469,
		"stimulus": "../audio/78-1-masc.mp3",
		"response": " ",
		"word": "Eles",
		"trial_type": "audio-keyboard-response",
		"trial_index": 332,
		"time_elapsed": 750553,
		"internal_node_id": "0.0-3.0-1.269"
	},
	{
		"rt": 853,
		"stimulus": "../audio/78-2-masc.mp3",
		"response": " ",
		"word": "trazem",
		"trial_type": "audio-keyboard-response",
		"trial_index": 333,
		"time_elapsed": 751678,
		"internal_node_id": "0.0-3.0-1.270"
	},
	{
		"rt": 662,
		"stimulus": "../audio/78-3-masc.mp3",
		"response": " ",
		"word": "um",
		"trial_type": "audio-keyboard-response",
		"trial_index": 334,
		"time_elapsed": 752616,
		"internal_node_id": "0.0-3.0-1.271"
	},
	{
		"rt": 877,
		"stimulus": "../audio/78-4-masc.mp3",
		"response": " ",
		"word": "fato",
		"trial_type": "audio-keyboard-response",
		"trial_index": 335,
		"time_elapsed": 753771,
		"internal_node_id": "0.0-3.0-1.272"
	},
	{
		"rt": 894,
		"stimulus": "../audio/78-5-masc.mp3",
		"response": " ",
		"word": "urgente",
		"trial_type": "audio-keyboard-response",
		"trial_index": 336,
		"time_elapsed": 754943,
		"internal_node_id": "0.0-3.0-1.273"
	},
	{
		"rt": 784,
		"stimulus": "../audio/78-6-masc.mp3",
		"response": " ",
		"word": "todos",
		"trial_type": "audio-keyboard-response",
		"trial_index": 337,
		"time_elapsed": 755997,
		"internal_node_id": "0.0-3.0-1.274"
	},
	{
		"rt": 789,
		"stimulus": "../audio/78-7-masc.mp3",
		"response": " ",
		"word": "os",
		"trial_type": "audio-keyboard-response",
		"trial_index": 338,
		"time_elapsed": 757059,
		"internal_node_id": "0.0-3.0-1.275"
	},
	{
		"rt": 662,
		"stimulus": "../audio/78-8-masc.mp3",
		"response": " ",
		"word": "dias.",
		"trial_type": "audio-keyboard-response",
		"trial_index": 339,
		"time_elapsed": 757995,
		"internal_node_id": "0.0-3.0-1.276"
	},
	{
		"rt": null,
		"stimulus": "<span style= \"font-size:30px; font-family: monospace\">+</span>",
		"response": null,
		"trial_part": "fixation",
		"trial_type": "html-keyboard-response",
		"trial_index": 340,
		"time_elapsed": 759253,
		"internal_node_id": "0.0-3.0-0.277-0.277"
	},
	{
		"rt": 592,
		"stimulus": "../audio/76-1-masc.mp3",
		"response": " ",
		"word": "O",
		"trial_type": "audio-keyboard-response",
		"trial_index": 341,
		"time_elapsed": 760134,
		"internal_node_id": "0.0-3.0-1.277"
	},
	{
		"rt": 987,
		"stimulus": "../audio/76-2-masc.mp3",
		"response": " ",
		"word": "bisavô",
		"trial_type": "audio-keyboard-response",
		"trial_index": 342,
		"time_elapsed": 761390,
		"internal_node_id": "0.0-3.0-1.278"
	},
	{
		"rt": 772,
		"stimulus": "../audio/76-3-masc.mp3",
		"response": " ",
		"word": "comprou",
		"trial_type": "audio-keyboard-response",
		"trial_index": 343,
		"time_elapsed": 762442,
		"internal_node_id": "0.0-3.0-1.279"
	},
	{
		"rt": 697,
		"stimulus": "../audio/76-4-masc.mp3",
		"response": " ",
		"word": "um",
		"trial_type": "audio-keyboard-response",
		"trial_index": 344,
		"time_elapsed": 763413,
		"internal_node_id": "0.0-3.0-1.280"
	},
	{
		"rt": 998,
		"stimulus": "../audio/76-5-masc.mp3",
		"response": " ",
		"word": "ralador",
		"trial_type": "audio-keyboard-response",
		"trial_index": 345,
		"time_elapsed": 764683,
		"internal_node_id": "0.0-3.0-1.281"
	},
	{
		"rt": 644,
		"stimulus": "../audio/76-6-masc.mp3",
		"response": " ",
		"word": "de",
		"trial_type": "audio-keyboard-response",
		"trial_index": 346,
		"time_elapsed": 765614,
		"internal_node_id": "0.0-3.0-1.282"
	},
	{
		"rt": 702,
		"stimulus": "../audio/76-7-masc.mp3",
		"response": " ",
		"word": "queijo.",
		"trial_type": "audio-keyboard-response",
		"trial_index": 347,
		"time_elapsed": 766594,
		"internal_node_id": "0.0-3.0-1.283"
	},
	{
		"rt": null,
		"stimulus": "<span style= \"font-size:30px; font-family: monospace\">+</span>",
		"response": null,
		"trial_part": "fixation",
		"trial_type": "html-keyboard-response",
		"trial_index": 348,
		"time_elapsed": 767851,
		"internal_node_id": "0.0-3.0-0.284-0.284"
	},
	{
		"rt": 580,
		"stimulus": "../audio/79-1-fem.mp3",
		"response": " ",
		"word": "A",
		"trial_type": "audio-keyboard-response",
		"trial_index": 349,
		"time_elapsed": 768706,
		"internal_node_id": "0.0-3.0-1.284"
	},
	{
		"rt": 697,
		"stimulus": "../audio/79-2-fem.mp3",
		"response": " ",
		"word": "médica",
		"trial_type": "audio-keyboard-response",
		"trial_index": 350,
		"time_elapsed": 769676,
		"internal_node_id": "0.0-3.0-1.285"
	},
	{
		"rt": 1161,
		"stimulus": "../audio/79-3-fem.mp3",
		"response": " ",
		"word": "verificou",
		"trial_type": "audio-keyboard-response",
		"trial_index": 351,
		"time_elapsed": 771116,
		"internal_node_id": "0.0-3.0-1.286"
	},
	{
		"rt": 726,
		"stimulus": "../audio/79-4-fem.mp3",
		"response": " ",
		"word": "a",
		"trial_type": "audio-keyboard-response",
		"trial_index": 352,
		"time_elapsed": 772114,
		"internal_node_id": "0.0-3.0-1.287"
	},
	{
		"rt": 1358,
		"stimulus": "../audio/79-5-fem.mp3",
		"response": " ",
		"word": "gengiva",
		"trial_type": "audio-keyboard-response",
		"trial_index": 353,
		"time_elapsed": 773753,
		"internal_node_id": "0.0-3.0-1.288"
	},
	{
		"rt": 668,
		"stimulus": "../audio/79-6-fem.mp3",
		"response": " ",
		"word": "por",
		"trial_type": "audio-keyboard-response",
		"trial_index": 354,
		"time_elapsed": 774693,
		"internal_node_id": "0.0-3.0-1.289"
	},
	{
		"rt": 1027,
		"stimulus": "../audio/79-7-fem.mp3",
		"response": " ",
		"word": "último.",
		"trial_type": "audio-keyboard-response",
		"trial_index": 355,
		"time_elapsed": 775993,
		"internal_node_id": "0.0-3.0-1.290"
	},
	{
		"rt": null,
		"stimulus": "<span style= \"font-size:30px; font-family: monospace\">+</span>",
		"response": null,
		"trial_part": "fixation",
		"trial_type": "html-keyboard-response",
		"trial_index": 356,
		"time_elapsed": 777249,
		"internal_node_id": "0.0-3.0-0.291-0.291"
	},
	{
		"rt": 627,
		"stimulus": "../audio/77-1-fem.mp3",
		"response": " ",
		"word": "A",
		"trial_type": "audio-keyboard-response",
		"trial_index": 357,
		"time_elapsed": 778164,
		"internal_node_id": "0.0-3.0-1.291"
	},
	{
		"rt": 1109,
		"stimulus": "../audio/77-2-fem.mp3",
		"response": " ",
		"word": "criança",
		"trial_type": "audio-keyboard-response",
		"trial_index": 358,
		"time_elapsed": 779551,
		"internal_node_id": "0.0-3.0-1.292"
	},
	{
		"rt": 952,
		"stimulus": "../audio/77-3-fem.mp3",
		"response": " ",
		"word": "ficou",
		"trial_type": "audio-keyboard-response",
		"trial_index": 359,
		"time_elapsed": 780782,
		"internal_node_id": "0.0-3.0-1.293"
	},
	{
		"rt": 1091,
		"stimulus": "../audio/77-4-fem.mp3",
		"response": " ",
		"word": "muito",
		"trial_type": "audio-keyboard-response",
		"trial_index": 360,
		"time_elapsed": 782146,
		"internal_node_id": "0.0-3.0-1.294"
	},
	{
		"rt": 1074,
		"stimulus": "../audio/77-5-fem.mp3",
		"response": " ",
		"word": "feliz",
		"trial_type": "audio-keyboard-response",
		"trial_index": 361,
		"time_elapsed": 783496,
		"internal_node_id": "0.0-3.0-1.295"
	},
	{
		"rt": 772,
		"stimulus": "../audio/77-6-fem.mp3",
		"response": " ",
		"word": "com",
		"trial_type": "audio-keyboard-response",
		"trial_index": 362,
		"time_elapsed": 784540,
		"internal_node_id": "0.0-3.0-1.296"
	},
	{
		"rt": 766,
		"stimulus": "../audio/77-7-fem.mp3",
		"response": " ",
		"word": "o",
		"trial_type": "audio-keyboard-response",
		"trial_index": 363,
		"time_elapsed": 785781,
		"internal_node_id": "0.0-3.0-1.297"
	},
	{
		"rt": 998,
		"stimulus": "../audio/77-8-fem.mp3",
		"response": " ",
		"word": "brinquedo.",
		"trial_type": "audio-keyboard-response",
		"trial_index": 364,
		"time_elapsed": 787062,
		"internal_node_id": "0.0-3.0-1.298"
	},
	{
		"rt": null,
		"stimulus": "<span style= \"font-size:30px; font-family: monospace\">+</span>",
		"response": null,
		"trial_part": "fixation",
		"trial_type": "html-keyboard-response",
		"trial_index": 365,
		"time_elapsed": 788320,
		"internal_node_id": "0.0-3.0-0.299-0.299"
	},
	{
		"rt": 836,
		"stimulus": "../audio/80-1-masc.mp3",
		"response": " ",
		"word": "Meu",
		"trial_type": "audio-keyboard-response",
		"trial_index": 366,
		"time_elapsed": 789439,
		"internal_node_id": "0.0-3.0-1.299"
	},
	{
		"rt": 731,
		"stimulus": "../audio/80-2-masc.mp3",
		"response": " ",
		"word": "primo",
		"trial_type": "audio-keyboard-response",
		"trial_index": 367,
		"time_elapsed": 790445,
		"internal_node_id": "0.0-3.0-1.300"
	},
	{
		"rt": 946,
		"stimulus": "../audio/80-3-masc.mp3",
		"response": " ",
		"word": "conheceu",
		"trial_type": "audio-keyboard-response",
		"trial_index": 368,
		"time_elapsed": 791673,
		"internal_node_id": "0.0-3.0-1.301"
	},
	{
		"rt": 778,
		"stimulus": "../audio/80-4-masc.mp3",
		"response": " ",
		"word": "um",
		"trial_type": "audio-keyboard-response",
		"trial_index": 369,
		"time_elapsed": 792725,
		"internal_node_id": "0.0-3.0-1.302"
	},
	{
		"rt": 935,
		"stimulus": "../audio/80-5-masc.mp3",
		"response": " ",
		"word": "jovem",
		"trial_type": "audio-keyboard-response",
		"trial_index": 370,
		"time_elapsed": 793937,
		"internal_node_id": "0.0-3.0-1.303"
	},
	{
		"rt": 830,
		"stimulus": "../audio/80-6-masc.mp3",
		"response": " ",
		"word": "amável",
		"trial_type": "audio-keyboard-response",
		"trial_index": 371,
		"time_elapsed": 795043,
		"internal_node_id": "0.0-3.0-1.304"
	},
	{
		"rt": 679,
		"stimulus": "../audio/80-7-masc.mp3",
		"response": " ",
		"word": "e",
		"trial_type": "audio-keyboard-response",
		"trial_index": 372,
		"time_elapsed": 795997,
		"internal_node_id": "0.0-3.0-1.305"
	},
	{
		"rt": 946,
		"stimulus": "../audio/80-8-masc.mp3",
		"response": " ",
		"word": "confiante.",
		"trial_type": "audio-keyboard-response",
		"trial_index": 373,
		"time_elapsed": 797220,
		"internal_node_id": "0.0-3.0-1.306"
	},
	{
		"rt": 8092,
		"stimulus": "<span style=\"font-size:25px; font-family: monospace\">O primo conheceu um jovem irritante?</span>",
		"response": "n",
		"question": "O primo conheceu um jovem irritante?",
		"answer": "null",
		"trial": "exp-sent",
		"trial_type": "html-keyboard-response",
		"trial_index": 374,
		"time_elapsed": 805567,
		"internal_node_id": "0.0-3.0-2.306-0.306",
		"accuracy": false
	},
	{
		"rt": null,
		"stimulus": "<span style= \"font-size:30px; font-family: monospace\">+</span>",
		"response": null,
		"trial_part": "fixation",
		"trial_type": "html-keyboard-response",
		"trial_index": 375,
		"time_elapsed": 807076,
		"internal_node_id": "0.0-3.0-0.307-0.307"
	},
	{
		"rt": 1074,
		"stimulus": "../audio/36-1-fem.mp3",
		"response": " ",
		"word": "Meu",
		"trial_type": "audio-keyboard-response",
		"trial_index": 376,
		"time_elapsed": 808435,
		"internal_node_id": "0.0-3.0-1.307"
	},
	{
		"rt": 842,
		"stimulus": "../audio/36-2-fem.mp3",
		"response": " ",
		"word": "tio",
		"trial_type": "audio-keyboard-response",
		"trial_index": 377,
		"time_elapsed": 809553,
		"internal_node_id": "0.0-3.0-1.308"
	},
	{
		"rt": 1196,
		"stimulus": "../audio/36-3-fem.mp3",
		"response": " ",
		"word": "comprou",
		"trial_type": "audio-keyboard-response",
		"trial_index": 378,
		"time_elapsed": 811029,
		"internal_node_id": "0.0-3.0-1.309"
	},
	{
		"rt": 726,
		"stimulus": "../audio/36-4-fem.mp3",
		"response": " ",
		"word": "um",
		"trial_type": "audio-keyboard-response",
		"trial_index": 379,
		"time_elapsed": 812029,
		"internal_node_id": "0.0-3.0-1.310"
	},
	{
		"rt": 720,
		"stimulus": "../audio/36-5-fem.mp3",
		"response": " ",
		"word": "filtro",
		"trial_type": "audio-keyboard-response",
		"trial_index": 380,
		"time_elapsed": 813028,
		"internal_node_id": "0.0-3.0-1.311"
	},
	{
		"rt": 789,
		"stimulus": "../audio/36-6-fem.mp3",
		"response": " ",
		"word": "de",
		"trial_type": "audio-keyboard-response",
		"trial_index": 381,
		"time_elapsed": 814094,
		"internal_node_id": "0.0-3.0-1.312"
	},
	{
		"rt": 702,
		"stimulus": "../audio/36-7-fem.mp3",
		"response": " ",
		"word": "água",
		"trial_type": "audio-keyboard-response",
		"trial_index": 382,
		"time_elapsed": 815077,
		"internal_node_id": "0.0-3.0-1.313"
	},
	{
		"rt": 894,
		"stimulus": "../audio/36-8-fem.mp3",
		"response": " ",
		"word": "hoje",
		"trial_type": "audio-keyboard-response",
		"trial_index": 383,
		"time_elapsed": 816243,
		"internal_node_id": "0.0-3.0-1.314"
	},
	{
		"rt": 911,
		"stimulus": "../audio/36-9-fem.mp3",
		"response": " ",
		"word": "cedo.",
		"trial_type": "audio-keyboard-response",
		"trial_index": 384,
		"time_elapsed": 817437,
		"internal_node_id": "0.0-3.0-1.315"
	},
	{
		"rt": null,
		"stimulus": "<span style= \"font-size:30px; font-family: monospace\">+</span>",
		"response": null,
		"trial_part": "fixation",
		"trial_type": "html-keyboard-response",
		"trial_index": 385,
		"time_elapsed": 818692,
		"internal_node_id": "0.0-3.0-0.316-0.316"
	},
	{
		"rt": 685,
		"stimulus": "../audio/37-1-fem.mp3",
		"response": " ",
		"word": "Eu",
		"trial_type": "audio-keyboard-response",
		"trial_index": 386,
		"time_elapsed": 819661,
		"internal_node_id": "0.0-3.0-1.316"
	},
	{
		"rt": 1213,
		"stimulus": "../audio/37-2-fem.mp3",
		"response": " ",
		"word": "adoro",
		"trial_type": "audio-keyboard-response",
		"trial_index": 387,
		"time_elapsed": 821157,
		"internal_node_id": "0.0-3.0-1.317"
	},
	{
		"rt": 1149,
		"stimulus": "../audio/37-3-fem.mp3",
		"response": " ",
		"word": "suco",
		"trial_type": "audio-keyboard-response",
		"trial_index": 388,
		"time_elapsed": 822585,
		"internal_node_id": "0.0-3.0-1.318"
	},
	{
		"rt": 708,
		"stimulus": "../audio/37-4-fem.mp3",
		"response": " ",
		"word": "de",
		"trial_type": "audio-keyboard-response",
		"trial_index": 389,
		"time_elapsed": 823572,
		"internal_node_id": "0.0-3.0-1.319"
	},
	{
		"rt": 923,
		"stimulus": "../audio/37-5-fem.mp3",
		"response": " ",
		"word": "manga",
		"trial_type": "audio-keyboard-response",
		"trial_index": 390,
		"time_elapsed": 824776,
		"internal_node_id": "0.0-3.0-1.320"
	},
	{
		"rt": 801,
		"stimulus": "../audio/37-6-fem.mp3",
		"response": " ",
		"word": "com",
		"trial_type": "audio-keyboard-response",
		"trial_index": 391,
		"time_elapsed": 825851,
		"internal_node_id": "0.0-3.0-1.321"
	},
	{
		"rt": 1115,
		"stimulus": "../audio/37-7-fem.mp3",
		"response": " ",
		"word": "hortelã.",
		"trial_type": "audio-keyboard-response",
		"trial_index": 392,
		"time_elapsed": 827246,
		"internal_node_id": "0.0-3.0-1.322"
	},
	{
		"rt": null,
		"stimulus": "<span style= \"font-size:30px; font-family: monospace\">+</span>",
		"response": null,
		"trial_part": "fixation",
		"trial_type": "html-keyboard-response",
		"trial_index": 393,
		"time_elapsed": 828502,
		"internal_node_id": "0.0-3.0-0.323-0.323"
	},
	{
		"rt": 627,
		"stimulus": "../audio/39-1-masc.mp3",
		"response": " ",
		"word": "O",
		"trial_type": "audio-keyboard-response",
		"trial_index": 394,
		"time_elapsed": 829406,
		"internal_node_id": "0.0-3.0-1.323"
	},
	{
		"rt": 1022,
		"stimulus": "../audio/39-2-masc.mp3",
		"response": " ",
		"word": "conselho",
		"trial_type": "audio-keyboard-response",
		"trial_index": 395,
		"time_elapsed": 830714,
		"internal_node_id": "0.0-3.0-1.324"
	},
	{
		"rt": 784,
		"stimulus": "../audio/39-3-masc.mp3",
		"response": " ",
		"word": "foi",
		"trial_type": "audio-keyboard-response",
		"trial_index": 396,
		"time_elapsed": 831766,
		"internal_node_id": "0.0-3.0-1.325"
	},
	{
		"rt": 987,
		"stimulus": "../audio/39-4-masc.mp3",
		"response": " ",
		"word": "muito",
		"trial_type": "audio-keyboard-response",
		"trial_index": 397,
		"time_elapsed": 833025,
		"internal_node_id": "0.0-3.0-1.326"
	},
	{
		"rt": 923,
		"stimulus": "../audio/39-5-masc.mp3",
		"response": " ",
		"word": "útil",
		"trial_type": "audio-keyboard-response",
		"trial_index": 398,
		"time_elapsed": 834218,
		"internal_node_id": "0.0-3.0-1.327"
	},
	{
		"rt": 848,
		"stimulus": "../audio/39-6-masc.mp3",
		"response": " ",
		"word": "para",
		"trial_type": "audio-keyboard-response",
		"trial_index": 399,
		"time_elapsed": 835337,
		"internal_node_id": "0.0-3.0-1.328"
	},
	{
		"rt": 801,
		"stimulus": "../audio/39-7-masc.mp3",
		"response": " ",
		"word": "minha",
		"trial_type": "audio-keyboard-response",
		"trial_index": 400,
		"time_elapsed": 836441,
		"internal_node_id": "0.0-3.0-1.329"
	},
	{
		"rt": 755,
		"stimulus": "../audio/39-8-masc.mp3",
		"response": " ",
		"word": "tia.",
		"trial_type": "audio-keyboard-response",
		"trial_index": 401,
		"time_elapsed": 837473,
		"internal_node_id": "0.0-3.0-1.330"
	},
	{
		"rt": null,
		"stimulus": "<span style= \"font-size:30px; font-family: monospace\">+</span>",
		"response": null,
		"trial_part": "fixation",
		"trial_type": "html-keyboard-response",
		"trial_index": 402,
		"time_elapsed": 838732,
		"internal_node_id": "0.0-3.0-0.331-0.331"
	},
	{
		"rt": 702,
		"stimulus": "../audio/38-1-masc.mp3",
		"response": " ",
		"word": "A",
		"trial_type": "audio-keyboard-response",
		"trial_index": 403,
		"time_elapsed": 839713,
		"internal_node_id": "0.0-3.0-1.331"
	},
	{
		"rt": 993,
		"stimulus": "../audio/38-2-masc.mp3",
		"response": " ",
		"word": "empresa",
		"trial_type": "audio-keyboard-response",
		"trial_index": 404,
		"time_elapsed": 840979,
		"internal_node_id": "0.0-3.0-1.332"
	},
	{
		"rt": 824,
		"stimulus": "../audio/38-3-masc.mp3",
		"response": " ",
		"word": "criou",
		"trial_type": "audio-keyboard-response",
		"trial_index": 405,
		"time_elapsed": 842083,
		"internal_node_id": "0.0-3.0-1.333"
	},
	{
		"rt": 668,
		"stimulus": "../audio/38-4-masc.mp3",
		"response": " ",
		"word": "a",
		"trial_type": "audio-keyboard-response",
		"trial_index": 406,
		"time_elapsed": 843025,
		"internal_node_id": "0.0-3.0-1.334"
	},
	{
		"rt": 1004,
		"stimulus": "../audio/38-5-masc.mp3",
		"response": " ",
		"word": "patente",
		"trial_type": "audio-keyboard-response",
		"trial_index": 407,
		"time_elapsed": 844302,
		"internal_node_id": "0.0-3.0-1.335"
	},
	{
		"rt": 702,
		"stimulus": "../audio/38-6-masc.mp3",
		"response": " ",
		"word": "da",
		"trial_type": "audio-keyboard-response",
		"trial_index": 408,
		"time_elapsed": 845275,
		"internal_node_id": "0.0-3.0-1.336"
	},
	{
		"rt": 865,
		"stimulus": "../audio/38-7-masc.mp3",
		"response": " ",
		"word": "frigideira.",
		"trial_type": "audio-keyboard-response",
		"trial_index": 409,
		"time_elapsed": 846413,
		"internal_node_id": "0.0-3.0-1.337"
	},
	{
		"rt": null,
		"stimulus": "<span style= \"font-size:30px; font-family: monospace\">+</span>",
		"response": null,
		"trial_part": "fixation",
		"trial_type": "html-keyboard-response",
		"trial_index": 410,
		"time_elapsed": 847672,
		"internal_node_id": "0.0-3.0-0.338-0.338"
	},
	{
		"rt": 691,
		"stimulus": "../audio/40-1-masc.mp3",
		"response": " ",
		"word": "O",
		"trial_type": "audio-keyboard-response",
		"trial_index": 411,
		"time_elapsed": 848643,
		"internal_node_id": "0.0-3.0-1.338"
	},
	{
		"rt": 877,
		"stimulus": "../audio/40-2-masc.mp3",
		"response": " ",
		"word": "jogo",
		"trial_type": "audio-keyboard-response",
		"trial_index": 412,
		"time_elapsed": 849792,
		"internal_node_id": "0.0-3.0-1.339"
	},
	{
		"rt": 969,
		"stimulus": "../audio/40-3-masc.mp3",
		"response": " ",
		"word": "falava",
		"trial_type": "audio-keyboard-response",
		"trial_index": 413,
		"time_elapsed": 851035,
		"internal_node_id": "0.0-3.0-1.340"
	},
	{
		"rt": 708,
		"stimulus": "../audio/40-4-masc.mp3",
		"response": " ",
		"word": "de",
		"trial_type": "audio-keyboard-response",
		"trial_index": 414,
		"time_elapsed": 852016,
		"internal_node_id": "0.0-3.0-1.341"
	},
	{
		"rt": 1144,
		"stimulus": "../audio/40-5-masc.mp3",
		"response": " ",
		"word": "fantasia",
		"trial_type": "audio-keyboard-response",
		"trial_index": 415,
		"time_elapsed": 853432,
		"internal_node_id": "0.0-3.0-1.342"
	},
	{
		"rt": 702,
		"stimulus": "../audio/40-6-masc.mp3",
		"response": " ",
		"word": "e",
		"trial_type": "audio-keyboard-response",
		"trial_index": 416,
		"time_elapsed": 854406,
		"internal_node_id": "0.0-3.0-1.343"
	},
	{
		"rt": 760,
		"stimulus": "../audio/40-7-masc.mp3",
		"response": " ",
		"word": "de",
		"trial_type": "audio-keyboard-response",
		"trial_index": 417,
		"time_elapsed": 855449,
		"internal_node_id": "0.0-3.0-1.344"
	},
	{
		"rt": 1167,
		"stimulus": "../audio/40-8-masc.mp3",
		"response": " ",
		"word": "aventura.",
		"trial_type": "audio-keyboard-response",
		"trial_index": 418,
		"time_elapsed": 856895,
		"internal_node_id": "0.0-3.0-1.345"
	},
	{
		"rt": 5667,
		"stimulus": "<span style=\"font-size:25px; font-family: monospace\">O jogo tinha fantasia e aventura?</span>",
		"response": "s",
		"question": "O jogo tinha fantasia e aventura?",
		"answer": "null",
		"trial": "exp-sent",
		"trial_type": "html-keyboard-response",
		"trial_index": 419,
		"time_elapsed": 862813,
		"internal_node_id": "0.0-3.0-2.345-0.345",
		"accuracy": false
	},
	{
		"rt": null,
		"stimulus": "<span style= \"font-size:30px; font-family: monospace\">+</span>",
		"response": null,
		"trial_part": "fixation",
		"trial_type": "html-keyboard-response",
		"trial_index": 420,
		"time_elapsed": 864321,
		"internal_node_id": "0.0-3.0-0.346-0.346"
	},
	{
		"rt": 836,
		"stimulus": "../audio/48-1-fem.mp3",
		"response": " ",
		"word": "Ela",
		"trial_type": "audio-keyboard-response",
		"trial_index": 421,
		"time_elapsed": 865437,
		"internal_node_id": "0.0-3.0-1.346"
	},
	{
		"rt": 702,
		"stimulus": "../audio/48-2-fem.mp3",
