"view_history","rt","trial_type","trial_index","time_elapsed","internal_node_id","stimulus","response","trial_part","word","question","answer","trial","accuracy"
"[{""page_index"":0,""viewing_time"":123701},{""page_index"":1,""viewing_time"":4300}]","128003","instructions","0","128009","0.0-0.0","","","","","","","",""
"","null","html-keyboard-response","1","129116","0.0-1.0-0.0-0.0","<span style= ""font-size:30px; font-family: monospace"">+</span>","null","fixation","","","","",""
"","2734","audio-keyboard-response","2","132188","0.0-1.0-1.0","../audio/prac-question-1-1.mp3"," ","","O","","","",""
"","1283","audio-keyboard-response","3","133749","0.0-1.0-1.1","../audio/prac-question-1-2.mp3"," ","","dia","","","",""
"","1753","audio-keyboard-response","4","135782","0.0-1.0-1.2","../audio/prac-question-1-3.mp3"," ","","estará","","","",""
"","1144","audio-keyboard-response","5","137209","0.0-1.0-1.3","../audio/prac-question-1-4.mp3"," ","","cheio","","","",""
"","894","audio-keyboard-response","6","138376","0.0-1.0-1.4","../audio/prac-question-1-5.mp3"," ","","de","","","",""
"","1300","audio-keyboard-response","7","139957","0.0-1.0-1.5","../audio/prac-question-1-6.mp3"," ","","nuvens","","","",""
"","969","audio-keyboard-response","8","141201","0.0-1.0-1.6","../audio/prac-question-1-7.mp3"," ","","hoje.","","","",""
"","null","html-keyboard-response","9","142462","0.0-1.0-0.7-0.7","<span style= ""font-size:30px; font-family: monospace"">+</span>","null","fixation","","","","",""
"","842","audio-keyboard-response","10","143581","0.0-1.0-1.7","../audio/prac-question-2-1.mp3"," ","","A","","","",""
"","865","audio-keyboard-response","11","144724","0.0-1.0-1.8","../audio/prac-question-2-2.mp3"," ","","caneca","","","",""
"","116","audio-keyboard-response","12","145120","0.0-1.0-1.9","../audio/prac-question-2-3.mp3"," ","","colorida","","","",""
"","981","audio-keyboard-response","13","146379","0.0-1.0-1.10","../audio/prac-question-2-4.mp3"," ","","caiu","","","",""
"","708","audio-keyboard-response","14","147362","0.0-1.0-1.11","../audio/prac-question-2-5.mp3"," ","","da","","","",""
"","1062","audio-keyboard-response","15","148701","0.0-1.0-1.12","../audio/prac-question-2-6.mp3"," ","","mesa","","","",""
"","714","audio-keyboard-response","16","149684","0.0-1.0-1.13","../audio/prac-question-2-7.mp3"," ","","de","","","",""
"","22030","audio-keyboard-response","17","171987","0.0-1.0-1.14","../audio/prac-question-2-8.mp3"," ","","jantar.","","","",""
"","40689","html-keyboard-response","18","212932","0.0-1.0-2.14-0.14","<span style=""font-size:25px; font-family: monospace"">A caneca era colorida?</span>","s","","","A caneca era colorida?","null","prac-sent","false"
"[{""page_index"":0,""viewing_time"":69368}]","69368","instructions","19","282807","0.0-2.0","","","","","","","",""
"","null","html-keyboard-response","20","283917","0.0-3.0-0.0-0.0","<span style= ""font-size:30px; font-family: monospace"">+</span>","null","fixation","","","","",""
"","1741","audio-keyboard-response","21","285963","0.0-3.0-1.0","../audio/66-1-fem.mp3"," ","","Não","","","",""
"","2113","audio-keyboard-response","22","288357","0.0-3.0-1.1","../audio/66-2-fem.mp3"," ","","gosto","","","",""
"","35","audio-keyboard-response","23","288676","0.0-3.0-1.2","../audio/66-3-fem.mp3"," ","","de","","","",""
"","1486","audio-keyboard-response","24","290435","0.0-3.0-1.3","../audio/66-4-fem.mp3"," ","","gente","","","",""
"","1678","audio-keyboard-response","25","292401","0.0-3.0-1.4","../audio/66-5-fem.mp3"," ","","egoísta","","","",""
"","319","audio-keyboard-response","26","292997","0.0-3.0-1.5","../audio/66-6-fem.mp3"," ","","nem","","","",""
"","12","audio-keyboard-response","27","293291","0.0-3.0-1.6","../audio/66-7-fem.mp3"," ","","chata.","","","",""
"","null","html-keyboard-response","28","294550","0.0-3.0-0.7-0.7","<span style= ""font-size:30px; font-family: monospace"">+</span>","null","fixation","","","","",""
"","1666","audio-keyboard-response","29","296493","0.0-3.0-1.7","../audio/68-1-masc.mp3"," ","","Meu","","","",""
"","1196","audio-keyboard-response","30","297972","0.0-3.0-1.8","../audio/68-2-masc.mp3"," ","","irmão","","","",""
"","1045","audio-keyboard-response","31","299293","0.0-3.0-1.9","../audio/68-3-masc.mp3"," ","","teve","","","",""
"","894","audio-keyboard-response","32","300467","0.0-3.0-1.10","../audio/68-4-masc.mp3"," ","","um","","","",""
"","1445","audio-keyboard-response","33","302196","0.0-3.0-1.11","../audio/68-5-masc.mp3"," ","","noivado","","","",""
"","1045","audio-keyboard-response","34","303524","0.0-3.0-1.12","../audio/68-6-masc.mp3"," ","","longo","","","",""
"","778","audio-keyboard-response","35","304581","0.0-3.0-1.13","../audio/68-7-masc.mp3"," ","","e","","","",""
"","1190","audio-keyboard-response","36","306046","0.0-3.0-1.14","../audio/68-8-masc.mp3"," ","","maravilhoso.","","","",""
"","null","html-keyboard-response","37","307304","0.0-3.0-0.15-0.15","<span style= ""font-size:30px; font-family: monospace"">+</span>","null","fixation","","","","",""
"","772","audio-keyboard-response","38","308362","0.0-3.0-1.15","../audio/69-1-masc.mp3"," ","","A","","","",""
"","987","audio-keyboard-response","39","309623","0.0-3.0-1.16","../audio/69-2-masc.mp3"," ","","loja","","","",""
"","1115","audio-keyboard-response","40","311012","0.0-3.0-1.17","../audio/69-3-masc.mp3"," ","","recebeu","","","",""
"","1033","audio-keyboard-response","41","312315","0.0-3.0-1.18","../audio/69-4-masc.mp3"," ","","uma","","","",""
"","1149","audio-keyboard-response","42","313744","0.0-3.0-1.19","../audio/69-5-masc.mp3"," ","","poltrona","","","",""
"","720","audio-keyboard-response","43","314737","0.0-3.0-1.20","../audio/69-6-masc.mp3"," ","","de","","","",""
"","1062","audio-keyboard-response","44","316076","0.0-3.0-1.21","../audio/69-7-masc.mp3"," ","","couro","","","",""
"","1016","audio-keyboard-response","45","317367","0.0-3.0-1.22","../audio/69-8-masc.mp3"," ","","preto.","","","",""
"","null","html-keyboard-response","46","318624","0.0-3.0-0.23-0.23","<span style= ""font-size:30px; font-family: monospace"">+</span>","null","fixation","","","","",""
"","888","audio-keyboard-response","47","319797","0.0-3.0-1.23","../audio/67-1-masc.mp3"," ","","Minha","","","",""
"","778","audio-keyboard-response","48","320850","0.0-3.0-1.24","../audio/67-2-masc.mp3"," ","","tia","","","",""
"","935","audio-keyboard-response","49","322056","0.0-3.0-1.25","../audio/67-3-masc.mp3"," ","","comprou","","","",""
"","807","audio-keyboard-response","50","323141","0.0-3.0-1.26","../audio/67-4-masc.mp3"," ","","um","","","",""
"","993","audio-keyboard-response","51","324414","0.0-3.0-1.27","../audio/67-5-masc.mp3"," ","","cordão","","","",""
"","888","audio-keyboard-response","52","325574","0.0-3.0-1.28","../audio/67-6-masc.mp3"," ","","para","","","",""
"","1057","audio-keyboard-response","53","326901","0.0-3.0-1.29","../audio/67-7-masc.mp3"," ","","o","","","",""
"","964","audio-keyboard-response","54","328144","0.0-3.0-1.30","../audio/67-8-masc.mp3"," ","","varal.","","","",""
"","null","html-keyboard-response","55","329404","0.0-3.0-0.31-0.31","<span style= ""font-size:30px; font-family: monospace"">+</span>","null","fixation","","","","",""
"","807","audio-keyboard-response","56","330497","0.0-3.0-1.31","../audio/70-1-masc.mp3"," ","","O","","","",""
"","848","audio-keyboard-response","57","331617","0.0-3.0-1.32","../audio/70-2-masc.mp3"," ","","meu","","","",""
"","755","audio-keyboard-response","58","332641","0.0-3.0-1.33","../audio/70-3-masc.mp3"," ","","filho","","","",""
"","737","audio-keyboard-response","59","333651","0.0-3.0-1.34","../audio/70-4-masc.mp3"," ","","tem","","","",""
"","1022","audio-keyboard-response","60","334943","0.0-3.0-1.35","../audio/70-5-masc.mp3"," ","","medo","","","",""
"","679","audio-keyboard-response","61","335895","0.0-3.0-1.36","../audio/70-6-masc.mp3"," ","","de","","","",""
"","1068","audio-keyboard-response","62","337283","0.0-3.0-1.37","../audio/70-7-masc.mp3"," ","","enguia","","","",""
"","685","audio-keyboard-response","63","338240","0.0-3.0-1.38","../audio/70-8-masc.mp3"," ","","e","","","",""
"","1306","audio-keyboard-response","64","339826","0.0-3.0-1.39","../audio/70-9-masc.mp3"," ","","beija-flor.","","","",""
"","19498","html-keyboard-response","65","359577","0.0-3.0-2.39-0.39","<span style=""font-size:25px; font-family: monospace"">O filho tem medo de tigre?</span>","n","","","O filho tem medo de tigre?","null","exp-sent","false"
"","null","html-keyboard-response","66","361083","0.0-3.0-0.40-0.40","<span style= ""font-size:30px; font-family: monospace"">+</span>","null","fixation","","","","",""
"","1358","audio-keyboard-response","67","362721","0.0-3.0-1.40","../audio/04-1-fem.mp3"," ","","Duzentos","","","",""
"","917","audio-keyboard-response","68","363910","0.0-3.0-1.41","../audio/04-2-fem.mp3"," ","","carros","","","",""
"","1144","audio-keyboard-response","69","365357","0.0-3.0-1.42","../audio/04-3-fem.mp3"," ","","passaram","","","",""
"","900","audio-keyboard-response","70","366528","0.0-3.0-1.43","../audio/04-4-fem.mp3"," ","","pela","","","",""
"","964","audio-keyboard-response","71","367766","0.0-3.0-1.44","../audio/04-5-fem.mp3"," ","","ponte","","","",""
"","969","audio-keyboard-response","72","369008","0.0-3.0-1.45","../audio/04-6-fem.mp3"," ","","hoje","","","",""
"","708","audio-keyboard-response","73","369988","0.0-3.0-1.46","../audio/04-7-fem.mp3"," ","","de","","","",""
"","981","audio-keyboard-response","74","371311","0.0-3.0-1.47","../audio/04-8-fem.mp3"," ","","tarde.","","","",""
"","null","html-keyboard-response","75","372570","0.0-3.0-0.48-0.48","<span style= ""font-size:30px; font-family: monospace"">+</span>","null","fixation","","","","",""
"","743","audio-keyboard-response","76","373592","0.0-3.0-1.48","../audio/02-2-fem.mp3"," ","","Havia","","","",""
"","749","audio-keyboard-response","77","374592","0.0-3.0-1.49","../audio/02-2-fem.mp3"," ","","um","","","",""
"","766","audio-keyboard-response","78","375638","0.0-3.0-1.50","../audio/02-3-fem.mp3"," ","","cheiro","","","",""
"","644","audio-keyboard-response","79","376558","0.0-3.0-1.51","../audio/02-4-fem.mp3"," ","","de","","","",""
"","1033","audio-keyboard-response","80","377871","0.0-3.0-1.52","../audio/02-5-fem.mp3"," ","","gasolina","","","",""
"","824","audio-keyboard-response","81","378967","0.0-3.0-1.53","../audio/02-6-fem.mp3"," ","","na","","","",""
"","1010","audio-keyboard-response","82","380263","0.0-3.0-1.54","../audio/02-7-fem.mp3"," ","","garagem.","","","",""
"","null","html-keyboard-response","83","381517","0.0-3.0-0.55-0.55","<span style= ""font-size:30px; font-family: monospace"">+</span>","null","fixation","","","","",""
"","964","audio-keyboard-response","84","382760","0.0-3.0-1.55","../audio/01-1-masc.mp3"," ","","O","","","",""
"","894","audio-keyboard-response","85","383936","0.0-3.0-1.56","../audio/01-2-masc.mp3"," ","","menino","","","",""
"","1086","audio-keyboard-response","86","385297","0.0-3.0-1.57","../audio/01-3-masc.mp3"," ","","derrubou","","","",""
"","766","audio-keyboard-response","87","386339","0.0-3.0-1.58","../audio/01-4-masc.mp3"," ","","a","","","",""
"","1265","audio-keyboard-response","88","387883","0.0-3.0-1.59","../audio/01-5-masc.mp3"," ","","guitarra","","","",""
"","766","audio-keyboard-response","89","388922","0.0-3.0-1.60","../audio/01-6-masc.mp3"," ","","no","","","",""
"","772","audio-keyboard-response","90","389967","0.0-3.0-1.61","../audio/01-7-masc.mp3"," ","","chão.","","","",""
"","null","html-keyboard-response","91","391223","0.0-3.0-0.62-0.62","<span style= ""font-size:30px; font-family: monospace"">+</span>","null","fixation","","","","",""
"","685","audio-keyboard-response","92","392187","0.0-3.0-1.62","../audio/03-1-fem.mp3"," ","","O","","","",""
"","1080","audio-keyboard-response","93","393549","0.0-3.0-1.63","../audio/03-2-fem.mp3"," ","","coelho","","","",""
"","929","audio-keyboard-response","94","394754","0.0-3.0-1.64","../audio/03-3-fem.mp3"," ","","foi","","","",""
"","1074","audio-keyboard-response","95","396110","0.0-3.0-1.65","../audio/03-4-fem.mp3"," ","","bastante","","","",""
"","888","audio-keyboard-response","96","397269","0.0-3.0-1.66","../audio/03-5-fem.mp3"," ","","dócil","","","",""
"","789","audio-keyboard-response","97","398334","0.0-3.0-1.67","../audio/03-6-fem.mp3"," ","","com","","","",""
"","969","audio-keyboard-response","98","399577","0.0-3.0-1.68","../audio/03-7-fem.mp3"," ","","as","","","",""
"","1027","audio-keyboard-response","99","400884","0.0-3.0-1.69","../audio/03-8-fem.mp3"," ","","crianças.","","","",""
"","null","html-keyboard-response","100","402143","0.0-3.0-0.70-0.70","<span style= ""font-size:30px; font-family: monospace"">+</span>","null","fixation","","","","",""
"","917","audio-keyboard-response","101","403335","0.0-3.0-1.70","../audio/05-1-fem.mp3"," ","","A","","","",""
"","1103","audio-keyboard-response","102","404715","0.0-3.0-1.71","../audio/05-2-fem.mp3"," ","","vendedora","","","",""
"","1086","audio-keyboard-response","103","406081","0.0-3.0-1.72","../audio/05-3-fem.mp3"," ","","ajudou","","","",""
"","749","audio-keyboard-response","104","407101","0.0-3.0-1.73","../audio/05-4-fem.mp3"," ","","um","","","",""
"","917","audio-keyboard-response","105","408292","0.0-3.0-1.74","../audio/05-5-fem.mp3"," ","","turista","","","",""
"","906","audio-keyboard-response","106","409470","0.0-3.0-1.75","../audio/05-6-fem.mp3"," ","","na","","","",""
"","917","audio-keyboard-response","107","410662","0.0-3.0-1.76","../audio/05-7-fem.mp3"," ","","loja.","","","",""
"","6237","html-keyboard-response","108","417152","0.0-3.0-2.76-0.76","<span style=""font-size:25px; font-family: monospace"">A vendedora ajudou um turista?</span>","s","","","A vendedora ajudou um turista?","null","exp-sent","false"
"","null","html-keyboard-response","109","418658","0.0-3.0-0.77-0.77","<span style= ""font-size:30px; font-family: monospace"">+</span>","null","fixation","","","","",""
"","917","audio-keyboard-response","110","419854","0.0-3.0-1.77","../audio/59-1-masc.mp3"," ","","O","","","",""
"","1091","audio-keyboard-response","111","421222","0.0-3.0-1.78","../audio/59-2-masc.mp3"," ","","carteiro","","","",""
"","824","audio-keyboard-response","112","422491","0.0-3.0-1.79","../audio/59-3-masc.mp3"," ","","fez","","","",""
"","807","audio-keyboard-response","113","423580","0.0-3.0-1.80","../audio/59-4-masc.mp3"," ","","uma","","","",""
"","1016","audio-keyboard-response","114","424871","0.0-3.0-1.81","../audio/59-5-masc.mp3"," ","","tentativa","","","",""
"","714","audio-keyboard-response","115","425858","0.0-3.0-1.82","../audio/59-6-masc.mp3"," ","","de","","","",""
"","917","audio-keyboard-response","116","427049","0.0-3.0-1.83","../audio/59-7-masc.mp3"," ","","entrega.","","","",""
"","null","html-keyboard-response","117","428307","0.0-3.0-0.84-0.84","<span style= ""font-size:30px; font-family: monospace"">+</span>","null","fixation","","","","",""
"","807","audio-keyboard-response","118","429392","0.0-3.0-1.84","../audio/58-1-masc.mp3"," ","","Havia","","","",""
"","853","audio-keyboard-response","119","430529","0.0-3.0-1.85","../audio/58-2-masc.mp3"," ","","apenas","","","",""
"","697","audio-keyboard-response","120","431495","0.0-3.0-1.86","../audio/58-3-masc.mp3"," ","","um","","","",""
"","998","audio-keyboard-response","121","432768","0.0-3.0-1.87","../audio/58-4-masc.mp3"," ","","último","","","",""
"","830","audio-keyboard-response","122","433874","0.0-3.0-1.88","../audio/58-5-masc.mp3"," ","","herdeiro","","","",""
"","714","audio-keyboard-response","123","434856","0.0-3.0-1.89","../audio/58-6-masc.mp3"," ","","do","","","",""
"","795","audio-keyboard-response","124","435925","0.0-3.0-1.90","../audio/58-7-masc.mp3"," ","","dinheiro.","","","",""
"","null","html-keyboard-response","125","437182","0.0-3.0-0.91-0.91","<span style= ""font-size:30px; font-family: monospace"">+</span>","null","fixation","","","","",""
"","598","audio-keyboard-response","126","438180","0.0-3.0-1.91","../audio/57-1-fem.mp3"," ","","O","","","",""
"","1144","audio-keyboard-response","127","439592","0.0-3.0-1.92","../audio/57-2-fem.mp3"," ","","capitão","","","",""
"","784","audio-keyboard-response","128","440661","0.0-3.0-1.93","../audio/57-3-fem.mp3"," ","","deu","","","",""
"","900","audio-keyboard-response","129","441836","0.0-3.0-1.94","../audio/57-4-fem.mp3"," ","","uma","","","",""
"","1440","audio-keyboard-response","130","443551","0.0-3.0-1.95","../audio/57-5-fem.mp3"," ","","instrução","","","",""
"","906","audio-keyboard-response","131","444730","0.0-3.0-1.96","../audio/57-6-fem.mp3"," ","","para","","","",""
"","842","audio-keyboard-response","132","445844","0.0-3.0-1.97","../audio/57-7-fem.mp3"," ","","as","","","",""
"","1004","audio-keyboard-response","133","447130","0.0-3.0-1.98","../audio/57-8-fem.mp3"," ","","pessoas.","","","",""
"","null","html-keyboard-response","134","448386","0.0-3.0-0.99-0.99","<span style= ""font-size:30px; font-family: monospace"">+</span>","null","fixation","","","","",""
"","621","audio-keyboard-response","135","449288","0.0-3.0-1.99","../audio/56-1-masc.mp3"," ","","A","","","",""
"","917","audio-keyboard-response","136","450477","0.0-3.0-1.100","../audio/56-2-masc.mp3"," ","","moça","","","",""
"","639","audio-keyboard-response","137","451388","0.0-3.0-1.101","../audio/56-3-masc.mp3"," ","","foi","","","",""
"","766","audio-keyboard-response","138","452438","0.0-3.0-1.102","../audio/56-4-masc.mp3"," ","","à","","","",""
"","911","audio-keyboard-response","139","453629","0.0-3.0-1.103","../audio/56-5-masc.mp3"," ","","agência","","","",""
"","824","audio-keyboard-response","140","454735","0.0-3.0-1.104","../audio/56-6-masc.mp3"," ","","bancária","","","",""
"","964","audio-keyboard-response","141","455975","0.0-3.0-1.105","../audio/56-7-masc.mp3"," ","","ontem","","","",""
"","726","audio-keyboard-response","142","456975","0.0-3.0-1.106","../audio/56-8-masc.mp3"," ","","de","","","",""
"","894","audio-keyboard-response","143","458150","0.0-3.0-1.107","../audio/56-9-masc.mp3"," ","","tarde.","","","",""
"","null","html-keyboard-response","144","459405","0.0-3.0-0.108-0.108","<span style= ""font-size:30px; font-family: monospace"">+</span>","null","fixation","","","","",""
"","1155","audio-keyboard-response","145","460846","0.0-3.0-1.108","../audio/60-1-fem.mp3"," ","","Ondas","","","",""
"","778","audio-keyboard-response","146","461899","0.0-3.0-1.109","../audio/60-2-fem.mp3"," ","","têm","","","",""
"","743","audio-keyboard-response","147","462908","0.0-3.0-1.110","../audio/60-3-fem.mp3"," ","","um","","","",""
"","1265","audio-keyboard-response","148","464445","0.0-3.0-1.111","../audio/60-4-fem.mp3"," ","","impacto","","","",""
"","987","audio-keyboard-response","149","465716","0.0-3.0-1.112","../audio/60-5-fem.mp3"," ","","destrutivo","","","",""
"","906","audio-keyboard-response","150","466894","0.0-3.0-1.113","../audio/60-6-fem.mp3"," ","","no","","","",""
"","969","audio-keyboard-response","151","468141","0.0-3.0-1.114","../audio/60-7-fem.mp3"," ","","litoral.","","","",""
"","42549","html-keyboard-response","152","510948","0.0-3.0-2.114-0.114","<span style=""font-size:25px; font-family: monospace"">Ondas têm um impacto destrutivo?</span>","n","","","Ondas têm um impacto destrutivo?","null","exp-sent","false"
"","null","html-keyboard-response","153","512454","0.0-3.0-0.115-0.115","<span style= ""font-size:30px; font-family: monospace"">+</span>","null","fixation","","","","",""
"","1503","audio-keyboard-response","154","514257","0.0-3.0-1.115","../audio/54-1-fem.mp3"," ","","Estou","","","",""
"","760","audio-keyboard-response","155","515286","0.0-3.0-1.116","../audio/54-2-fem.mp3"," ","","com","","","",""
"","1335","audio-keyboard-response","156","516901","0.0-3.0-1.117","../audio/54-3-fem.mp3"," ","","medo","","","",""
"","731","audio-keyboard-response","157","517908","0.0-3.0-1.118","../audio/54-4-fem.mp3"," ","","da","","","",""
"","1178","audio-keyboard-response","158","519362","0.0-3.0-1.119","../audio/54-5-fem.mp3"," ","","atual","","","",""
"","1596","audio-keyboard-response","159","521243","0.0-3.0-1.120","../audio/54-6-fem.mp3"," ","","organização","","","",""
"","749","audio-keyboard-response","160","522270","0.0-3.0-1.121","../audio/54-7-fem.mp3"," ","","do","","","",""
"","906","audio-keyboard-response","161","523457","0.0-3.0-1.122","../audio/54-8-fem.mp3"," ","","país.","","","",""
"","null","html-keyboard-response","162","524713","0.0-3.0-0.123-0.123","<span style= ""font-size:30px; font-family: monospace"">+</span>","null","fixation","","","","",""
"","714","audio-keyboard-response","163","525713","0.0-3.0-1.123","../audio/53-1-masc.mp3"," ","","O","","","",""
"","853","audio-keyboard-response","164","526845","0.0-3.0-1.124","../audio/53-2-masc.mp3"," ","","médico","","","",""
"","685","audio-keyboard-response","165","527796","0.0-3.0-1.125","../audio/53-3-masc.mp3"," ","","foi","","","",""
"","975","audio-keyboard-response","166","529053","0.0-3.0-1.126","../audio/53-4-masc.mp3"," ","","bastante","","","",""
"","940","audio-keyboard-response","167","530271","0.0-3.0-1.127","../audio/53-5-masc.mp3"," ","","preciso","","","",""
"","760","audio-keyboard-response","168","531313","0.0-3.0-1.128","../audio/53-6-masc.mp3"," ","","durante","","","",""
"","859","audio-keyboard-response","169","532449","0.0-3.0-1.129","../audio/53-7-masc.mp3"," ","","a","","","",""
"","1138","audio-keyboard-response","170","533857","0.0-3.0-1.130","../audio/53-8-masc.mp3"," ","","cirurgia.","","","",""
"","null","html-keyboard-response","171","535116","0.0-3.0-0.131-0.131","<span style= ""font-size:30px; font-family: monospace"">+</span>","null","fixation","","","","",""
"","627","audio-keyboard-response","172","536024","0.0-3.0-1.131","../audio/52-1-masc.mp3"," ","","Às","","","",""
"","824","audio-keyboard-response","173","537121","0.0-3.0-1.132","../audio/52-2-masc.mp3"," ","","vezes","","","",""
"","720","audio-keyboard-response","174","538118","0.0-3.0-1.133","../audio/52-3-masc.mp3"," ","","eu","","","",""
"","830","audio-keyboard-response","175","539223","0.0-3.0-1.134","../audio/52-4-masc.mp3"," ","","tenho","","","",""
"","1080","audio-keyboard-response","176","540577","0.0-3.0-1.135","../audio/52-5-masc.mp3"," ","","azia","","","",""
"","935","audio-keyboard-response","177","541781","0.0-3.0-1.136","../audio/52-6-masc.mp3"," ","","depois","","","",""
"","801","audio-keyboard-response","178","542858","0.0-3.0-1.137","../audio/52-7-masc.mp3"," ","","da","","","",""
"","778","audio-keyboard-response","179","543911","0.0-3.0-1.138","../audio/52-8-masc.mp3"," ","","janta.","","","",""
"","null","html-keyboard-response","180","545171","0.0-3.0-0.139-0.139","<span style= ""font-size:30px; font-family: monospace"">+</span>","null","fixation","","","","",""
"","1051","audio-keyboard-response","181","546501","0.0-3.0-1.139","../audio/51-1-fem.mp3"," ","","Suco","","","",""
"","726","audio-keyboard-response","182","547507","0.0-3.0-1.140","../audio/51-2-fem.mp3"," ","","de","","","",""
"","1399","audio-keyboard-response","183","549184","0.0-3.0-1.141","../audio/51-3-fem.mp3"," ","","acerola","","","",""
"","662","audio-keyboard-response","184","550117","0.0-3.0-1.142","../audio/51-4-fem.mp3"," ","","é","","","",""
"","1144","audio-keyboard-response","185","551541","0.0-3.0-1.143","../audio/51-5-fem.mp3"," ","","azedo","","","",""
"","708","audio-keyboard-response","186","552524","0.0-3.0-1.144","../audio/51-6-fem.mp3"," ","","e","","","",""
"","1004","audio-keyboard-response","187","553800","0.0-3.0-1.145","../audio/51-7-fem.mp3"," ","","até","","","",""
"","1045","audio-keyboard-response","188","555120","0.0-3.0-1.146","../audio/51-8-fem.mp3"," ","","barato.","","","",""
"","null","html-keyboard-response","189","556374","0.0-3.0-0.147-0.147","<span style= ""font-size:30px; font-family: monospace"">+</span>","null","fixation","","","","",""
"","714","audio-keyboard-response","190","557371","0.0-3.0-1.147","../audio/55-1-masc.mp3"," ","","O","","","",""
"","1027","audio-keyboard-response","191","558676","0.0-3.0-1.148","../audio/55-2-masc.mp3"," ","","insulto","","","",""
"","987","audio-keyboard-response","192","559941","0.0-3.0-1.149","../audio/55-3-masc.mp3"," ","","recente","","","",""
"","1004","audio-keyboard-response","193","561220","0.0-3.0-1.150","../audio/55-4-masc.mp3"," ","","causou","","","",""
"","1428","audio-keyboard-response","194","562930","0.0-3.0-1.151","../audio/55-5-masc.mp3"," ","","indignação","","","",""
"","917","audio-keyboard-response","195","564121","0.0-3.0-1.152","../audio/55-6-masc.mp3"," ","","em","","","",""
"","853","audio-keyboard-response","196","565254","0.0-3.0-1.153","../audio/55-7-masc.mp3"," ","","todos.","","","",""
"","8594","html-keyboard-response","197","574100","0.0-3.0-2.153-0.153","<span style=""font-size:25px; font-family: monospace"">O insulto causou calmaria?</span>","n","","","O insulto causou calmaria?","null","exp-sent","false"
"","null","html-keyboard-response","198","575607","0.0-3.0-0.154-0.154","<span style= ""font-size:30px; font-family: monospace"">+</span>","null","fixation","","","","",""
"","969","audio-keyboard-response","199","576853","0.0-3.0-1.154","../audio/62-1-masc.mp3"," ","","As","","","",""
"","1370","audio-keyboard-response","200","578496","0.0-3.0-1.155","../audio/62-2-masc.mp3"," ","","artesãs","","","",""
"","964","audio-keyboard-response","201","579731","0.0-3.0-1.156","../audio/62-3-masc.mp3"," ","","gostam","","","",""
"","795","audio-keyboard-response","202","580797","0.0-3.0-1.157","../audio/62-4-masc.mp3"," ","","de","","","",""
"","1149","audio-keyboard-response","203","582221","0.0-3.0-1.158","../audio/62-5-masc.mp3"," ","","maquiagem","","","",""
"","720","audio-keyboard-response","204","583216","0.0-3.0-1.159","../audio/62-6-masc.mp3"," ","","e","","","",""
"","714","audio-keyboard-response","205","584199","0.0-3.0-1.160","../audio/62-7-masc.mp3"," ","","de","","","",""
"","853","audio-keyboard-response","206","585325","0.0-3.0-1.161","../audio/62-8-masc.mp3"," ","","crochê.","","","",""
"","null","html-keyboard-response","207","586583","0.0-3.0-0.162-0.162","<span style= ""font-size:30px; font-family: monospace"">+</span>","null","fixation","","","","",""
"","668","audio-keyboard-response","208","587531","0.0-3.0-1.162","../audio/63-1-masc.mp3"," ","","A","","","",""
"","900","audio-keyboard-response","209","588719","0.0-3.0-1.163","../audio/63-2-masc.mp3"," ","","chuva","","","",""
"","946","audio-keyboard-response","210","589939","0.0-3.0-1.164","../audio/63-3-masc.mp3"," ","","entrou","","","",""
"","853","audio-keyboard-response","211","591076","0.0-3.0-1.165","../audio/63-4-masc.mp3"," ","","pela","","","",""
"","1126","audio-keyboard-response","212","592479","0.0-3.0-1.166","../audio/63-5-masc.mp3"," ","","abertura","","","",""
"","819","audio-keyboard-response","213","593572","0.0-3.0-1.167","../audio/63-6-masc.mp3"," ","","na","","","",""
"","1027","audio-keyboard-response","214","594872","0.0-3.0-1.168","../audio/63-7-masc.mp3"," ","","janela.","","","",""
"","null","html-keyboard-response","215","596128","0.0-3.0-0.169-0.169","<span style= ""font-size:30px; font-family: monospace"">+</span>","null","fixation","","","","",""
"","650","audio-keyboard-response","216","597057","0.0-3.0-1.169","../audio/64-1-masc.mp3"," ","","O","","","",""
"","859","audio-keyboard-response","217","598191","0.0-3.0-1.170","../audio/64-2-masc.mp3"," ","","dia","","","",""
"","819","audio-keyboard-response","218","599285","0.0-3.0-1.171","../audio/64-3-masc.mp3"," ","","começou","","","",""
"","743","audio-keyboard-response","219","600300","0.0-3.0-1.172","../audio/64-4-masc.mp3"," ","","com","","","",""
"","859","audio-keyboard-response","220","601440","0.0-3.0-1.173","../audio/64-5-masc.mp3"," ","","garoa","","","",""
"","923","audio-keyboard-response","221","602642","0.0-3.0-1.174","../audio/64-6-masc.mp3"," ","","gelada","","","",""
"","702","audio-keyboard-response","222","603611","0.0-3.0-1.175","../audio/64-7-masc.mp3"," ","","e","","","",""
"","1022","audio-keyboard-response","223","604909","0.0-3.0-1.176","../audio/64-8-masc.mp3"," ","","leve.","","","",""
"","null","html-keyboard-response","224","606165","0.0-3.0-0.177-0.177","<span style= ""font-size:30px; font-family: monospace"">+</span>","null","fixation","","","","",""
"","1045","audio-keyboard-response","225","607489","0.0-3.0-1.177","../audio/61-1-fem.mp3"," ","","Aquele","","","",""
"","1033","audio-keyboard-response","226","608797","0.0-3.0-1.178","../audio/61-2-fem.mp3"," ","","senhor","","","",""
"","697","audio-keyboard-response","227","609770","0.0-3.0-1.179","../audio/61-3-fem.mp3"," ","","é","","","",""
"","1103","audio-keyboard-response","228","611157","0.0-3.0-1.180","../audio/61-4-fem.mp3"," ","","muito","","","",""
"","1306","audio-keyboard-response","229","612745","0.0-3.0-1.181","../audio/61-5-fem.mp3"," ","","sovina","","","",""
"","766","audio-keyboard-response","230","613785","0.0-3.0-1.182","../audio/61-6-fem.mp3"," ","","e","","","",""
"","1260","audio-keyboard-response","231","615331","0.0-3.0-1.183","../audio/61-7-fem.mp3"," ","","inflexível.","","","",""
"","null","html-keyboard-response","232","616591","0.0-3.0-0.184-0.184","<span style= ""font-size:30px; font-family: monospace"">+</span>","null","fixation","","","","",""
"","859","audio-keyboard-response","233","617742","0.0-3.0-1.184","../audio/65-1-fem.mp3"," ","","O","","","",""
"","1062","audio-keyboard-response","234","619088","0.0-3.0-1.185","../audio/65-2-fem.mp3"," ","","fantasma","","","",""
"","819","audio-keyboard-response","235","620190","0.0-3.0-1.186","../audio/65-3-fem.mp3"," ","","veio","","","",""
"","795","audio-keyboard-response","236","621261","0.0-3.0-1.187","../audio/65-4-fem.mp3"," ","","da","","","",""
"","1097","audio-keyboard-response","237","622641","0.0-3.0-1.188","../audio/65-5-fem.mp3"," ","","escuridão","","","",""
"","1027","audio-keyboard-response","238","623948","0.0-3.0-1.189","../audio/65-6-fem.mp3"," ","","do","","","",""
"","1236","audio-keyboard-response","239","625569","0.0-3.0-1.190","../audio/65-7-fem.mp3"," ","","armário.","","","",""
"","7431","html-keyboard-response","240","633254","0.0-3.0-2.190-0.190","<span style=""font-size:25px; font-family: monospace"">O fantasma veio da escuridão do armário?</span>","s","","","O fantasma veio da escuridão do armário?","null","exp-sent","false"
"","null","html-keyboard-response","241","634762","0.0-3.0-0.191-0.191","<span style= ""font-size:30px; font-family: monospace"">+</span>","null","fixation","","","","",""
"","755","audio-keyboard-response","242","635805","0.0-3.0-1.191","../audio/19-1-fem.mp3"," ","","O","","","",""
"","981","audio-keyboard-response","243","637064","0.0-3.0-1.192","../audio/19-2-fem.mp3"," ","","menino","","","",""
"","993","audio-keyboard-response","244","638327","0.0-3.0-1.193","../audio/19-3-fem.mp3"," ","","ganhou","","","",""
"","848","audio-keyboard-response","245","639448","0.0-3.0-1.194","../audio/19-4-fem.mp3"," ","","uma","","","",""
"","830","audio-keyboard-response","246","640551","0.0-3.0-1.195","../audio/19-5-fem.mp3"," ","","bala","","","",""
"","981","audio-keyboard-response","247","641806","0.0-3.0-1.196","../audio/19-6-fem.mp3"," ","","depois","","","",""
"","691","audio-keyboard-response","248","642773","0.0-3.0-1.197","../audio/19-7-fem.mp3"," ","","do","","","",""
"","1022","audio-keyboard-response","249","644073","0.0-3.0-1.198","../audio/19-8-fem.mp3"," ","","almoço.","","","",""
"","null","html-keyboard-response","250","645333","0.0-3.0-0.199-0.199","<span style= ""font-size:30px; font-family: monospace"">+</span>","null","fixation","","","","",""
"","610","audio-keyboard-response","251","646224","0.0-3.0-1.199","../audio/18-1-fem.mp3"," ","","O","","","",""
"","877","audio-keyboard-response","252","647380","0.0-3.0-1.200","../audio/18-2-fem.mp3"," ","","enredo","","","",""
"","900","audio-keyboard-response","253","648552","0.0-3.0-1.201","../audio/18-3-fem.mp3"," ","","traz","","","",""
"","650","audio-keyboard-response","254","649480","0.0-3.0-1.202","../audio/18-4-fem.mp3"," ","","um","","","",""
"","894","audio-keyboard-response","255","650652","0.0-3.0-1.203","../audio/18-5-fem.mp3"," ","","dragão","","","",""
"","911","audio-keyboard-response","256","651846","0.0-3.0-1.204","../audio/18-6-fem.mp3"," ","","forte","","","",""
"","598","audio-keyboard-response","257","652712","0.0-3.0-1.205","../audio/18-7-fem.mp3"," ","","e","","","",""
"","1167","audio-keyboard-response","258","654161","0.0-3.0-1.206","../audio/18-8-fem.mp3"," ","","solitário.","","","",""
"","null","html-keyboard-response","259","655416","0.0-3.0-0.207-0.207","<span style= ""font-size:30px; font-family: monospace"">+</span>","null","fixation","","","","",""
"","778","audio-keyboard-response","260","656479","0.0-3.0-1.207","../audio/17-1-fem.mp3"," ","","Falaram","","","",""
"","720","audio-keyboard-response","261","657476","0.0-3.0-1.208","../audio/17-2-fem.mp3"," ","","da","","","",""
"","807","audio-keyboard-response","262","658553","0.0-3.0-1.209","../audio/17-3-fem.mp3"," ","","lei","","","",""
"","772","audio-keyboard-response","263","659596","0.0-3.0-1.210","../audio/17-4-fem.mp3"," ","","no","","","",""
"","900","audio-keyboard-response","264","660776","0.0-3.0-1.211","../audio/17-5-fem.mp3"," ","","ministério","","","",""
"","1010","audio-keyboard-response","265","662066","0.0-3.0-1.212","../audio/17-6-fem.mp3"," ","","diversas","","","",""
"","830","audio-keyboard-response","266","663174","0.0-3.0-1.213","../audio/17-7-fem.mp3"," ","","vezes.","","","",""
"","null","html-keyboard-response","267","664432","0.0-3.0-0.214-0.214","<span style= ""font-size:30px; font-family: monospace"">+</span>","null","fixation","","","","",""
"","627","audio-keyboard-response","268","665340","0.0-3.0-1.214","../audio/16-1-masc.mp3"," ","","Eu","","","",""
"","842","audio-keyboard-response","269","666462","0.0-3.0-1.215","../audio/16-2-masc.mp3"," ","","nunca","","","",""
"","830","audio-keyboard-response","270","667567","0.0-3.0-1.216","../audio/16-3-masc.mp3"," ","","conheci","","","",""
"","679","audio-keyboard-response","271","668529","0.0-3.0-1.217","../audio/16-4-masc.mp3"," ","","um","","","",""
"","836","audio-keyboard-response","272","669637","0.0-3.0-1.218","../audio/16-5-masc.mp3"," ","","general","","","",""
"","772","audio-keyboard-response","273","670681","0.0-3.0-1.219","../audio/16-6-masc.mp3"," ","","do","","","",""
"","824","audio-keyboard-response","274","671785","0.0-3.0-1.220","../audio/16-7-masc.mp3"," ","","exército.","","","",""
"","null","html-keyboard-response","275","673041","0.0-3.0-0.221-0.221","<span style= ""font-size:30px; font-family: monospace"">+</span>","null","fixation","","","","",""
"","621","audio-keyboard-response","276","673945","0.0-3.0-1.221","../audio/20-1-masc.mp3"," ","","O","","","",""
"","755","audio-keyboard-response","277","674979","0.0-3.0-1.222","../audio/20-2-masc.mp3"," ","","colega","","","",""
"","917","audio-keyboard-response","278","676172","0.0-3.0-1.223","../audio/20-3-masc.mp3"," ","","parecia","","","",""
"","935","audio-keyboard-response","279","677381","0.0-3.0-1.224","../audio/20-4-masc.mp3"," ","","muito","","","",""
"","940","audio-keyboard-response","280","678596","0.0-3.0-1.225","../audio/20-5-masc.mp3"," ","","gripado","","","",""
"","859","audio-keyboard-response","281","679739","0.0-3.0-1.226","../audio/20-6-masc.mp3"," ","","no","","","",""
"","801","audio-keyboard-response","282","680809","0.0-3.0-1.227","../audio/20-7-masc.mp3"," ","","dia","","","",""
"","836","audio-keyboard-response","283","681923","0.0-3.0-1.228","../audio/20-8-masc.mp3"," ","","anterior.","","","",""
"","7505","html-keyboard-response","284","689683","0.0-3.0-2.228-0.228","<span style=""font-size:25px; font-family: monospace"">O colega parecia muito gripado?</span>","s","","","O colega parecia muito gripado?","null","exp-sent","false"
"","null","html-keyboard-response","285","691188","0.0-3.0-0.229-0.229","<span style= ""font-size:30px; font-family: monospace"">+</span>","null","fixation","","","","",""
"","1312","audio-keyboard-response","286","692780","0.0-3.0-1.229","../audio/43-1-masc.mp3"," ","","Eu","","","",""
"","900","audio-keyboard-response","287","693955","0.0-3.0-1.230","../audio/43-2-masc.mp3"," ","","achei","","","",""
"","813","audio-keyboard-response","288","695097","0.0-3.0-1.231","../audio/43-3-masc.mp3"," ","","um","","","",""
"","946","audio-keyboard-response","289","696324","0.0-3.0-1.232","../audio/43-4-masc.mp3"," ","","colchão","","","",""
"","726","audio-keyboard-response","290","697322","0.0-3.0-1.233","../audio/43-5-masc.mp3"," ","","velho","","","",""
"","702","audio-keyboard-response","291","698297","0.0-3.0-1.234","../audio/43-6-masc.mp3"," ","","e","","","",""
"","993","audio-keyboard-response","292","699564","0.0-3.0-1.235","../audio/43-7-masc.mp3"," ","","imundo","","","",""
"","900","audio-keyboard-response","293","700739","0.0-3.0-1.236","../audio/43-8-masc.mp3"," ","","na","","","",""
"","882","audio-keyboard-response","294","701894","0.0-3.0-1.237","../audio/43-9-masc.mp3"," ","","casa.","","","",""
"","null","html-keyboard-response","295","703152","0.0-3.0-0.238-0.238","<span style= ""font-size:30px; font-family: monospace"">+</span>","null","fixation","","","","",""
"","673","audio-keyboard-response","296","704105","0.0-3.0-1.238","../audio/42-1-masc.mp3"," ","","Eu","","","",""
"","772","audio-keyboard-response","297","705151","0.0-3.0-1.239","../audio/42-2-masc.mp3"," ","","fui","","","",""
"","731","audio-keyboard-response","298","706158","0.0-3.0-1.240","../audio/42-3-masc.mp3"," ","","a","","","",""
"","819","audio-keyboard-response","299","707251","0.0-3.0-1.241","../audio/42-4-masc.mp3"," ","","uma","","","",""
"","766","audio-keyboard-response","300","708290","0.0-3.0-1.242","../audio/42-5-masc.mp3"," ","","loja","","","",""
"","662","audio-keyboard-response","301","709229","0.0-3.0-1.243","../audio/42-6-masc.mp3"," ","","de","","","",""
"","772","audio-keyboard-response","302","710277","0.0-3.0-1.244","../audio/42-7-masc.mp3"," ","","móveis","","","",""
"","749","audio-keyboard-response","303","711302","0.0-3.0-1.245","../audio/42-8-masc.mp3"," ","","no","","","",""
"","702","audio-keyboard-response","304","712279","0.0-3.0-1.246","../audio/42-9-masc.mp3"," ","","bairro.","","","",""
"","null","html-keyboard-response","305","713537","0.0-3.0-0.247-0.247","<span style= ""font-size:30px; font-family: monospace"">+</span>","null","fixation","","","","",""
"","836","audio-keyboard-response","306","714646","0.0-3.0-1.247","../audio/44-1-masc.mp3"," ","","Meus","","","",""
"","801","audio-keyboard-response","307","715729","0.0-3.0-1.248","../audio/44-2-masc.mp3"," ","","irmãos","","","",""
"","784","audio-keyboard-response","308","716792","0.0-3.0-1.249","../audio/44-3-masc.mp3"," ","","brigam","","","",""
"","784","audio-keyboard-response","309","717847","0.0-3.0-1.250","../audio/44-4-masc.mp3"," ","","por","","","",""
"","975","audio-keyboard-response","310","719110","0.0-3.0-1.251","../audio/44-5-masc.mp3"," ","","bobagem","","","",""
"","795","audio-keyboard-response","311","720181","0.0-3.0-1.252","../audio/44-6-masc.mp3"," ","","todos","","","",""
"","836","audio-keyboard-response","312","721291","0.0-3.0-1.253","../audio/44-7-masc.mp3"," ","","os","","","",""
"","766","audio-keyboard-response","313","722337","0.0-3.0-1.254","../audio/44-8-masc.mp3"," ","","dias.","","","",""
"","null","html-keyboard-response","314","723598","0.0-3.0-0.255-0.255","<span style= ""font-size:30px; font-family: monospace"">+</span>","null","fixation","","","","",""
"","610","audio-keyboard-response","315","724486","0.0-3.0-1.255","../audio/41-1-fem.mp3"," ","","A","","","",""
"","1097","audio-keyboard-response","316","725863","0.0-3.0-1.256","../audio/41-2-fem.mp3"," ","","novela","","","",""
"","894","audio-keyboard-response","317","727036","0.0-3.0-1.257","../audio/41-3-fem.mp3"," ","","falava","","","",""
"","737","audio-keyboard-response","318","728041","0.0-3.0-1.258","../audio/41-4-fem.mp3"," ","","de","","","",""
"","964","audio-keyboard-response","319","729285","0.0-3.0-1.259","../audio/41-5-fem.mp3"," ","","paixão","","","",""
"","615","audio-keyboard-response","320","730173","0.0-3.0-1.260","../audio/41-6-fem.mp3"," ","","e","","","",""
"","911","audio-keyboard-response","321","731355","0.0-3.0-1.261","../audio/41-7-fem.mp3"," ","","comédia.","","","",""
"","null","html-keyboard-response","322","732613","0.0-3.0-0.262-0.262","<span style= ""font-size:30px; font-family: monospace"">+</span>","null","fixation","","","","",""
"","563","audio-keyboard-response","323","733456","0.0-3.0-1.262","../audio/45-1-masc.mp3"," ","","O","","","",""
"","836","audio-keyboard-response","324","734567","0.0-3.0-1.263","../audio/45-2-masc.mp3"," ","","homem","","","",""
"","871","audio-keyboard-response","325","735708","0.0-3.0-1.264","../audio/45-3-masc.mp3"," ","","pagou","","","",""
"","668","audio-keyboard-response","326","736646","0.0-3.0-1.265","../audio/45-4-masc.mp3"," ","","o","","","",""
"","923","audio-keyboard-response","327","737842","0.0-3.0-1.266","../audio/45-5-masc.mp3"," ","","aluguel","","","",""
"","714","audio-keyboard-response","328","738828","0.0-3.0-1.267","../audio/45-6-masc.mp3"," ","","com","","","",""
"","859","audio-keyboard-response","329","739961","0.0-3.0-1.268","../audio/45-7-masc.mp3"," ","","atraso.","","","",""
"","7088","html-keyboard-response","330","747301","0.0-3.0-2.268-0.268","<span style=""font-size:25px; font-family: monospace"">O homem pagou o aluguel em dia?</span>","n","","","O homem pagou o aluguel em dia?","null","exp-sent","false"
"","null","html-keyboard-response","331","748804","0.0-3.0-0.269-0.269","<span style= ""font-size:30px; font-family: monospace"">+</span>","null","fixation","","","","",""
"","1469","audio-keyboard-response","332","750553","0.0-3.0-1.269","../audio/78-1-masc.mp3"," ","","Eles","","","",""
"","853","audio-keyboard-response","333","751678","0.0-3.0-1.270","../audio/78-2-masc.mp3"," ","","trazem","","","",""
"","662","audio-keyboard-response","334","752616","0.0-3.0-1.271","../audio/78-3-masc.mp3"," ","","um","","","",""
"","877","audio-keyboard-response","335","753771","0.0-3.0-1.272","../audio/78-4-masc.mp3"," ","","fato","","","",""
"","894","audio-keyboard-response","336","754943","0.0-3.0-1.273","../audio/78-5-masc.mp3"," ","","urgente","","","",""
"","784","audio-keyboard-response","337","755997","0.0-3.0-1.274","../audio/78-6-masc.mp3"," ","","todos","","","",""
"","789","audio-keyboard-response","338","757059","0.0-3.0-1.275","../audio/78-7-masc.mp3"," ","","os","","","",""
"","662","audio-keyboard-response","339","757995","0.0-3.0-1.276","../audio/78-8-masc.mp3"," ","","dias.","","","",""
"","null","html-keyboard-response","340","759253","0.0-3.0-0.277-0.277","<span style= ""font-size:30px; font-family: monospace"">+</span>","null","fixation","","","","",""
"","592","audio-keyboard-response","341","760134","0.0-3.0-1.277","../audio/76-1-masc.mp3"," ","","O","","","",""
"","987","audio-keyboard-response","342","761390","0.0-3.0-1.278","../audio/76-2-masc.mp3"," ","","bisavô","","","",""
"","772","audio-keyboard-response","343","762442","0.0-3.0-1.279","../audio/76-3-masc.mp3"," ","","comprou","","","",""
"","697","audio-keyboard-response","344","763413","0.0-3.0-1.280","../audio/76-4-masc.mp3"," ","","um","","","",""
"","998","audio-keyboard-response","345","764683","0.0-3.0-1.281","../audio/76-5-masc.mp3"," ","","ralador","","","",""
"","644","audio-keyboard-response","346","765614","0.0-3.0-1.282","../audio/76-6-masc.mp3"," ","","de","","","",""
"","702","audio-keyboard-response","347","766594","0.0-3.0-1.283","../audio/76-7-masc.mp3"," ","","queijo.","","","",""
"","null","html-keyboard-response","348","767851","0.0-3.0-0.284-0.284","<span style= ""font-size:30px; font-family: monospace"">+</span>","null","fixation","","","","",""
"","580","audio-keyboard-response","349","768706","0.0-3.0-1.284","../audio/79-1-fem.mp3"," ","","A","","","",""
"","697","audio-keyboard-response","350","769676","0.0-3.0-1.285","../audio/79-2-fem.mp3"," ","","médica","","","",""
"","1161","audio-keyboard-response","351","771116","0.0-3.0-1.286","../audio/79-3-fem.mp3"," ","","verificou","","","",""
"","726","audio-keyboard-response","352","772114","0.0-3.0-1.287","../audio/79-4-fem.mp3"," ","","a","","","",""
"","1358","audio-keyboard-response","353","773753","0.0-3.0-1.288","../audio/79-5-fem.mp3"," ","","gengiva","","","",""
"","668","audio-keyboard-response","354","774693","0.0-3.0-1.289","../audio/79-6-fem.mp3"," ","","por","","","",""
"","1027","audio-keyboard-response","355","775993","0.0-3.0-1.290","../audio/79-7-fem.mp3"," ","","último.","","","",""
"","null","html-keyboard-response","356","777249","0.0-3.0-0.291-0.291","<span style= ""font-size:30px; font-family: monospace"">+</span>","null","fixation","","","","",""
"","627","audio-keyboard-response","357","778164","0.0-3.0-1.291","../audio/77-1-fem.mp3"," ","","A","","","",""
"","1109","audio-keyboard-response","358","779551","0.0-3.0-1.292","../audio/77-2-fem.mp3"," ","","criança","","","",""
"","952","audio-keyboard-response","359","780782","0.0-3.0-1.293","../audio/77-3-fem.mp3"," ","","ficou","","","",""
"","1091","audio-keyboard-response","360","782146","0.0-3.0-1.294","../audio/77-4-fem.mp3"," ","","muito","","","",""
"","1074","audio-keyboard-response","361","783496","0.0-3.0-1.295","../audio/77-5-fem.mp3"," ","","feliz","","","",""
"","772","audio-keyboard-response","362","784540","0.0-3.0-1.296","../audio/77-6-fem.mp3"," ","","com","","","",""
"","766","audio-keyboard-response","363","785781","0.0-3.0-1.297","../audio/77-7-fem.mp3"," ","","o","","","",""
"","998","audio-keyboard-response","364","787062","0.0-3.0-1.298","../audio/77-8-fem.mp3"," ","","brinquedo.","","","",""
"","null","html-keyboard-response","365","788320","0.0-3.0-0.299-0.299","<span style= ""font-size:30px; font-family: monospace"">+</span>","null","fixation","","","","",""
"","836","audio-keyboard-response","366","789439","0.0-3.0-1.299","../audio/80-1-masc.mp3"," ","","Meu","","","",""
"","731","audio-keyboard-response","367","790445","0.0-3.0-1.300","../audio/80-2-masc.mp3"," ","","primo","","","",""
"","946","audio-keyboard-response","368","791673","0.0-3.0-1.301","../audio/80-3-masc.mp3"," ","","conheceu","","","",""
"","778","audio-keyboard-response","369","792725","0.0-3.0-1.302","../audio/80-4-masc.mp3"," ","","um","","","",""
"","935","audio-keyboard-response","370","793937","0.0-3.0-1.303","../audio/80-5-masc.mp3"," ","","jovem","","","",""
"","830","audio-keyboard-response","371","795043","0.0-3.0-1.304","../audio/80-6-masc.mp3"," ","","amável","","","",""
"","679","audio-keyboard-response","372","795997","0.0-3.0-1.305","../audio/80-7-masc.mp3"," ","","e","","","",""
"","946","audio-keyboard-response","373","797220","0.0-3.0-1.306","../audio/80-8-masc.mp3"," ","","confiante.","","","",""
"","8092","html-keyboard-response","374","805567","0.0-3.0-2.306-0.306","<span style=""font-size:25px; font-family: monospace"">O primo conheceu um jovem irritante?</span>","n","","","O primo conheceu um jovem irritante?","null","exp-sent","false"
"","null","html-keyboard-response","375","807076","0.0-3.0-0.307-0.307","<span style= ""font-size:30px; font-family: monospace"">+</span>","null","fixation","","","","",""
"","1074","audio-keyboard-response","376","808435","0.0-3.0-1.307","../audio/36-1-fem.mp3"," ","","Meu","","","",""
"","842","audio-keyboard-response","377","809553","0.0-3.0-1.308","../audio/36-2-fem.mp3"," ","","tio","","","",""
"","1196","audio-keyboard-response","378","811029","0.0-3.0-1.309","../audio/36-3-fem.mp3"," ","","comprou","","","",""
"","726","audio-keyboard-response","379","812029","0.0-3.0-1.310","../audio/36-4-fem.mp3"," ","","um","","","",""
"","720","audio-keyboard-response","380","813028","0.0-3.0-1.311","../audio/36-5-fem.mp3"," ","","filtro","","","",""
"","789","audio-keyboard-response","381","814094","0.0-3.0-1.312","../audio/36-6-fem.mp3"," ","","de","","","",""
"","702","audio-keyboard-response","382","815077","0.0-3.0-1.313","../audio/36-7-fem.mp3"," ","","água","","","",""
"","894","audio-keyboard-response","383","816243","0.0-3.0-1.314","../audio/36-8-fem.mp3"," ","","hoje","","","",""
"","911","audio-keyboard-response","384","817437","0.0-3.0-1.315","../audio/36-9-fem.mp3"," ","","cedo.","","","",""
"","null","html-keyboard-response","385","818692","0.0-3.0-0.316-0.316","<span style= ""font-size:30px; font-family: monospace"">+</span>","null","fixation","","","","",""
"","685","audio-keyboard-response","386","819661","0.0-3.0-1.316","../audio/37-1-fem.mp3"," ","","Eu","","","",""
"","1213","audio-keyboard-response","387","821157","0.0-3.0-1.317","../audio/37-2-fem.mp3"," ","","adoro","","","",""
"","1149","audio-keyboard-response","388","822585","0.0-3.0-1.318","../audio/37-3-fem.mp3"," ","","suco","","","",""
"","708","audio-keyboard-response","389","823572","0.0-3.0-1.319","../audio/37-4-fem.mp3"," ","","de","","","",""
"","923","audio-keyboard-response","390","824776","0.0-3.0-1.320","../audio/37-5-fem.mp3"," ","","manga","","","",""
"","801","audio-keyboard-response","391","825851","0.0-3.0-1.321","../audio/37-6-fem.mp3"," ","","com","","","",""
"","1115","audio-keyboard-response","392","827246","0.0-3.0-1.322","../audio/37-7-fem.mp3"," ","","hortelã.","","","",""
"","null","html-keyboard-response","393","828502","0.0-3.0-0.323-0.323","<span style= ""font-size:30px; font-family: monospace"">+</span>","null","fixation","","","","",""
"","627","audio-keyboard-response","394","829406","0.0-3.0-1.323","../audio/39-1-masc.mp3"," ","","O","","","",""
"","1022","audio-keyboard-response","395","830714","0.0-3.0-1.324","../audio/39-2-masc.mp3"," ","","conselho","","","",""
"","784","audio-keyboard-response","396","831766","0.0-3.0-1.325","../audio/39-3-masc.mp3"," ","","foi","","","",""
"","987","audio-keyboard-response","397","833025","0.0-3.0-1.326","../audio/39-4-masc.mp3"," ","","muito","","","",""
"","923","audio-keyboard-response","398","834218","0.0-3.0-1.327","../audio/39-5-masc.mp3"," ","","útil","","","",""
"","848","audio-keyboard-response","399","835337","0.0-3.0-1.328","../audio/39-6-masc.mp3"," ","","para","","","",""
"","801","audio-keyboard-response","400","836441","0.0-3.0-1.329","../audio/39-7-masc.mp3"," ","","minha","","","",""
"","755","audio-keyboard-response","401","837473","0.0-3.0-1.330","../audio/39-8-masc.mp3"," ","","tia.","","","",""
"","null","html-keyboard-response","402","838732","0.0-3.0-0.331-0.331","<span style= ""font-size:30px; font-family: monospace"">+</span>","null","fixation","","","","",""
"","702","audio-keyboard-response","403","839713","0.0-3.0-1.331","../audio/38-1-masc.mp3"," ","","A","","","",""
"","993","audio-keyboard-response","404","840979","0.0-3.0-1.332","../audio/38-2-masc.mp3"," ","","empresa","","","",""
"","824","audio-keyboard-response","405","842083","0.0-3.0-1.333","../audio/38-3-masc.mp3"," ","","criou","","","",""
"","668","audio-keyboard-response","406","843025","0.0-3.0-1.334","../audio/38-4-masc.mp3"," ","","a","","","",""
"","1004","audio-keyboard-response","407","844302","0.0-3.0-1.335","../audio/38-5-masc.mp3"," ","","patente","","","",""
"","702","audio-keyboard-response","408","845275","0.0-3.0-1.336","../audio/38-6-masc.mp3"," ","","da","","","",""
"","865","audio-keyboard-response","409","846413","0.0-3.0-1.337","../audio/38-7-masc.mp3"," ","","frigideira.","","","",""
"","null","html-keyboard-response","410","847672","0.0-3.0-0.338-0.338","<span style= ""font-size:30px; font-family: monospace"">+</span>","null","fixation","","","","",""
"","691","audio-keyboard-response","411","848643","0.0-3.0-1.338","../audio/40-1-masc.mp3"," ","","O","","","",""
"","877","audio-keyboard-response","412","849792","0.0-3.0-1.339","../audio/40-2-masc.mp3"," ","","jogo","","","",""
"","969","audio-keyboard-response","413","851035","0.0-3.0-1.340","../audio/40-3-masc.mp3"," ","","falava","","","",""
"","708","audio-keyboard-response","414","852016","0.0-3.0-1.341","../audio/40-4-masc.mp3"," ","","de","","","",""
"","1144","audio-keyboard-response","415","853432","0.0-3.0-1.342","../audio/40-5-masc.mp3"," ","","fantasia","","","",""
"","702","audio-keyboard-response","416","854406","0.0-3.0-1.343","../audio/40-6-masc.mp3"," ","","e","","","",""
"","760","audio-keyboard-response","417","855449","0.0-3.0-1.344","../audio/40-7-masc.mp3"," ","","de","","","",""
"","1167","audio-keyboard-response","418","856895","0.0-3.0-1.345","../audio/40-8-masc.mp3"," ","","aventura.","","","",""
"","5667","html-keyboard-response","419","862813","0.0-3.0-2.345-0.345","<span style=""font-size:25px; font-family: monospace"">O jogo tinha fantasia e aventura?</span>","s","","","O jogo tinha fantasia e aventura?","null","exp-sent","false"
"","null","html-keyboard-response","420","864321","0.0-3.0-0.346-0.346","<span style= ""font-size:30px; font-family: monospace"">+</span>","null","fixation","","","","",""
"","836","audio-keyboard-response","421","865437","0.0-3.0-1.346","../audio/48-1-fem.mp3"," ","","Ela","","","",""
"","702","audio-keyboard-response","422","866416","0.0-3.0-1.347","../audio/48-2-fem.mp3"," ","","come","","","",""
"","1115","audio-keyboard-response","423","867804","0.0-3.0-1.348","../audio/48-3-fem.mp3"," ","","feijão","","","",""
"","697","audio-keyboard-response","424","868775","0.0-3.0-1.349","../audio/48-4-fem.mp3"," ","","com","","","",""
"","726","audio-keyboard-response","425","869781","0.0-3.0-1.350","../audio/48-5-fem.mp3"," ","","arroz","","","",""
"","795","audio-keyboard-response","426","870850","0.0-3.0-1.351","../audio/48-6-fem.mp3"," ","","todos","","","",""
"","702","audio-keyboard-response","427","871824","0.0-3.0-1.352","../audio/48-7-fem.mp3"," ","","os","","","",""
"","795","audio-keyboard-response","428","872891","0.0-3.0-1.353","../audio/48-8-fem.mp3"," ","","dias.","","","",""
"","null","html-keyboard-response","429","874149","0.0-3.0-0.354-0.354","<span style= ""font-size:30px; font-family: monospace"">+</span>","null","fixation","","","","",""
"","778","audio-keyboard-response","430","875209","0.0-3.0-1.354","../audio/46-1-fem.mp3"," ","","Meu","","","",""
"","795","audio-keyboard-response","431","876284","0.0-3.0-1.355","../audio/46-2-fem.mp3"," ","","primo","","","",""
"","940","audio-keyboard-response","432","877503","0.0-3.0-1.356","../audio/46-3-fem.mp3"," ","","estava","","","",""
"","987","audio-keyboard-response","433","878763","0.0-3.0-1.357","../audio/46-4-fem.mp3"," ","","muito","","","",""
"","1335","audio-keyboard-response","434","880371","0.0-3.0-1.358","../audio/46-5-fem.mp3"," ","","deprimido","","","",""
"","784","audio-keyboard-response","435","881428","0.0-3.0-1.359","../audio/46-6-fem.mp3"," ","","no","","","",""
"","946","audio-keyboard-response","436","882653","0.0-3.0-1.360","../audio/46-7-fem.mp3"," ","","inverno.","","","",""
"","null","html-keyboard-response","437","883913","0.0-3.0-0.361-0.361","<span style= ""font-size:30px; font-family: monospace"">+</span>","null","fixation","","","","",""
"","749","audio-keyboard-response","438","884957","0.0-3.0-1.361","../audio/49-1-fem.mp3"," ","","Eu","","","",""
"","766","audio-keyboard-response","439","885993","0.0-3.0-1.362","../audio/49-2-fem.mp3"," ","","quero","","","",""
"","697","audio-keyboard-response","440","886963","0.0-3.0-1.363","../audio/49-3-fem.mp3"," ","","um","","","",""
"","1051","audio-keyboard-response","441","888284","0.0-3.0-1.364","../audio/49-4-fem.mp3"," ","","lanche","","","",""
"","760","audio-keyboard-response","442","889329","0.0-3.0-1.365","../audio/49-5-fem.mp3"," ","","duplo","","","",""
"","842","audio-keyboard-response","443","890446","0.0-3.0-1.366","../audio/49-6-fem.mp3"," ","","e","","","",""
"","813","audio-keyboard-response","444","891535","0.0-3.0-1.367","../audio/49-7-fem.mp3"," ","","um","","","",""
"","1120","audio-keyboard-response","445","892933","0.0-3.0-1.368","../audio/49-8-fem.mp3"," ","","suco.","","","",""
"","null","html-keyboard-response","446","894188","0.0-3.0-0.369-0.369","<span style= ""font-size:30px; font-family: monospace"">+</span>","null","fixation","","","","",""
"","656","audio-keyboard-response","447","895126","0.0-3.0-1.369","../audio/47-1-masc.mp3"," ","","O","","","",""
"","714","audio-keyboard-response","448","896112","0.0-3.0-1.370","../audio/47-2-masc.mp3"," ","","tio","","","",""
"","1109","audio-keyboard-response","449","897500","0.0-3.0-1.371","../audio/47-3-masc.mp3"," ","","recusou","","","",""
"","673","audio-keyboard-response","450","898444","0.0-3.0-1.372","../audio/47-4-masc.mp3"," ","","a","","","",""
"","1051","audio-keyboard-response","451","899776","0.0-3.0-1.373","../audio/47-5-masc.mp3"," ","","sobremesa","","","",""
"","755","audio-keyboard-response","452","900808","0.0-3.0-1.374","../audio/47-6-masc.mp3"," ","","no","","","",""
"","975","audio-keyboard-response","453","902064","0.0-3.0-1.375","../audio/47-7-masc.mp3"," ","","almoço.","","","",""
"","null","html-keyboard-response","454","903320","0.0-3.0-0.376-0.376","<span style= ""font-size:30px; font-family: monospace"">+</span>","null","fixation","","","","",""
"","685","audio-keyboard-response","455","904285","0.0-3.0-1.376","../audio/50-1-fem.mp3"," ","","O","","","",""
"","1103","audio-keyboard-response","456","905670","0.0-3.0-1.377","../audio/50-2-fem.mp3"," ","","pássaro","","","",""
"","940","audio-keyboard-response","457","906894","0.0-3.0-1.378","../audio/50-3-fem.mp3"," ","","fugiu","","","",""
"","679","audio-keyboard-response","458","907847","0.0-3.0-1.379","../audio/50-4-fem.mp3"," ","","da","","","",""
"","888","audio-keyboard-response","459","909011","0.0-3.0-1.380","../audio/50-5-fem.mp3"," ","","gaiola","","","",""
"","830","audio-keyboard-response","460","910113","0.0-3.0-1.381","../audio/50-6-fem.mp3"," ","","pela","","","",""
"","1126","audio-keyboard-response","461","911511","0.0-3.0-1.382","../audio/50-7-fem.mp3"," ","","portinhola.","","","",""
"","8883","html-keyboard-response","462","920649","0.0-3.0-2.382-0.382","<span style=""font-size:25px; font-family: monospace"">O pássaro fugiu da gaiola?</span>","s","","","O pássaro fugiu da gaiola?","null","exp-sent","false"
"","null","html-keyboard-response","463","922157","0.0-3.0-0.383-0.383","<span style= ""font-size:30px; font-family: monospace"">+</span>","null","fixation","","","","",""
"","952","audio-keyboard-response","464","923389","0.0-3.0-1.383","../audio/28-1-fem.mp3"," ","","O","","","",""
"","917","audio-keyboard-response","465","924581","0.0-3.0-1.384","../audio/28-2-fem.mp3"," ","","time","","","",""
"","859","audio-keyboard-response","466","925715","0.0-3.0-1.385","../audio/28-3-fem.mp3"," ","","quer","","","",""
"","766","audio-keyboard-response","467","926751","0.0-3.0-1.386","../audio/28-4-fem.mp3"," ","","a","","","",""
"","1312","audio-keyboard-response","468","928341","0.0-3.0-1.387","../audio/28-5-fem.mp3"," ","","vitória","","","",""
"","853","audio-keyboard-response","469","929476","0.0-3.0-1.388","../audio/28-6-fem.mp3"," ","","no","","","",""
"","1202","audio-keyboard-response","470","930959","0.0-3.0-1.389","../audio/28-7-fem.mp3"," ","","jogo","","","",""
"","964","audio-keyboard-response","471","932197","0.0-3.0-1.390","../audio/28-8-fem.mp3"," ","","de","","","",""
"","1016","audio-keyboard-response","472","933486","0.0-3.0-1.391","../audio/28-9-fem.mp3"," ","","vôlei.","","","",""
"","null","html-keyboard-response","473","934743","0.0-3.0-0.392-0.392","<span style= ""font-size:30px; font-family: monospace"">+</span>","null","fixation","","","","",""
"","639","audio-keyboard-response","474","935665","0.0-3.0-1.392","../audio/27-1-masc.mp3"," ","","O","","","",""
"","1004","audio-keyboard-response","475","936943","0.0-3.0-1.393","../audio/27-2-masc.mp3"," ","","dinheiro","","","",""
"","813","audio-keyboard-response","476","938031","0.0-3.0-1.394","../audio/27-3-masc.mp3"," ","","chegou","","","",""
"","749","audio-keyboard-response","477","939052","0.0-3.0-1.395","../audio/27-4-masc.mp3"," ","","à","","","",""
"","969","audio-keyboard-response","478","940303","0.0-3.0-1.396","../audio/27-5-masc.mp3"," ","","elite","","","",""
"","929","audio-keyboard-response","479","941503","0.0-3.0-1.397","../audio/27-6-masc.mp3"," ","","deste","","","",""
"","923","audio-keyboard-response","480","942700","0.0-3.0-1.398","../audio/27-7-masc.mp3"," ","","país.","","","",""
"","null","html-keyboard-response","481","943956","0.0-3.0-0.399-0.399","<span style= ""font-size:30px; font-family: monospace"">+</span>","null","fixation","","","","",""
"","900","audio-keyboard-response","482","945138","0.0-3.0-1.399","../audio/29-1-masc.mp3"," ","","Hoje","","","",""
"","952","audio-keyboard-response","483","946362","0.0-3.0-1.400","../audio/29-2-masc.mp3"," ","","vamos","","","",""
"","813","audio-keyboard-response","484","947445","0.0-3.0-1.401","../audio/29-3-masc.mp3"," ","","fazer","","","",""
"","842","audio-keyboard-response","485","948560","0.0-3.0-1.402","../audio/29-4-masc.mp3"," ","","uma","","","",""
"","1347","audio-keyboard-response","486","950183","0.0-3.0-1.403","../audio/29-5-masc.mp3"," ","","atividade","","","",""
"","830","audio-keyboard-response","487","951284","0.0-3.0-1.404","../audio/29-6-masc.mp3"," ","","sobre","","","",""
"","946","audio-keyboard-response","488","952502","0.0-3.0-1.405","../audio/29-7-masc.mp3"," ","","fauna","","","",""
"","969","audio-keyboard-response","489","953855","0.0-3.0-1.406","../audio/29-8-masc.mp3"," ","","marinha.","","","",""
"","null","html-keyboard-response","490","955113","0.0-3.0-0.407-0.407","<span style= ""font-size:30px; font-family: monospace"">+</span>","null","fixation","","","","",""
"","836","audio-keyboard-response","491","956229","0.0-3.0-1.407","../audio/26-1-masc.mp3"," ","","Amanhã","","","",""
"","859","audio-keyboard-response","492","957361","0.0-3.0-1.408","../audio/26-2-masc.mp3"," ","","temos","","","",""
"","807","audio-keyboard-response","493","958442","0.0-3.0-1.409","../audio/26-3-masc.mp3"," ","","festa","","","",""
"","766","audio-keyboard-response","494","959490","0.0-3.0-1.410","../audio/26-4-masc.mp3"," ","","na","","","",""
"","836","audio-keyboard-response","495","960598","0.0-3.0-1.411","../audio/26-5-masc.mp3"," ","","piscina","","","",""
"","743","audio-keyboard-response","496","961614","0.0-3.0-1.412","../audio/26-6-masc.mp3"," ","","o","","","",""
"","888","audio-keyboard-response","497","962769","0.0-3.0-1.413","../audio/26-7-masc.mp3"," ","","dia","","","",""
"","697","audio-keyboard-response","498","963735","0.0-3.0-1.414","../audio/26-8-masc.mp3"," ","","todo.","","","",""
"","null","html-keyboard-response","499","964994","0.0-3.0-0.415-0.415","<span style= ""font-size:30px; font-family: monospace"">+</span>","null","fixation","","","","",""
"","749","audio-keyboard-response","500","966028","0.0-3.0-1.415","../audio/30-1-masc.mp3"," ","","O","","","",""
"","882","audio-keyboard-response","501","967196","0.0-3.0-1.416","../audio/30-2-masc.mp3"," ","","funcionário","","","",""
"","1178","audio-keyboard-response","502","968653","0.0-3.0-1.417","../audio/30-3-masc.mp3"," ","","entregou","","","",""
"","720","audio-keyboard-response","503","969647","0.0-3.0-1.418","../audio/30-4-masc.mp3"," ","","o","","","",""
"","1207","audio-keyboard-response","504","971130","0.0-3.0-1.419","../audio/30-5-masc.mp3"," ","","restante","","","",""
"","819","audio-keyboard-response","505","972232","0.0-3.0-1.420","../audio/30-6-masc.mp3"," ","","do","","","",""
"","807","audio-keyboard-response","506","973317","0.0-3.0-1.421","../audio/30-7-masc.mp3"," ","","dinheiro.","","","",""
"","7214","html-keyboard-response","507","980783","0.0-3.0-2.421-0.421","<span style=""font-size:25px; font-family: monospace"">O funcionário entregou o contrato?</span>","n","","","O funcionário entregou o contrato?","null","exp-sent","false"
"","null","html-keyboard-response","508","982284","0.0-3.0-0.422-0.422","<span style= ""font-size:30px; font-family: monospace"">+</span>","null","fixation","","","","",""
"","981","audio-keyboard-response","509","983541","0.0-3.0-1.422","../audio/33-1-masc.mp3"," ","","Eles","","","",""
"","998","audio-keyboard-response","510","984820","0.0-3.0-1.423","../audio/33-2-masc.mp3"," ","","sabem","","","",""
"","772","audio-keyboard-response","511","985864","0.0-3.0-1.424","../audio/33-3-masc.mp3"," ","","do","","","",""
"","1016","audio-keyboard-response","512","987152","0.0-3.0-1.425","../audio/33-4-masc.mp3"," ","","seu","","","",""
"","1022","audio-keyboard-response","513","988460","0.0-3.0-1.426","../audio/33-5-masc.mp3"," ","","privilégio","","","",""
"","969","audio-keyboard-response","514","989708","0.0-3.0-1.427","../audio/33-6-masc.mp3"," ","","nessa","","","",""
"","975","audio-keyboard-response","515","990965","0.0-3.0-1.428","../audio/33-7-masc.mp3"," ","","confusão.","","","",""
"","null","html-keyboard-response","516","992218","0.0-3.0-0.429-0.429","<span style= ""font-size:30px; font-family: monospace"">+</span>","null","fixation","","","","",""
"","848","audio-keyboard-response","517","993353","0.0-3.0-1.429","../audio/34-1-masc.mp3"," ","","Cobrança","","","",""
"","911","audio-keyboard-response","518","994549","0.0-3.0-1.430","../audio/34-2-masc.mp3"," ","","excessiva","","","",""
"","726","audio-keyboard-response","519","995546","0.0-3.0-1.431","../audio/34-3-masc.mp3"," ","","é","","","",""
"","673","audio-keyboard-response","520","996596","0.0-3.0-1.432","../audio/34-4-masc.mp3"," ","","um","","","",""
"","964","audio-keyboard-response","521","997832","0.0-3.0-1.433","../audio/34-5-masc.mp3"," ","","fardo","","","",""
"","813","audio-keyboard-response","522","998916","0.0-3.0-1.434","../audio/34-6-masc.mp3"," ","","para","","","",""
"","697","audio-keyboard-response","523","999884","0.0-3.0-1.435","../audio/34-7-masc.mp3"," ","","a","","","",""
"","1057","audio-keyboard-response","524","1001213","0.0-3.0-1.436","../audio/34-8-masc.mp3"," ","","cabeça.","","","",""
"","null","html-keyboard-response","525","1002472","0.0-3.0-0.437-0.437","<span style= ""font-size:30px; font-family: monospace"">+</span>","null","fixation","","","","",""
"","673","audio-keyboard-response","526","1003429","0.0-3.0-1.437","../audio/31-1-masc.mp3"," ","","O","","","",""
"","969","audio-keyboard-response","527","1004679","0.0-3.0-1.438","../audio/31-2-masc.mp3"," ","","padeiro","","","",""
"","848","audio-keyboard-response","528","1005808","0.0-3.0-1.439","../audio/31-3-masc.mp3"," ","","usou","","","",""
"","668","audio-keyboard-response","529","1006746","0.0-3.0-1.440","../audio/31-4-masc.mp3"," ","","a","","","",""
"","900","audio-keyboard-response","530","1007918","0.0-3.0-1.441","../audio/31-5-masc.mp3"," ","","balança","","","",""
"","708","audio-keyboard-response","531","1008907","0.0-3.0-1.442","../audio/31-6-masc.mp3"," ","","o","","","",""
"","877","audio-keyboard-response","532","1010061","0.0-3.0-1.443","../audio/31-7-masc.mp3"," ","","dia","","","",""
"","1027","audio-keyboard-response","533","1011361","0.0-3.0-1.444","../audio/31-8-masc.mp3"," ","","inteiro.","","","",""
"","null","html-keyboard-response","534","1012619","0.0-3.0-0.445-0.445","<span style= ""font-size:30px; font-family: monospace"">+</span>","null","fixation","","","","",""
"","633","audio-keyboard-response","535","1013535","0.0-3.0-1.445","../audio/32-1-fem.mp3"," ","","A","","","",""
"","807","audio-keyboard-response","536","1014613","0.0-3.0-1.446","../audio/32-2-fem.mp3"," ","","tia","","","",""
"","946","audio-keyboard-response","537","1015830","0.0-3.0-1.447","../audio/32-3-fem.mp3"," ","","comprou","","","",""
"","656","audio-keyboard-response","538","1016762","0.0-3.0-1.448","../audio/32-4-fem.mp3"," ","","um","","","",""
"","958","audio-keyboard-response","539","1017992","0.0-3.0-1.449","../audio/32-5-fem.mp3"," ","","pilão","","","",""
"","731","audio-keyboard-response","540","1018994","0.0-3.0-1.450","../audio/32-6-fem.mp3"," ","","para","","","",""
"","610","audio-keyboard-response","541","1019881","0.0-3.0-1.451","../audio/32-7-fem.mp3"," ","","a","","","",""
"","911","audio-keyboard-response","542","1021071","0.0-3.0-1.452","../audio/32-8-fem.mp3"," ","","cozinha.","","","",""
"","null","html-keyboard-response","543","1022326","0.0-3.0-0.453-0.453","<span style= ""font-size:30px; font-family: monospace"">+</span>","null","fixation","","","","",""
"","517","audio-keyboard-response","544","1023132","0.0-3.0-1.453","../audio/35-1-fem.mp3"," ","","A","","","",""
"","1091","audio-keyboard-response","545","1024506","0.0-3.0-1.454","../audio/35-2-fem.mp3"," ","","receita","","","",""
"","784","audio-keyboard-response","546","1025567","0.0-3.0-1.455","../audio/35-3-fem.mp3"," ","","para","","","",""
"","650","audio-keyboard-response","547","1026489","0.0-3.0-1.456","../audio/35-4-fem.mp3"," ","","a","","","",""
"","975","audio-keyboard-response","548","1027742","0.0-3.0-1.457","../audio/35-5-fem.mp3"," ","","preparação","","","",""
"","697","audio-keyboard-response","549","1028717","0.0-3.0-1.458","../audio/35-6-fem.mp3"," ","","do","","","",""
"","720","audio-keyboard-response","550","1029711","0.0-3.0-1.459","../audio/35-7-fem.mp3"," ","","bolo","","","",""
"","714","audio-keyboard-response","551","1030707","0.0-3.0-1.460","../audio/35-8-fem.mp3"," ","","é","","","",""
"","830","audio-keyboard-response","552","1031815","0.0-3.0-1.461","../audio/35-9-fem.mp3"," ","","leve.","","","",""
"","6560","html-keyboard-response","553","1038627","0.0-3.0-2.461-0.461","<span style=""font-size:25px; font-family: monospace"">A receita do bolo é pesada?</span>","n","","","A receita do bolo é pesada?","null","exp-sent","false"
"","null","html-keyboard-response","554","1040136","0.0-3.0-0.462-0.462","<span style= ""font-size:30px; font-family: monospace"">+</span>","null","fixation","","","","",""
"","691","audio-keyboard-response","555","1041106","0.0-3.0-1.462","../audio/73-1-masc.mp3"," ","","O","","","",""
"","1167","audio-keyboard-response","556","1042550","0.0-3.0-1.463","../audio/73-2-masc.mp3"," ","","cliente","","","",""
"","1039","audio-keyboard-response","557","1043869","0.0-3.0-1.464","../audio/73-3-masc.mp3"," ","","era","","","",""
"","882","audio-keyboard-response","558","1045031","0.0-3.0-1.465","../audio/73-4-masc.mp3"," ","","um","","","",""
"","888","audio-keyboard-response","559","1046196","0.0-3.0-1.466","../audio/73-5-masc.mp3"," ","","homem","","","",""
"","946","audio-keyboard-response","560","1047417","0.0-3.0-1.467","../audio/73-6-masc.mp3"," ","","muito","","","",""
"","1347","audio-keyboard-response","561","1049046","0.0-3.0-1.468","../audio/73-7-masc.mp3"," ","","educado.","","","",""
"","null","html-keyboard-response","562","1050301","0.0-3.0-0.469-0.469","<span style= ""font-size:30px; font-family: monospace"">+</span>","null","fixation","","","","",""
"","2815","audio-keyboard-response","563","1053396","0.0-3.0-1.469","../audio/74-1-fem.mp3"," ","","Este","","","",""
"","1242","audio-keyboard-response","564","1054922","0.0-3.0-1.470","../audio/74-2-fem.mp3"," ","","emprego","","","",""
"","755","audio-keyboard-response","565","1055956","0.0-3.0-1.471","../audio/74-3-fem.mp3"," ","","é","","","",""
"","1115","audio-keyboard-response","566","1057347","0.0-3.0-1.472","../audio/74-4-fem.mp3"," ","","muito","","","",""
"","1411","audio-keyboard-response","567","1059034","0.0-3.0-1.473","../audio/74-5-fem.mp3"," ","","cansativo","","","",""
"","685","audio-keyboard-response","568","1059991","0.0-3.0-1.474","../audio/74-6-fem.mp3"," ","","a","","","",""
"","1027","audio-keyboard-response","569","1061304","0.0-3.0-1.475","../audio/74-7-fem.mp3"," ","","longo","","","",""
"","935","audio-keyboard-response","570","1062518","0.0-3.0-1.476","../audio/74-8-fem.mp3"," ","","prazo.","","","",""
"","null","html-keyboard-response","571","1063774","0.0-3.0-0.477-0.477","<span style= ""font-size:30px; font-family: monospace"">+</span>","null","fixation","","","","",""
"","760","audio-keyboard-response","572","1064817","0.0-3.0-1.477","../audio/72-1-masc.mp3"," ","","A","","","",""
"","1039","audio-keyboard-response","573","1066134","0.0-3.0-1.478","../audio/72-2-masc.mp3"," ","","vencedora","","","",""
"","929","audio-keyboard-response","574","1067335","0.0-3.0-1.479","../audio/72-3-masc.mp3"," ","","recebeu","","","",""
"","726","audio-keyboard-response","575","1068336","0.0-3.0-1.480","../audio/72-4-masc.mp3"," ","","um","","","",""
"","906","audio-keyboard-response","576","1069512","0.0-3.0-1.481","../audio/72-5-masc.mp3"," ","","prêmio","","","",""
"","766","audio-keyboard-response","577","1070550","0.0-3.0-1.482","../audio/72-6-masc.mp3"," ","","em","","","",""
"","1353","audio-keyboard-response","578","1072184","0.0-3.0-1.483","../audio/72-7-masc.mp3"," ","","dinheiro.","","","",""
"","null","html-keyboard-response","579","1073440","0.0-3.0-0.484-0.484","<span style= ""font-size:30px; font-family: monospace"">+</span>","null","fixation","","","","",""
"","778","audio-keyboard-response","580","1074496","0.0-3.0-1.484","../audio/71-1-fem.mp3"," ","","Minhas","","","",""
"","1004","audio-keyboard-response","581","1075780","0.0-3.0-1.485","../audio/71-2-fem.mp3"," ","","comidas","","","",""
"","865","audio-keyboard-response","582","1076924","0.0-3.0-1.486","../audio/71-3-fem.mp3"," ","","favoritas","","","",""
"","848","audio-keyboard-response","583","1078047","0.0-3.0-1.487","../audio/71-4-fem.mp3"," ","","são","","","",""
"","940","audio-keyboard-response","584","1079266","0.0-3.0-1.488","../audio/71-5-fem.mp3"," ","","morango","","","",""
"","708","audio-keyboard-response","585","1080244","0.0-3.0-1.489","../audio/71-6-fem.mp3"," ","","e","","","",""
"","888","audio-keyboard-response","586","1081411","0.0-3.0-1.490","../audio/71-7-fem.mp3"," ","","uva.","","","",""
"","null","html-keyboard-response","587","1082670","0.0-3.0-0.491-0.491","<span style= ""font-size:30px; font-family: monospace"">+</span>","null","fixation","","","","",""
"","784","audio-keyboard-response","588","1083738","0.0-3.0-1.491","../audio/75-1-masc.mp3"," ","","Só","","","",""
"","1033","audio-keyboard-response","589","1085055","0.0-3.0-1.492","../audio/75-2-masc.mp3"," ","","existe","","","",""
"","749","audio-keyboard-response","590","1086084","0.0-3.0-1.493","../audio/75-3-masc.mp3"," ","","uma","","","",""
"","917","audio-keyboard-response","591","1087289","0.0-3.0-1.494","../audio/75-4-masc.mp3"," ","","pessoa","","","",""
"","882","audio-keyboard-response","592","1088447","0.0-3.0-1.495","../audio/75-5-masc.mp3"," ","","canhota","","","",""
"","900","audio-keyboard-response","593","1089630","0.0-3.0-1.496","../audio/75-6-masc.mp3"," ","","nesta","","","",""
"","1004","audio-keyboard-response","594","1090910","0.0-3.0-1.497","../audio/75-7-masc.mp3"," ","","cidade.","","","",""
"","35111","html-keyboard-response","595","1126276","0.0-3.0-2.497-0.497","<span style=""font-size:25px; font-family: monospace"">Só existe uma pessoa canhota na cidade?</span>","s","","","Só existe uma pessoa canhota na cidade?","null","exp-sent","false"
"","null","html-keyboard-response","596","1127783","0.0-3.0-0.498-0.498","<span style= ""font-size:30px; font-family: monospace"">+</span>","null","fixation","","","","",""
"","1242","audio-keyboard-response","597","1129322","0.0-3.0-1.498","../audio/21-1-masc.mp3"," ","","Precisamos","","","",""
"","801","audio-keyboard-response","598","1130399","0.0-3.0-1.499","../audio/21-2-masc.mp3"," ","","de","","","",""
"","1097","audio-keyboard-response","599","1131772","0.0-3.0-1.500","../audio/21-3-masc.mp3"," ","","paciência","","","",""
"","888","audio-keyboard-response","600","1133033","0.0-3.0-1.501","../audio/21-4-masc.mp3"," ","","e","","","",""
"","1207","audio-keyboard-response","601","1134514","0.0-3.0-1.502","../audio/21-5-masc.mp3"," ","","bondade","","","",""
"","894","audio-keyboard-response","602","1135681","0.0-3.0-1.503","../audio/21-6-masc.mp3"," ","","para","","","",""
"","731","audio-keyboard-response","603","1136684","0.0-3.0-1.504","../audio/21-7-masc.mp3"," ","","um","","","",""
"","1039","audio-keyboard-response","604","1137995","0.0-3.0-1.505","../audio/21-8-masc.mp3"," ","","mundo","","","",""
"","958","audio-keyboard-response","605","1139229","0.0-3.0-1.506","../audio/21-9-masc.mp3"," ","","melhor.","","","",""
"","null","html-keyboard-response","606","1140485","0.0-3.0-0.507-0.507","<span style= ""font-size:30px; font-family: monospace"">+</span>","null","fixation","","","","",""
"","1300","audio-keyboard-response","607","1142072","0.0-3.0-1.507","../audio/23-1-fem.mp3"," ","","Português","","","",""
"","859","audio-keyboard-response","608","1143207","0.0-3.0-1.508","../audio/23-2-fem.mp3"," ","","é","","","",""
"","784","audio-keyboard-response","609","1144268","0.0-3.0-1.509","../audio/23-3-fem.mp3"," ","","um","","","",""
"","1620","audio-keyboard-response","610","1146165","0.0-3.0-1.510","../audio/23-4-fem.mp3"," ","","assunto","","","",""
"","1184","audio-keyboard-response","611","1147624","0.0-3.0-1.511","../audio/23-5-fem.mp3"," ","","elementar","","","",""
"","1562","audio-keyboard-response","612","1149456","0.0-3.0-1.512","../audio/23-6-fem.mp3"," ","","para","","","",""
"","801","audio-keyboard-response","613","1150534","0.0-3.0-1.513","../audio/23-7-fem.mp3"," ","","os","","","",""
"","1306","audio-keyboard-response","614","1152123","0.0-3.0-1.514","../audio/23-8-fem.mp3"," ","","alunos.","","","",""
"","null","html-keyboard-response","615","1153379","0.0-3.0-0.515-0.515","<span style= ""font-size:30px; font-family: monospace"">+</span>","null","fixation","","","","",""
"","877","audio-keyboard-response","616","1154543","0.0-3.0-1.515","../audio/24-1-masc.mp3"," ","","As","","","",""
"","1016","audio-keyboard-response","617","1155844","0.0-3.0-1.516","../audio/24-2-masc.mp3"," ","","crianças","","","",""
"","894","audio-keyboard-response","618","1157010","0.0-3.0-1.517","../audio/24-3-masc.mp3"," ","","vão","","","",""
"","900","audio-keyboard-response","619","1158187","0.0-3.0-1.518","../audio/24-4-masc.mp3"," ","","ao","","","",""
"","1045","audio-keyboard-response","620","1159508","0.0-3.0-1.519","../audio/24-5-masc.mp3"," ","","cinema","","","",""
"","940","audio-keyboard-response","621","1160718","0.0-3.0-1.520","../audio/24-6-masc.mp3"," ","","mais","","","",""
"","819","audio-keyboard-response","622","1161813","0.0-3.0-1.521","../audio/24-7-masc.mp3"," ","","tarde.","","","",""
"","null","html-keyboard-response","623","1163067","0.0-3.0-0.522-0.522","<span style= ""font-size:30px; font-family: monospace"">+</span>","null","fixation","","","","",""
"","789","audio-keyboard-response","624","1164131","0.0-3.0-1.522","../audio/22-1-fem.mp3"," ","","Eu","","","",""
"","1347","audio-keyboard-response","625","1165764","0.0-3.0-1.523","../audio/22-2-fem.mp3"," ","","detesto","","","",""
"","1144","audio-keyboard-response","626","1167193","0.0-3.0-1.524","../audio/22-3-fem.mp3"," ","","fumaça","","","",""
"","755","audio-keyboard-response","627","1168226","0.0-3.0-1.525","../audio/22-4-fem.mp3"," ","","de","","","",""
"","1434","audio-keyboard-response","628","1169936","0.0-3.0-1.526","../audio/22-5-fem.mp3"," ","","cachimbo","","","",""
"","720","audio-keyboard-response","629","1170963","0.0-3.0-1.527","../audio/22-6-fem.mp3"," ","","e","","","",""
"","633","audio-keyboard-response","630","1171871","0.0-3.0-1.528","../audio/22-7-fem.mp3"," ","","de","","","",""
"","1283","audio-keyboard-response","631","1173430","0.0-3.0-1.529","../audio/22-8-fem.mp3"," ","","cigarro.","","","",""
"","null","html-keyboard-response","632","1174689","0.0-3.0-0.530-0.530","<span style= ""font-size:30px; font-family: monospace"">+</span>","null","fixation","","","","",""
"","668","audio-keyboard-response","633","1175636","0.0-3.0-1.530","../audio/25-1-fem.mp3"," ","","Ela","","","",""
"","871","audio-keyboard-response","634","1176781","0.0-3.0-1.531","../audio/25-2-fem.mp3"," ","","faz","","","",""
"","842","audio-keyboard-response","635","1177897","0.0-3.0-1.532","../audio/25-3-fem.mp3"," ","","tanto","","","",""
"","917","audio-keyboard-response","636","1179094","0.0-3.0-1.533","../audio/25-4-fem.mp3"," ","","cabelo","","","",""
"","940","audio-keyboard-response","637","1180309","0.0-3.0-1.534","../audio/25-5-fem.mp3"," ","","liso","","","",""
"","3053","audio-keyboard-response","638","1183639","0.0-3.0-1.535","../audio/25-6-fem.mp3"," ","","quanto","","","",""
"","1341","audio-keyboard-response","639","1185260","0.0-3.0-1.536","../audio/25-7-fem.mp3"," ","","cacheado.","","","",""
"","33606","html-keyboard-response","640","1219120","0.0-3.0-2.536-0.536","<span style=""font-size:25px; font-family: monospace"">Ela só faz cabelo cacheado?</span>","s","","","Ela só faz cabelo cacheado?","null","exp-sent","false"
"","null","html-keyboard-response","641","1220627","0.0-3.0-0.537-0.537","<span style= ""font-size:30px; font-family: monospace"">+</span>","null","fixation","","","","",""
"","116","audio-keyboard-response","642","1221036","0.0-3.0-1.537","../audio/09-1-fem.mp3"," ","","O","","","",""
"","1283","audio-keyboard-response","643","1222597","0.0-3.0-1.538","../audio/09-2-fem.mp3"," ","","rapaz","","","",""
"","969","audio-keyboard-response","644","1223843","0.0-3.0-1.539","../audio/09-3-fem.mp3"," ","","limpou","","","",""
"","1167","audio-keyboard-response","645","1225278","0.0-3.0-1.540","../audio/09-4-fem.mp3"," ","","o","","","",""
"","1120","audio-keyboard-response","646","1226672","0.0-3.0-1.541","../audio/09-5-fem.mp3"," ","","terreno","","","",""
"","871","audio-keyboard-response","647","1227821","0.0-3.0-1.542","../audio/09-6-fem.mp3"," ","","com","","","",""
"","859","audio-keyboard-response","648","1228957","0.0-3.0-1.543","../audio/09-7-fem.mp3"," ","","uma","","","",""
"","731","audio-keyboard-response","649","1229960","0.0-3.0-1.544","../audio/09-8-fem.mp3"," ","","pá.","","","",""
"","null","html-keyboard-response","650","1231216","0.0-3.0-0.545-0.545","<span style= ""font-size:30px; font-family: monospace"">+</span>","null","fixation","","","","",""
"","1103","audio-keyboard-response","651","1232622","0.0-3.0-1.545","../audio/06-1-fem.mp3"," ","","Ouvimos","","","",""
"","691","audio-keyboard-response","652","1233586","0.0-3.0-1.546","../audio/06-2-fem.mp3"," ","","a","","","",""
"","807","audio-keyboard-response","653","1234665","0.0-3.0-1.547","../audio/06-3-fem.mp3"," ","","fala","","","",""
"","639","audio-keyboard-response","654","1235577","0.0-3.0-1.548","../audio/06-4-fem.mp3"," ","","do","","","",""
"","1167","audio-keyboard-response","655","1237022","0.0-3.0-1.549","../audio/06-5-fem.mp3"," ","","profeta","","","",""
"","1445","audio-keyboard-response","656","1238744","0.0-3.0-1.550","../audio/06-6-fem.mp3"," ","","no","","","",""
"","1207","audio-keyboard-response","657","1240223","0.0-3.0-1.551","../audio/06-7-fem.mp3"," ","","púlpito","","","",""
"","778","audio-keyboard-response","658","1241272","0.0-3.0-1.552","../audio/06-8-fem.mp3"," ","","da","","","",""
"","1178","audio-keyboard-response","659","1242730","0.0-3.0-1.553","../audio/06-9-fem.mp3"," ","","igreja.","","","",""
"","null","html-keyboard-response","660","1243988","0.0-3.0-0.554-0.554","<span style= ""font-size:30px; font-family: monospace"">+</span>","null","fixation","","","","",""
"","824","audio-keyboard-response","661","1245086","0.0-3.0-1.554","../audio/08-1-masc.mp3"," ","","A","","","",""
"","1167","audio-keyboard-response","662","1246529","0.0-3.0-1.555","../audio/08-2-masc.mp3"," ","","receita","","","",""
"","906","audio-keyboard-response","663","1247703","0.0-3.0-1.556","../audio/08-3-masc.mp3"," ","","pede","","","",""
"","772","audio-keyboard-response","664","1248749","0.0-3.0-1.557","../audio/08-4-masc.mp3"," ","","um","","","",""
"","969","audio-keyboard-response","665","1249991","0.0-3.0-1.558","../audio/08-5-masc.mp3"," ","","litro","","","",""
"","749","audio-keyboard-response","666","1251013","0.0-3.0-1.559","../audio/08-6-masc.mp3"," ","","de","","","",""
"","993","audio-keyboard-response","667","1252285","0.0-3.0-1.560","../audio/08-7-masc.mp3"," ","","leite","","","",""
"","1091","audio-keyboard-response","668","1253659","0.0-3.0-1.561","../audio/08-8-masc.mp3"," ","","integral.","","","",""
"","null","html-keyboard-response","669","1254913","0.0-3.0-0.562-0.562","<span style= ""font-size:30px; font-family: monospace"">+</span>","null","fixation","","","","",""
"","813","audio-keyboard-response","670","1256001","0.0-3.0-1.562","../audio/07-1-fem.mp3"," ","","Meu","","","",""
"","772","audio-keyboard-response","671","1257045","0.0-3.0-1.563","../audio/07-2-fem.mp3"," ","","filho","","","",""
"","650","audio-keyboard-response","672","1257971","0.0-3.0-1.564","../audio/07-3-fem.mp3"," ","","é","","","",""
"","964","audio-keyboard-response","673","1259207","0.0-3.0-1.565","../audio/07-4-fem.mp3"," ","","muito","","","",""
"","1271","audio-keyboard-response","674","1260754","0.0-3.0-1.566","../audio/07-5-fem.mp3"," ","","responsável","","","",""
"","795","audio-keyboard-response","675","1261826","0.0-3.0-1.567","../audio/07-6-fem.mp3"," ","","nos","","","",""
"","1155","audio-keyboard-response","676","1263259","0.0-3.0-1.568","../audio/07-7-fem.mp3"," ","","estudos.","","","",""
"","null","html-keyboard-response","677","1264515","0.0-3.0-0.569-0.569","<span style= ""font-size:30px; font-family: monospace"">+</span>","null","fixation","","","","",""
"","656","audio-keyboard-response","678","1265450","0.0-3.0-1.569","../audio/10-1-fem.mp3"," ","","O","","","",""
"","1115","audio-keyboard-response","679","1266839","0.0-3.0-1.570","../audio/10-2-fem.mp3"," ","","pássaro","","","",""
"","969","audio-keyboard-response","680","1268081","0.0-3.0-1.571","../audio/10-3-fem.mp3"," ","","azul","","","",""
"","1138","audio-keyboard-response","681","1269492","0.0-3.0-1.572","../audio/10-4-fem.mp3"," ","","estava","","","",""
"","935","audio-keyboard-response","682","1270708","0.0-3.0-1.573","../audio/10-5-fem.mp3"," ","","vivo","","","",""
"","662","audio-keyboard-response","683","1271643","0.0-3.0-1.574","../audio/10-6-fem.mp3"," ","","e","","","",""
"","662","audio-keyboard-response","684","1272570","0.0-3.0-1.575","../audio/10-7-fem.mp3"," ","","em","","","",""
"","1062","audio-keyboard-response","685","1273915","0.0-3.0-1.576","../audio/10-8-fem.mp3"," ","","segurança.","","","",""
"","16430","html-keyboard-response","686","1290600","0.0-3.0-2.576-0.576","<span style=""font-size:25px; font-family: monospace"">O pássaro vermelho estava em segurança?</span>","n","","","O pássaro vermelho estava em segurança?","null","exp-sent","false"
"","null","html-keyboard-response","687","1292107","0.0-3.0-0.577-0.577","<span style= ""font-size:30px; font-family: monospace"">+</span>","null","fixation","","","","",""
"","923","audio-keyboard-response","688","1293310","0.0-3.0-1.577","../audio/12-1-masc.mp3"," ","","O","","","",""
"","900","audio-keyboard-response","689","1294489","0.0-3.0-1.578","../audio/12-2-masc.mp3"," ","","dia","","","",""
"","1283","audio-keyboard-response","690","1296058","0.0-3.0-1.579","../audio/12-3-masc.mp3"," ","","estava","","","",""
"","981","audio-keyboard-response","691","1297310","0.0-3.0-1.580","../audio/12-4-masc.mp3"," ","","quente,","","","",""
"","1086","audio-keyboard-response","692","1298673","0.0-3.0-1.581","../audio/12-5-masc.mp3"," ","","tranquilo","","","",""
"","720","audio-keyboard-response","693","1299674","0.0-3.0-1.582","../audio/12-6-masc.mp3"," ","","e","","","",""
"","1312","audio-keyboard-response","694","1301262","0.0-3.0-1.583","../audio/12-7-masc.mp3"," ","","ensolarado.","","","",""
"","null","html-keyboard-response","695","1302515","0.0-3.0-0.584-0.584","<span style= ""font-size:30px; font-family: monospace"">+</span>","null","fixation","","","","",""
"","679","audio-keyboard-response","696","1303483","0.0-3.0-1.584","../audio/14-1-fem.mp3"," ","","O","","","",""
"","1393","audio-keyboard-response","697","1305156","0.0-3.0-1.585","../audio/14-2-fem.mp3"," ","","cachorro","","","",""
"","894","audio-keyboard-response","698","1306326","0.0-3.0-1.586","../audio/14-3-fem.mp3"," ","","é","","","",""
"","1051","audio-keyboard-response","699","1307650","0.0-3.0-1.587","../audio/14-4-fem.mp3"," ","","muito","","","",""
"","964","audio-keyboard-response","700","1308888","0.0-3.0-1.588","../audio/14-5-fem.mp3"," ","","fiel","","","",""
"","702","audio-keyboard-response","701","1309862","0.0-3.0-1.589","../audio/14-6-fem.mp3"," ","","a","","","",""
"","1207","audio-keyboard-response","702","1311344","0.0-3.0-1.590","../audio/14-7-fem.mp3"," ","","seus","","","",""
"","2403","audio-keyboard-response","703","1314026","0.0-3.0-1.591","../audio/14-8-fem.mp3"," ","","donos.","","","",""
"","null","html-keyboard-response","704","1315281","0.0-3.0-0.592-0.592","<span style= ""font-size:30px; font-family: monospace"">+</span>","null","fixation","","","","",""
"","1074","audio-keyboard-response","705","1316643","0.0-3.0-1.592","../audio/11-1-fem.mp3"," ","","Elas","","","",""
"","1022","audio-keyboard-response","706","1317945","0.0-3.0-1.593","../audio/11-2-fem.mp3"," ","","gostam","","","",""
"","1016","audio-keyboard-response","707","1319235","0.0-3.0-1.594","../audio/11-3-fem.mp3"," ","","muito","","","",""
"","952","audio-keyboard-response","708","1320459","0.0-3.0-1.595","../audio/11-4-fem.mp3"," ","","de","","","",""
"","1654","audio-keyboard-response","709","1322399","0.0-3.0-1.596","../audio/11-5-fem.mp3"," ","","aritmética","","","",""
"","795","audio-keyboard-response","710","1323474","0.0-3.0-1.597","../audio/11-6-fem.mp3"," ","","e","","","",""
"","743","audio-keyboard-response","711","1324490","0.0-3.0-1.598","../audio/11-7-fem.mp3"," ","","de","","","",""
"","1533","audio-keyboard-response","712","1326304","0.0-3.0-1.599","../audio/11-8-fem.mp3"," ","","leitura.","","","",""
"","null","html-keyboard-response","713","1327559","0.0-3.0-0.600-0.600","<span style= ""font-size:30px; font-family: monospace"">+</span>","null","fixation","","","","",""
"","830","audio-keyboard-response","714","1328669","0.0-3.0-1.600","../audio/13-1-masc.mp3"," ","","Para","","","",""
"","737","audio-keyboard-response","715","1329703","0.0-3.0-1.601","../audio/13-2-masc.mp3"," ","","mim","","","",""
"","819","audio-keyboard-response","716","1330792","0.0-3.0-1.602","../audio/13-3-masc.mp3"," ","","é","","","",""
"","1057","audio-keyboard-response","717","1332131","0.0-3.0-1.603","../audio/13-4-masc.mp3"," ","","muito","","","",""
"","1097","audio-keyboard-response","718","1333503","0.0-3.0-1.604","../audio/13-5-masc.mp3"," ","","difícil","","","",""
"","1289","audio-keyboard-response","719","1335071","0.0-3.0-1.605","../audio/13-6-masc.mp3"," ","","acordar","","","",""
"","1149","audio-keyboard-response","720","1336496","0.0-3.0-1.606","../audio/13-7-masc.mp3"," ","","cedo.","","","",""
"","null","html-keyboard-response","721","1337751","0.0-3.0-0.607-0.607","<span style= ""font-size:30px; font-family: monospace"">+</span>","null","fixation","","","","",""
"","2276","audio-keyboard-response","722","1340306","0.0-3.0-1.607","../audio/15-1-fem.mp3"," ","","Meu","","","",""
"","1045","audio-keyboard-response","723","1341639","0.0-3.0-1.608","../audio/15-2-fem.mp3"," ","","primo","","","",""
"","784","audio-keyboard-response","724","1342697","0.0-3.0-1.609","../audio/15-3-fem.mp3"," ","","é","","","",""
"","813","audio-keyboard-response","725","1343790","0.0-3.0-1.610","../audio/15-4-fem.mp3"," ","","um","","","",""
"","1091","audio-keyboard-response","726","1345157","0.0-3.0-1.611","../audio/15-5-fem.mp3"," ","","grande","","","",""
"","871","audio-keyboard-response","727","1346304","0.0-3.0-1.612","../audio/15-6-fem.mp3"," ","","vendedor","","","",""
"","894","audio-keyboard-response","728","1347487","0.0-3.0-1.613","../audio/15-7-fem.mp3"," ","","de","","","",""
"","1132","audio-keyboard-response","729","1348895","0.0-3.0-1.614","../audio/15-8-fem.mp3"," ","","carros.","","","",""
"","6219","html-keyboard-response","730","1355368","0.0-3.0-2.614-0.614","<span style=""font-size:25px; font-family: monospace"">O primo é um vendedor de carros?</span>","s","","","O primo é um vendedor de carros?","null","exp-sent","false"
"[{""page_index"":0,""viewing_time"":20661}]","20661","instructions","731","1376532","0.0-4.0","","","","","","","",""
