[
	{
		"view_history": [
			{
				"page_index": 0,
				"viewing_time": 107897
			},
			{
				"page_index": 1,
				"viewing_time": 20301
			}
		],
		"rt": 128199,
		"trial_type": "instructions",
		"trial_index": 0,
		"time_elapsed": 128199,
		"internal_node_id": "0.0-0.0"
	},
	{
		"rt": null,
		"stimulus": "<span style= \"font-size:30px; font-family: monospace\">+</span>",
		"response": null,
		"trial_part": "fixation",
		"trial_type": "html-keyboard-response",
		"trial_index": 1,
		"time_elapsed": 129305,
		"internal_node_id": "0.0-1.0-0.0-0.0"
	},
	{
		"rt": 7369,
		"stimulus": "<span style=\"font-size:30px; font-family: monospace\">O</span>",
		"response": " ",
		"trial": "prac-sent",
		"word": "O",
		"trial_type": "html-keyboard-response",
		"trial_index": 2,
		"time_elapsed": 136931,
		"internal_node_id": "0.0-1.0-1.0"
	},
	{
		"rt": 5827,
		"stimulus": "<span style=\"font-size:30px; font-family: monospace\">dia</span>",
		"response": " ",
		"trial": "prac-sent",
		"word": "dia",
		"trial_type": "html-keyboard-response",
		"trial_index": 3,
		"time_elapsed": 143010,
		"internal_node_id": "0.0-1.0-1.1"
	},
	{
		"rt": 1425,
		"stimulus": "<span style=\"font-size:30px; font-family: monospace\">estará</span>",
		"response": " ",
		"trial": "prac-sent",
		"word": "estará",
		"trial_type": "html-keyboard-response",
		"trial_index": 4,
		"time_elapsed": 144687,
		"internal_node_id": "0.0-1.0-1.2"
	},
	{
		"rt": 641,
		"stimulus": "<span style=\"font-size:30px; font-family: monospace\">cheio</span>",
		"response": " ",
		"trial": "prac-sent",
		"word": "cheio",
		"trial_type": "html-keyboard-response",
		"trial_index": 5,
		"time_elapsed": 145585,
		"internal_node_id": "0.0-1.0-1.3"
	},
	{
		"rt": 769,
		"stimulus": "<span style=\"font-size:30px; font-family: monospace\">de</span>",
		"response": " ",
		"trial": "prac-sent",
		"word": "de",
		"trial_type": "html-keyboard-response",
		"trial_index": 6,
		"time_elapsed": 146607,
		"internal_node_id": "0.0-1.0-1.4"
	},
	{
		"rt": 3648,
		"stimulus": "<span style=\"font-size:30px; font-family: monospace\">nuvens</span>",
		"response": " ",
		"trial": "prac-sent",
		"word": "nuvens",
		"trial_type": "html-keyboard-response",
		"trial_index": 7,
		"time_elapsed": 150508,
		"internal_node_id": "0.0-1.0-1.5"
	},
	{
		"rt": 1750,
		"stimulus": "<span style=\"font-size:30px; font-family: monospace\">hoje.</span>",
		"response": " ",
		"trial": "prac-sent",
		"word": "hoje.",
		"trial_type": "html-keyboard-response",
		"trial_index": 8,
		"time_elapsed": 152512,
		"internal_node_id": "0.0-1.0-1.6"
	},
	{
		"rt": null,
		"stimulus": "<span style= \"font-size:30px; font-family: monospace\">+</span>",
		"response": null,
		"trial_part": "fixation",
		"trial_type": "html-keyboard-response",
		"trial_index": 9,
		"time_elapsed": 153767,
		"internal_node_id": "0.0-1.0-0.7-0.7"
	},
	{
		"rt": 1630,
		"stimulus": "<span style=\"font-size:30px; font-family: monospace\">A</span>",
		"response": " ",
		"trial": "prac-sent",
		"word": "A",
		"trial_type": "html-keyboard-response",
		"trial_index": 10,
		"time_elapsed": 155653,
		"internal_node_id": "0.0-1.0-1.7"
	},
	{
		"rt": 2875,
		"stimulus": "<span style=\"font-size:30px; font-family: monospace\">caneca</span>",
		"response": " ",
		"trial": "prac-sent",
		"word": "caneca",
		"trial_type": "html-keyboard-response",
		"trial_index": 11,
		"time_elapsed": 158778,
		"internal_node_id": "0.0-1.0-1.8"
	},
	{
		"rt": 2587,
		"stimulus": "<span style=\"font-size:30px; font-family: monospace\">colorida</span>",
		"response": " ",
		"trial": "prac-sent",
		"word": "colorida",
		"trial_type": "html-keyboard-response",
		"trial_index": 12,
		"time_elapsed": 161619,
		"internal_node_id": "0.0-1.0-1.9"
	},
	{
		"rt": 2680,
		"stimulus": "<span style=\"font-size:30px; font-family: monospace\">caiu</span>",
		"response": " ",
		"trial": "prac-sent",
		"word": "caiu",
		"trial_type": "html-keyboard-response",
		"trial_index": 13,
		"time_elapsed": 164551,
		"internal_node_id": "0.0-1.0-1.10"
	},
	{
		"rt": 1179,
		"stimulus": "<span style=\"font-size:30px; font-family: monospace\">da</span>",
		"response": " ",
		"trial": "prac-sent",
		"word": "da",
		"trial_type": "html-keyboard-response",
		"trial_index": 14,
		"time_elapsed": 165982,
		"internal_node_id": "0.0-1.0-1.11"
	},
	{
		"rt": 1529,
		"stimulus": "<span style=\"font-size:30px; font-family: monospace\">mesa</span>",
		"response": " ",
		"trial": "prac-sent",
		"word": "mesa",
		"trial_type": "html-keyboard-response",
		"trial_index": 15,
		"time_elapsed": 167766,
		"internal_node_id": "0.0-1.0-1.12"
	},
	{
		"rt": 732,
		"stimulus": "<span style=\"font-size:30px; font-family: monospace\">de</span>",
		"response": " ",
		"trial": "prac-sent",
		"word": "de",
		"trial_type": "html-keyboard-response",
		"trial_index": 16,
		"time_elapsed": 168750,
		"internal_node_id": "0.0-1.0-1.13"
	},
	{
		"rt": 2610,
		"stimulus": "<span style=\"font-size:30px; font-family: monospace\">jantar.</span>",
		"response": " ",
		"trial": "prac-comp",
		"word": "jantar.",
		"trial_type": "html-keyboard-response",
		"trial_index": 17,
		"time_elapsed": 171615,
		"internal_node_id": "0.0-1.0-1.14"
	},
	{
		"rt": 87205,
		"stimulus": "<span style=\"font-size:30px; font-family: monospace\">A caneca permaneceu na mesa?</span>",
		"response": "s",
		"question": "A caneca permaneceu na mesa?",
		"answer": "não",
		"trial": "prac-comp",
		"trial_type": "html-keyboard-response",
		"trial_index": 18,
		"time_elapsed": 259071,
		"internal_node_id": "0.0-1.0-2.14-0.14",
		"accuracy": false
	},
	{
		"view_history": [
			{
				"page_index": 0,
				"viewing_time": 90341
			}
		],
		"rt": 90342,
		"trial_type": "instructions",
		"trial_index": 19,
		"time_elapsed": 349913,
		"internal_node_id": "0.0-2.0"
	},
	{
		"rt": null,
		"stimulus": "<span style= \"font-size:30px; font-family: monospace\">+</span>",
		"response": null,
		"trial_part": "fixation",
		"trial_type": "html-keyboard-response",
		"trial_index": 20,
		"time_elapsed": 351017,
		"internal_node_id": "0.0-3.0-0.0-0.0"
	},
	{
		"rt": 4755,
		"stimulus": "<span style=\"font-size:30px; font-family: monospace\">Ursos</span>",
		"response": " ",
		"trial": "exp-sent",
		"word": "Ursos",
		"trial_type": "html-keyboard-response",
		"trial_index": 21,
		"time_elapsed": 356028,
		"internal_node_id": "0.0-3.0-1.0"
	},
	{
		"rt": 1684,
		"stimulus": "<span style=\"font-size:30px; font-family: monospace\">têm</span>",
		"response": " ",
		"trial": "exp-sent",
		"word": "têm",
		"trial_type": "html-keyboard-response",
		"trial_index": 22,
		"time_elapsed": 357967,
		"internal_node_id": "0.0-3.0-1.1"
	},
	{
		"rt": 1374,
		"stimulus": "<span style=\"font-size:30px; font-family: monospace\">uma</span>",
		"response": " ",
		"trial": "exp-sent",
		"word": "uma",
		"trial_type": "html-keyboard-response",
		"trial_index": 23,
		"time_elapsed": 359596,
		"internal_node_id": "0.0-3.0-1.2"
	},
	{
		"rt": 4315,
		"stimulus": "<span style=\"font-size:30px; font-family: monospace\">patada</span>",
		"response": " ",
		"trial": "exp-sent",
		"word": "patada",
		"trial_type": "html-keyboard-response",
		"trial_index": 24,
		"time_elapsed": 364162,
		"internal_node_id": "0.0-3.0-1.3"
	},
	{
		"rt": 2413,
		"stimulus": "<span style=\"font-size:30px; font-family: monospace\">brutal</span>",
		"response": " ",
		"trial": "exp-sent",
		"word": "brutal",
		"trial_type": "html-keyboard-response",
		"trial_index": 25,
		"time_elapsed": 366829,
		"internal_node_id": "0.0-3.0-1.4"
	},
	{
		"rt": 2318,
		"stimulus": "<span style=\"font-size:30px; font-family: monospace\">e</span>",
		"response": " ",
		"trial": "exp-sent",
		"word": "e",
		"trial_type": "html-keyboard-response",
		"trial_index": 26,
		"time_elapsed": 369397,
		"internal_node_id": "0.0-3.0-1.5"
	},
	{
		"rt": 2893,
		"stimulus": "<span style=\"font-size:30px; font-family: monospace\">poderosa.</span>",
		"response": " ",
		"trial": "exp-sent",
		"word": "poderosa.",
		"trial_type": "html-keyboard-response",
		"trial_index": 27,
		"time_elapsed": 372545,
		"internal_node_id": "0.0-3.0-1.6"
	},
	{
		"rt": null,
		"stimulus": "<span style= \"font-size:30px; font-family: monospace\">+</span>",
		"response": null,
		"trial_part": "fixation",
		"trial_type": "html-keyboard-response",
		"trial_index": 28,
		"time_elapsed": 373802,
		"internal_node_id": "0.0-3.0-0.7-0.7"
	},
	{
		"rt": 2410,
		"stimulus": "<span style=\"font-size:30px; font-family: monospace\">Eu</span>",
		"response": " ",
		"trial": "exp-sent",
		"word": "Eu",
		"trial_type": "html-keyboard-response",
		"trial_index": 29,
		"time_elapsed": 376467,
		"internal_node_id": "0.0-3.0-1.7"
	},
	{
		"rt": 1661,
		"stimulus": "<span style=\"font-size:30px; font-family: monospace\">fiz</span>",
		"response": " ",
		"trial": "exp-sent",
		"word": "fiz",
		"trial_type": "html-keyboard-response",
		"trial_index": 30,
		"time_elapsed": 378383,
		"internal_node_id": "0.0-3.0-1.8"
	},
	{
		"rt": 1875,
		"stimulus": "<span style=\"font-size:30px; font-family: monospace\">aulas</span>",
		"response": " ",
		"trial": "exp-sent",
		"word": "aulas",
		"trial_type": "html-keyboard-response",
		"trial_index": 31,
		"time_elapsed": 380512,
		"internal_node_id": "0.0-3.0-1.9"
	},
	{
		"rt": 1016,
		"stimulus": "<span style=\"font-size:30px; font-family: monospace\">de</span>",
		"response": " ",
		"trial": "exp-sent",
		"word": "de",
		"trial_type": "html-keyboard-response",
		"trial_index": 32,
		"time_elapsed": 381784,
		"internal_node_id": "0.0-3.0-1.10"
	},
	{
		"rt": 6394,
		"stimulus": "<span style=\"font-size:30px; font-family: monospace\">espanhol</span>",
		"response": " ",
		"trial": "exp-sent",
		"word": "espanhol",
		"trial_type": "html-keyboard-response",
		"trial_index": 33,
		"time_elapsed": 388433,
		"internal_node_id": "0.0-3.0-1.11"
	},
	{
		"rt": 1852,
		"stimulus": "<span style=\"font-size:30px; font-family: monospace\">nesta</span>",
		"response": " ",
		"trial": "exp-sent",
		"word": "nesta",
		"trial_type": "html-keyboard-response",
		"trial_index": 34,
		"time_elapsed": 390538,
		"internal_node_id": "0.0-3.0-1.12"
	},
	{
		"rt": 2062,
		"stimulus": "<span style=\"font-size:30px; font-family: monospace\">cidade.</span>",
		"response": " ",
		"trial": "exp-sent",
		"word": "cidade.",
		"trial_type": "html-keyboard-response",
		"trial_index": 35,
		"time_elapsed": 392855,
		"internal_node_id": "0.0-3.0-1.13"
	},
	{
		"rt": null,
		"stimulus": "<span style= \"font-size:30px; font-family: monospace\">+</span>",
		"response": null,
		"trial_part": "fixation",
		"trial_type": "html-keyboard-response",
		"trial_index": 36,
		"time_elapsed": 394113,
		"internal_node_id": "0.0-3.0-0.14-0.14"
	},
	{
		"rt": 3027,
		"stimulus": "<span style=\"font-size:30px; font-family: monospace\">Ele</span>",
		"response": " ",
		"trial": "exp-sent",
		"word": "Ele",
		"trial_type": "html-keyboard-response",
		"trial_index": 37,
		"time_elapsed": 397396,
		"internal_node_id": "0.0-3.0-1.14"
	},
	{
		"rt": 2668,
		"stimulus": "<span style=\"font-size:30px; font-family: monospace\">comprou</span>",
		"response": " ",
		"trial": "exp-sent",
		"word": "comprou",
		"trial_type": "html-keyboard-response",
		"trial_index": 38,
		"time_elapsed": 400317,
		"internal_node_id": "0.0-3.0-1.15"
	},
	{
		"rt": 1962,
		"stimulus": "<span style=\"font-size:30px; font-family: monospace\">mais</span>",
		"response": " ",
		"trial": "exp-sent",
		"word": "mais",
		"trial_type": "html-keyboard-response",
		"trial_index": 39,
		"time_elapsed": 402533,
		"internal_node_id": "0.0-3.0-1.16"
	},
	{
		"rt": 999,
		"stimulus": "<span style=\"font-size:30px; font-family: monospace\">uma</span>",
		"response": " ",
		"trial": "exp-sent",
		"word": "uma",
		"trial_type": "html-keyboard-response",
		"trial_index": 40,
		"time_elapsed": 403784,
		"internal_node_id": "0.0-3.0-1.17"
	},
	{
		"rt": 3541,
		"stimulus": "<span style=\"font-size:30px; font-family: monospace\">esponja</span>",
		"response": " ",
		"trial": "exp-sent",
		"word": "esponja",
		"trial_type": "html-keyboard-response",
		"trial_index": 41,
		"time_elapsed": 407580,
		"internal_node_id": "0.0-3.0-1.18"
	},
	{
		"rt": 1442,
		"stimulus": "<span style=\"font-size:30px; font-family: monospace\">para</span>",
		"response": " ",
		"trial": "exp-sent",
		"word": "para",
		"trial_type": "html-keyboard-response",
		"trial_index": 42,
		"time_elapsed": 409278,
		"internal_node_id": "0.0-3.0-1.19"
	},
	{
		"rt": 1148,
		"stimulus": "<span style=\"font-size:30px; font-family: monospace\">a</span>",
		"response": " ",
		"trial": "exp-sent",
		"word": "a",
		"trial_type": "html-keyboard-response",
		"trial_index": 43,
		"time_elapsed": 410678,
		"internal_node_id": "0.0-3.0-1.20"
	},
	{
		"rt": 1893,
		"stimulus": "<span style=\"font-size:30px; font-family: monospace\">cozinha.</span>",
		"response": " ",
		"trial": "exp-sent",
		"word": "cozinha.",
		"trial_type": "html-keyboard-response",
		"trial_index": 44,
		"time_elapsed": 412823,
		"internal_node_id": "0.0-3.0-1.21"
	},
	{
		"rt": null,
		"stimulus": "<span style= \"font-size:30px; font-family: monospace\">+</span>",
		"response": null,
		"trial_part": "fixation",
		"trial_type": "html-keyboard-response",
		"trial_index": 45,
		"time_elapsed": 414082,
		"internal_node_id": "0.0-3.0-0.22-0.22"
	},
	{
		"rt": 1458,
		"stimulus": "<span style=\"font-size:30px; font-family: monospace\">Ele</span>",
		"response": " ",
		"trial": "exp-sent",
		"word": "Ele",
		"trial_type": "html-keyboard-response",
		"trial_index": 46,
		"time_elapsed": 415796,
		"internal_node_id": "0.0-3.0-1.22"
	},
	{
		"rt": 1356,
		"stimulus": "<span style=\"font-size:30px; font-family: monospace\">teve</span>",
		"response": " ",
		"trial": "exp-sent",
		"word": "teve",
		"trial_type": "html-keyboard-response",
		"trial_index": 47,
		"time_elapsed": 417406,
		"internal_node_id": "0.0-3.0-1.23"
	},
	{
		"rt": 1209,
		"stimulus": "<span style=\"font-size:30px; font-family: monospace\">um</span>",
		"response": " ",
		"trial": "exp-sent",
		"word": "um",
		"trial_type": "html-keyboard-response",
		"trial_index": 48,
		"time_elapsed": 418867,
		"internal_node_id": "0.0-3.0-1.24"
	},
	{
		"rt": 2208,
		"stimulus": "<span style=\"font-size:30px; font-family: monospace\">sono</span>",
		"response": " ",
		"trial": "exp-sent",
		"word": "sono",
		"trial_type": "html-keyboard-response",
		"trial_index": 49,
		"time_elapsed": 421329,
		"internal_node_id": "0.0-3.0-1.25"
	},
	{
		"rt": 2343,
		"stimulus": "<span style=\"font-size:30px; font-family: monospace\">bizarro</span>",
		"response": " ",
		"trial": "exp-sent",
		"word": "bizarro",
		"trial_type": "html-keyboard-response",
		"trial_index": 50,
		"time_elapsed": 423925,
		"internal_node_id": "0.0-3.0-1.26"
	},
	{
		"rt": 1262,
		"stimulus": "<span style=\"font-size:30px; font-family: monospace\">sem</span>",
		"response": " ",
		"trial": "exp-sent",
		"word": "sem",
		"trial_type": "html-keyboard-response",
		"trial_index": 51,
		"time_elapsed": 425438,
		"internal_node_id": "0.0-3.0-1.27"
	},
	{
		"rt": 2192,
		"stimulus": "<span style=\"font-size:30px; font-family: monospace\">nenhum</span>",
		"response": " ",
		"trial": "exp-sent",
		"word": "nenhum",
		"trial_type": "html-keyboard-response",
		"trial_index": 52,
		"time_elapsed": 427884,
		"internal_node_id": "0.0-3.0-1.28"
	},
	{
		"rt": 2266,
		"stimulus": "<span style=\"font-size:30px; font-family: monospace\">motivo.</span>",
		"response": " ",
		"trial": "exp-sent",
		"word": "motivo.",
		"trial_type": "html-keyboard-response",
		"trial_index": 53,
		"time_elapsed": 430402,
		"internal_node_id": "0.0-3.0-1.29"
	},
	{
		"rt": null,
		"stimulus": "<span style= \"font-size:30px; font-family: monospace\">+</span>",
		"response": null,
		"trial_part": "fixation",
		"trial_type": "html-keyboard-response",
		"trial_index": 54,
		"time_elapsed": 431659,
		"internal_node_id": "0.0-3.0-0.30-0.30"
	},
	{
		"rt": 1050,
		"stimulus": "<span style=\"font-size:30px; font-family: monospace\">A</span>",
		"response": " ",
		"trial": "exp-sent",
		"word": "A",
		"trial_type": "html-keyboard-response",
		"trial_index": 55,
		"time_elapsed": 432965,
		"internal_node_id": "0.0-3.0-1.30"
	},
	{
		"rt": 1416,
		"stimulus": "<span style=\"font-size:30px; font-family: monospace\">moça</span>",
		"response": " ",
		"trial": "exp-sent",
		"word": "moça",
		"trial_type": "html-keyboard-response",
		"trial_index": 56,
		"time_elapsed": 434636,
		"internal_node_id": "0.0-3.0-1.31"
	},
	{
		"rt": 3031,
		"stimulus": "<span style=\"font-size:30px; font-family: monospace\">comprou</span>",
		"response": " ",
		"trial": "exp-sent",
		"word": "comprou",
		"trial_type": "html-keyboard-response",
		"trial_index": 57,
		"time_elapsed": 437923,
		"internal_node_id": "0.0-3.0-1.32"
	},
	{
		"rt": 1134,
		"stimulus": "<span style=\"font-size:30px; font-family: monospace\">um</span>",
		"response": " ",
		"trial": "exp-sent",
		"word": "um",
		"trial_type": "html-keyboard-response",
		"trial_index": 58,
		"time_elapsed": 439312,
		"internal_node_id": "0.0-3.0-1.33"
	},
	{
		"rt": 2376,
		"stimulus": "<span style=\"font-size:30px; font-family: monospace\">diamante</span>",
		"response": " ",
		"trial": "exp-sent",
		"word": "diamante",
		"trial_type": "html-keyboard-response",
		"trial_index": 59,
		"time_elapsed": 441942,
		"internal_node_id": "0.0-3.0-1.34"
	},
	{
		"rt": 852,
		"stimulus": "<span style=\"font-size:30px; font-family: monospace\">para</span>",
		"response": " ",
		"trial": "exp-sent",
		"word": "para",
		"trial_type": "html-keyboard-response",
		"trial_index": 60,
		"time_elapsed": 443047,
		"internal_node_id": "0.0-3.0-1.35"
	},
	{
		"rt": 1258,
		"stimulus": "<span style=\"font-size:30px; font-family: monospace\">sua</span>",
		"response": " ",
		"trial": "exp-sent",
		"word": "sua",
		"trial_type": "html-keyboard-response",
		"trial_index": 61,
		"time_elapsed": 444557,
		"internal_node_id": "0.0-3.0-1.36"
	},
	{
		"rt": 1342,
		"stimulus": "<span style=\"font-size:30px; font-family: monospace\">prima.</span>",
		"response": " ",
		"trial": "comp",
		"word": "prima.",
		"trial_type": "html-keyboard-response",
		"trial_index": 62,
		"time_elapsed": 446149,
		"internal_node_id": "0.0-3.0-1.37"
	},
	{
		"rt": 20883,
		"stimulus": "<span style=\"font-size:30px; font-family: monospace\">A moça comprou um diamante?</span>",
		"response": "s",
		"question": "A moça comprou um diamante?",
		"answer": "sim",
		"trial": "comp",
		"trial_type": "html-keyboard-response",
		"trial_index": 63,
		"time_elapsed": 467287,
		"internal_node_id": "0.0-3.0-2.37-0.37",
		"accuracy": false
	},
	{
		"rt": null,
		"stimulus": "<span style= \"font-size:30px; font-family: monospace\">+</span>",
		"response": null,
		"trial_part": "fixation",
		"trial_type": "html-keyboard-response",
		"trial_index": 64,
		"time_elapsed": 468793,
		"internal_node_id": "0.0-3.0-0.38-0.38"
	},
	{
		"rt": 25860,
		"stimulus": "<span style=\"font-size:30px; font-family: monospace\">O</span>",
		"response": " ",
		"trial": "exp-sent",
		"word": "O",
		"trial_type": "html-keyboard-response",
		"trial_index": 65,
		"time_elapsed": 494909,
		"internal_node_id": "0.0-3.0-1.38"
	},
	{
		"rt": 4141,
		"stimulus": "<span style=\"font-size:30px; font-family: monospace\">moço</span>",
		"response": " ",
		"trial": "exp-sent",
		"word": "moço",
		"trial_type": "html-keyboard-response",
		"trial_index": 66,
		"time_elapsed": 499305,
		"internal_node_id": "0.0-3.0-1.39"
	},
	{
		"rt": 2591,
		"stimulus": "<span style=\"font-size:30px; font-family: monospace\">usou</span>",
		"response": " ",
		"trial": "exp-sent",
		"word": "usou",
		"trial_type": "html-keyboard-response",
		"trial_index": 67,
		"time_elapsed": 502150,
		"internal_node_id": "0.0-3.0-1.40"
	},
	{
		"rt": 1823,
		"stimulus": "<span style=\"font-size:30px; font-family: monospace\">várias</span>",
		"response": " ",
		"trial": "exp-sent",
		"word": "várias",
		"trial_type": "html-keyboard-response",
		"trial_index": 68,
		"time_elapsed": 504227,
		"internal_node_id": "0.0-3.0-1.41"
	},
	{
		"rt": 2085,
		"stimulus": "<span style=\"font-size:30px; font-family: monospace\">velas</span>",
		"response": " ",
		"trial": "exp-sent",
		"word": "velas",
		"trial_type": "html-keyboard-response",
		"trial_index": 69,
		"time_elapsed": 506567,
		"internal_node_id": "0.0-3.0-1.42"
	},
	{
		"rt": 1146,
		"stimulus": "<span style=\"font-size:30px; font-family: monospace\">no</span>",
		"response": " ",
		"trial": "exp-sent",
		"word": "no",
		"trial_type": "html-keyboard-response",
		"trial_index": 70,
		"time_elapsed": 507967,
		"internal_node_id": "0.0-3.0-1.43"
	},
	{
		"rt": 3744,
		"stimulus": "<span style=\"font-size:30px; font-family: monospace\">enfeite</span>",
		"response": " ",
		"trial": "exp-sent",
		"word": "enfeite",
		"trial_type": "html-keyboard-response",
		"trial_index": 71,
		"time_elapsed": 511964,
		"internal_node_id": "0.0-3.0-1.44"
	},
	{
		"rt": 921,
		"stimulus": "<span style=\"font-size:30px; font-family: monospace\">de</span>",
		"response": " ",
		"trial": "exp-sent",
		"word": "de",
		"trial_type": "html-keyboard-response",
		"trial_index": 72,
		"time_elapsed": 513141,
		"internal_node_id": "0.0-3.0-1.45"
	},
	{
		"rt": 6532,
		"stimulus": "<span style=\"font-size:30px; font-family: monospace\">mesa.</span>",
		"response": " ",
		"trial": "exp-sent",
		"word": "mesa.",
		"trial_type": "html-keyboard-response",
		"trial_index": 73,
		"time_elapsed": 519924,
		"internal_node_id": "0.0-3.0-1.46"
	},
	{
		"rt": null,
		"stimulus": "<span style= \"font-size:30px; font-family: monospace\">+</span>",
		"response": null,
		"trial_part": "fixation",
		"trial_type": "html-keyboard-response",
		"trial_index": 74,
		"time_elapsed": 521182,
		"internal_node_id": "0.0-3.0-0.47-0.47"
	},
	{
		"rt": 2528,
		"stimulus": "<span style=\"font-size:30px; font-family: monospace\">Gostamos</span>",
		"response": " ",
		"trial": "exp-sent",
		"word": "Gostamos",
		"trial_type": "html-keyboard-response",
		"trial_index": 75,
		"time_elapsed": 523966,
		"internal_node_id": "0.0-3.0-1.47"
	},
	{
		"rt": 1953,
		"stimulus": "<span style=\"font-size:30px; font-family: monospace\">de</span>",
		"response": " ",
		"trial": "exp-sent",
		"word": "de",
		"trial_type": "html-keyboard-response",
		"trial_index": 76,
		"time_elapsed": 526171,
		"internal_node_id": "0.0-3.0-1.48"
	},
	{
		"rt": 1894,
		"stimulus": "<span style=\"font-size:30px; font-family: monospace\">suco</span>",
		"response": " ",
		"trial": "exp-sent",
		"word": "suco",
		"trial_type": "html-keyboard-response",
		"trial_index": 77,
		"time_elapsed": 528318,
		"internal_node_id": "0.0-3.0-1.49"
	},
	{
		"rt": 1120,
		"stimulus": "<span style=\"font-size:30px; font-family: monospace\">em</span>",
		"response": " ",
		"trial": "exp-sent",
		"word": "em",
		"trial_type": "html-keyboard-response",
		"trial_index": 78,
		"time_elapsed": 529692,
		"internal_node_id": "0.0-3.0-1.50"
	},
	{
		"rt": 8806,
		"stimulus": "<span style=\"font-size:30px; font-family: monospace\">garrafa</span>",
		"response": " ",
		"trial": "exp-sent",
		"word": "garrafa",
		"trial_type": "html-keyboard-response",
		"trial_index": 79,
		"time_elapsed": 538753,
		"internal_node_id": "0.0-3.0-1.51"
	},
	{
		"rt": 1047,
		"stimulus": "<span style=\"font-size:30px; font-family: monospace\">de</span>",
		"response": " ",
		"trial": "exp-sent",
		"word": "de",
		"trial_type": "html-keyboard-response",
		"trial_index": 80,
		"time_elapsed": 540056,
		"internal_node_id": "0.0-3.0-1.52"
	},
	{
		"rt": 8186,
		"stimulus": "<span style=\"font-size:30px; font-family: monospace\">tamanho</span>",
		"response": " ",
		"trial": "exp-sent",
		"word": "tamanho",
		"trial_type": "html-keyboard-response",
		"trial_index": 81,
		"time_elapsed": 548495,
		"internal_node_id": "0.0-3.0-1.53"
	},
	{
		"rt": 2093,
		"stimulus": "<span style=\"font-size:30px; font-family: monospace\">pequeno.</span>",
		"response": " ",
		"trial": "exp-sent",
		"word": "pequeno.",
		"trial_type": "html-keyboard-response",
		"trial_index": 82,
		"time_elapsed": 550843,
		"internal_node_id": "0.0-3.0-1.54"
	},
	{
		"rt": null,
		"stimulus": "<span style= \"font-size:30px; font-family: monospace\">+</span>",
		"response": null,
		"trial_part": "fixation",
		"trial_type": "html-keyboard-response",
		"trial_index": 83,
		"time_elapsed": 552099,
		"internal_node_id": "0.0-3.0-0.55-0.55"
	},
	{
		"rt": 1179,
		"stimulus": "<span style=\"font-size:30px; font-family: monospace\">Sua</span>",
		"response": " ",
		"trial": "exp-sent",
		"word": "Sua",
		"trial_type": "html-keyboard-response",
		"trial_index": 84,
		"time_elapsed": 553534,
		"internal_node_id": "0.0-3.0-1.55"
	},
	{
		"rt": 1459,
		"stimulus": "<span style=\"font-size:30px; font-family: monospace\">filha</span>",
		"response": " ",
		"trial": "exp-sent",
		"word": "filha",
		"trial_type": "html-keyboard-response",
		"trial_index": 85,
		"time_elapsed": 555247,
		"internal_node_id": "0.0-3.0-1.56"
	},
	{
		"rt": 958,
		"stimulus": "<span style=\"font-size:30px; font-family: monospace\">é</span>",
		"response": " ",
		"trial": "exp-sent",
		"word": "é",
		"trial_type": "html-keyboard-response",
		"trial_index": 86,
		"time_elapsed": 556458,
		"internal_node_id": "0.0-3.0-1.57"
	},
	{
		"rt": 1326,
		"stimulus": "<span style=\"font-size:30px; font-family: monospace\">muito</span>",
		"response": " ",
		"trial": "exp-sent",
		"word": "muito",
		"trial_type": "html-keyboard-response",
		"trial_index": 87,
		"time_elapsed": 558040,
		"internal_node_id": "0.0-3.0-1.58"
	},
	{
		"rt": 2463,
		"stimulus": "<span style=\"font-size:30px; font-family: monospace\">capaz</span>",
		"response": " ",
		"trial": "exp-sent",
		"word": "capaz",
		"trial_type": "html-keyboard-response",
		"trial_index": 88,
		"time_elapsed": 560756,
		"internal_node_id": "0.0-3.0-1.59"
	},
	{
		"rt": 2482,
		"stimulus": "<span style=\"font-size:30px; font-family: monospace\">e</span>",
		"response": " ",
		"trial": "exp-sent",
		"word": "e",
		"trial_type": "html-keyboard-response",
		"trial_index": 89,
		"time_elapsed": 563492,
		"internal_node_id": "0.0-3.0-1.60"
	},
	{
		"rt": 4080,
		"stimulus": "<span style=\"font-size:30px; font-family: monospace\">esforçada.</span>",
		"response": " ",
		"trial": "exp-sent",
		"word": "esforçada.",
		"trial_type": "html-keyboard-response",
		"trial_index": 90,
		"time_elapsed": 567824,
		"internal_node_id": "0.0-3.0-1.61"
	},
	{
		"rt": null,
		"stimulus": "<span style= \"font-size:30px; font-family: monospace\">+</span>",
		"response": null,
		"trial_part": "fixation",
		"trial_type": "html-keyboard-response",
		"trial_index": 91,
		"time_elapsed": 569084,
		"internal_node_id": "0.0-3.0-0.62-0.62"
	},
	{
		"rt": 2075,
		"stimulus": "<span style=\"font-size:30px; font-family: monospace\">A</span>",
		"response": " ",
		"trial": "exp-sent",
		"word": "A",
		"trial_type": "html-keyboard-response",
		"trial_index": 92,
		"time_elapsed": 571414,
		"internal_node_id": "0.0-3.0-1.62"
	},
	{
		"rt": 1610,
		"stimulus": "<span style=\"font-size:30px; font-family: monospace\">batida</span>",
		"response": " ",
		"trial": "exp-sent",
		"word": "batida",
		"trial_type": "html-keyboard-response",
		"trial_index": 93,
		"time_elapsed": 573278,
		"internal_node_id": "0.0-3.0-1.63"
	},
	{
		"rt": 5213,
		"stimulus": "<span style=\"font-size:30px; font-family: monospace\">causou</span>",
		"response": " ",
		"trial": "exp-sent",
		"word": "causou",
		"trial_type": "html-keyboard-response",
		"trial_index": 94,
		"time_elapsed": 578744,
		"internal_node_id": "0.0-3.0-1.64"
	},
	{
		"rt": 1525,
		"stimulus": "<span style=\"font-size:30px; font-family: monospace\">muita</span>",
		"response": " ",
		"trial": "exp-sent",
		"word": "muita",
		"trial_type": "html-keyboard-response",
		"trial_index": 95,
		"time_elapsed": 580524,
		"internal_node_id": "0.0-3.0-1.65"
	},
	{
		"rt": 3078,
		"stimulus": "<span style=\"font-size:30px; font-family: monospace\">confusão</span>",
		"response": " ",
		"trial": "exp-sent",
		"word": "confusão",
		"trial_type": "html-keyboard-response",
		"trial_index": 96,
		"time_elapsed": 583853,
		"internal_node_id": "0.0-3.0-1.66"
	},
	{
		"rt": 734,
		"stimulus": "<span style=\"font-size:30px; font-family: monospace\">na</span>",
		"response": " ",
		"trial": "exp-sent",
		"word": "na",
		"trial_type": "html-keyboard-response",
		"trial_index": 97,
		"time_elapsed": 584841,
		"internal_node_id": "0.0-3.0-1.67"
	},
	{
		"rt": 1960,
		"stimulus": "<span style=\"font-size:30px; font-family: monospace\">estrada.</span>",
		"response": " ",
		"trial": "exp-sent",
		"word": "estrada.",
		"trial_type": "html-keyboard-response",
		"trial_index": 98,
		"time_elapsed": 587055,
		"internal_node_id": "0.0-3.0-1.68"
	},
	{
		"rt": null,
		"stimulus": "<span style= \"font-size:30px; font-family: monospace\">+</span>",
		"response": null,
		"trial_part": "fixation",
		"trial_type": "html-keyboard-response",
		"trial_index": 99,
		"time_elapsed": 588310,
		"internal_node_id": "0.0-3.0-0.69-0.69"
	},
	{
		"rt": 1973,
		"stimulus": "<span style=\"font-size:30px; font-family: monospace\">Eu</span>",
		"response": " ",
		"trial": "exp-sent",
		"word": "Eu",
		"trial_type": "html-keyboard-response",
		"trial_index": 100,
		"time_elapsed": 590539,
		"internal_node_id": "0.0-3.0-1.69"
	},
	{
		"rt": 6598,
		"stimulus": "<span style=\"font-size:30px; font-family: monospace\">cozinhei</span>",
		"response": " ",
		"trial": "exp-sent",
		"word": "cozinhei",
		"trial_type": "html-keyboard-response",
		"trial_index": 101,
		"time_elapsed": 597392,
		"internal_node_id": "0.0-3.0-1.70"
	},
	{
		"rt": 1222,
		"stimulus": "<span style=\"font-size:30px; font-family: monospace\">um</span>",
		"response": " ",
		"trial": "exp-sent",
		"word": "um",
		"trial_type": "html-keyboard-response",
		"trial_index": 102,
		"time_elapsed": 598866,
		"internal_node_id": "0.0-3.0-1.71"
	},
	{
		"rt": 1703,
		"stimulus": "<span style=\"font-size:30px; font-family: monospace\">almoço</span>",
		"response": " ",
		"trial": "exp-sent",
		"word": "almoço",
		"trial_type": "html-keyboard-response",
		"trial_index": 103,
		"time_elapsed": 600822,
		"internal_node_id": "0.0-3.0-1.72"
	},
	{
		"rt": 11411,
		"stimulus": "<span style=\"font-size:30px; font-family: monospace\">nutritivo</span>",
		"response": " ",
		"trial": "exp-sent",
		"word": "nutritivo",
		"trial_type": "html-keyboard-response",
		"trial_index": 104,
		"time_elapsed": 612487,
		"internal_node_id": "0.0-3.0-1.73"
	},
	{
		"rt": 992,
		"stimulus": "<span style=\"font-size:30px; font-family: monospace\">para</span>",
		"response": " ",
		"trial": "exp-sent",
		"word": "para",
		"trial_type": "html-keyboard-response",
		"trial_index": 105,
		"time_elapsed": 613730,
		"internal_node_id": "0.0-3.0-1.74"
	},
	{
		"rt": 2130,
		"stimulus": "<span style=\"font-size:30px; font-family: monospace\">hoje.</span>",
		"response": " ",
		"trial": "comp",
		"word": "hoje.",
		"trial_type": "html-keyboard-response",
		"trial_index": 106,
		"time_elapsed": 616115,
		"internal_node_id": "0.0-3.0-1.75"
	},
	{
		"rt": 13540,
		"stimulus": "<span style=\"font-size:30px; font-family: monospace\">O almoço era nutritivo?</span>",
		"response": "s",
		"question": "O almoço era nutritivo?",
		"answer": "sim",
		"trial": "comp",
		"trial_type": "html-keyboard-response",
		"trial_index": 107,
		"time_elapsed": 629911,
		"internal_node_id": "0.0-3.0-2.75-0.75",
		"accuracy": false
	},
	{
		"rt": null,
		"stimulus": "<span style= \"font-size:30px; font-family: monospace\">+</span>",
		"response": null,
		"trial_part": "fixation",
		"trial_type": "html-keyboard-response",
		"trial_index": 108,
		"time_elapsed": 631417,
		"internal_node_id": "0.0-3.0-0.76-0.76"
	},
	{
		"rt": 13743,
		"stimulus": "<span style=\"font-size:30px; font-family: monospace\">Ganhamos</span>",
		"response": " ",
		"trial": "exp-sent",
		"word": "Ganhamos",
		"trial_type": "html-keyboard-response",
		"trial_index": 109,
		"time_elapsed": 645415,
		"internal_node_id": "0.0-3.0-1.76"
	},
	{
		"rt": 11310,
		"stimulus": "<span style=\"font-size:30px; font-family: monospace\">passagem</span>",
		"response": " ",
		"trial": "exp-sent",
		"word": "passagem",
		"trial_type": "html-keyboard-response",
		"trial_index": 110,
		"time_elapsed": 656978,
		"internal_node_id": "0.0-3.0-1.77"
	},
	{
		"rt": 1456,
		"stimulus": "<span style=\"font-size:30px; font-family: monospace\">para</span>",
		"response": " ",
		"trial": "exp-sent",
		"word": "para",
		"trial_type": "html-keyboard-response",
		"trial_index": 111,
		"time_elapsed": 658688,
		"internal_node_id": "0.0-3.0-1.78"
	},
	{
		"rt": 1021,
		"stimulus": "<span style=\"font-size:30px; font-family: monospace\">uma</span>",
		"response": " ",
		"trial": "exp-sent",
		"word": "uma",
		"trial_type": "html-keyboard-response",
		"trial_index": 112,
		"time_elapsed": 659960,
		"internal_node_id": "0.0-3.0-1.79"
	},
	{
		"rt": 10505,
		"stimulus": "<span style=\"font-size:30px; font-family: monospace\">viagem</span>",
		"response": " ",
		"trial": "exp-sent",
		"word": "viagem",
		"trial_type": "html-keyboard-response",
		"trial_index": 113,
		"time_elapsed": 670721,
		"internal_node_id": "0.0-3.0-1.80"
	},
	{
		"rt": 1346,
		"stimulus": "<span style=\"font-size:30px; font-family: monospace\">de</span>",
		"response": " ",
		"trial": "exp-sent",
		"word": "de",
		"trial_type": "html-keyboard-response",
		"trial_index": 114,
		"time_elapsed": 672318,
		"internal_node_id": "0.0-3.0-1.81"
	},
	{
		"rt": 4304,
		"stimulus": "<span style=\"font-size:30px; font-family: monospace\">férias.</span>",
		"response": " ",
		"trial": "exp-sent",
		"word": "férias.",
		"trial_type": "html-keyboard-response",
		"trial_index": 115,
		"time_elapsed": 676878,
		"internal_node_id": "0.0-3.0-1.82"
	},
	{
		"rt": null,
		"stimulus": "<span style= \"font-size:30px; font-family: monospace\">+</span>",
		"response": null,
		"trial_part": "fixation",
		"trial_type": "html-keyboard-response",
		"trial_index": 116,
		"time_elapsed": 678135,
		"internal_node_id": "0.0-3.0-0.83-0.83"
	},
	{
		"rt": 7716,
		"stimulus": "<span style=\"font-size:30px; font-family: monospace\">Caiu</span>",
		"response": " ",
		"trial": "exp-sent",
		"word": "Caiu",
		"trial_type": "html-keyboard-response",
		"trial_index": 117,
		"time_elapsed": 686107,
		"internal_node_id": "0.0-3.0-1.83"
	},
	{
		"rt": 3587,
		"stimulus": "<span style=\"font-size:30px; font-family: monospace\">algo</span>",
		"response": " ",
		"trial": "exp-sent",
		"word": "algo",
		"trial_type": "html-keyboard-response",
		"trial_index": 118,
		"time_elapsed": 689947,
		"internal_node_id": "0.0-3.0-1.84"
	},
	{
		"rt": 1427,
		"stimulus": "<span style=\"font-size:30px; font-family: monospace\">no</span>",
		"response": " ",
		"trial": "exp-sent",
		"word": "no",
		"trial_type": "html-keyboard-response",
		"trial_index": 119,
		"time_elapsed": 691631,
		"internal_node_id": "0.0-3.0-1.85"
	},
	{
		"rt": 1380,
		"stimulus": "<span style=\"font-size:30px; font-family: monospace\">meu</span>",
		"response": " ",
		"trial": "exp-sent",
		"word": "meu",
		"trial_type": "html-keyboard-response",
		"trial_index": 120,
		"time_elapsed": 693262,
		"internal_node_id": "0.0-3.0-1.86"
	},
	{
		"rt": 6037,
		"stimulus": "<span style=\"font-size:30px; font-family: monospace\">olho</span>",
		"response": " ",
		"trial": "exp-sent",
		"word": "olho",
		"trial_type": "html-keyboard-response",
		"trial_index": 121,
		"time_elapsed": 699550,
		"internal_node_id": "0.0-3.0-1.87"
	},
	{
		"rt": 2787,
		"stimulus": "<span style=\"font-size:30px; font-family: monospace\">ontem</span>",
		"response": " ",
		"trial": "exp-sent",
		"word": "ontem",
		"trial_type": "html-keyboard-response",
		"trial_index": 122,
		"time_elapsed": 702592,
		"internal_node_id": "0.0-3.0-1.88"
	},
	{
		"rt": 1247,
		"stimulus": "<span style=\"font-size:30px; font-family: monospace\">de</span>",
		"response": " ",
		"trial": "exp-sent",
		"word": "de",
		"trial_type": "html-keyboard-response",
		"trial_index": 123,
		"time_elapsed": 704094,
		"internal_node_id": "0.0-3.0-1.89"
	},
	{
		"rt": 1558,
		"stimulus": "<span style=\"font-size:30px; font-family: monospace\">tarde.</span>",
		"response": " ",
		"trial": "exp-sent",
		"word": "tarde.",
		"trial_type": "html-keyboard-response",
		"trial_index": 124,
		"time_elapsed": 705908,
		"internal_node_id": "0.0-3.0-1.90"
	},
	{
		"rt": null,
		"stimulus": "<span style= \"font-size:30px; font-family: monospace\">+</span>",
		"response": null,
		"trial_part": "fixation",
		"trial_type": "html-keyboard-response",
		"trial_index": 125,
		"time_elapsed": 707165,
		"internal_node_id": "0.0-3.0-0.91-0.91"
	},
	{
		"rt": 4948,
		"stimulus": "<span style=\"font-size:30px; font-family: monospace\">Não</span>",
		"response": " ",
		"trial": "exp-sent",
		"word": "Não",
		"trial_type": "html-keyboard-response",
		"trial_index": 126,
		"time_elapsed": 712369,
		"internal_node_id": "0.0-3.0-1.91"
	},
	{
		"rt": 1904,
		"stimulus": "<span style=\"font-size:30px; font-family: monospace\">havia</span>",
		"response": " ",
		"trial": "exp-sent",
		"word": "havia",
		"trial_type": "html-keyboard-response",
		"trial_index": 127,
		"time_elapsed": 714528,
		"internal_node_id": "0.0-3.0-1.92"
	},
	{
		"rt": 1912,
		"stimulus": "<span style=\"font-size:30px; font-family: monospace\">mais</span>",
		"response": " ",
		"trial": "exp-sent",
		"word": "mais",
		"trial_type": "html-keyboard-response",
		"trial_index": 128,
		"time_elapsed": 716693,
		"internal_node_id": "0.0-3.0-1.93"
	},
	{
		"rt": 10567,
		"stimulus": "<span style=\"font-size:30px; font-family: monospace\">nenhum</span>",
		"response": " ",
		"trial": "exp-sent",
		"word": "nenhum",
		"trial_type": "html-keyboard-response",
		"trial_index": 129,
		"time_elapsed": 727513,
		"internal_node_id": "0.0-3.0-1.94"
	},
	{
		"rt": 2719,
		"stimulus": "<span style=\"font-size:30px; font-family: monospace\">ingresso</span>",
		"response": " ",
		"trial": "exp-sent",
		"word": "ingresso",
		"trial_type": "html-keyboard-response",
		"trial_index": 130,
		"time_elapsed": 730486,
		"internal_node_id": "0.0-3.0-1.95"
	},
	{
		"rt": 1849,
		"stimulus": "<span style=\"font-size:30px; font-family: monospace\">para</span>",
		"response": " ",
		"trial": "exp-sent",
		"word": "para",
		"trial_type": "html-keyboard-response",
		"trial_index": 131,
		"time_elapsed": 732588,
		"internal_node_id": "0.0-3.0-1.96"
	},
	{
		"rt": 2035,
		"stimulus": "<span style=\"font-size:30px; font-family: monospace\">o</span>",
		"response": " ",
		"trial": "exp-sent",
		"word": "o",
		"trial_type": "html-keyboard-response",
		"trial_index": 132,
		"time_elapsed": 734876,
		"internal_node_id": "0.0-3.0-1.97"
	},
	{
		"rt": 1883,
		"stimulus": "<span style=\"font-size:30px; font-family: monospace\">evento.</span>",
		"response": " ",
		"trial": "exp-sent",
		"word": "evento.",
		"trial_type": "html-keyboard-response",
		"trial_index": 133,
		"time_elapsed": 737013,
		"internal_node_id": "0.0-3.0-1.98"
	},
	{
		"rt": null,
		"stimulus": "<span style= \"font-size:30px; font-family: monospace\">+</span>",
		"response": null,
		"trial_part": "fixation",
		"trial_type": "html-keyboard-response",
		"trial_index": 134,
		"time_elapsed": 738268,
		"internal_node_id": "0.0-3.0-0.99-0.99"
	},
	{
		"rt": 1803,
		"stimulus": "<span style=\"font-size:30px; font-family: monospace\">A</span>",
		"response": " ",
		"trial": "exp-sent",
		"word": "A",
		"trial_type": "html-keyboard-response",
		"trial_index": 135,
		"time_elapsed": 740326,
		"internal_node_id": "0.0-3.0-1.99"
	},
	{
		"rt": 1729,
		"stimulus": "<span style=\"font-size:30px; font-family: monospace\">médica</span>",
		"response": " ",
		"trial": "exp-sent",
		"word": "médica",
		"trial_type": "html-keyboard-response",
		"trial_index": 136,
		"time_elapsed": 742308,
		"internal_node_id": "0.0-3.0-1.100"
	},
	{
		"rt": 5028,
		"stimulus": "<span style=\"font-size:30px; font-family: monospace\">descobriu</span>",
		"response": " ",
		"trial": "exp-sent",
		"word": "descobriu",
		"trial_type": "html-keyboard-response",
		"trial_index": 137,
		"time_elapsed": 747587,
		"internal_node_id": "0.0-3.0-1.101"
	},
	{
		"rt": 1729,
		"stimulus": "<span style=\"font-size:30px; font-family: monospace\">uma</span>",
		"response": " ",
		"trial": "exp-sent",
		"word": "uma",
		"trial_type": "html-keyboard-response",
		"trial_index": 138,
		"time_elapsed": 749570,
		"internal_node_id": "0.0-3.0-1.102"
	},
	{
		"rt": 2005,
		"stimulus": "<span style=\"font-size:30px; font-family: monospace\">cura</span>",
		"response": " ",
		"trial": "exp-sent",
		"word": "cura",
		"trial_type": "html-keyboard-response",
		"trial_index": 139,
		"time_elapsed": 751829,
		"internal_node_id": "0.0-3.0-1.103"
	},
	{
		"rt": 3589,
		"stimulus": "<span style=\"font-size:30px; font-family: monospace\">para</span>",
		"response": " ",
		"trial": "exp-sent",
		"word": "para",
		"trial_type": "html-keyboard-response",
		"trial_index": 140,
		"time_elapsed": 755673,
		"internal_node_id": "0.0-3.0-1.104"
	},
	{
		"rt": 1431,
		"stimulus": "<span style=\"font-size:30px; font-family: monospace\">a</span>",
		"response": " ",
		"trial": "exp-sent",
		"word": "a",
		"trial_type": "html-keyboard-response",
		"trial_index": 141,
		"time_elapsed": 757357,
		"internal_node_id": "0.0-3.0-1.105"
	},
	{
		"rt": 7330,
		"stimulus": "<span style=\"font-size:30px; font-family: monospace\">doença.</span>",
		"response": " ",
		"trial": "exp-sent",
		"word": "doença.",
		"trial_type": "html-keyboard-response",
		"trial_index": 142,
		"time_elapsed": 764940,
		"internal_node_id": "0.0-3.0-1.106"
	},
	{
		"rt": null,
		"stimulus": "<span style= \"font-size:30px; font-family: monospace\">+</span>",
		"response": null,
		"trial_part": "fixation",
		"trial_type": "html-keyboard-response",
		"trial_index": 143,
		"time_elapsed": 766195,
		"internal_node_id": "0.0-3.0-0.107-0.107"
	},
	{
		"rt": 1446,
		"stimulus": "<span style=\"font-size:30px; font-family: monospace\">O</span>",
		"response": " ",
		"trial": "exp-sent",
		"word": "O",
		"trial_type": "html-keyboard-response",
		"trial_index": 144,
		"time_elapsed": 767896,
		"internal_node_id": "0.0-3.0-1.107"
	},
	{
		"rt": 4654,
		"stimulus": "<span style=\"font-size:30px; font-family: monospace\">menino</span>",
		"response": " ",
		"trial": "exp-sent",
		"word": "menino",
		"trial_type": "html-keyboard-response",
		"trial_index": 145,
		"time_elapsed": 772806,
		"internal_node_id": "0.0-3.0-1.108"
	},
	{
		"rt": 5327,
		"stimulus": "<span style=\"font-size:30px; font-family: monospace\">riscou</span>",
		"response": " ",
		"trial": "exp-sent",
		"word": "riscou",
		"trial_type": "html-keyboard-response",
		"trial_index": 146,
		"time_elapsed": 778384,
		"internal_node_id": "0.0-3.0-1.109"
	},
	{
		"rt": 1143,
		"stimulus": "<span style=\"font-size:30px; font-family: monospace\">o</span>",
		"response": " ",
		"trial": "exp-sent",
		"word": "o",
		"trial_type": "html-keyboard-response",
		"trial_index": 147,
		"time_elapsed": 779778,
		"internal_node_id": "0.0-3.0-1.110"
	},
	{
		"rt": 5395,
		"stimulus": "<span style=\"font-size:30px; font-family: monospace\">caderno</span>",
		"response": " ",
		"trial": "exp-sent",
		"word": "caderno",
		"trial_type": "html-keyboard-response",
		"trial_index": 148,
		"time_elapsed": 785433,
		"internal_node_id": "0.0-3.0-1.111"
	},
	{
		"rt": 1438,
		"stimulus": "<span style=\"font-size:30px; font-family: monospace\">com</span>",
		"response": " ",
		"trial": "exp-sent",
		"word": "com",
		"trial_type": "html-keyboard-response",
		"trial_index": 149,
		"time_elapsed": 787126,
		"internal_node_id": "0.0-3.0-1.112"
	},
	{
		"rt": 960,
		"stimulus": "<span style=\"font-size:30px; font-family: monospace\">a</span>",
		"response": " ",
		"trial": "exp-sent",
		"word": "a",
		"trial_type": "html-keyboard-response",
		"trial_index": 150,
		"time_elapsed": 788343,
		"internal_node_id": "0.0-3.0-1.113"
	},
	{
		"rt": 2414,
		"stimulus": "<span style=\"font-size:30px; font-family: monospace\">caneta.</span>",
		"response": " ",
		"trial": "comp",
		"word": "caneta.",
		"trial_type": "html-keyboard-response",
		"trial_index": 151,
		"time_elapsed": 791014,
		"internal_node_id": "0.0-3.0-1.114"
	},
	{
		"rt": 46857,
		"stimulus": "<span style=\"font-size:30px; font-family: monospace\">O menino riscou a parede com a caneta?</span>",
		"response": "s",
		"question": "O menino riscou a parede com a caneta?",
		"answer": "não",
		"trial": "comp",
		"trial_type": "html-keyboard-response",
		"trial_index": 152,
		"time_elapsed": 838139,
		"internal_node_id": "0.0-3.0-2.114-0.114",
		"accuracy": false
	},
	{
		"rt": null,
		"stimulus": "<span style= \"font-size:30px; font-family: monospace\">+</span>",
		"response": null,
		"trial_part": "fixation",
		"trial_type": "html-keyboard-response",
		"trial_index": 153,
		"time_elapsed": 839648,
		"internal_node_id": "0.0-3.0-0.115-0.115"
	},
	{
		"rt": 4047,
		"stimulus": "<span style=\"font-size:30px; font-family: monospace\">A</span>",
		"response": " ",
		"trial": "exp-sent",
		"word": "A",
		"trial_type": "html-keyboard-response",
		"trial_index": 154,
		"time_elapsed": 843951,
		"internal_node_id": "0.0-3.0-1.115"
	},
	{
		"rt": 4390,
		"stimulus": "<span style=\"font-size:30px; font-family: monospace\">motorista</span>",
		"response": " ",
		"trial": "exp-sent",
		"word": "motorista",
		"trial_type": "html-keyboard-response",
		"trial_index": 155,
		"time_elapsed": 848596,
		"internal_node_id": "0.0-3.0-1.116"
	},
	{
		"rt": 1757,
		"stimulus": "<span style=\"font-size:30px; font-family: monospace\">fez</span>",
		"response": " ",
		"trial": "exp-sent",
		"word": "fez",
		"trial_type": "html-keyboard-response",
		"trial_index": 156,
		"time_elapsed": 850607,
		"internal_node_id": "0.0-3.0-1.117"
	},
	{
		"rt": 1046,
		"stimulus": "<span style=\"font-size:30px; font-family: monospace\">o</span>",
		"response": " ",
		"trial": "exp-sent",
		"word": "o",
		"trial_type": "html-keyboard-response",
		"trial_index": 157,
		"time_elapsed": 851904,
		"internal_node_id": "0.0-3.0-1.118"
	},
	{
		"rt": 2379,
		"stimulus": "<span style=\"font-size:30px; font-family: monospace\">retorno</span>",
		"response": " ",
		"trial": "exp-sent",
		"word": "retorno",
		"trial_type": "html-keyboard-response",
		"trial_index": 158,
		"time_elapsed": 854538,
		"internal_node_id": "0.0-3.0-1.119"
	},
	{
		"rt": 8477,
		"stimulus": "<span style=\"font-size:30px; font-family: monospace\">com</span>",
		"response": " ",
		"trial": "exp-sent",
		"word": "com",
		"trial_type": "html-keyboard-response",
		"trial_index": 159,
		"time_elapsed": 863266,
		"internal_node_id": "0.0-3.0-1.120"
	},
	{
		"rt": 8911,
		"stimulus": "<span style=\"font-size:30px; font-family: monospace\">cuidado.</span>",
		"response": " ",
		"trial": "exp-sent",
		"word": "cuidado.",
		"trial_type": "html-keyboard-response",
		"trial_index": 160,
		"time_elapsed": 872430,
		"internal_node_id": "0.0-3.0-1.121"
	},
	{
		"rt": null,
		"stimulus": "<span style= \"font-size:30px; font-family: monospace\">+</span>",
		"response": null,
		"trial_part": "fixation",
		"trial_type": "html-keyboard-response",
		"trial_index": 161,
		"time_elapsed": 873690,
		"internal_node_id": "0.0-3.0-0.122-0.122"
	},
	{
		"rt": 291,
		"stimulus": "<span style=\"font-size:30px; font-family: monospace\">Contos</span>",
		"response": " ",
		"trial": "exp-sent",
		"word": "Contos",
		"trial_type": "html-keyboard-response",
		"trial_index": 162,
		"time_elapsed": 874236,
		"internal_node_id": "0.0-3.0-1.122"
	},
	{
		"rt": 2059,
		"stimulus": "<span style=\"font-size:30px; font-family: monospace\">de</span>",
		"response": " ",
		"trial": "exp-sent",
		"word": "de",
		"trial_type": "html-keyboard-response",
		"trial_index": 163,
		"time_elapsed": 876551,
		"internal_node_id": "0.0-3.0-1.123"
	},
	{
		"rt": 2253,
		"stimulus": "<span style=\"font-size:30px; font-family: monospace\">ação</span>",
		"response": " ",
		"trial": "exp-sent",
		"word": "ação",
		"trial_type": "html-keyboard-response",
		"trial_index": 164,
		"time_elapsed": 879059,
		"internal_node_id": "0.0-3.0-1.124"
	},
	{
		"rt": 1388,
		"stimulus": "<span style=\"font-size:30px; font-family: monospace\">têm</span>",
		"response": " ",
		"trial": "exp-sent",
		"word": "têm",
		"trial_type": "html-keyboard-response",
		"trial_index": 165,
		"time_elapsed": 880703,
		"internal_node_id": "0.0-3.0-1.125"
	},
	{
		"rt": 12211,
		"stimulus": "<span style=\"font-size:30px; font-family: monospace\">chantagem</span>",
		"response": " ",
		"trial": "exp-sent",
		"word": "chantagem",
		"trial_type": "html-keyboard-response",
		"trial_index": 166,
		"time_elapsed": 893170,
		"internal_node_id": "0.0-3.0-1.126"
	},
	{
		"rt": 868,
		"stimulus": "<span style=\"font-size:30px; font-family: monospace\">e</span>",
		"response": " ",
		"trial": "exp-sent",
		"word": "e",
		"trial_type": "html-keyboard-response",
		"trial_index": 167,
		"time_elapsed": 894290,
		"internal_node_id": "0.0-3.0-1.127"
	},
	{
		"rt": 1545,
		"stimulus": "<span style=\"font-size:30px; font-family: monospace\">muita</span>",
		"response": " ",
		"trial": "exp-sent",
		"word": "muita",
		"trial_type": "html-keyboard-response",
		"trial_index": 168,
		"time_elapsed": 896087,
		"internal_node_id": "0.0-3.0-1.128"
	},
	{
		"rt": 1370,
		"stimulus": "<span style=\"font-size:30px; font-family: monospace\">luta.</span>",
		"response": " ",
		"trial": "exp-sent",
		"word": "luta.",
		"trial_type": "html-keyboard-response",
		"trial_index": 169,
		"time_elapsed": 897711,
		"internal_node_id": "0.0-3.0-1.129"
	},
	{
		"rt": null,
		"stimulus": "<span style= \"font-size:30px; font-family: monospace\">+</span>",
		"response": null,
		"trial_part": "fixation",
		"trial_type": "html-keyboard-response",
		"trial_index": 170,
		"time_elapsed": 898968,
		"internal_node_id": "0.0-3.0-0.130-0.130"
	},
	{
		"rt": 1272,
		"stimulus": "<span style=\"font-size:30px; font-family: monospace\">A</span>",
		"response": " ",
		"trial": "exp-sent",
		"word": "A",
		"trial_type": "html-keyboard-response",
		"trial_index": 171,
		"time_elapsed": 900493,
		"internal_node_id": "0.0-3.0-1.130"
	},
	{
		"rt": 5474,
		"stimulus": "<span style=\"font-size:30px; font-family: monospace\">bisavó</span>",
		"response": " ",
		"trial": "exp-sent",
		"word": "bisavó",
		"trial_type": "html-keyboard-response",
		"trial_index": 172,
		"time_elapsed": 906222,
		"internal_node_id": "0.0-3.0-1.131"
	},
	{
		"rt": 2180,
		"stimulus": "<span style=\"font-size:30px; font-family: monospace\">recebeu</span>",
		"response": " ",
		"trial": "exp-sent",
		"word": "recebeu",
		"trial_type": "html-keyboard-response",
		"trial_index": 173,
		"time_elapsed": 908657,
		"internal_node_id": "0.0-3.0-1.132"
	},
	{
		"rt": 1092,
		"stimulus": "<span style=\"font-size:30px; font-family: monospace\">um</span>",
		"response": " ",
		"trial": "exp-sent",
		"word": "um",
		"trial_type": "html-keyboard-response",
		"trial_index": 174,
		"time_elapsed": 910002,
		"internal_node_id": "0.0-3.0-1.133"
	},
	{
		"rt": 3421,
		"stimulus": "<span style=\"font-size:30px; font-family: monospace\">benefício</span>",
		"response": " ",
		"trial": "exp-sent",
		"word": "benefício",
		"trial_type": "html-keyboard-response",
		"trial_index": 175,
		"time_elapsed": 913678,
		"internal_node_id": "0.0-3.0-1.134"
	},
	{
		"rt": 5469,
		"stimulus": "<span style=\"font-size:30px; font-family: monospace\">temporário</span>",
		"response": " ",
		"trial": "exp-sent",
		"word": "temporário",
		"trial_type": "html-keyboard-response",
		"trial_index": 176,
		"time_elapsed": 919400,
		"internal_node_id": "0.0-3.0-1.135"
	},
	{
		"rt": 1066,
		"stimulus": "<span style=\"font-size:30px; font-family: monospace\">do</span>",
		"response": " ",
		"trial": "exp-sent",
		"word": "do",
		"trial_type": "html-keyboard-response",
		"trial_index": 177,
		"time_elapsed": 920721,
		"internal_node_id": "0.0-3.0-1.136"
	},
	{
		"rt": 2075,
		"stimulus": "<span style=\"font-size:30px; font-family: monospace\">governo.</span>",
		"response": " ",
		"trial": "exp-sent",
		"word": "governo.",
		"trial_type": "html-keyboard-response",
		"trial_index": 178,
		"time_elapsed": 923047,
		"internal_node_id": "0.0-3.0-1.137"
	},
	{
		"rt": null,
		"stimulus": "<span style= \"font-size:30px; font-family: monospace\">+</span>",
		"response": null,
		"trial_part": "fixation",
		"trial_type": "html-keyboard-response",
		"trial_index": 179,
		"time_elapsed": 924305,
		"internal_node_id": "0.0-3.0-0.138-0.138"
	},
	{
		"rt": 1791,
		"stimulus": "<span style=\"font-size:30px; font-family: monospace\">As</span>",
		"response": " ",
		"trial": "exp-sent",
		"word": "As",
		"trial_type": "html-keyboard-response",
		"trial_index": 180,
		"time_elapsed": 926352,
		"internal_node_id": "0.0-3.0-1.138"
	},
	{
		"rt": 1872,
		"stimulus": "<span style=\"font-size:30px; font-family: monospace\">crianças</span>",
		"response": " ",
		"trial": "exp-sent",
		"word": "crianças",
		"trial_type": "html-keyboard-response",
		"trial_index": 181,
		"time_elapsed": 928476,
		"internal_node_id": "0.0-3.0-1.139"
	},
	{
		"rt": 5823,
		"stimulus": "<span style=\"font-size:30px; font-family: monospace\">brincaram</span>",
		"response": " ",
		"trial": "exp-sent",
		"word": "brincaram",
		"trial_type": "html-keyboard-response",
		"trial_index": 182,
		"time_elapsed": 934551,
		"internal_node_id": "0.0-3.0-1.140"
	},
	{
		"rt": 2633,
		"stimulus": "<span style=\"font-size:30px; font-family: monospace\">no</span>",
		"response": " ",
		"trial": "exp-sent",
		"word": "no",
		"trial_type": "html-keyboard-response",
		"trial_index": 183,
		"time_elapsed": 937438,
		"internal_node_id": "0.0-3.0-1.141"
	},
	{
		"rt": 3464,
		"stimulus": "<span style=\"font-size:30px; font-family: monospace\">balanço</span>",
		"response": " ",
		"trial": "exp-sent",
		"word": "balanço",
		"trial_type": "html-keyboard-response",
		"trial_index": 184,
		"time_elapsed": 941155,
		"internal_node_id": "0.0-3.0-1.142"
	},
	{
		"rt": 1333,
		"stimulus": "<span style=\"font-size:30px; font-family: monospace\">a</span>",
		"response": " ",
		"trial": "exp-sent",
		"word": "a",
		"trial_type": "html-keyboard-response",
		"trial_index": 185,
		"time_elapsed": 942739,
		"internal_node_id": "0.0-3.0-1.143"
	},
	{
		"rt": 1706,
		"stimulus": "<span style=\"font-size:30px; font-family: monospace\">tarde</span>",
		"response": " ",
		"trial": "exp-sent",
		"word": "tarde",
		"trial_type": "html-keyboard-response",
		"trial_index": 186,
		"time_elapsed": 944698,
		"internal_node_id": "0.0-3.0-1.144"
	},
	{
		"rt": 1698,
		"stimulus": "<span style=\"font-size:30px; font-family: monospace\">toda.</span>",
		"response": " ",
		"trial": "exp-sent",
		"word": "toda.",
		"trial_type": "html-keyboard-response",
		"trial_index": 187,
		"time_elapsed": 946652,
		"internal_node_id": "0.0-3.0-1.145"
	},
	{
		"rt": null,
		"stimulus": "<span style= \"font-size:30px; font-family: monospace\">+</span>",
		"response": null,
		"trial_part": "fixation",
		"trial_type": "html-keyboard-response",
		"trial_index": 188,
		"time_elapsed": 947908,
		"internal_node_id": "0.0-3.0-0.146-0.146"
	},
	{
		"rt": 8211,
		"stimulus": "<span style=\"font-size:30px; font-family: monospace\">Ela</span>",
		"response": " ",
		"trial": "exp-sent",
		"word": "Ela",
		"trial_type": "html-keyboard-response",
		"trial_index": 189,
		"time_elapsed": 956375,
		"internal_node_id": "0.0-3.0-1.146"
	},
	{
		"rt": 1473,
		"stimulus": "<span style=\"font-size:30px; font-family: monospace\">gosta</span>",
		"response": " ",
		"trial": "exp-sent",
		"word": "gosta",
		"trial_type": "html-keyboard-response",
		"trial_index": 190,
		"time_elapsed": 958100,
		"internal_node_id": "0.0-3.0-1.147"
	},
	{
		"rt": 923,
		"stimulus": "<span style=\"font-size:30px; font-family: monospace\">de</span>",
		"response": " ",
		"trial": "exp-sent",
		"word": "de",
		"trial_type": "html-keyboard-response",
		"trial_index": 191,
		"time_elapsed": 959274,
		"internal_node_id": "0.0-3.0-1.148"
	},
	{
		"rt": 3399,
		"stimulus": "<span style=\"font-size:30px; font-family: monospace\">comida</span>",
		"response": " ",
		"trial": "exp-sent",
		"word": "comida",
		"trial_type": "html-keyboard-response",
		"trial_index": 192,
		"time_elapsed": 962929,
		"internal_node_id": "0.0-3.0-1.149"
	},
	{
		"rt": 9773,
		"stimulus": "<span style=\"font-size:30px; font-family: monospace\">natural</span>",
		"response": " ",
		"trial": "exp-sent",
		"word": "natural",
		"trial_type": "html-keyboard-response",
		"trial_index": 193,
		"time_elapsed": 972955,
		"internal_node_id": "0.0-3.0-1.150"
	},
	{
		"rt": 1412,
		"stimulus": "<span style=\"font-size:30px; font-family: monospace\">no</span>",
		"response": " ",
		"trial": "exp-sent",
		"word": "no",
		"trial_type": "html-keyboard-response",
		"trial_index": 194,
		"time_elapsed": 974619,
		"internal_node_id": "0.0-3.0-1.151"
	},
	{
		"rt": 1622,
		"stimulus": "<span style=\"font-size:30px; font-family: monospace\">almoço.</span>",
		"response": " ",
		"trial": "comp",
		"word": "almoço.",
		"trial_type": "html-keyboard-response",
		"trial_index": 195,
		"time_elapsed": 976495,
		"internal_node_id": "0.0-3.0-1.152"
	},
	{
		"rt": 9433,
		"stimulus": "<span style=\"font-size:30px; font-family: monospace\">Ela gosta de comida natural no almoço?</span>",
		"response": "s",
		"question": "Ela gosta de comida natural no almoço?",
		"answer": "sim",
		"trial": "comp",
		"trial_type": "html-keyboard-response",
		"trial_index": 196,
		"time_elapsed": 986181,
		"internal_node_id": "0.0-3.0-2.152-0.152",
		"accuracy": false
	},
	{
		"rt": null,
		"stimulus": "<span style= \"font-size:30px; font-family: monospace\">+</span>",
		"response": null,
		"trial_part": "fixation",
		"trial_type": "html-keyboard-response",
		"trial_index": 197,
		"time_elapsed": 987690,
		"internal_node_id": "0.0-3.0-0.153-0.153"
	},
	{
		"rt": 4795,
		"stimulus": "<span style=\"font-size:30px; font-family: monospace\">As</span>",
		"response": " ",
		"trial": "exp-sent",
		"word": "As",
		"trial_type": "html-keyboard-response",
		"trial_index": 198,
		"time_elapsed": 992741,
		"internal_node_id": "0.0-3.0-1.153"
	},
	{
		"rt": 2337,
		"stimulus": "<span style=\"font-size:30px; font-family: monospace\">crianças</span>",
		"response": " ",
		"trial": "exp-sent",
		"word": "crianças",
		"trial_type": "html-keyboard-response",
		"trial_index": 199,
		"time_elapsed": 995333,
		"internal_node_id": "0.0-3.0-1.154"
	},
	{
		"rt": 2468,
		"stimulus": "<span style=\"font-size:30px; font-family: monospace\">viram</span>",
		"response": " ",
		"trial": "exp-sent",
		"word": "viram",
		"trial_type": "html-keyboard-response",
		"trial_index": 200,
		"time_elapsed": 998053,
		"internal_node_id": "0.0-3.0-1.155"
	},
	{
		"rt": 1091,
		"stimulus": "<span style=\"font-size:30px; font-family: monospace\">um</span>",
		"response": " ",
		"trial": "exp-sent",
		"word": "um",
		"trial_type": "html-keyboard-response",
		"trial_index": 201,
		"time_elapsed": 999399,
		"internal_node_id": "0.0-3.0-1.156"
	},
	{
		"rt": 8795,
		"stimulus": "<span style=\"font-size:30px; font-family: monospace\">vaga-lume</span>",
		"response": " ",
		"trial": "exp-sent",
		"word": "vaga-lume",
		"trial_type": "html-keyboard-response",
		"trial_index": 202,
		"time_elapsed": 1008446,
		"internal_node_id": "0.0-3.0-1.157"
	},
	{
		"rt": 1204,
		"stimulus": "<span style=\"font-size:30px; font-family: monospace\">nos</span>",
		"response": " ",
		"trial": "exp-sent",
		"word": "nos",
		"trial_type": "html-keyboard-response",
		"trial_index": 203,
		"time_elapsed": 1009903,
		"internal_node_id": "0.0-3.0-1.158"
	},
	{
		"rt": 5742,
		"stimulus": "<span style=\"font-size:30px; font-family: monospace\">arbustos.</span>",
		"response": " ",
		"trial": "exp-sent",
		"word": "arbustos.",
		"trial_type": "html-keyboard-response",
		"trial_index": 204,
		"time_elapsed": 1015898,
		"internal_node_id": "0.0-3.0-1.159"
	},
	{
		"rt": null,
		"stimulus": "<span style= \"font-size:30px; font-family: monospace\">+</span>",
		"response": null,
		"trial_part": "fixation",
		"trial_type": "html-keyboard-response",
		"trial_index": 205,
		"time_elapsed": 1017157,
		"internal_node_id": "0.0-3.0-0.160-0.160"
	},
	{
		"rt": 4815,
		"stimulus": "<span style=\"font-size:30px; font-family: monospace\">Ontem</span>",
		"response": " ",
		"trial": "exp-sent",
		"word": "Ontem",
		"trial_type": "html-keyboard-response",
		"trial_index": 206,
		"time_elapsed": 1022227,
		"internal_node_id": "0.0-3.0-1.160"
	},
	{
		"rt": 1732,
		"stimulus": "<span style=\"font-size:30px; font-family: monospace\">o</span>",
		"response": " ",
		"trial": "exp-sent",
		"word": "o",
		"trial_type": "html-keyboard-response",
		"trial_index": 207,
		"time_elapsed": 1024212,
		"internal_node_id": "0.0-3.0-1.161"
	},
	{
		"rt": 3789,
		"stimulus": "<span style=\"font-size:30px; font-family: monospace\">funcionário</span>",
		"response": " ",
		"trial": "exp-sent",
		"word": "funcionário",
		"trial_type": "html-keyboard-response",
		"trial_index": 208,
		"time_elapsed": 1028255,
		"internal_node_id": "0.0-3.0-1.162"
	},
	{
		"rt": 4776,
		"stimulus": "<span style=\"font-size:30px; font-family: monospace\">pediu</span>",
		"response": " ",
		"trial": "exp-sent",
		"word": "pediu",
		"trial_type": "html-keyboard-response",
		"trial_index": 209,
		"time_elapsed": 1033283,
		"internal_node_id": "0.0-3.0-1.163"
	},
	{
		"rt": 9186,
		"stimulus": "<span style=\"font-size:30px; font-family: monospace\">autorização</span>",
		"response": " ",
		"trial": "exp-sent",
		"word": "autorização",
		"trial_type": "html-keyboard-response",
		"trial_index": 210,
		"time_elapsed": 1042720,
		"internal_node_id": "0.0-3.0-1.164"
	},
	{
		"rt": 1319,
		"stimulus": "<span style=\"font-size:30px; font-family: monospace\">para</span>",
		"response": " ",
		"trial": "exp-sent",
		"word": "para",
		"trial_type": "html-keyboard-response",
		"trial_index": 211,
		"time_elapsed": 1044291,
		"internal_node_id": "0.0-3.0-1.165"
	},
	{
		"rt": 1676,
		"stimulus": "<span style=\"font-size:30px; font-family: monospace\">a</span>",
		"response": " ",
		"trial": "exp-sent",
		"word": "a",
		"trial_type": "html-keyboard-response",
		"trial_index": 212,
		"time_elapsed": 1046222,
		"internal_node_id": "0.0-3.0-1.166"
	},
	{
		"rt": 3482,
		"stimulus": "<span style=\"font-size:30px; font-family: monospace\">colega.</span>",
		"response": " ",
		"trial": "exp-sent",
		"word": "colega.",
		"trial_type": "html-keyboard-response",
		"trial_index": 213,
		"time_elapsed": 1049955,
		"internal_node_id": "0.0-3.0-1.167"
	},
	{
		"rt": null,
		"stimulus": "<span style= \"font-size:30px; font-family: monospace\">+</span>",
		"response": null,
		"trial_part": "fixation",
		"trial_type": "html-keyboard-response",
		"trial_index": 214,
		"time_elapsed": 1051209,
		"internal_node_id": "0.0-3.0-0.168-0.168"
	},
	{
		"rt": 1616,
		"stimulus": "<span style=\"font-size:30px; font-family: monospace\">Eu</span>",
		"response": " ",
		"trial": "exp-sent",
		"word": "Eu",
		"trial_type": "html-keyboard-response",
		"trial_index": 215,
		"time_elapsed": 1053081,
		"internal_node_id": "0.0-3.0-1.168"
	},
	{
		"rt": 1922,
		"stimulus": "<span style=\"font-size:30px; font-family: monospace\">sempre</span>",
		"response": " ",
		"trial": "exp-sent",
		"word": "sempre",
		"trial_type": "html-keyboard-response",
		"trial_index": 216,
		"time_elapsed": 1055257,
		"internal_node_id": "0.0-3.0-1.169"
	},
	{
		"rt": 2528,
		"stimulus": "<span style=\"font-size:30px; font-family: monospace\">fujo</span>",
		"response": " ",
		"trial": "exp-sent",
		"word": "fujo",
		"trial_type": "html-keyboard-response",
		"trial_index": 217,
		"time_elapsed": 1058039,
		"internal_node_id": "0.0-3.0-1.170"
	},
	{
		"rt": 606,
		"stimulus": "<span style=\"font-size:30px; font-family: monospace\">de</span>",
		"response": " ",
		"trial": "exp-sent",
		"word": "de",
		"trial_type": "html-keyboard-response",
		"trial_index": 218,
		"time_elapsed": 1058898,
		"internal_node_id": "0.0-3.0-1.171"
	},
	{
		"rt": 5964,
		"stimulus": "<span style=\"font-size:30px; font-family: monospace\">conflito</span>",
		"response": " ",
		"trial": "exp-sent",
		"word": "conflito",
		"trial_type": "html-keyboard-response",
		"trial_index": 219,
		"time_elapsed": 1065115,
		"internal_node_id": "0.0-3.0-1.172"
	},
	{
		"rt": 1014,
		"stimulus": "<span style=\"font-size:30px; font-family: monospace\">com</span>",
		"response": " ",
		"trial": "exp-sent",
		"word": "com",
		"trial_type": "html-keyboard-response",
		"trial_index": 220,
		"time_elapsed": 1066382,
		"internal_node_id": "0.0-3.0-1.173"
	},
	{
		"rt": 627,
		"stimulus": "<span style=\"font-size:30px; font-family: monospace\">as</span>",
		"response": " ",
		"trial": "exp-sent",
		"word": "as",
		"trial_type": "html-keyboard-response",
		"trial_index": 221,
		"time_elapsed": 1067261,
		"internal_node_id": "0.0-3.0-1.174"
	},
	{
		"rt": 1761,
		"stimulus": "<span style=\"font-size:30px; font-family: monospace\">pessoas.</span>",
		"response": " ",
		"trial": "exp-sent",
		"word": "pessoas.",
		"trial_type": "html-keyboard-response",
		"trial_index": 222,
		"time_elapsed": 1069277,
		"internal_node_id": "0.0-3.0-1.175"
	},
	{
		"rt": null,
		"stimulus": "<span style= \"font-size:30px; font-family: monospace\">+</span>",
		"response": null,
		"trial_part": "fixation",
		"trial_type": "html-keyboard-response",
		"trial_index": 223,
		"time_elapsed": 1070534,
		"internal_node_id": "0.0-3.0-0.176-0.176"
	},
	{
		"rt": 677,
		"stimulus": "<span style=\"font-size:30px; font-family: monospace\">O</span>",
		"response": " ",
		"trial": "exp-sent",
		"word": "O",
		"trial_type": "html-keyboard-response",
		"trial_index": 224,
		"time_elapsed": 1071467,
		"internal_node_id": "0.0-3.0-1.176"
	},
	{
		"rt": 1873,
		"stimulus": "<span style=\"font-size:30px; font-family: monospace\">bolo</span>",
		"response": " ",
		"trial": "exp-sent",
		"word": "bolo",
		"trial_type": "html-keyboard-response",
		"trial_index": 225,
		"time_elapsed": 1073592,
		"internal_node_id": "0.0-3.0-1.177"
	},
	{
		"rt": 1864,
		"stimulus": "<span style=\"font-size:30px; font-family: monospace\">era</span>",
		"response": " ",
		"trial": "exp-sent",
		"word": "era",
		"trial_type": "html-keyboard-response",
		"trial_index": 226,
		"time_elapsed": 1075708,
		"internal_node_id": "0.0-3.0-1.178"
	},
	{
		"rt": 1207,
		"stimulus": "<span style=\"font-size:30px; font-family: monospace\">de</span>",
		"response": " ",
		"trial": "exp-sent",
		"word": "de",
		"trial_type": "html-keyboard-response",
		"trial_index": 227,
		"time_elapsed": 1077169,
		"internal_node_id": "0.0-3.0-1.179"
	},
	{
		"rt": 8299,
		"stimulus": "<span style=\"font-size:30px; font-family: monospace\">abacaxi</span>",
		"response": " ",
		"trial": "exp-sent",
		"word": "abacaxi",
		"trial_type": "html-keyboard-response",
		"trial_index": 228,
		"time_elapsed": 1085724,
		"internal_node_id": "0.0-3.0-1.180"
	},
	{
		"rt": 967,
		"stimulus": "<span style=\"font-size:30px; font-family: monospace\">e</span>",
		"response": " ",
		"trial": "exp-sent",
		"word": "e",
		"trial_type": "html-keyboard-response",
		"trial_index": 229,
		"time_elapsed": 1086943,
		"internal_node_id": "0.0-3.0-1.181"
	},
	{
		"rt": 1959,
		"stimulus": "<span style=\"font-size:30px; font-family: monospace\">creme</span>",
		"response": " ",
		"trial": "exp-sent",
		"word": "creme",
		"trial_type": "html-keyboard-response",
		"trial_index": 230,
		"time_elapsed": 1089154,
		"internal_node_id": "0.0-3.0-1.182"
	},
	{
		"rt": 994,
		"stimulus": "<span style=\"font-size:30px; font-family: monospace\">de</span>",
		"response": " ",
		"trial": "exp-sent",
		"word": "de",
		"trial_type": "html-keyboard-response",
		"trial_index": 231,
		"time_elapsed": 1090401,
		"internal_node_id": "0.0-3.0-1.183"
	},
	{
		"rt": 2175,
		"stimulus": "<span style=\"font-size:30px; font-family: monospace\">coco.</span>",
		"response": " ",
		"trial": "exp-sent",
		"word": "coco.",
		"trial_type": "html-keyboard-response",
		"trial_index": 232,
		"time_elapsed": 1092832,
		"internal_node_id": "0.0-3.0-1.184"
	},
	{
		"rt": null,
		"stimulus": "<span style= \"font-size:30px; font-family: monospace\">+</span>",
		"response": null,
		"trial_part": "fixation",
		"trial_type": "html-keyboard-response",
		"trial_index": 233,
		"time_elapsed": 1094091,
		"internal_node_id": "0.0-3.0-0.185-0.185"
	},
	{
		"rt": 998,
		"stimulus": "<span style=\"font-size:30px; font-family: monospace\">As</span>",
		"response": " ",
		"trial": "exp-sent",
		"word": "As",
		"trial_type": "html-keyboard-response",
		"trial_index": 234,
		"time_elapsed": 1095345,
		"internal_node_id": "0.0-3.0-1.185"
	},
	{
		"rt": 1892,
		"stimulus": "<span style=\"font-size:30px; font-family: monospace\">crianças</span>",
		"response": " ",
		"trial": "exp-sent",
		"word": "crianças",
		"trial_type": "html-keyboard-response",
		"trial_index": 235,
		"time_elapsed": 1097494,
		"internal_node_id": "0.0-3.0-1.186"
	},
	{
		"rt": 4796,
		"stimulus": "<span style=\"font-size:30px; font-family: monospace\">brincaram</span>",
		"response": " ",
		"trial": "exp-sent",
		"word": "brincaram",
		"trial_type": "html-keyboard-response",
		"trial_index": 236,
		"time_elapsed": 1102545,
		"internal_node_id": "0.0-3.0-1.187"
	},
	{
		"rt": 1817,
		"stimulus": "<span style=\"font-size:30px; font-family: monospace\">com</span>",
		"response": " ",
		"trial": "exp-sent",
		"word": "com",
		"trial_type": "html-keyboard-response",
		"trial_index": 237,
		"time_elapsed": 1104616,
		"internal_node_id": "0.0-3.0-1.188"
	},
	{
		"rt": 9126,
		"stimulus": "<span style=\"font-size:30px; font-family: monospace\">bolhas</span>",
		"response": " ",
		"trial": "exp-sent",
		"word": "bolhas",
		"trial_type": "html-keyboard-response",
		"trial_index": 238,
		"time_elapsed": 1113998,
		"internal_node_id": "0.0-3.0-1.189"
	},
	{
		"rt": 2053,
		"stimulus": "<span style=\"font-size:30px; font-family: monospace\">no</span>",
		"response": " ",
		"trial": "exp-sent",
		"word": "no",
		"trial_type": "html-keyboard-response",
		"trial_index": 239,
		"time_elapsed": 1116306,
		"internal_node_id": "0.0-3.0-1.190"
	},
	{
		"rt": 4394,
		"stimulus": "<span style=\"font-size:30px; font-family: monospace\">banho.</span>",
		"response": " ",
		"trial": "comp",
		"word": "banho.",
		"trial_type": "html-keyboard-response",
		"trial_index": 240,
		"time_elapsed": 1120951,
		"internal_node_id": "0.0-3.0-1.191"
	},
	{
		"rt": 7131,
		"stimulus": "<span style=\"font-size:30px; font-family: monospace\">As crianças brincaram com bolhas?</span>",
		"response": "s",
		"question": "As crianças brincaram com bolhas?",
		"answer": "sim",
		"trial": "comp",
		"trial_type": "html-keyboard-response",
		"trial_index": 241,
		"time_elapsed": 1128339,
		"internal_node_id": "0.0-3.0-2.191-0.191",
		"accuracy": false
	},
	{
		"rt": null,
		"stimulus": "<span style= \"font-size:30px; font-family: monospace\">+</span>",
		"response": null,
		"trial_part": "fixation",
		"trial_type": "html-keyboard-response",
		"trial_index": 242,
		"time_elapsed": 1129845,
		"internal_node_id": "0.0-3.0-0.192-0.192"
	},
	{
		"rt": 3640,
		"stimulus": "<span style=\"font-size:30px; font-family: monospace\">Ele</span>",
		"response": " ",
		"trial": "exp-sent",
		"word": "Ele",
		"trial_type": "html-keyboard-response",
		"trial_index": 243,
		"time_elapsed": 1133741,
		"internal_node_id": "0.0-3.0-1.192"
	},
	{
		"rt": 2913,
		"stimulus": "<span style=\"font-size:30px; font-family: monospace\">é</span>",
		"response": " ",
		"trial": "exp-sent",
		"word": "é",
		"trial_type": "html-keyboard-response",
		"trial_index": 244,
		"time_elapsed": 1136909,
		"internal_node_id": "0.0-3.0-1.193"
	},
	{
		"rt": 1058,
		"stimulus": "<span style=\"font-size:30px; font-family: monospace\">um</span>",
		"response": " ",
		"trial": "exp-sent",
		"word": "um",
		"trial_type": "html-keyboard-response",
		"trial_index": 245,
		"time_elapsed": 1138223,
		"internal_node_id": "0.0-3.0-1.194"
	},
	{
		"rt": 2135,
		"stimulus": "<span style=\"font-size:30px; font-family: monospace\">pai</span>",
		"response": " ",
		"trial": "exp-sent",
		"word": "pai",
		"trial_type": "html-keyboard-response",
		"trial_index": 246,
		"time_elapsed": 1140613,
		"internal_node_id": "0.0-3.0-1.195"
	},
	{
		"rt": 4161,
		"stimulus": "<span style=\"font-size:30px; font-family: monospace\">ausente</span>",
		"response": " ",
		"trial": "exp-sent",
		"word": "ausente",
		"trial_type": "html-keyboard-response",
		"trial_index": 247,
		"time_elapsed": 1145027,
		"internal_node_id": "0.0-3.0-1.196"
	},
	{
		"rt": 3595,
		"stimulus": "<span style=\"font-size:30px; font-family: monospace\">e</span>",
		"response": " ",
		"trial": "exp-sent",
		"word": "e",
		"trial_type": "html-keyboard-response",
		"trial_index": 248,
		"time_elapsed": 1148876,
		"internal_node_id": "0.0-3.0-1.197"
	},
	{
		"rt": 1319,
		"stimulus": "<span style=\"font-size:30px; font-family: monospace\">muito</span>",
		"response": " ",
		"trial": "exp-sent",
		"word": "muito",
		"trial_type": "html-keyboard-response",
		"trial_index": 249,
		"time_elapsed": 1150449,
		"internal_node_id": "0.0-3.0-1.198"
	},
	{
		"rt": 12303,
		"stimulus": "<span style=\"font-size:30px; font-family: monospace\">fofoqueiro.</span>",
		"response": " ",
		"trial": "exp-sent",
		"word": "fofoqueiro.",
		"trial_type": "html-keyboard-response",
		"trial_index": 250,
		"time_elapsed": 1163006,
		"internal_node_id": "0.0-3.0-1.199"
	},
	{
		"rt": null,
		"stimulus": "<span style= \"font-size:30px; font-family: monospace\">+</span>",
		"response": null,
		"trial_part": "fixation",
		"trial_type": "html-keyboard-response",
		"trial_index": 251,
		"time_elapsed": 1164263,
		"internal_node_id": "0.0-3.0-0.200-0.200"
	},
	{
		"rt": 2352,
		"stimulus": "<span style=\"font-size:30px; font-family: monospace\">O</span>",
		"response": " ",
		"trial": "exp-sent",
		"word": "O",
		"trial_type": "html-keyboard-response",
		"trial_index": 252,
		"time_elapsed": 1166871,
		"internal_node_id": "0.0-3.0-1.200"
	},
	{
		"rt": 8046,
		"stimulus": "<span style=\"font-size:30px; font-family: monospace\">filho</span>",
		"response": " ",
		"trial": "exp-sent",
		"word": "filho",
		"trial_type": "html-keyboard-response",
		"trial_index": 253,
		"time_elapsed": 1175172,
		"internal_node_id": "0.0-3.0-1.201"
	},
	{
		"rt": 1849,
		"stimulus": "<span style=\"font-size:30px; font-family: monospace\">lavou</span>",
		"response": " ",
		"trial": "exp-sent",
		"word": "lavou",
		"trial_type": "html-keyboard-response",
		"trial_index": 254,
		"time_elapsed": 1177275,
		"internal_node_id": "0.0-3.0-1.202"
	},
	{
		"rt": 688,
		"stimulus": "<span style=\"font-size:30px; font-family: monospace\">a</span>",
		"response": " ",
		"trial": "exp-sent",
		"word": "a",
		"trial_type": "html-keyboard-response",
		"trial_index": 255,
		"time_elapsed": 1178216,
		"internal_node_id": "0.0-3.0-1.203"
	},
	{
		"rt": 1568,
		"stimulus": "<span style=\"font-size:30px; font-family: monospace\">roupa</span>",
		"response": " ",
		"trial": "exp-sent",
		"word": "roupa",
		"trial_type": "html-keyboard-response",
		"trial_index": 256,
		"time_elapsed": 1180037,
		"internal_node_id": "0.0-3.0-1.204"
	},
	{
		"rt": 4856,
		"stimulus": "<span style=\"font-size:30px; font-family: monospace\">sem</span>",
		"response": " ",
		"trial": "exp-sent",
		"word": "sem",
		"trial_type": "html-keyboard-response",
		"trial_index": 257,
		"time_elapsed": 1185144,
		"internal_node_id": "0.0-3.0-1.205"
	},
	{
		"rt": 2513,
		"stimulus": "<span style=\"font-size:30px; font-family: monospace\">nenhuma</span>",
		"response": " ",
		"trial": "exp-sent",
		"word": "nenhuma",
		"trial_type": "html-keyboard-response",
		"trial_index": 258,
		"time_elapsed": 1187910,
		"internal_node_id": "0.0-3.0-1.206"
	},
	{
		"rt": 5917,
		"stimulus": "<span style=\"font-size:30px; font-family: monospace\">ajuda.</span>",
		"response": " ",
		"trial": "exp-sent",
		"word": "ajuda.",
		"trial_type": "html-keyboard-response",
		"trial_index": 259,
		"time_elapsed": 1194081,
		"internal_node_id": "0.0-3.0-1.207"
	},
	{
		"rt": null,
		"stimulus": "<span style= \"font-size:30px; font-family: monospace\">+</span>",
		"response": null,
		"trial_part": "fixation",
		"trial_type": "html-keyboard-response",
		"trial_index": 260,
		"time_elapsed": 1195338,
		"internal_node_id": "0.0-3.0-0.208-0.208"
	},
	{
		"rt": 1970,
		"stimulus": "<span style=\"font-size:30px; font-family: monospace\">O</span>",
		"response": " ",
		"trial": "exp-sent",
		"word": "O",
		"trial_type": "html-keyboard-response",
		"trial_index": 261,
		"time_elapsed": 1197564,
		"internal_node_id": "0.0-3.0-1.208"
	},
	{
		"rt": 2596,
		"stimulus": "<span style=\"font-size:30px; font-family: monospace\">menino</span>",
		"response": " ",
		"trial": "exp-sent",
		"word": "menino",
		"trial_type": "html-keyboard-response",
		"trial_index": 262,
		"time_elapsed": 1200415,
		"internal_node_id": "0.0-3.0-1.209"
	},
	{
		"rt": 4869,
		"stimulus": "<span style=\"font-size:30px; font-family: monospace\">quebrou</span>",
		"response": " ",
		"trial": "exp-sent",
		"word": "quebrou",
		"trial_type": "html-keyboard-response",
		"trial_index": 263,
		"time_elapsed": 1205536,
		"internal_node_id": "0.0-3.0-1.210"
	},
	{
		"rt": 1387,
		"stimulus": "<span style=\"font-size:30px; font-family: monospace\">a</span>",
		"response": " ",
		"trial": "exp-sent",
		"word": "a",
		"trial_type": "html-keyboard-response",
		"trial_index": 264,
		"time_elapsed": 1207174,
		"internal_node_id": "0.0-3.0-1.211"
	},
	{
		"rt": 9337,
		"stimulus": "<span style=\"font-size:30px; font-family: monospace\">perna</span>",
		"response": " ",
		"trial": "exp-sent",
		"word": "perna",
		"trial_type": "html-keyboard-response",
		"trial_index": 265,
		"time_elapsed": 1216766,
		"internal_node_id": "0.0-3.0-1.212"
	},
	{
		"rt": 1170,
		"stimulus": "<span style=\"font-size:30px; font-family: monospace\">nos</span>",
		"response": " ",
		"trial": "exp-sent",
		"word": "nos",
		"trial_type": "html-keyboard-response",
		"trial_index": 266,
		"time_elapsed": 1218190,
		"internal_node_id": "0.0-3.0-1.213"
	},
	{
		"rt": 3375,
		"stimulus": "<span style=\"font-size:30px; font-family: monospace\">esportes.</span>",
		"response": " ",
		"trial": "exp-sent",
		"word": "esportes.",
		"trial_type": "html-keyboard-response",
		"trial_index": 267,
		"time_elapsed": 1221818,
		"internal_node_id": "0.0-3.0-1.214"
	},
	{
		"rt": null,
		"stimulus": "<span style= \"font-size:30px; font-family: monospace\">+</span>",
		"response": null,
		"trial_part": "fixation",
		"trial_type": "html-keyboard-response",
		"trial_index": 268,
		"time_elapsed": 1223075,
		"internal_node_id": "0.0-3.0-0.215-0.215"
	},
	{
		"rt": 2761,
		"stimulus": "<span style=\"font-size:30px; font-family: monospace\">Ela</span>",
		"response": " ",
		"trial": "exp-sent",
		"word": "Ela",
		"trial_type": "html-keyboard-response",
		"trial_index": 269,
		"time_elapsed": 1226090,
		"internal_node_id": "0.0-3.0-1.215"
	},
	{
		"rt": 3782,
		"stimulus": "<span style=\"font-size:30px; font-family: monospace\">brincou</span>",
		"response": " ",
		"trial": "exp-sent",
		"word": "brincou",
		"trial_type": "html-keyboard-response",
		"trial_index": 270,
		"time_elapsed": 1230125,
		"internal_node_id": "0.0-3.0-1.216"
	},
	{
		"rt": 1129,
		"stimulus": "<span style=\"font-size:30px; font-family: monospace\">com</span>",
		"response": " ",
		"trial": "exp-sent",
		"word": "com",
		"trial_type": "html-keyboard-response",
		"trial_index": 271,
		"time_elapsed": 1231506,
		"internal_node_id": "0.0-3.0-1.217"
	},
	{
		"rt": 1296,
		"stimulus": "<span style=\"font-size:30px; font-family: monospace\">uma</span>",
		"response": " ",
		"trial": "exp-sent",
		"word": "uma",
		"trial_type": "html-keyboard-response",
		"trial_index": 272,
		"time_elapsed": 1233055,
		"internal_node_id": "0.0-3.0-1.218"
	},
	{
		"rt": 5595,
		"stimulus": "<span style=\"font-size:30px; font-family: monospace\">menina</span>",
		"response": " ",
		"trial": "exp-sent",
		"word": "menina",
		"trial_type": "html-keyboard-response",
		"trial_index": 273,
		"time_elapsed": 1238905,
		"internal_node_id": "0.0-3.0-1.219"
	},
	{
		"rt": 2997,
		"stimulus": "<span style=\"font-size:30px; font-family: monospace\">da</span>",
		"response": " ",
		"trial": "exp-sent",
		"word": "da",
		"trial_type": "html-keyboard-response",
		"trial_index": 274,
		"time_elapsed": 1242153,
		"internal_node_id": "0.0-3.0-1.220"
	},
	{
		"rt": 2090,
		"stimulus": "<span style=\"font-size:30px; font-family: monospace\">turma.</span>",
		"response": " ",
		"trial": "exp-sent",
		"word": "turma.",
		"trial_type": "html-keyboard-response",
		"trial_index": 275,
		"time_elapsed": 1244496,
		"internal_node_id": "0.0-3.0-1.221"
	},
	{
		"rt": null,
		"stimulus": "<span style= \"font-size:30px; font-family: monospace\">+</span>",
		"response": null,
		"trial_part": "fixation",
		"trial_type": "html-keyboard-response",
		"trial_index": 276,
		"time_elapsed": 1245755,
		"internal_node_id": "0.0-3.0-0.222-0.222"
	},
	{
		"rt": 1760,
		"stimulus": "<span style=\"font-size:30px; font-family: monospace\">Ele</span>",
		"response": " ",
		"trial": "exp-sent",
		"word": "Ele",
		"trial_type": "html-keyboard-response",
		"trial_index": 277,
		"time_elapsed": 1247771,
		"internal_node_id": "0.0-3.0-1.222"
	},
	{
		"rt": 2746,
		"stimulus": "<span style=\"font-size:30px; font-family: monospace\">esteve</span>",
		"response": " ",
		"trial": "exp-sent",
		"word": "esteve",
		"trial_type": "html-keyboard-response",
		"trial_index": 278,
		"time_elapsed": 1250771,
		"internal_node_id": "0.0-3.0-1.223"
	},
	{
		"rt": 1168,
		"stimulus": "<span style=\"font-size:30px; font-family: monospace\">no</span>",
		"response": " ",
		"trial": "exp-sent",
		"word": "no",
		"trial_type": "html-keyboard-response",
		"trial_index": 279,
		"time_elapsed": 1252194,
		"internal_node_id": "0.0-3.0-1.224"
	},
	{
		"rt": 8552,
		"stimulus": "<span style=\"font-size:30px; font-family: monospace\">escritório</span>",
		"response": " ",
		"trial": "exp-sent",
		"word": "escritório",
		"trial_type": "html-keyboard-response",
		"trial_index": 280,
		"time_elapsed": 1261001,
		"internal_node_id": "0.0-3.0-1.225"
	},
	{
		"rt": 1506,
		"stimulus": "<span style=\"font-size:30px; font-family: monospace\">o</span>",
		"response": " ",
		"trial": "exp-sent",
		"word": "o",
		"trial_type": "html-keyboard-response",
		"trial_index": 281,
		"time_elapsed": 1262761,
		"internal_node_id": "0.0-3.0-1.226"
	},
	{
		"rt": 2097,
		"stimulus": "<span style=\"font-size:30px; font-family: monospace\">dia</span>",
		"response": " ",
		"trial": "exp-sent",
		"word": "dia",
		"trial_type": "html-keyboard-response",
		"trial_index": 282,
		"time_elapsed": 1265111,
		"internal_node_id": "0.0-3.0-1.227"
	},
	{
		"rt": 6655,
		"stimulus": "<span style=\"font-size:30px; font-family: monospace\">inteiro.</span>",
		"response": " ",
		"trial": "comp",
		"word": "inteiro.",
		"trial_type": "html-keyboard-response",
		"trial_index": 283,
		"time_elapsed": 1272020,
		"internal_node_id": "0.0-3.0-1.228"
	},
	{
		"rt": 49987,
		"stimulus": "<span style=\"font-size:30px; font-family: monospace\">Ele esteve no parque o dia inteiro?</span>",
		"response": "n",
		"question": "Ele esteve no parque o dia inteiro?",
		"answer": "não",
		"trial": "comp",
		"trial_type": "html-keyboard-response",
		"trial_index": 284,
		"time_elapsed": 1322260,
		"internal_node_id": "0.0-3.0-2.228-0.228",
		"accuracy": false
	},
	{
		"rt": null,
		"stimulus": "<span style= \"font-size:30px; font-family: monospace\">+</span>",
		"response": null,
		"trial_part": "fixation",
		"trial_type": "html-keyboard-response",
		"trial_index": 285,
		"time_elapsed": 1323769,
		"internal_node_id": "0.0-3.0-0.229-0.229"
	},
	{
		"rt": 7411,
		"stimulus": "<span style=\"font-size:30px; font-family: monospace\">Eu</span>",
		"response": " ",
		"trial": "exp-sent",
		"word": "Eu",
		"trial_type": "html-keyboard-response",
		"trial_index": 286,
		"time_elapsed": 1331436,
		"internal_node_id": "0.0-3.0-1.229"
	},
	{
		"rt": 2677,
		"stimulus": "<span style=\"font-size:30px; font-family: monospace\">gosto</span>",
		"response": " ",
		"trial": "exp-sent",
		"word": "gosto",
		"trial_type": "html-keyboard-response",
		"trial_index": 287,
		"time_elapsed": 1334365,
		"internal_node_id": "0.0-3.0-1.230"
	},
	{
		"rt": 992,
		"stimulus": "<span style=\"font-size:30px; font-family: monospace\">de</span>",
		"response": " ",
		"trial": "exp-sent",
		"word": "de",
		"trial_type": "html-keyboard-response",
		"trial_index": 288,
		"time_elapsed": 1335611,
		"internal_node_id": "0.0-3.0-1.231"
	},
	{
		"rt": 9332,
		"stimulus": "<span style=\"font-size:30px; font-family: monospace\">molho</span>",
		"response": " ",
		"trial": "exp-sent",
		"word": "molho",
		"trial_type": "html-keyboard-response",
		"trial_index": 289,
		"time_elapsed": 1345195,
		"internal_node_id": "0.0-3.0-1.232"
	},
	{
		"rt": 3604,
		"stimulus": "<span style=\"font-size:30px; font-family: monospace\">picante</span>",
		"response": " ",
		"trial": "exp-sent",
		"word": "picante",
		"trial_type": "html-keyboard-response",
		"trial_index": 290,
		"time_elapsed": 1349050,
		"internal_node_id": "0.0-3.0-1.233"
	},
	{
		"rt": 1471,
		"stimulus": "<span style=\"font-size:30px; font-family: monospace\">nas</span>",
		"response": " ",
		"trial": "exp-sent",
		"word": "nas",
		"trial_type": "html-keyboard-response",
		"trial_index": 291,
		"time_elapsed": 1350776,
		"internal_node_id": "0.0-3.0-1.234"
	},
	{
		"rt": 1764,
		"stimulus": "<span style=\"font-size:30px; font-family: monospace\">batatas.</span>",
		"response": " ",
		"trial": "exp-sent",
		"word": "batatas.",
		"trial_type": "html-keyboard-response",
		"trial_index": 292,
		"time_elapsed": 1352794,
		"internal_node_id": "0.0-3.0-1.235"
	},
	{
		"rt": null,
		"stimulus": "<span style= \"font-size:30px; font-family: monospace\">+</span>",
		"response": null,
		"trial_part": "fixation",
		"trial_type": "html-keyboard-response",
		"trial_index": 293,
		"time_elapsed": 1354049,
		"internal_node_id": "0.0-3.0-0.236-0.236"
	},
	{
		"rt": 2707,
		"stimulus": "<span style=\"font-size:30px; font-family: monospace\">As</span>",
		"response": " ",
		"trial": "exp-sent",
		"word": "As",
		"trial_type": "html-keyboard-response",
		"trial_index": 294,
		"time_elapsed": 1357011,
		"internal_node_id": "0.0-3.0-1.236"
	},
	{
		"rt": 2006,
		"stimulus": "<span style=\"font-size:30px; font-family: monospace\">pessoas</span>",
		"response": " ",
		"trial": "exp-sent",
		"word": "pessoas",
		"trial_type": "html-keyboard-response",
		"trial_index": 295,
		"time_elapsed": 1359271,
		"internal_node_id": "0.0-3.0-1.237"
	},
	{
		"rt": 970,
		"stimulus": "<span style=\"font-size:30px; font-family: monospace\">têm</span>",
		"response": " ",
		"trial": "exp-sent",
		"word": "têm",
		"trial_type": "html-keyboard-response",
		"trial_index": 296,
		"time_elapsed": 1360493,
		"internal_node_id": "0.0-3.0-1.238"
	},
	{
		"rt": 2064,
		"stimulus": "<span style=\"font-size:30px; font-family: monospace\">sua</span>",
		"response": " ",
		"trial": "exp-sent",
		"word": "sua",
		"trial_type": "html-keyboard-response",
		"trial_index": 297,
		"time_elapsed": 1362812,
		"internal_node_id": "0.0-3.0-1.239"
	},
	{
		"rt": 5264,
		"stimulus": "<span style=\"font-size:30px; font-family: monospace\">liberdade</span>",
		"response": " ",
		"trial": "exp-sent",
		"word": "liberdade",
		"trial_type": "html-keyboard-response",
		"trial_index": 298,
		"time_elapsed": 1368328,
		"internal_node_id": "0.0-3.0-1.240"
	},
	{
		"rt": 4450,
		"stimulus": "<span style=\"font-size:30px; font-family: monospace\">até</span>",
		"response": " ",
		"trial": "exp-sent",
		"word": "até",
		"trial_type": "html-keyboard-response",
		"trial_index": 299,
		"time_elapsed": 1373030,
		"internal_node_id": "0.0-3.0-1.241"
	},
	{
		"rt": 1870,
		"stimulus": "<span style=\"font-size:30px; font-family: monospace\">certo</span>",
		"response": " ",
		"trial": "exp-sent",
		"word": "certo",
		"trial_type": "html-keyboard-response",
		"trial_index": 300,
		"time_elapsed": 1375151,
		"internal_node_id": "0.0-3.0-1.242"
	},
	{
		"rt": 1575,
		"stimulus": "<span style=\"font-size:30px; font-family: monospace\">ponto.</span>",
		"response": " ",
		"trial": "exp-sent",
		"word": "ponto.",
		"trial_type": "html-keyboard-response",
		"trial_index": 301,
		"time_elapsed": 1376981,
		"internal_node_id": "0.0-3.0-1.243"
	},
	{
		"rt": null,
		"stimulus": "<span style= \"font-size:30px; font-family: monospace\">+</span>",
		"response": null,
		"trial_part": "fixation",
		"trial_type": "html-keyboard-response",
		"trial_index": 302,
		"time_elapsed": 1378238,
		"internal_node_id": "0.0-3.0-0.244-0.244"
	},
	{
		"rt": 915,
		"stimulus": "<span style=\"font-size:30px; font-family: monospace\">A</span>",
		"response": " ",
		"trial": "exp-sent",
		"word": "A",
		"trial_type": "html-keyboard-response",
		"trial_index": 303,
		"time_elapsed": 1379409,
		"internal_node_id": "0.0-3.0-1.244"
	},
	{
		"rt": 1856,
		"stimulus": "<span style=\"font-size:30px; font-family: monospace\">empresa</span>",
		"response": " ",
		"trial": "exp-sent",
		"word": "empresa",
		"trial_type": "html-keyboard-response",
		"trial_index": 304,
		"time_elapsed": 1381517,
		"internal_node_id": "0.0-3.0-1.245"
	},
	{
		"rt": 2034,
		"stimulus": "<span style=\"font-size:30px; font-family: monospace\">enviou</span>",
		"response": " ",
		"trial": "exp-sent",
		"word": "enviou",
		"trial_type": "html-keyboard-response",
		"trial_index": 305,
		"time_elapsed": 1383803,
		"internal_node_id": "0.0-3.0-1.246"
	},
	{
		"rt": 2470,
		"stimulus": "<span style=\"font-size:30px; font-family: monospace\">o</span>",
		"response": " ",
		"trial": "exp-sent",
		"word": "o",
		"trial_type": "html-keyboard-response",
		"trial_index": 306,
		"time_elapsed": 1386526,
		"internal_node_id": "0.0-3.0-1.247"
	},
	{
		"rt": 5431,
		"stimulus": "<span style=\"font-size:30px; font-family: monospace\">aviso</span>",
		"response": " ",
		"trial": "exp-sent",
		"word": "aviso",
		"trial_type": "html-keyboard-response",
		"trial_index": 307,
		"time_elapsed": 1392209,
		"internal_node_id": "0.0-3.0-1.248"
	},
	{
		"rt": 1968,
		"stimulus": "<span style=\"font-size:30px; font-family: monospace\">hoje</span>",
		"response": " ",
		"trial": "exp-sent",
		"word": "hoje",
		"trial_type": "html-keyboard-response",
		"trial_index": 308,
		"time_elapsed": 1394429,
		"internal_node_id": "0.0-3.0-1.249"
	},
	{
		"rt": 1862,
		"stimulus": "<span style=\"font-size:30px; font-family: monospace\">de</span>",
		"response": " ",
		"trial": "exp-sent",
		"word": "de",
		"trial_type": "html-keyboard-response",
		"trial_index": 309,
		"time_elapsed": 1396546,
		"internal_node_id": "0.0-3.0-1.250"
	},
	{
		"rt": 1161,
		"stimulus": "<span style=\"font-size:30px; font-family: monospace\">tarde.</span>",
		"response": " ",
		"trial": "exp-sent",
		"word": "tarde.",
		"trial_type": "html-keyboard-response",
		"trial_index": 310,
		"time_elapsed": 1397959,
		"internal_node_id": "0.0-3.0-1.251"
	},
	{
		"rt": null,
		"stimulus": "<span style= \"font-size:30px; font-family: monospace\">+</span>",
		"response": null,
		"trial_part": "fixation",
		"trial_type": "html-keyboard-response",
		"trial_index": 311,
		"time_elapsed": 1399218,
		"internal_node_id": "0.0-3.0-0.252-0.252"
	},
	{
		"rt": 5343,
		"stimulus": "<span style=\"font-size:30px; font-family: monospace\">A</span>",
		"response": " ",
		"trial": "exp-sent",
		"word": "A",
		"trial_type": "html-keyboard-response",
		"trial_index": 312,
		"time_elapsed": 1404817,
		"internal_node_id": "0.0-3.0-1.252"
	},
	{
		"rt": 2047,
		"stimulus": "<span style=\"font-size:30px; font-family: monospace\">loja</span>",
		"response": " ",
		"trial": "exp-sent",
		"word": "loja",
		"trial_type": "html-keyboard-response",
		"trial_index": 313,
		"time_elapsed": 1407117,
		"internal_node_id": "0.0-3.0-1.253"
	},
	{
		"rt": 2007,
		"stimulus": "<span style=\"font-size:30px; font-family: monospace\">vende</span>",
		"response": " ",
		"trial": "exp-sent",
		"word": "vende",
		"trial_type": "html-keyboard-response",
		"trial_index": 314,
		"time_elapsed": 1409376,
		"internal_node_id": "0.0-3.0-1.254"
	},
	{
		"rt": 1634,
		"stimulus": "<span style=\"font-size:30px; font-family: monospace\">tanto</span>",
		"response": " ",
		"trial": "exp-sent",
		"word": "tanto",
		"trial_type": "html-keyboard-response",
		"trial_index": 315,
		"time_elapsed": 1411262,
		"internal_node_id": "0.0-3.0-1.255"
	},
	{
		"rt": 3404,
		"stimulus": "<span style=\"font-size:30px; font-family: monospace\">frituras</span>",
		"response": " ",
		"trial": "exp-sent",
		"word": "frituras",
		"trial_type": "html-keyboard-response",
		"trial_index": 316,
		"time_elapsed": 1414918,
		"internal_node_id": "0.0-3.0-1.256"
	},
	{
		"rt": 1584,
		"stimulus": "<span style=\"font-size:30px; font-family: monospace\">quanto</span>",
		"response": " ",
		"trial": "exp-sent",
		"word": "quanto",
		"trial_type": "html-keyboard-response",
		"trial_index": 317,
		"time_elapsed": 1416755,
		"internal_node_id": "0.0-3.0-1.257"
	},
	{
		"rt": 1572,
		"stimulus": "<span style=\"font-size:30px; font-family: monospace\">comidas</span>",
		"response": " ",
		"trial": "exp-sent",
		"word": "comidas",
		"trial_type": "html-keyboard-response",
		"trial_index": 318,
		"time_elapsed": 1418583,
		"internal_node_id": "0.0-3.0-1.258"
	},
	{
		"rt": 6717,
		"stimulus": "<span style=\"font-size:30px; font-family: monospace\">leves.</span>",
		"response": " ",
		"trial": "exp-sent",
		"word": "leves.",
		"trial_type": "html-keyboard-response",
		"trial_index": 319,
		"time_elapsed": 1425551,
		"internal_node_id": "0.0-3.0-1.259"
	},
	{
		"rt": null,
		"stimulus": "<span style= \"font-size:30px; font-family: monospace\">+</span>",
		"response": null,
		"trial_part": "fixation",
		"trial_type": "html-keyboard-response",
		"trial_index": 320,
		"time_elapsed": 1426810,
		"internal_node_id": "0.0-3.0-0.260-0.260"
	},
	{
		"rt": 1773,
		"stimulus": "<span style=\"font-size:30px; font-family: monospace\">As</span>",
		"response": " ",
		"trial": "exp-sent",
		"word": "As",
		"trial_type": "html-keyboard-response",
		"trial_index": 321,
		"time_elapsed": 1428834,
		"internal_node_id": "0.0-3.0-1.260"
	},
	{
		"rt": 2285,
		"stimulus": "<span style=\"font-size:30px; font-family: monospace\">cadeiras</span>",
		"response": " ",
		"trial": "exp-sent",
		"word": "cadeiras",
		"trial_type": "html-keyboard-response",
		"trial_index": 322,
		"time_elapsed": 1431370,
		"internal_node_id": "0.0-3.0-1.261"
	},
	{
		"rt": 3334,
		"stimulus": "<span style=\"font-size:30px; font-family: monospace\">azuis</span>",
		"response": " ",
		"trial": "exp-sent",
		"word": "azuis",
		"trial_type": "html-keyboard-response",
		"trial_index": 323,
		"time_elapsed": 1434957,
		"internal_node_id": "0.0-3.0-1.262"
	},
	{
		"rt": 1110,
		"stimulus": "<span style=\"font-size:30px; font-family: monospace\">da</span>",
		"response": " ",
		"trial": "exp-sent",
		"word": "da",
		"trial_type": "html-keyboard-response",
		"trial_index": 324,
		"time_elapsed": 1436319,
		"internal_node_id": "0.0-3.0-1.263"
	},
	{
		"rt": 1954,
		"stimulus": "<span style=\"font-size:30px; font-family: monospace\">sala</span>",
		"response": " ",
		"trial": "exp-sent",
		"word": "sala",
		"trial_type": "html-keyboard-response",
		"trial_index": 325,
		"time_elapsed": 1438528,
		"internal_node_id": "0.0-3.0-1.264"
	},
	{
		"rt": 1685,
		"stimulus": "<span style=\"font-size:30px; font-family: monospace\">eram</span>",
		"response": " ",
		"trial": "exp-sent",
		"word": "eram",
		"trial_type": "html-keyboard-response",
		"trial_index": 326,
		"time_elapsed": 1440465,
		"internal_node_id": "0.0-3.0-1.265"
	},
	{
		"rt": 1094,
		"stimulus": "<span style=\"font-size:30px; font-family: monospace\">da</span>",
		"response": " ",
		"trial": "exp-sent",
		"word": "da",
		"trial_type": "html-keyboard-response",
		"trial_index": 327,
		"time_elapsed": 1441813,
		"internal_node_id": "0.0-3.0-1.266"
	},
	{
		"rt": 1935,
		"stimulus": "<span style=\"font-size:30px; font-family: monospace\">minha</span>",
		"response": " ",
		"trial": "exp-sent",
		"word": "minha",
		"trial_type": "html-keyboard-response",
		"trial_index": 328,
		"time_elapsed": 1444001,
		"internal_node_id": "0.0-3.0-1.267"
	},
	{
		"rt": 3056,
		"stimulus": "<span style=\"font-size:30px; font-family: monospace\">vó.</span>",
		"response": " ",
		"trial": "comp",
		"word": "vó.",
		"trial_type": "html-keyboard-response",
		"trial_index": 329,
		"time_elapsed": 1447310,
		"internal_node_id": "0.0-3.0-1.268"
	},
	{
		"rt": 6250,
		"stimulus": "<span style=\"font-size:30px; font-family: monospace\">As cadeiras eram da avó?</span>",
		"response": "s",
		"question": "As cadeiras eram da avó?",
		"answer": "sim",
		"trial": "comp",
		"trial_type": "html-keyboard-response",
		"trial_index": 330,
		"time_elapsed": 1453813,
		"internal_node_id": "0.0-3.0-2.268-0.268",
		"accuracy": false
	},
	{
		"rt": null,
		"stimulus": "<span style= \"font-size:30px; font-family: monospace\">+</span>",
		"response": null,
		"trial_part": "fixation",
		"trial_type": "html-keyboard-response",
		"trial_index": 331,
		"time_elapsed": 1455318,
		"internal_node_id": "0.0-3.0-0.269-0.269"
	},
	{
		"rt": 2776,
		"stimulus": "<span style=\"font-size:30px; font-family: monospace\">A</span>",
		"response": " ",
		"trial": "exp-sent",
		"word": "A",
		"trial_type": "html-keyboard-response",
		"trial_index": 332,
		"time_elapsed": 1458350,
		"internal_node_id": "0.0-3.0-1.269"
	},
	{
		"rt": 2813,
		"stimulus": "<span style=\"font-size:30px; font-family: monospace\">força</span>",
		"response": " ",
		"trial": "exp-sent",
		"word": "força",
		"trial_type": "html-keyboard-response",
		"trial_index": 333,
		"time_elapsed": 1461417,
		"internal_node_id": "0.0-3.0-1.270"
	},
	{
		"rt": 2507,
		"stimulus": "<span style=\"font-size:30px; font-family: monospace\">d'água</span>",
		"response": " ",
		"trial": "exp-sent",
		"word": "d'água",
		"trial_type": "html-keyboard-response",
		"trial_index": 334,
		"time_elapsed": 1464177,
		"internal_node_id": "0.0-3.0-1.271"
	},
	{
		"rt": 1997,
		"stimulus": "<span style=\"font-size:30px; font-family: monospace\">estava</span>",
		"response": " ",
		"trial": "exp-sent",
		"word": "estava",
		"trial_type": "html-keyboard-response",
		"trial_index": 335,
		"time_elapsed": 1466430,
		"internal_node_id": "0.0-3.0-1.272"
	},
	{
		"rt": 4905,
		"stimulus": "<span style=\"font-size:30px; font-family: monospace\">normal</span>",
		"response": " ",
		"trial": "exp-sent",
		"word": "normal",
		"trial_type": "html-keyboard-response",
		"trial_index": 336,
		"time_elapsed": 1471590,
		"internal_node_id": "0.0-3.0-1.273"
	},
	{
		"rt": 461,
		"stimulus": "<span style=\"font-size:30px; font-family: monospace\">naquele</span>",
		"response": " ",
		"trial": "exp-sent",
		"word": "naquele",
		"trial_type": "html-keyboard-response",
		"trial_index": 337,
		"time_elapsed": 1472307,
		"internal_node_id": "0.0-3.0-1.274"
	},
	{
		"rt": 1600,
		"stimulus": "<span style=\"font-size:30px; font-family: monospace\">dia.</span>",
		"response": " ",
		"trial": "exp-sent",
		"word": "dia.",
		"trial_type": "html-keyboard-response",
		"trial_index": 338,
		"time_elapsed": 1474160,
		"internal_node_id": "0.0-3.0-1.275"
	},
	{
		"rt": null,
		"stimulus": "<span style= \"font-size:30px; font-family: monospace\">+</span>",
