"view_history","rt","trial_type","trial_index","time_elapsed","internal_node_id","stimulus","response","class","status","answer","correct","trial","letters"
"[{""page_index"":0,""viewing_time"":79389}]","79389","instructions","0","79394","0.0-0.0","","","","","","","",""
"","null","html-keyboard-response","1","79998","0.0-1.0-0.0","+","null","","","","","",""
"","14978","html-keyboard-response","2","94977","0.0-1.0-1.0","chassi","n","null","cog","word","S","prac","null"
"","null","html-keyboard-response","3","95480","0.0-1.0-0.1","+","null","","","","","",""
"","18792","html-keyboard-response","4","114274","0.0-1.0-1.1","oliva","s","null","cog","word","S","prac","null"
"","null","html-keyboard-response","5","114777","0.0-1.0-0.2","+","null","","","","","",""
"","6293","html-keyboard-response","6","121071","0.0-1.0-1.2","daja","n","null","noncog","pseudo","N","prac","null"
"","null","html-keyboard-response","7","121575","0.0-1.0-0.3","+","null","","","","","",""
"","4943","html-keyboard-response","8","126518","0.0-1.0-1.3","plibar","s","null","noncog","pseudo","N","prac","null"
"","null","html-keyboard-response","9","127020","0.0-1.0-0.4","+","null","","","","","",""
"","3717","html-keyboard-response","10","130738","0.0-1.0-1.4","calmaria","s","null","noncog","word","S","prac","null"
"","null","html-keyboard-response","11","131240","0.0-1.0-0.5","+","null","","","","","",""
"","4452","html-keyboard-response","12","135693","0.0-1.0-1.5","órgão","s","null","noncog","word","S","prac","null"
"","null","html-keyboard-response","13","136198","0.0-1.0-0.6","+","null","","","","","",""
"","5624","html-keyboard-response","14","141822","0.0-1.0-1.6","crante","s","null","noncog","pseudo","N","prac","null"
"[{""page_index"":0,""viewing_time"":14928}]","14928","instructions","15","156752","0.0-2.0","","","","","","","",""
"","null","html-keyboard-response","16","157358","0.0-3.0-0.0","+","null","","","","","",""
"","6565","html-keyboard-response","17","163924","0.0-3.0-1.0","chorão","s","a","noncog","word","S","exp","6"
"","null","html-keyboard-response","18","164428","0.0-3.0-0.1","+","null","","","","","",""
"","3810","html-keyboard-response","19","168239","0.0-3.0-1.1","conjerto","s","null","noncog","pseudo","N","exp","null"
"","null","html-keyboard-response","20","168742","0.0-3.0-0.2","+","null","","","","","",""
"","2824","html-keyboard-response","21","171567","0.0-3.0-1.2","pitada","s","n","noncog","word","S","exp","6"
"","null","html-keyboard-response","22","172070","0.0-3.0-0.3","+","null","","","","","",""
"","4450","html-keyboard-response","23","176521","0.0-3.0-1.3","verceja","s","null","noncog","pseudo","N","exp","null"
"","null","html-keyboard-response","24","177026","0.0-3.0-0.4","+","null","","","","","",""
"","5488","html-keyboard-response","25","182514","0.0-3.0-1.4","refletir","s","v","cog","word","S","exp","8"
"","null","html-keyboard-response","26","183016","0.0-3.0-0.5","+","null","","","","","",""
"","5992","html-keyboard-response","27","189009","0.0-3.0-1.5","oecano","n","null","noncog","pseudo","N","exp","null"
"","null","html-keyboard-response","28","189513","0.0-3.0-0.6","+","null","","","","","",""
"","3319","html-keyboard-response","29","192832","0.0-3.0-1.6","sintonizar","s","v","noncog","word","S","exp","10"
"","null","html-keyboard-response","30","193334","0.0-3.0-0.7","+","null","","","","","",""
"","3086","html-keyboard-response","31","196421","0.0-3.0-1.7","promessa","s","n","noncog","word","S","exp","8"
"","null","html-keyboard-response","32","196926","0.0-3.0-0.8","+","null","","","","","",""
"","1365","html-keyboard-response","33","198291","0.0-3.0-1.8","dia","s","n","noncog","word","S","exp","3"
"","null","html-keyboard-response","34","198795","0.0-3.0-0.9","+","null","","","","","",""
"","1869","html-keyboard-response","35","200665","0.0-3.0-1.9","imitar","s","v","cog","word","S","exp","6"
"","null","html-keyboard-response","36","201169","0.0-3.0-0.10","+","null","","","","","",""
"","3624","html-keyboard-response","37","204794","0.0-3.0-1.10","vervas","s","null","noncog","pseudo","N","exp","null"
"","null","html-keyboard-response","38","205297","0.0-3.0-0.11","+","null","","","","","",""
"","3580","html-keyboard-response","39","208878","0.0-3.0-1.11","faínas","s","null","noncog","pseudo","N","exp","null"
"","null","html-keyboard-response","40","209379","0.0-3.0-0.12","+","null","","","","","",""
"","2392","html-keyboard-response","41","211772","0.0-3.0-1.12","animado","s","a","noncog","word","S","exp","7"
"","null","html-keyboard-response","42","212275","0.0-3.0-0.13","+","null","","","","","",""
"","4023","html-keyboard-response","43","216298","0.0-3.0-1.13","selir","s","null","noncog","pseudo","N","exp","null"
"","null","html-keyboard-response","44","216803","0.0-3.0-0.14","+","null","","","","","",""
"","2683","html-keyboard-response","45","219486","0.0-3.0-1.14","papai","s","n","cog","word","S","exp","5"
"","null","html-keyboard-response","46","219990","0.0-3.0-0.15","+","null","","","","","",""
"","1996","html-keyboard-response","47","221986","0.0-3.0-1.15","lagras","s","null","noncog","pseudo","N","exp","null"
"","null","html-keyboard-response","48","222492","0.0-3.0-0.16","+","null","","","","","",""
"","1701","html-keyboard-response","49","224193","0.0-3.0-1.16","melão","s","n","cog","word","S","exp","5"
"","null","html-keyboard-response","50","224698","0.0-3.0-0.17","+","null","","","","","",""
"","2963","html-keyboard-response","51","227662","0.0-3.0-1.17","disbrituir","s","null","noncog","pseudo","N","exp","null"
"","null","html-keyboard-response","52","228163","0.0-3.0-0.18","+","null","","","","","",""
"","1624","html-keyboard-response","53","229788","0.0-3.0-1.18","jantar","s","v","noncog","word","S","exp","6"
"","null","html-keyboard-response","54","230289","0.0-3.0-0.19","+","null","","","","","",""
"","3546","html-keyboard-response","55","233836","0.0-3.0-1.19","civil","s","a","cog","word","S","exp","5"
"","null","html-keyboard-response","56","234340","0.0-3.0-0.20","+","null","","","","","",""
"","3139","html-keyboard-response","57","237479","0.0-3.0-1.20","morno","s","a","noncog","word","S","exp","5"
"","null","html-keyboard-response","58","237981","0.0-3.0-0.21","+","null","","","","","",""
"","3552","html-keyboard-response","59","241534","0.0-3.0-1.21","crolatário","s","null","noncog","pseudo","N","exp","null"
"","null","html-keyboard-response","60","242038","0.0-3.0-0.22","+","null","","","","","",""
"","3396","html-keyboard-response","61","245437","0.0-3.0-1.22","chato","s","n","noncog","word","S","exp","5"
"","null","html-keyboard-response","62","245943","0.0-3.0-0.23","+","null","","","","","",""
"","2010","html-keyboard-response","63","247956","0.0-3.0-1.23","sábio","s","n","noncog","word","S","exp","5"
"","null","html-keyboard-response","64","248461","0.0-3.0-0.24","+","null","","","","","",""
"","1903","html-keyboard-response","65","250367","0.0-3.0-1.24","gilha","s","null","noncog","pseudo","N","exp","null"
"","null","html-keyboard-response","66","250873","0.0-3.0-0.25","+","null","","","","","",""
"","2895","html-keyboard-response","67","253772","0.0-3.0-1.25","cinema","s","n","cog","word","S","exp","6"
"","null","html-keyboard-response","68","254274","0.0-3.0-0.26","+","null","","","","","",""
"","6837","html-keyboard-response","69","261118","0.0-3.0-1.26","prenas","s","null","noncog","pseudo","N","exp","null"
"","null","html-keyboard-response","70","261623","0.0-3.0-0.27","+","null","","","","","",""
"","3130","html-keyboard-response","71","264756","0.0-3.0-1.27","mabras","s","null","noncog","pseudo","N","exp","null"
"","null","html-keyboard-response","72","265259","0.0-3.0-0.28","+","null","","","","","",""
"","3219","html-keyboard-response","73","268481","0.0-3.0-1.28","distraído","s","a","cog","word","S","exp","9"
"","null","html-keyboard-response","74","268982","0.0-3.0-0.29","+","null","","","","","",""
"","4093","html-keyboard-response","75","273078","0.0-3.0-1.29","nacional","s","a","cog","word","S","exp","8"
"","null","html-keyboard-response","76","273581","0.0-3.0-0.30","+","null","","","","","",""
"","4558","html-keyboard-response","77","278142","0.0-3.0-1.30","propaganda","s","n","cog","word","S","exp","10"
"","null","html-keyboard-response","78","278644","0.0-3.0-0.31","+","null","","","","","",""
"","3952","html-keyboard-response","79","282597","0.0-3.0-1.31","taberia","s","null","noncog","pseudo","N","exp","null"
"","null","html-keyboard-response","80","283098","0.0-3.0-0.32","+","null","","","","","",""
"","2287","html-keyboard-response","81","285386","0.0-3.0-1.32","pimada","s","null","noncog","pseudo","N","exp","null"
"","null","html-keyboard-response","82","285891","0.0-3.0-0.33","+","null","","","","","",""
"","7469","html-keyboard-response","83","293362","0.0-3.0-1.33","aparme","n","null","noncog","pseudo","N","exp","null"
"","null","html-keyboard-response","84","293863","0.0-3.0-0.34","+","null","","","","","",""
"","1761","html-keyboard-response","85","295625","0.0-3.0-1.34","grátis","s","a","cog","word","S","exp","6"
"","null","html-keyboard-response","86","296126","0.0-3.0-0.35","+","null","","","","","",""
"","2180","html-keyboard-response","87","298307","0.0-3.0-1.35","franda","s","null","noncog","pseudo","N","exp","null"
"","null","html-keyboard-response","88","298809","0.0-3.0-0.36","+","null","","","","","",""
"","2381","html-keyboard-response","89","301191","0.0-3.0-1.36","mania","s","n","cog","word","S","exp","5"
"","null","html-keyboard-response","90","301694","0.0-3.0-0.37","+","null","","","","","",""
"","1657","html-keyboard-response","91","303352","0.0-3.0-1.37","telefone","s","n","cog","word","S","exp","8"
"","null","html-keyboard-response","92","303854","0.0-3.0-0.38","+","null","","","","","",""
"","5062","html-keyboard-response","93","308917","0.0-3.0-1.38","tímido","s","a","cog","word","S","exp","6"
"","null","html-keyboard-response","94","309421","0.0-3.0-0.39","+","null","","","","","",""
"","5561","html-keyboard-response","95","314983","0.0-3.0-1.39","candifência","s","null","noncog","pseudo","N","exp","null"
"","null","html-keyboard-response","96","315487","0.0-3.0-0.40","+","null","","","","","",""
"","1856","html-keyboard-response","97","317344","0.0-3.0-1.40","cristal","s","n","cog","word","S","exp","7"
"","null","html-keyboard-response","98","317846","0.0-3.0-0.41","+","null","","","","","",""
"","2198","html-keyboard-response","99","320045","0.0-3.0-1.41","preferir","s","v","cog","word","S","exp","8"
"","null","html-keyboard-response","100","320550","0.0-3.0-0.42","+","null","","","","","",""
"","1759","html-keyboard-response","101","322310","0.0-3.0-1.42","tartos","s","null","noncog","pseudo","N","exp","null"
"","null","html-keyboard-response","102","322814","0.0-3.0-0.43","+","null","","","","","",""
"","2411","html-keyboard-response","103","325226","0.0-3.0-1.43","reduzir","s","v","cog","word","S","exp","7"
"","null","html-keyboard-response","104","325728","0.0-3.0-0.44","+","null","","","","","",""
"","2066","html-keyboard-response","105","327795","0.0-3.0-1.44","gordo","s","a","noncog","word","S","exp","5"
"","null","html-keyboard-response","106","328299","0.0-3.0-0.45","+","null","","","","","",""
"","4847","html-keyboard-response","107","333147","0.0-3.0-1.45","deselegante","s","a","noncog","word","S","exp","11"
"","null","html-keyboard-response","108","333652","0.0-3.0-0.46","+","null","","","","","",""
"","1593","html-keyboard-response","109","335245","0.0-3.0-1.46","protas","s","null","noncog","pseudo","N","exp","null"
"","null","html-keyboard-response","110","335748","0.0-3.0-0.47","+","null","","","","","",""
"","2450","html-keyboard-response","111","338199","0.0-3.0-1.47","frotes","s","null","noncog","pseudo","N","exp","null"
"","null","html-keyboard-response","112","338702","0.0-3.0-0.48","+","null","","","","","",""
"","2583","html-keyboard-response","113","341287","0.0-3.0-1.48","morija","s","null","noncog","pseudo","N","exp","null"
"","null","html-keyboard-response","114","341791","0.0-3.0-0.49","+","null","","","","","",""
"","21902","html-keyboard-response","115","363694","0.0-3.0-1.49","delirar","s","v","noncog","word","S","exp","7"
"","null","html-keyboard-response","116","364199","0.0-3.0-0.50","+","null","","","","","",""
"","3178","html-keyboard-response","117","367378","0.0-3.0-1.50","pedaço","s","n","noncog","word","S","exp","6"
"","null","html-keyboard-response","118","367879","0.0-3.0-0.51","+","null","","","","","",""
"","8499","html-keyboard-response","119","376379","0.0-3.0-1.51","aemaça","s","null","noncog","pseudo","N","exp","null"
"","null","html-keyboard-response","120","376883","0.0-3.0-0.52","+","null","","","","","",""
"","10010","html-keyboard-response","121","386894","0.0-3.0-1.52","mua","s","null","noncog","pseudo","N","exp","null"
"","null","html-keyboard-response","122","387396","0.0-3.0-0.53","+","null","","","","","",""
"","2278","html-keyboard-response","123","389675","0.0-3.0-1.53","açúcar","s","n","noncog","word","S","exp","6"
"","null","html-keyboard-response","124","390177","0.0-3.0-0.54","+","null","","","","","",""
"","1636","html-keyboard-response","125","391814","0.0-3.0-1.54","crutas","s","null","noncog","pseudo","N","exp","null"
"","null","html-keyboard-response","126","392319","0.0-3.0-0.55","+","null","","","","","",""
"","1676","html-keyboard-response","127","393996","0.0-3.0-1.55","farcas","s","null","noncog","pseudo","N","exp","null"
"","null","html-keyboard-response","128","394497","0.0-3.0-0.56","+","null","","","","","",""
"","5951","html-keyboard-response","129","400449","0.0-3.0-1.56","hipócrita","s","a","noncog","word","S","exp","9"
"","null","html-keyboard-response","130","400954","0.0-3.0-0.57","+","null","","","","","",""
"","2394","html-keyboard-response","131","403349","0.0-3.0-1.57","risbos","s","null","noncog","pseudo","N","exp","null"
"","null","html-keyboard-response","132","403854","0.0-3.0-0.58","+","null","","","","","",""
"","1896","html-keyboard-response","133","405751","0.0-3.0-1.58","especial","s","a","cog","word","S","exp","8"
"","null","html-keyboard-response","134","406252","0.0-3.0-0.59","+","null","","","","","",""
"","2503","html-keyboard-response","135","408755","0.0-3.0-1.59","prever","s","v","cog","word","S","exp","6"
"","null","html-keyboard-response","136","409259","0.0-3.0-0.60","+","null","","","","","",""
"","2166","html-keyboard-response","137","411425","0.0-3.0-1.60","raspar","s","v","noncog","word","S","exp","6"
"","null","html-keyboard-response","138","411929","0.0-3.0-0.61","+","null","","","","","",""
"","3665","html-keyboard-response","139","415595","0.0-3.0-1.61","garastia","s","null","noncog","pseudo","N","exp","null"
"","null","html-keyboard-response","140","416097","0.0-3.0-0.62","+","null","","","","","",""
"","1335","html-keyboard-response","141","417433","0.0-3.0-1.62","tio","s","n","noncog","word","S","exp","3"
"","null","html-keyboard-response","142","417937","0.0-3.0-0.63","+","null","","","","","",""
"","1986","html-keyboard-response","143","419924","0.0-3.0-1.63","agressivo","s","a","cog","word","S","exp","9"
"","null","html-keyboard-response","144","420428","0.0-3.0-0.64","+","null","","","","","",""
"","1387","html-keyboard-response","145","421816","0.0-3.0-1.64","espaço","s","n","cog","word","S","exp","6"
"","null","html-keyboard-response","146","422320","0.0-3.0-0.65","+","null","","","","","",""
"","1863","html-keyboard-response","147","424184","0.0-3.0-1.65","medalha","s","n","cog","word","S","exp","7"
"","null","html-keyboard-response","148","424689","0.0-3.0-0.66","+","null","","","","","",""
"","3630","html-keyboard-response","149","428320","0.0-3.0-1.66","comércio","s","n","noncog","word","S","exp","8"
"","null","html-keyboard-response","150","428822","0.0-3.0-0.67","+","null","","","","","",""
"","2076","html-keyboard-response","151","430899","0.0-3.0-1.67","dilheira","s","null","noncog","pseudo","N","exp","null"
"","null","html-keyboard-response","152","431400","0.0-3.0-0.68","+","null","","","","","",""
"","6433","html-keyboard-response","153","437834","0.0-3.0-1.68","prantal","s","null","noncog","pseudo","N","exp","null"
"","null","html-keyboard-response","154","438337","0.0-3.0-0.69","+","null","","","","","",""
"","1787","html-keyboard-response","155","440125","0.0-3.0-1.69","perbas","s","null","noncog","pseudo","N","exp","null"
"","null","html-keyboard-response","156","440630","0.0-3.0-0.70","+","null","","","","","",""
"","2834","html-keyboard-response","157","443465","0.0-3.0-1.70","casuas","s","null","noncog","pseudo","N","exp","null"
"","null","html-keyboard-response","158","443968","0.0-3.0-0.71","+","null","","","","","",""
"","2591","html-keyboard-response","159","446560","0.0-3.0-1.71","dipata","s","null","noncog","pseudo","N","exp","null"
"","null","html-keyboard-response","160","447062","0.0-3.0-0.72","+","null","","","","","",""
"","3014","html-keyboard-response","161","450076","0.0-3.0-1.72","brincar","s","v","noncog","word","S","exp","7"
"","null","html-keyboard-response","162","450580","0.0-3.0-0.73","+","null","","","","","",""
"","2955","html-keyboard-response","163","453535","0.0-3.0-1.73","trair","s","v","cog","word","S","exp","5"
"","null","html-keyboard-response","164","454040","0.0-3.0-0.74","+","null","","","","","",""
"","2007","html-keyboard-response","165","456047","0.0-3.0-1.74","escumo","s","null","noncog","pseudo","N","exp","null"
"","null","html-keyboard-response","166","456548","0.0-3.0-0.75","+","null","","","","","",""
"","1938","html-keyboard-response","167","458486","0.0-3.0-1.75","alpica","s","null","noncog","pseudo","N","exp","null"
"","null","html-keyboard-response","168","458991","0.0-3.0-0.76","+","null","","","","","",""
"","1856","html-keyboard-response","169","460848","0.0-3.0-1.76","cirado","s","null","noncog","pseudo","N","exp","null"
"","null","html-keyboard-response","170","461349","0.0-3.0-0.77","+","null","","","","","",""
"","6383","html-keyboard-response","171","467733","0.0-3.0-1.77","tatear","n","v","cog","word","S","exp","6"
"","null","html-keyboard-response","172","468234","0.0-3.0-0.78","+","null","","","","","",""
"","2072","html-keyboard-response","173","470307","0.0-3.0-1.78","macras","s","null","noncog","pseudo","N","exp","null"
"","null","html-keyboard-response","174","470811","0.0-3.0-0.79","+","null","","","","","",""
"","3364","html-keyboard-response","175","474176","0.0-3.0-1.79","pneucania","s","null","noncog","pseudo","N","exp","null"
"","null","html-keyboard-response","176","474677","0.0-3.0-0.80","+","null","","","","","",""
"","1964","html-keyboard-response","177","476641","0.0-3.0-1.80","carregar","s","v","noncog","word","S","exp","8"
"","null","html-keyboard-response","178","477144","0.0-3.0-0.81","+","null","","","","","",""
"","2220","html-keyboard-response","179","479365","0.0-3.0-1.81","jastor","s","null","noncog","pseudo","N","exp","null"
"","null","html-keyboard-response","180","479867","0.0-3.0-0.82","+","null","","","","","",""
"","3012","html-keyboard-response","181","482880","0.0-3.0-1.82","barco","s","n","cog","word","S","exp","5"
"","null","html-keyboard-response","182","483384","0.0-3.0-0.83","+","null","","","","","",""
"","8734","html-keyboard-response","183","492119","0.0-3.0-1.83","enxerido","s","a","noncog","word","S","exp","8"
"","null","html-keyboard-response","184","492621","0.0-3.0-0.84","+","null","","","","","",""
"","9696","html-keyboard-response","185","502317","0.0-3.0-1.84","cenada","s","null","noncog","pseudo","N","exp","null"
"","null","html-keyboard-response","186","502820","0.0-3.0-0.85","+","null","","","","","",""
"","1720","html-keyboard-response","187","504541","0.0-3.0-1.85","trabalhar","s","v","noncog","word","S","exp","9"
"","null","html-keyboard-response","188","505044","0.0-3.0-0.86","+","null","","","","","",""
"","3224","html-keyboard-response","189","508269","0.0-3.0-1.86","podilo","s","null","noncog","pseudo","N","exp","null"
"","null","html-keyboard-response","190","508771","0.0-3.0-0.87","+","null","","","","","",""
"","2059","html-keyboard-response","191","510830","0.0-3.0-1.87","perdão","s","n","noncog","word","S","exp","6"
"","null","html-keyboard-response","192","511334","0.0-3.0-0.88","+","null","","","","","",""
"","2401","html-keyboard-response","193","513736","0.0-3.0-1.88","encelhor","s","null","noncog","pseudo","N","exp","null"
"","null","html-keyboard-response","194","514239","0.0-3.0-0.89","+","null","","","","","",""
"","4991","html-keyboard-response","195","519231","0.0-3.0-1.89","nivelado","s","a","cog","word","S","exp","8"
"","null","html-keyboard-response","196","519732","0.0-3.0-0.90","+","null","","","","","",""
"","3390","html-keyboard-response","197","523123","0.0-3.0-1.90","berquesa","s","null","noncog","pseudo","N","exp","null"
"","null","html-keyboard-response","198","523626","0.0-3.0-0.91","+","null","","","","","",""
"","2741","html-keyboard-response","199","526368","0.0-3.0-1.91","dencosto","s","null","noncog","pseudo","N","exp","null"
"","null","html-keyboard-response","200","526871","0.0-3.0-0.92","+","null","","","","","",""
"","4727","html-keyboard-response","201","531599","0.0-3.0-1.92","aitrou","n","null","noncog","pseudo","N","exp","null"
"","null","html-keyboard-response","202","532102","0.0-3.0-0.93","+","null","","","","","",""
"","1871","html-keyboard-response","203","533973","0.0-3.0-1.93","terdia","s","null","noncog","pseudo","N","exp","null"
"","null","html-keyboard-response","204","534476","0.0-3.0-0.94","+","null","","","","","",""
"","3117","html-keyboard-response","205","537594","0.0-3.0-1.94","undivídio","s","null","noncog","pseudo","N","exp","null"
"","null","html-keyboard-response","206","538098","0.0-3.0-0.95","+","null","","","","","",""
"","2589","html-keyboard-response","207","540688","0.0-3.0-1.95","fusbão","s","null","noncog","pseudo","N","exp","null"
"","null","html-keyboard-response","208","541193","0.0-3.0-0.96","+","null","","","","","",""
"","1771","html-keyboard-response","209","542964","0.0-3.0-1.96","motre","s","null","noncog","pseudo","N","exp","null"
"","null","html-keyboard-response","210","543468","0.0-3.0-0.97","+","null","","","","","",""
"","2213","html-keyboard-response","211","545682","0.0-3.0-1.97","manais","s","null","noncog","pseudo","N","exp","null"
"","null","html-keyboard-response","212","546185","0.0-3.0-0.98","+","null","","","","","",""
"","2323","html-keyboard-response","213","548509","0.0-3.0-1.98","planalto","s","n","cog","word","S","exp","8"
"","null","html-keyboard-response","214","549012","0.0-3.0-0.99","+","null","","","","","",""
"","1551","html-keyboard-response","215","550564","0.0-3.0-1.99","cerca","s","n","noncog","word","S","exp","5"
"","null","html-keyboard-response","216","551067","0.0-3.0-0.100","+","null","","","","","",""
"","2185","html-keyboard-response","217","553253","0.0-3.0-1.100","hedoru","s","null","noncog","pseudo","N","exp","null"
"","null","html-keyboard-response","218","553755","0.0-3.0-0.101","+","null","","","","","",""
"","6287","html-keyboard-response","219","560043","0.0-3.0-1.101","pega-pega","s","n","noncog","word","S","exp","8"
"","null","html-keyboard-response","220","560547","0.0-3.0-0.102","+","null","","","","","",""
"","1793","html-keyboard-response","221","562341","0.0-3.0-1.102","bambu","s","n","cog","word","S","exp","5"
"","null","html-keyboard-response","222","562846","0.0-3.0-0.103","+","null","","","","","",""
"","1805","html-keyboard-response","223","564652","0.0-3.0-1.103","drama","s","n","cog","word","S","exp","5"
"","null","html-keyboard-response","224","565156","0.0-3.0-0.104","+","null","","","","","",""
"","2442","html-keyboard-response","225","567599","0.0-3.0-1.104","mudança","s","n","noncog","word","S","exp","7"
"","null","html-keyboard-response","226","568100","0.0-3.0-0.105","+","null","","","","","",""
"","1366","html-keyboard-response","227","569467","0.0-3.0-1.105","morar","s","v","noncog","word","S","exp","5"
"","null","html-keyboard-response","228","569969","0.0-3.0-0.106","+","null","","","","","",""
"","1509","html-keyboard-response","229","571479","0.0-3.0-1.106","afonher","s","null","noncog","pseudo","N","exp","null"
"","null","html-keyboard-response","230","571983","0.0-3.0-0.107","+","null","","","","","",""
"","1197","html-keyboard-response","231","573181","0.0-3.0-1.107","mal","s","a","cog","word","S","exp","3"
"","null","html-keyboard-response","232","573684","0.0-3.0-0.108","+","null","","","","","",""
"","2006","html-keyboard-response","233","575691","0.0-3.0-1.108","carona","s","n","noncog","word","S","exp","6"
"","null","html-keyboard-response","234","576192","0.0-3.0-0.109","+","null","","","","","",""
"","2064","html-keyboard-response","235","578257","0.0-3.0-1.109","lorfaz","s","null","noncog","pseudo","N","exp","null"
"","null","html-keyboard-response","236","578762","0.0-3.0-0.110","+","null","","","","","",""
"","1326","html-keyboard-response","237","580089","0.0-3.0-1.110","cravo","s","n","noncog","word","S","exp","5"
"","null","html-keyboard-response","238","580592","0.0-3.0-0.111","+","null","","","","","",""
"","1809","html-keyboard-response","239","582402","0.0-3.0-1.111","trenos","s","null","noncog","pseudo","N","exp","null"
"","null","html-keyboard-response","240","582903","0.0-3.0-0.112","+","null","","","","","",""
"","2149","html-keyboard-response","241","585052","0.0-3.0-1.112","ejerro","s","null","noncog","pseudo","N","exp","null"
"","null","html-keyboard-response","242","585556","0.0-3.0-0.113","+","null","","","","","",""
"","2874","html-keyboard-response","243","588430","0.0-3.0-1.113","nevela","s","null","noncog","pseudo","N","exp","null"
"","null","html-keyboard-response","244","588934","0.0-3.0-0.114","+","null","","","","","",""
"","1756","html-keyboard-response","245","590691","0.0-3.0-1.114","socorro","s","n","noncog","word","S","exp","7"
"","null","html-keyboard-response","246","591192","0.0-3.0-0.115","+","null","","","","","",""
"","2114","html-keyboard-response","247","593307","0.0-3.0-1.115","usnado","s","null","noncog","pseudo","N","exp","null"
"","null","html-keyboard-response","248","593811","0.0-3.0-0.116","+","null","","","","","",""
"","14712","html-keyboard-response","249","608524","0.0-3.0-1.116","ilhure","s","null","noncog","pseudo","N","exp","null"
"","null","html-keyboard-response","250","609026","0.0-3.0-0.117","+","null","","","","","",""
"","2720","html-keyboard-response","251","611746","0.0-3.0-1.117","vitrive","s","null","noncog","pseudo","N","exp","null"
"","null","html-keyboard-response","252","612248","0.0-3.0-0.118","+","null","","","","","",""
"","2232","html-keyboard-response","253","614480","0.0-3.0-1.118","hébies","s","null","noncog","pseudo","N","exp","null"
"","null","html-keyboard-response","254","614982","0.0-3.0-0.119","+","null","","","","","",""
"","2334","html-keyboard-response","255","617316","0.0-3.0-1.119","pantufa","s","n","cog","word","S","exp","7"
"","null","html-keyboard-response","256","617821","0.0-3.0-0.120","+","null","","","","","",""
"","2822","html-keyboard-response","257","620644","0.0-3.0-1.120","bandido","s","n","cog","word","S","exp","7"
"","null","html-keyboard-response","258","621147","0.0-3.0-0.121","+","null","","","","","",""
"","2060","html-keyboard-response","259","623208","0.0-3.0-1.121","apontar","s","v","noncog","word","S","exp","7"
"","null","html-keyboard-response","260","623713","0.0-3.0-0.122","+","null","","","","","",""
"","1569","html-keyboard-response","261","625282","0.0-3.0-1.122","verde","s","a","noncog","word","S","exp","5"
"","null","html-keyboard-response","262","625785","0.0-3.0-0.123","+","null","","","","","",""
"","1786","html-keyboard-response","263","627573","0.0-3.0-1.123","tênis","s","n","cog","word","S","exp","5"
"","null","html-keyboard-response","264","628074","0.0-3.0-0.124","+","null","","","","","",""
"","1721","html-keyboard-response","265","629796","0.0-3.0-1.124","costra","s","null","noncog","pseudo","N","exp","null"
"","null","html-keyboard-response","266","630297","0.0-3.0-0.125","+","null","","","","","",""
"","1370","html-keyboard-response","267","631668","0.0-3.0-1.125","nome","s","n","cog","word","S","exp","4"
"","null","html-keyboard-response","268","632171","0.0-3.0-0.126","+","null","","","","","",""
"","2137","html-keyboard-response","269","634309","0.0-3.0-1.126","montanha","s","n","cog","word","S","exp","8"
"","null","html-keyboard-response","270","634812","0.0-3.0-0.127","+","null","","","","","",""
"","1490","html-keyboard-response","271","636303","0.0-3.0-1.127","plinta","s","null","noncog","pseudo","N","exp","null"
"","null","html-keyboard-response","272","636804","0.0-3.0-0.128","+","null","","","","","",""
"","1419","html-keyboard-response","273","638223","0.0-3.0-1.128","gertas","s","null","noncog","pseudo","N","exp","null"
"","null","html-keyboard-response","274","638725","0.0-3.0-0.129","+","null","","","","","",""
"","1905","html-keyboard-response","275","640630","0.0-3.0-1.129","fasdas","s","null","noncog","pseudo","N","exp","null"
"","null","html-keyboard-response","276","641134","0.0-3.0-0.130","+","null","","","","","",""
"","2538","html-keyboard-response","277","643673","0.0-3.0-1.130","independente","s","a","noncog","word","S","exp","12"
"","null","html-keyboard-response","278","644176","0.0-3.0-0.131","+","null","","","","","",""
"","1639","html-keyboard-response","279","645816","0.0-3.0-1.131","memória","s","n","cog","word","S","exp","7"
"","null","html-keyboard-response","280","646318","0.0-3.0-0.132","+","null","","","","","",""
"","1325","html-keyboard-response","281","647644","0.0-3.0-1.132","esfoce","s","null","noncog","pseudo","N","exp","null"
"","null","html-keyboard-response","282","648147","0.0-3.0-0.133","+","null","","","","","",""
"","11400","html-keyboard-response","283","659548","0.0-3.0-1.133","rovaz","s","null","noncog","pseudo","N","exp","null"
"","null","html-keyboard-response","284","660053","0.0-3.0-0.134","+","null","","","","","",""
"","2077","html-keyboard-response","285","662131","0.0-3.0-1.134","gruja","s","null","noncog","pseudo","N","exp","null"
"","null","html-keyboard-response","286","662635","0.0-3.0-0.135","+","null","","","","","",""
"","2159","html-keyboard-response","287","664795","0.0-3.0-1.135","promeção","s","null","noncog","pseudo","N","exp","null"
"","null","html-keyboard-response","288","665296","0.0-3.0-0.136","+","null","","","","","",""
"","1291","html-keyboard-response","289","666587","0.0-3.0-1.136","país","s","n","noncog","word","S","exp","4"
"","null","html-keyboard-response","290","667089","0.0-3.0-0.137","+","null","","","","","",""
"","2016","html-keyboard-response","291","669106","0.0-3.0-1.137","convidado","s","n","noncog","word","S","exp","9"
"","null","html-keyboard-response","292","669608","0.0-3.0-0.138","+","null","","","","","",""
"","2578","html-keyboard-response","293","672187","0.0-3.0-1.138","extravagante","s","a","cog","word","S","exp","12"
"","null","html-keyboard-response","294","672691","0.0-3.0-0.139","+","null","","","","","",""
"","1431","html-keyboard-response","295","674123","0.0-3.0-1.139","esperar","s","v","cog","word","S","exp","7"
"","null","html-keyboard-response","296","674624","0.0-3.0-0.140","+","null","","","","","",""
"","1540","html-keyboard-response","297","676165","0.0-3.0-1.140","multiplicar","s","v","cog","word","S","exp","11"
"","null","html-keyboard-response","298","676668","0.0-3.0-0.141","+","null","","","","","",""
"","2301","html-keyboard-response","299","678969","0.0-3.0-1.141","ensuas","s","null","noncog","pseudo","N","exp","null"
"","null","html-keyboard-response","300","679472","0.0-3.0-0.142","+","null","","","","","",""
"","2174","html-keyboard-response","301","681647","0.0-3.0-1.142","oricia","s","null","noncog","pseudo","N","exp","null"
"","null","html-keyboard-response","302","682148","0.0-3.0-0.143","+","null","","","","","",""
"","2017","html-keyboard-response","303","684166","0.0-3.0-1.143","anjo","s","n","cog","word","S","exp","4"
"","null","html-keyboard-response","304","684667","0.0-3.0-0.144","+","null","","","","","",""
"","2751","html-keyboard-response","305","687419","0.0-3.0-1.144","avenas","s","null","noncog","pseudo","N","exp","null"
"","null","html-keyboard-response","306","687924","0.0-3.0-0.145","+","null","","","","","",""
"","3849","html-keyboard-response","307","691773","0.0-3.0-1.145","bagunceira","s","a","noncog","word","S","exp","10"
"","null","html-keyboard-response","308","692278","0.0-3.0-0.146","+","null","","","","","",""
"","1684","html-keyboard-response","309","693963","0.0-3.0-1.146","temperar","s","v","noncog","word","S","exp","8"
"","null","html-keyboard-response","310","694466","0.0-3.0-0.147","+","null","","","","","",""
"","1742","html-keyboard-response","311","696209","0.0-3.0-1.147","pangos","s","null","noncog","pseudo","N","exp","null"
"","null","html-keyboard-response","312","696713","0.0-3.0-0.148","+","null","","","","","",""
"","4106","html-keyboard-response","313","700819","0.0-3.0-1.148","dobradiça","s","n","noncog","word","S","exp","9"
"","null","html-keyboard-response","314","701322","0.0-3.0-0.149","+","null","","","","","",""
"","3375","html-keyboard-response","315","704698","0.0-3.0-1.149","resmungar","s","v","noncog","word","S","exp","9"
"","null","html-keyboard-response","316","705202","0.0-3.0-0.150","+","null","","","","","",""
"","5839","html-keyboard-response","317","711042","0.0-3.0-1.150","grótis","s","null","noncog","pseudo","N","exp","null"
"","null","html-keyboard-response","318","711545","0.0-3.0-0.151","+","null","","","","","",""
"","2699","html-keyboard-response","319","714245","0.0-3.0-1.151","ênclio","s","null","noncog","pseudo","N","exp","null"
"","null","html-keyboard-response","320","714749","0.0-3.0-0.152","+","null","","","","","",""
"","1567","html-keyboard-response","321","716317","0.0-3.0-1.152","verdade","s","n","cog","word","S","exp","7"
"","null","html-keyboard-response","322","716822","0.0-3.0-0.153","+","null","","","","","",""
"","4376","html-keyboard-response","323","721199","0.0-3.0-1.153","bibarconato","s","null","noncog","pseudo","N","exp","null"
"","null","html-keyboard-response","324","721704","0.0-3.0-0.154","+","null","","","","","",""
"","2801","html-keyboard-response","325","724506","0.0-3.0-1.154","uçar","s","null","noncog","pseudo","N","exp","null"
"","null","html-keyboard-response","326","725007","0.0-3.0-0.155","+","null","","","","","",""
"","4246","html-keyboard-response","327","729254","0.0-3.0-1.155","matinal","s","a","cog","word","S","exp","7"
"","null","html-keyboard-response","328","729756","0.0-3.0-0.156","+","null","","","","","",""
"","2441","html-keyboard-response","329","732198","0.0-3.0-1.156","boreta","s","null","noncog","pseudo","N","exp","null"
"","null","html-keyboard-response","330","732699","0.0-3.0-0.157","+","null","","","","","",""
"","1828","html-keyboard-response","331","734528","0.0-3.0-1.157","burtos","s","null","noncog","pseudo","N","exp","null"
"","null","html-keyboard-response","332","735033","0.0-3.0-0.158","+","null","","","","","",""
"","3052","html-keyboard-response","333","738085","0.0-3.0-1.158","incomodar","s","v","noncog","word","S","exp","9"
"","null","html-keyboard-response","334","738587","0.0-3.0-0.159","+","null","","","","","",""
"","3975","html-keyboard-response","335","742562","0.0-3.0-1.159","atrasar","s","v","noncog","word","S","exp","7"
"","null","html-keyboard-response","336","743067","0.0-3.0-0.160","+","null","","","","","",""
"","1217","html-keyboard-response","337","744285","0.0-3.0-1.160","grave","s","a","cog","word","S","exp","5"
"","null","html-keyboard-response","338","744785","0.0-3.0-0.161","+","null","","","","","",""
"","2033","html-keyboard-response","339","746819","0.0-3.0-1.161","bancada","s","n","noncog","word","S","exp","7"
"","null","html-keyboard-response","340","747322","0.0-3.0-0.162","+","null","","","","","",""
"","1899","html-keyboard-response","341","749222","0.0-3.0-1.162","aperor","s","null","noncog","pseudo","N","exp","null"
"","null","html-keyboard-response","342","749726","0.0-3.0-0.163","+","null","","","","","",""
"","2109","html-keyboard-response","343","751836","0.0-3.0-1.163","delomir","s","null","noncog","pseudo","N","exp","null"
"","null","html-keyboard-response","344","752338","0.0-3.0-0.164","+","null","","","","","",""
"","2074","html-keyboard-response","345","754413","0.0-3.0-1.164","revista","s","n","cog","word","S","exp","7"
"","null","html-keyboard-response","346","754915","0.0-3.0-0.165","+","null","","","","","",""
"","1951","html-keyboard-response","347","756868","0.0-3.0-1.165","enedro","s","null","noncog","pseudo","N","exp","null"
"","null","html-keyboard-response","348","757371","0.0-3.0-0.166","+","null","","","","","",""
"","2064","html-keyboard-response","349","759436","0.0-3.0-1.166","loaco","s","null","noncog","pseudo","N","exp","null"
"","null","html-keyboard-response","350","759937","0.0-3.0-0.167","+","null","","","","","",""
"","1662","html-keyboard-response","351","761600","0.0-3.0-1.167","adoçar","s","v","noncog","word","S","exp","6"
"","null","html-keyboard-response","352","762102","0.0-3.0-0.168","+","null","","","","","",""
"","1955","html-keyboard-response","353","764058","0.0-3.0-1.168","atitro","s","null","noncog","pseudo","N","exp","null"
"","null","html-keyboard-response","354","764561","0.0-3.0-0.169","+","null","","","","","",""
"","1418","html-keyboard-response","355","765980","0.0-3.0-1.169","viver","s","v","cog","word","S","exp","5"
"","null","html-keyboard-response","356","766485","0.0-3.0-0.170","+","null","","","","","",""
"","1781","html-keyboard-response","357","768267","0.0-3.0-1.170","tronca","s","null","noncog","pseudo","N","exp","null"
"","null","html-keyboard-response","358","768768","0.0-3.0-0.171","+","null","","","","","",""
"","1843","html-keyboard-response","359","770612","0.0-3.0-1.171","euorpa","s","null","noncog","pseudo","N","exp","null"
"","null","html-keyboard-response","360","771114","0.0-3.0-0.172","+","null","","","","","",""
"","19136","html-keyboard-response","361","790251","0.0-3.0-1.172","telafonir","n","null","noncog","pseudo","N","exp","null"
"","null","html-keyboard-response","362","790756","0.0-3.0-0.173","+","null","","","","","",""
"","2102","html-keyboard-response","363","792859","0.0-3.0-1.173","bracos","s","null","noncog","pseudo","N","exp","null"
"","null","html-keyboard-response","364","793363","0.0-3.0-0.174","+","null","","","","","",""
"","2348","html-keyboard-response","365","795711","0.0-3.0-1.174","senareta","s","null","noncog","pseudo","N","exp","null"
"","null","html-keyboard-response","366","796213","0.0-3.0-0.175","+","null","","","","","",""
"","2789","html-keyboard-response","367","799003","0.0-3.0-1.175","sustentar","s","v","noncog","word","S","exp","9"
"","null","html-keyboard-response","368","799505","0.0-3.0-0.176","+","null","","","","","",""
"","1800","html-keyboard-response","369","801306","0.0-3.0-1.176","orupas","s","null","noncog","pseudo","N","exp","null"
"","null","html-keyboard-response","370","801810","0.0-3.0-0.177","+","null","","","","","",""
"","1897","html-keyboard-response","371","803707","0.0-3.0-1.177","traduzir","s","v","cog","word","S","exp","8"
"","null","html-keyboard-response","372","804208","0.0-3.0-0.178","+","null","","","","","",""
"","1429","html-keyboard-response","373","805638","0.0-3.0-1.178","lagoa","s","n","cog","word","S","exp","5"
"","null","html-keyboard-response","374","806140","0.0-3.0-0.179","+","null","","","","","",""
"","2157","html-keyboard-response","375","808298","0.0-3.0-1.179","espionar","s","v","cog","word","S","exp","8"
"","null","html-keyboard-response","376","808799","0.0-3.0-0.180","+","null","","","","","",""
"","1497","html-keyboard-response","377","810297","0.0-3.0-1.180","fratos","s","null","noncog","pseudo","N","exp","null"
"","null","html-keyboard-response","378","810802","0.0-3.0-0.181","+","null","","","","","",""
"","1722","html-keyboard-response","379","812525","0.0-3.0-1.181","destino","s","n","cog","word","S","exp","7"
"","null","html-keyboard-response","380","813026","0.0-3.0-0.182","+","null","","","","","",""
"","2220","html-keyboard-response","381","815247","0.0-3.0-1.182","arranjar","s","v","cog","word","S","exp","8"
"","null","html-keyboard-response","382","815748","0.0-3.0-0.183","+","null","","","","","",""
"","1581","html-keyboard-response","383","817329","0.0-3.0-1.183","areia","s","n","noncog","word","S","exp","5"
"","null","html-keyboard-response","384","817832","0.0-3.0-0.184","+","null","","","","","",""
"","1455","html-keyboard-response","385","819287","0.0-3.0-1.184","agravar","s","v","cog","word","S","exp","7"
"","null","html-keyboard-response","386","819788","0.0-3.0-0.185","+","null","","","","","",""
"","1480","html-keyboard-response","387","821269","0.0-3.0-1.185","dacada","s","null","noncog","pseudo","N","exp","null"
"","null","html-keyboard-response","388","821774","0.0-3.0-0.186","+","null","","","","","",""
"","1529","html-keyboard-response","389","823304","0.0-3.0-1.186","fogão","s","n","noncog","word","S","exp","5"
"","null","html-keyboard-response","390","823805","0.0-3.0-0.187","+","null","","","","","",""
"","1905","html-keyboard-response","391","825711","0.0-3.0-1.187","irratinte","s","null","noncog","pseudo","N","exp","null"
"","null","html-keyboard-response","392","826215","0.0-3.0-0.188","+","null","","","","","",""
"","5002","html-keyboard-response","393","831218","0.0-3.0-1.188","quenzina","s","null","noncog","pseudo","N","exp","null"
"","null","html-keyboard-response","394","831719","0.0-3.0-0.189","+","null","","","","","",""
"","1458","html-keyboard-response","395","833178","0.0-3.0-1.189","detative","s","null","noncog","pseudo","N","exp","null"
"","null","html-keyboard-response","396","833680","0.0-3.0-0.190","+","null","","","","","",""
"","2401","html-keyboard-response","397","836082","0.0-3.0-1.190","enxarto","s","null","noncog","pseudo","N","exp","null"
"","null","html-keyboard-response","398","836583","0.0-3.0-0.191","+","null","","","","","",""
"","1692","html-keyboard-response","399","838275","0.0-3.0-1.191","sanque","s","null","noncog","pseudo","N","exp","null"
"","null","html-keyboard-response","400","838777","0.0-3.0-0.192","+","null","","","","","",""
"","2171","html-keyboard-response","401","840949","0.0-3.0-1.192","cápsula","s","n","noncog","word","S","exp","7"
"","null","html-keyboard-response","402","841452","0.0-3.0-0.193","+","null","","","","","",""
"","2368","html-keyboard-response","403","843822","0.0-3.0-1.193","parceter","s","null","noncog","pseudo","N","exp","null"
"","null","html-keyboard-response","404","844327","0.0-3.0-0.194","+","null","","","","","",""
"","2685","html-keyboard-response","405","847012","0.0-3.0-1.194","nervoso","s","a","noncog","word","S","exp","7"
"","null","html-keyboard-response","406","847514","0.0-3.0-0.195","+","null","","","","","",""
"","2495","html-keyboard-response","407","850009","0.0-3.0-1.195","aivões","s","null","noncog","pseudo","N","exp","null"
"","null","html-keyboard-response","408","850514","0.0-3.0-0.196","+","null","","","","","",""
"","1160","html-keyboard-response","409","851675","0.0-3.0-1.196","carro","s","n","noncog","word","S","exp","5"
"","null","html-keyboard-response","410","852176","0.0-3.0-0.197","+","null","","","","","",""
"","1205","html-keyboard-response","411","853382","0.0-3.0-1.197","fofo","s","a","noncog","word","S","exp","4"
"","null","html-keyboard-response","412","853885","0.0-3.0-0.198","+","null","","","","","",""
"","1264","html-keyboard-response","413","855150","0.0-3.0-1.198","filme","s","n","cog","word","S","exp","5"
"","null","html-keyboard-response","414","855652","0.0-3.0-0.199","+","null","","","","","",""
"","1702","html-keyboard-response","415","857355","0.0-3.0-1.199","instruído","s","a","noncog","word","S","exp","9"
"","null","html-keyboard-response","416","857858","0.0-3.0-0.200","+","null","","","","","",""
"","1561","html-keyboard-response","417","859420","0.0-3.0-1.200","ocinto","s","null","noncog","pseudo","N","exp","null"
"","null","html-keyboard-response","418","859925","0.0-3.0-0.201","+","null","","","","","",""
"","2269","html-keyboard-response","419","862195","0.0-3.0-1.201","atapdar","s","null","noncog","pseudo","N","exp","null"
"","null","html-keyboard-response","420","862700","0.0-3.0-0.202","+","null","","","","","",""
"","1350","html-keyboard-response","421","864051","0.0-3.0-1.202","ótimo","s","a","noncog","word","S","exp","5"
"","null","html-keyboard-response","422","864552","0.0-3.0-0.203","+","null","","","","","",""
"","1233","html-keyboard-response","423","865786","0.0-3.0-1.203","glória","s","n","cog","word","S","exp","6"
"","null","html-keyboard-response","424","866288","0.0-3.0-0.204","+","null","","","","","",""
"","1377","html-keyboard-response","425","867666","0.0-3.0-1.204","pulmão","s","n","noncog","word","S","exp","6"
"","null","html-keyboard-response","426","868168","0.0-3.0-0.205","+","null","","","","","",""
"","1183","html-keyboard-response","427","869352","0.0-3.0-1.205","tela","s","n","noncog","word","S","exp","4"
"","null","html-keyboard-response","428","869853","0.0-3.0-0.206","+","null","","","","","",""
"","1985","html-keyboard-response","429","871839","0.0-3.0-1.206","usfiga","s","null","noncog","pseudo","N","exp","null"
"","null","html-keyboard-response","430","872342","0.0-3.0-0.207","+","null","","","","","",""
"","1436","html-keyboard-response","431","873779","0.0-3.0-1.207","liso","s","n","noncog","word","S","exp","4"
"","null","html-keyboard-response","432","874281","0.0-3.0-0.208","+","null","","","","","",""
"","2314","html-keyboard-response","433","876596","0.0-3.0-1.208","âgnulo","s","null","noncog","pseudo","N","exp","null"
"","null","html-keyboard-response","434","877097","0.0-3.0-0.209","+","null","","","","","",""
"","1520","html-keyboard-response","435","878619","0.0-3.0-1.209","tinta","s","n","cog","word","S","exp","5"
"","null","html-keyboard-response","436","879123","0.0-3.0-0.210","+","null","","","","","",""
"","1254","html-keyboard-response","437","880377","0.0-3.0-1.210","oper","s","null","noncog","pseudo","N","exp","null"
"","null","html-keyboard-response","438","880882","0.0-3.0-0.211","+","null","","","","","",""
"","1925","html-keyboard-response","439","882807","0.0-3.0-1.211","ofreta","s","null","noncog","pseudo","N","exp","null"
"","null","html-keyboard-response","440","883310","0.0-3.0-0.212","+","null","","","","","",""
"","3146","html-keyboard-response","441","886456","0.0-3.0-1.212","salpicado","s","a","noncog","word","S","exp","9"
"","null","html-keyboard-response","442","886960","0.0-3.0-0.213","+","null","","","","","",""
"","1828","html-keyboard-response","443","888789","0.0-3.0-1.213","abieso","s","null","noncog","pseudo","N","exp","null"
"","null","html-keyboard-response","444","889293","0.0-3.0-0.214","+","null","","","","","",""
"","2861","html-keyboard-response","445","892155","0.0-3.0-1.214","manfa","s","null","noncog","pseudo","N","exp","null"
"","null","html-keyboard-response","446","892657","0.0-3.0-0.215","+","null","","","","","",""
"","2321","html-keyboard-response","447","894979","0.0-3.0-1.215","árovre","s","null","noncog","pseudo","N","exp","null"
"","null","html-keyboard-response","448","895482","0.0-3.0-0.216","+","null","","","","","",""
"","2056","html-keyboard-response","449","897538","0.0-3.0-1.216","francês","s","a","cog","word","S","exp","7"
"","null","html-keyboard-response","450","898041","0.0-3.0-0.217","+","null","","","","","",""
"","5003","html-keyboard-response","451","903045","0.0-3.0-1.217","uchães","s","null","noncog","pseudo","N","exp","null"
"","null","html-keyboard-response","452","903550","0.0-3.0-0.218","+","null","","","","","",""
"","1386","html-keyboard-response","453","904937","0.0-3.0-1.218","livro","s","n","cog","word","S","exp","5"
"","null","html-keyboard-response","454","905438","0.0-3.0-0.219","+","null","","","","","",""
"","2138","html-keyboard-response","455","907577","0.0-3.0-1.219","espinho","s","n","noncog","word","S","exp","7"
"","null","html-keyboard-response","456","908079","0.0-3.0-0.220","+","null","","","","","",""
"","2283","html-keyboard-response","457","910362","0.0-3.0-1.220","alfabeto","s","n","cog","word","S","exp","8"
"","null","html-keyboard-response","458","910865","0.0-3.0-0.221","+","null","","","","","",""
"","2009","html-keyboard-response","459","912875","0.0-3.0-1.221","liberal","s","a","cog","word","S","exp","7"
"","null","html-keyboard-response","460","913379","0.0-3.0-0.222","+","null","","","","","",""
"","8082","html-keyboard-response","461","921462","0.0-3.0-1.222","aletiê","n","null","noncog","pseudo","N","exp","null"
"","null","html-keyboard-response","462","921965","0.0-3.0-0.223","+","null","","","","","",""
"","15534","html-keyboard-response","463","937500","0.0-3.0-1.223","ronronar","s","v","cog","word","S","exp","8"
"","null","html-keyboard-response","464","938004","0.0-3.0-0.224","+","null","","","","","",""
"","4099","html-keyboard-response","465","942104","0.0-3.0-1.224","cascata","s","n","noncog","word","S","exp","7"
"","null","html-keyboard-response","466","942608","0.0-3.0-0.225","+","null","","","","","",""
"","5034","html-keyboard-response","467","947643","0.0-3.0-1.225","fino","s","a","cog","word","S","exp","4"
"","null","html-keyboard-response","468","948148","0.0-3.0-0.226","+","null","","","","","",""
"","2099","html-keyboard-response","469","950248","0.0-3.0-1.226","pritas","s","null","noncog","pseudo","N","exp","null"
"","null","html-keyboard-response","470","950753","0.0-3.0-0.227","+","null","","","","","",""
"","5211","html-keyboard-response","471","955964","0.0-3.0-1.227","afual","s","null","noncog","pseudo","N","exp","null"
"","null","html-keyboard-response","472","956465","0.0-3.0-0.228","+","null","","","","","",""
"","2572","html-keyboard-response","473","959038","0.0-3.0-1.228","lapestra","s","null","noncog","pseudo","N","exp","null"
"","null","html-keyboard-response","474","959542","0.0-3.0-0.229","+","null","","","","","",""
"","2399","html-keyboard-response","475","961941","0.0-3.0-1.229","beima","s","null","noncog","pseudo","N","exp","null"
"","null","html-keyboard-response","476","962444","0.0-3.0-0.230","+","null","","","","","",""
"","2463","html-keyboard-response","477","964907","0.0-3.0-1.230","suipestar","s","null","noncog","pseudo","N","exp","null"
"","null","html-keyboard-response","478","965411","0.0-3.0-0.231","+","null","","","","","",""
"","3388","html-keyboard-response","479","968799","0.0-3.0-1.231","rédesa","s","null","noncog","pseudo","N","exp","null"
"","null","html-keyboard-response","480","969302","0.0-3.0-0.232","+","null","","","","","",""
"","3786","html-keyboard-response","481","973089","0.0-3.0-1.232","esprotiar","s","null","noncog","pseudo","N","exp","null"
"","null","html-keyboard-response","482","973590","0.0-3.0-0.233","+","null","","","","","",""
"","1354","html-keyboard-response","483","974945","0.0-3.0-1.233","azul","s","n","noncog","word","S","exp","4"
"","null","html-keyboard-response","484","975447","0.0-3.0-0.234","+","null","","","","","",""
"","4364","html-keyboard-response","485","979812","0.0-3.0-1.234","filosofia","s","n","cog","word","S","exp","9"
"","null","html-keyboard-response","486","980316","0.0-3.0-0.235","+","null","","","","","",""
"","2043","html-keyboard-response","487","982359","0.0-3.0-1.235","ideisa","s","null","noncog","pseudo","N","exp","null"
"","null","html-keyboard-response","488","982861","0.0-3.0-0.236","+","null","","","","","",""
"","1713","html-keyboard-response","489","984574","0.0-3.0-1.236","motros","s","null","noncog","pseudo","N","exp","null"
"","null","html-keyboard-response","490","985079","0.0-3.0-0.237","+","null","","","","","",""
"","1685","html-keyboard-response","491","986764","0.0-3.0-1.237","bachir","s","null","noncog","pseudo","N","exp","null"
"","null","html-keyboard-response","492","987267","0.0-3.0-0.238","+","null","","","","","",""
"","2785","html-keyboard-response","493","990052","0.0-3.0-1.238","braras","s","null","noncog","pseudo","N","exp","null"
"","null","html-keyboard-response","494","990553","0.0-3.0-0.239","+","null","","","","","",""
"","1769","html-keyboard-response","495","992323","0.0-3.0-1.239","revear","s","null","noncog","pseudo","N","exp","null"
