"view_history","rt","trial_type","trial_index","time_elapsed","internal_node_id","stimulus","response","trial_part","trial","word","question","answer","accuracy"
"[{""page_index"":0,""viewing_time"":107897},{""page_index"":1,""viewing_time"":20301}]","128199","instructions","0","128199","0.0-0.0","","","","","","","",""
"","null","html-keyboard-response","1","129305","0.0-1.0-0.0-0.0","<span style= ""font-size:30px; font-family: monospace"">+</span>","null","fixation","","","","",""
"","7369","html-keyboard-response","2","136931","0.0-1.0-1.0","<span style=""font-size:30px; font-family: monospace"">O</span>"," ","","prac-sent","O","","",""
"","5827","html-keyboard-response","3","143010","0.0-1.0-1.1","<span style=""font-size:30px; font-family: monospace"">dia</span>"," ","","prac-sent","dia","","",""
"","1425","html-keyboard-response","4","144687","0.0-1.0-1.2","<span style=""font-size:30px; font-family: monospace"">estará</span>"," ","","prac-sent","estará","","",""
"","641","html-keyboard-response","5","145585","0.0-1.0-1.3","<span style=""font-size:30px; font-family: monospace"">cheio</span>"," ","","prac-sent","cheio","","",""
"","769","html-keyboard-response","6","146607","0.0-1.0-1.4","<span style=""font-size:30px; font-family: monospace"">de</span>"," ","","prac-sent","de","","",""
"","3648","html-keyboard-response","7","150508","0.0-1.0-1.5","<span style=""font-size:30px; font-family: monospace"">nuvens</span>"," ","","prac-sent","nuvens","","",""
"","1750","html-keyboard-response","8","152512","0.0-1.0-1.6","<span style=""font-size:30px; font-family: monospace"">hoje.</span>"," ","","prac-sent","hoje.","","",""
"","null","html-keyboard-response","9","153767","0.0-1.0-0.7-0.7","<span style= ""font-size:30px; font-family: monospace"">+</span>","null","fixation","","","","",""
"","1630","html-keyboard-response","10","155653","0.0-1.0-1.7","<span style=""font-size:30px; font-family: monospace"">A</span>"," ","","prac-sent","A","","",""
"","2875","html-keyboard-response","11","158778","0.0-1.0-1.8","<span style=""font-size:30px; font-family: monospace"">caneca</span>"," ","","prac-sent","caneca","","",""
"","2587","html-keyboard-response","12","161619","0.0-1.0-1.9","<span style=""font-size:30px; font-family: monospace"">colorida</span>"," ","","prac-sent","colorida","","",""
"","2680","html-keyboard-response","13","164551","0.0-1.0-1.10","<span style=""font-size:30px; font-family: monospace"">caiu</span>"," ","","prac-sent","caiu","","",""
"","1179","html-keyboard-response","14","165982","0.0-1.0-1.11","<span style=""font-size:30px; font-family: monospace"">da</span>"," ","","prac-sent","da","","",""
"","1529","html-keyboard-response","15","167766","0.0-1.0-1.12","<span style=""font-size:30px; font-family: monospace"">mesa</span>"," ","","prac-sent","mesa","","",""
"","732","html-keyboard-response","16","168750","0.0-1.0-1.13","<span style=""font-size:30px; font-family: monospace"">de</span>"," ","","prac-sent","de","","",""
"","2610","html-keyboard-response","17","171615","0.0-1.0-1.14","<span style=""font-size:30px; font-family: monospace"">jantar.</span>"," ","","prac-comp","jantar.","","",""
"","87205","html-keyboard-response","18","259071","0.0-1.0-2.14-0.14","<span style=""font-size:30px; font-family: monospace"">A caneca permaneceu na mesa?</span>","s","","prac-comp","","A caneca permaneceu na mesa?","não","false"
"[{""page_index"":0,""viewing_time"":90341}]","90342","instructions","19","349913","0.0-2.0","","","","","","","",""
"","null","html-keyboard-response","20","351017","0.0-3.0-0.0-0.0","<span style= ""font-size:30px; font-family: monospace"">+</span>","null","fixation","","","","",""
"","4755","html-keyboard-response","21","356028","0.0-3.0-1.0","<span style=""font-size:30px; font-family: monospace"">Ursos</span>"," ","","exp-sent","Ursos","","",""
"","1684","html-keyboard-response","22","357967","0.0-3.0-1.1","<span style=""font-size:30px; font-family: monospace"">têm</span>"," ","","exp-sent","têm","","",""
"","1374","html-keyboard-response","23","359596","0.0-3.0-1.2","<span style=""font-size:30px; font-family: monospace"">uma</span>"," ","","exp-sent","uma","","",""
"","4315","html-keyboard-response","24","364162","0.0-3.0-1.3","<span style=""font-size:30px; font-family: monospace"">patada</span>"," ","","exp-sent","patada","","",""
"","2413","html-keyboard-response","25","366829","0.0-3.0-1.4","<span style=""font-size:30px; font-family: monospace"">brutal</span>"," ","","exp-sent","brutal","","",""
"","2318","html-keyboard-response","26","369397","0.0-3.0-1.5","<span style=""font-size:30px; font-family: monospace"">e</span>"," ","","exp-sent","e","","",""
"","2893","html-keyboard-response","27","372545","0.0-3.0-1.6","<span style=""font-size:30px; font-family: monospace"">poderosa.</span>"," ","","exp-sent","poderosa.","","",""
"","null","html-keyboard-response","28","373802","0.0-3.0-0.7-0.7","<span style= ""font-size:30px; font-family: monospace"">+</span>","null","fixation","","","","",""
"","2410","html-keyboard-response","29","376467","0.0-3.0-1.7","<span style=""font-size:30px; font-family: monospace"">Eu</span>"," ","","exp-sent","Eu","","",""
"","1661","html-keyboard-response","30","378383","0.0-3.0-1.8","<span style=""font-size:30px; font-family: monospace"">fiz</span>"," ","","exp-sent","fiz","","",""
"","1875","html-keyboard-response","31","380512","0.0-3.0-1.9","<span style=""font-size:30px; font-family: monospace"">aulas</span>"," ","","exp-sent","aulas","","",""
"","1016","html-keyboard-response","32","381784","0.0-3.0-1.10","<span style=""font-size:30px; font-family: monospace"">de</span>"," ","","exp-sent","de","","",""
"","6394","html-keyboard-response","33","388433","0.0-3.0-1.11","<span style=""font-size:30px; font-family: monospace"">espanhol</span>"," ","","exp-sent","espanhol","","",""
"","1852","html-keyboard-response","34","390538","0.0-3.0-1.12","<span style=""font-size:30px; font-family: monospace"">nesta</span>"," ","","exp-sent","nesta","","",""
"","2062","html-keyboard-response","35","392855","0.0-3.0-1.13","<span style=""font-size:30px; font-family: monospace"">cidade.</span>"," ","","exp-sent","cidade.","","",""
"","null","html-keyboard-response","36","394113","0.0-3.0-0.14-0.14","<span style= ""font-size:30px; font-family: monospace"">+</span>","null","fixation","","","","",""
"","3027","html-keyboard-response","37","397396","0.0-3.0-1.14","<span style=""font-size:30px; font-family: monospace"">Ele</span>"," ","","exp-sent","Ele","","",""
"","2668","html-keyboard-response","38","400317","0.0-3.0-1.15","<span style=""font-size:30px; font-family: monospace"">comprou</span>"," ","","exp-sent","comprou","","",""
"","1962","html-keyboard-response","39","402533","0.0-3.0-1.16","<span style=""font-size:30px; font-family: monospace"">mais</span>"," ","","exp-sent","mais","","",""
"","999","html-keyboard-response","40","403784","0.0-3.0-1.17","<span style=""font-size:30px; font-family: monospace"">uma</span>"," ","","exp-sent","uma","","",""
"","3541","html-keyboard-response","41","407580","0.0-3.0-1.18","<span style=""font-size:30px; font-family: monospace"">esponja</span>"," ","","exp-sent","esponja","","",""
"","1442","html-keyboard-response","42","409278","0.0-3.0-1.19","<span style=""font-size:30px; font-family: monospace"">para</span>"," ","","exp-sent","para","","",""
"","1148","html-keyboard-response","43","410678","0.0-3.0-1.20","<span style=""font-size:30px; font-family: monospace"">a</span>"," ","","exp-sent","a","","",""
"","1893","html-keyboard-response","44","412823","0.0-3.0-1.21","<span style=""font-size:30px; font-family: monospace"">cozinha.</span>"," ","","exp-sent","cozinha.","","",""
"","null","html-keyboard-response","45","414082","0.0-3.0-0.22-0.22","<span style= ""font-size:30px; font-family: monospace"">+</span>","null","fixation","","","","",""
"","1458","html-keyboard-response","46","415796","0.0-3.0-1.22","<span style=""font-size:30px; font-family: monospace"">Ele</span>"," ","","exp-sent","Ele","","",""
"","1356","html-keyboard-response","47","417406","0.0-3.0-1.23","<span style=""font-size:30px; font-family: monospace"">teve</span>"," ","","exp-sent","teve","","",""
"","1209","html-keyboard-response","48","418867","0.0-3.0-1.24","<span style=""font-size:30px; font-family: monospace"">um</span>"," ","","exp-sent","um","","",""
"","2208","html-keyboard-response","49","421329","0.0-3.0-1.25","<span style=""font-size:30px; font-family: monospace"">sono</span>"," ","","exp-sent","sono","","",""
"","2343","html-keyboard-response","50","423925","0.0-3.0-1.26","<span style=""font-size:30px; font-family: monospace"">bizarro</span>"," ","","exp-sent","bizarro","","",""
"","1262","html-keyboard-response","51","425438","0.0-3.0-1.27","<span style=""font-size:30px; font-family: monospace"">sem</span>"," ","","exp-sent","sem","","",""
"","2192","html-keyboard-response","52","427884","0.0-3.0-1.28","<span style=""font-size:30px; font-family: monospace"">nenhum</span>"," ","","exp-sent","nenhum","","",""
"","2266","html-keyboard-response","53","430402","0.0-3.0-1.29","<span style=""font-size:30px; font-family: monospace"">motivo.</span>"," ","","exp-sent","motivo.","","",""
"","null","html-keyboard-response","54","431659","0.0-3.0-0.30-0.30","<span style= ""font-size:30px; font-family: monospace"">+</span>","null","fixation","","","","",""
"","1050","html-keyboard-response","55","432965","0.0-3.0-1.30","<span style=""font-size:30px; font-family: monospace"">A</span>"," ","","exp-sent","A","","",""
"","1416","html-keyboard-response","56","434636","0.0-3.0-1.31","<span style=""font-size:30px; font-family: monospace"">moça</span>"," ","","exp-sent","moça","","",""
"","3031","html-keyboard-response","57","437923","0.0-3.0-1.32","<span style=""font-size:30px; font-family: monospace"">comprou</span>"," ","","exp-sent","comprou","","",""
"","1134","html-keyboard-response","58","439312","0.0-3.0-1.33","<span style=""font-size:30px; font-family: monospace"">um</span>"," ","","exp-sent","um","","",""
"","2376","html-keyboard-response","59","441942","0.0-3.0-1.34","<span style=""font-size:30px; font-family: monospace"">diamante</span>"," ","","exp-sent","diamante","","",""
"","852","html-keyboard-response","60","443047","0.0-3.0-1.35","<span style=""font-size:30px; font-family: monospace"">para</span>"," ","","exp-sent","para","","",""
"","1258","html-keyboard-response","61","444557","0.0-3.0-1.36","<span style=""font-size:30px; font-family: monospace"">sua</span>"," ","","exp-sent","sua","","",""
"","1342","html-keyboard-response","62","446149","0.0-3.0-1.37","<span style=""font-size:30px; font-family: monospace"">prima.</span>"," ","","comp","prima.","","",""
"","20883","html-keyboard-response","63","467287","0.0-3.0-2.37-0.37","<span style=""font-size:30px; font-family: monospace"">A moça comprou um diamante?</span>","s","","comp","","A moça comprou um diamante?","sim","false"
"","null","html-keyboard-response","64","468793","0.0-3.0-0.38-0.38","<span style= ""font-size:30px; font-family: monospace"">+</span>","null","fixation","","","","",""
"","25860","html-keyboard-response","65","494909","0.0-3.0-1.38","<span style=""font-size:30px; font-family: monospace"">O</span>"," ","","exp-sent","O","","",""
"","4141","html-keyboard-response","66","499305","0.0-3.0-1.39","<span style=""font-size:30px; font-family: monospace"">moço</span>"," ","","exp-sent","moço","","",""
"","2591","html-keyboard-response","67","502150","0.0-3.0-1.40","<span style=""font-size:30px; font-family: monospace"">usou</span>"," ","","exp-sent","usou","","",""
"","1823","html-keyboard-response","68","504227","0.0-3.0-1.41","<span style=""font-size:30px; font-family: monospace"">várias</span>"," ","","exp-sent","várias","","",""
"","2085","html-keyboard-response","69","506567","0.0-3.0-1.42","<span style=""font-size:30px; font-family: monospace"">velas</span>"," ","","exp-sent","velas","","",""
"","1146","html-keyboard-response","70","507967","0.0-3.0-1.43","<span style=""font-size:30px; font-family: monospace"">no</span>"," ","","exp-sent","no","","",""
"","3744","html-keyboard-response","71","511964","0.0-3.0-1.44","<span style=""font-size:30px; font-family: monospace"">enfeite</span>"," ","","exp-sent","enfeite","","",""
"","921","html-keyboard-response","72","513141","0.0-3.0-1.45","<span style=""font-size:30px; font-family: monospace"">de</span>"," ","","exp-sent","de","","",""
"","6532","html-keyboard-response","73","519924","0.0-3.0-1.46","<span style=""font-size:30px; font-family: monospace"">mesa.</span>"," ","","exp-sent","mesa.","","",""
"","null","html-keyboard-response","74","521182","0.0-3.0-0.47-0.47","<span style= ""font-size:30px; font-family: monospace"">+</span>","null","fixation","","","","",""
"","2528","html-keyboard-response","75","523966","0.0-3.0-1.47","<span style=""font-size:30px; font-family: monospace"">Gostamos</span>"," ","","exp-sent","Gostamos","","",""
"","1953","html-keyboard-response","76","526171","0.0-3.0-1.48","<span style=""font-size:30px; font-family: monospace"">de</span>"," ","","exp-sent","de","","",""
"","1894","html-keyboard-response","77","528318","0.0-3.0-1.49","<span style=""font-size:30px; font-family: monospace"">suco</span>"," ","","exp-sent","suco","","",""
"","1120","html-keyboard-response","78","529692","0.0-3.0-1.50","<span style=""font-size:30px; font-family: monospace"">em</span>"," ","","exp-sent","em","","",""
"","8806","html-keyboard-response","79","538753","0.0-3.0-1.51","<span style=""font-size:30px; font-family: monospace"">garrafa</span>"," ","","exp-sent","garrafa","","",""
"","1047","html-keyboard-response","80","540056","0.0-3.0-1.52","<span style=""font-size:30px; font-family: monospace"">de</span>"," ","","exp-sent","de","","",""
"","8186","html-keyboard-response","81","548495","0.0-3.0-1.53","<span style=""font-size:30px; font-family: monospace"">tamanho</span>"," ","","exp-sent","tamanho","","",""
"","2093","html-keyboard-response","82","550843","0.0-3.0-1.54","<span style=""font-size:30px; font-family: monospace"">pequeno.</span>"," ","","exp-sent","pequeno.","","",""
"","null","html-keyboard-response","83","552099","0.0-3.0-0.55-0.55","<span style= ""font-size:30px; font-family: monospace"">+</span>","null","fixation","","","","",""
"","1179","html-keyboard-response","84","553534","0.0-3.0-1.55","<span style=""font-size:30px; font-family: monospace"">Sua</span>"," ","","exp-sent","Sua","","",""
"","1459","html-keyboard-response","85","555247","0.0-3.0-1.56","<span style=""font-size:30px; font-family: monospace"">filha</span>"," ","","exp-sent","filha","","",""
"","958","html-keyboard-response","86","556458","0.0-3.0-1.57","<span style=""font-size:30px; font-family: monospace"">é</span>"," ","","exp-sent","é","","",""
"","1326","html-keyboard-response","87","558040","0.0-3.0-1.58","<span style=""font-size:30px; font-family: monospace"">muito</span>"," ","","exp-sent","muito","","",""
"","2463","html-keyboard-response","88","560756","0.0-3.0-1.59","<span style=""font-size:30px; font-family: monospace"">capaz</span>"," ","","exp-sent","capaz","","",""
"","2482","html-keyboard-response","89","563492","0.0-3.0-1.60","<span style=""font-size:30px; font-family: monospace"">e</span>"," ","","exp-sent","e","","",""
"","4080","html-keyboard-response","90","567824","0.0-3.0-1.61","<span style=""font-size:30px; font-family: monospace"">esforçada.</span>"," ","","exp-sent","esforçada.","","",""
"","null","html-keyboard-response","91","569084","0.0-3.0-0.62-0.62","<span style= ""font-size:30px; font-family: monospace"">+</span>","null","fixation","","","","",""
"","2075","html-keyboard-response","92","571414","0.0-3.0-1.62","<span style=""font-size:30px; font-family: monospace"">A</span>"," ","","exp-sent","A","","",""
"","1610","html-keyboard-response","93","573278","0.0-3.0-1.63","<span style=""font-size:30px; font-family: monospace"">batida</span>"," ","","exp-sent","batida","","",""
"","5213","html-keyboard-response","94","578744","0.0-3.0-1.64","<span style=""font-size:30px; font-family: monospace"">causou</span>"," ","","exp-sent","causou","","",""
"","1525","html-keyboard-response","95","580524","0.0-3.0-1.65","<span style=""font-size:30px; font-family: monospace"">muita</span>"," ","","exp-sent","muita","","",""
"","3078","html-keyboard-response","96","583853","0.0-3.0-1.66","<span style=""font-size:30px; font-family: monospace"">confusão</span>"," ","","exp-sent","confusão","","",""
"","734","html-keyboard-response","97","584841","0.0-3.0-1.67","<span style=""font-size:30px; font-family: monospace"">na</span>"," ","","exp-sent","na","","",""
"","1960","html-keyboard-response","98","587055","0.0-3.0-1.68","<span style=""font-size:30px; font-family: monospace"">estrada.</span>"," ","","exp-sent","estrada.","","",""
"","null","html-keyboard-response","99","588310","0.0-3.0-0.69-0.69","<span style= ""font-size:30px; font-family: monospace"">+</span>","null","fixation","","","","",""
"","1973","html-keyboard-response","100","590539","0.0-3.0-1.69","<span style=""font-size:30px; font-family: monospace"">Eu</span>"," ","","exp-sent","Eu","","",""
"","6598","html-keyboard-response","101","597392","0.0-3.0-1.70","<span style=""font-size:30px; font-family: monospace"">cozinhei</span>"," ","","exp-sent","cozinhei","","",""
"","1222","html-keyboard-response","102","598866","0.0-3.0-1.71","<span style=""font-size:30px; font-family: monospace"">um</span>"," ","","exp-sent","um","","",""
"","1703","html-keyboard-response","103","600822","0.0-3.0-1.72","<span style=""font-size:30px; font-family: monospace"">almoço</span>"," ","","exp-sent","almoço","","",""
"","11411","html-keyboard-response","104","612487","0.0-3.0-1.73","<span style=""font-size:30px; font-family: monospace"">nutritivo</span>"," ","","exp-sent","nutritivo","","",""
"","992","html-keyboard-response","105","613730","0.0-3.0-1.74","<span style=""font-size:30px; font-family: monospace"">para</span>"," ","","exp-sent","para","","",""
"","2130","html-keyboard-response","106","616115","0.0-3.0-1.75","<span style=""font-size:30px; font-family: monospace"">hoje.</span>"," ","","comp","hoje.","","",""
"","13540","html-keyboard-response","107","629911","0.0-3.0-2.75-0.75","<span style=""font-size:30px; font-family: monospace"">O almoço era nutritivo?</span>","s","","comp","","O almoço era nutritivo?","sim","false"
"","null","html-keyboard-response","108","631417","0.0-3.0-0.76-0.76","<span style= ""font-size:30px; font-family: monospace"">+</span>","null","fixation","","","","",""
"","13743","html-keyboard-response","109","645415","0.0-3.0-1.76","<span style=""font-size:30px; font-family: monospace"">Ganhamos</span>"," ","","exp-sent","Ganhamos","","",""
"","11310","html-keyboard-response","110","656978","0.0-3.0-1.77","<span style=""font-size:30px; font-family: monospace"">passagem</span>"," ","","exp-sent","passagem","","",""
"","1456","html-keyboard-response","111","658688","0.0-3.0-1.78","<span style=""font-size:30px; font-family: monospace"">para</span>"," ","","exp-sent","para","","",""
"","1021","html-keyboard-response","112","659960","0.0-3.0-1.79","<span style=""font-size:30px; font-family: monospace"">uma</span>"," ","","exp-sent","uma","","",""
"","10505","html-keyboard-response","113","670721","0.0-3.0-1.80","<span style=""font-size:30px; font-family: monospace"">viagem</span>"," ","","exp-sent","viagem","","",""
"","1346","html-keyboard-response","114","672318","0.0-3.0-1.81","<span style=""font-size:30px; font-family: monospace"">de</span>"," ","","exp-sent","de","","",""
"","4304","html-keyboard-response","115","676878","0.0-3.0-1.82","<span style=""font-size:30px; font-family: monospace"">férias.</span>"," ","","exp-sent","férias.","","",""
"","null","html-keyboard-response","116","678135","0.0-3.0-0.83-0.83","<span style= ""font-size:30px; font-family: monospace"">+</span>","null","fixation","","","","",""
"","7716","html-keyboard-response","117","686107","0.0-3.0-1.83","<span style=""font-size:30px; font-family: monospace"">Caiu</span>"," ","","exp-sent","Caiu","","",""
"","3587","html-keyboard-response","118","689947","0.0-3.0-1.84","<span style=""font-size:30px; font-family: monospace"">algo</span>"," ","","exp-sent","algo","","",""
"","1427","html-keyboard-response","119","691631","0.0-3.0-1.85","<span style=""font-size:30px; font-family: monospace"">no</span>"," ","","exp-sent","no","","",""
"","1380","html-keyboard-response","120","693262","0.0-3.0-1.86","<span style=""font-size:30px; font-family: monospace"">meu</span>"," ","","exp-sent","meu","","",""
"","6037","html-keyboard-response","121","699550","0.0-3.0-1.87","<span style=""font-size:30px; font-family: monospace"">olho</span>"," ","","exp-sent","olho","","",""
"","2787","html-keyboard-response","122","702592","0.0-3.0-1.88","<span style=""font-size:30px; font-family: monospace"">ontem</span>"," ","","exp-sent","ontem","","",""
"","1247","html-keyboard-response","123","704094","0.0-3.0-1.89","<span style=""font-size:30px; font-family: monospace"">de</span>"," ","","exp-sent","de","","",""
"","1558","html-keyboard-response","124","705908","0.0-3.0-1.90","<span style=""font-size:30px; font-family: monospace"">tarde.</span>"," ","","exp-sent","tarde.","","",""
"","null","html-keyboard-response","125","707165","0.0-3.0-0.91-0.91","<span style= ""font-size:30px; font-family: monospace"">+</span>","null","fixation","","","","",""
"","4948","html-keyboard-response","126","712369","0.0-3.0-1.91","<span style=""font-size:30px; font-family: monospace"">Não</span>"," ","","exp-sent","Não","","",""
"","1904","html-keyboard-response","127","714528","0.0-3.0-1.92","<span style=""font-size:30px; font-family: monospace"">havia</span>"," ","","exp-sent","havia","","",""
"","1912","html-keyboard-response","128","716693","0.0-3.0-1.93","<span style=""font-size:30px; font-family: monospace"">mais</span>"," ","","exp-sent","mais","","",""
"","10567","html-keyboard-response","129","727513","0.0-3.0-1.94","<span style=""font-size:30px; font-family: monospace"">nenhum</span>"," ","","exp-sent","nenhum","","",""
"","2719","html-keyboard-response","130","730486","0.0-3.0-1.95","<span style=""font-size:30px; font-family: monospace"">ingresso</span>"," ","","exp-sent","ingresso","","",""
"","1849","html-keyboard-response","131","732588","0.0-3.0-1.96","<span style=""font-size:30px; font-family: monospace"">para</span>"," ","","exp-sent","para","","",""
"","2035","html-keyboard-response","132","734876","0.0-3.0-1.97","<span style=""font-size:30px; font-family: monospace"">o</span>"," ","","exp-sent","o","","",""
"","1883","html-keyboard-response","133","737013","0.0-3.0-1.98","<span style=""font-size:30px; font-family: monospace"">evento.</span>"," ","","exp-sent","evento.","","",""
"","null","html-keyboard-response","134","738268","0.0-3.0-0.99-0.99","<span style= ""font-size:30px; font-family: monospace"">+</span>","null","fixation","","","","",""
"","1803","html-keyboard-response","135","740326","0.0-3.0-1.99","<span style=""font-size:30px; font-family: monospace"">A</span>"," ","","exp-sent","A","","",""
"","1729","html-keyboard-response","136","742308","0.0-3.0-1.100","<span style=""font-size:30px; font-family: monospace"">médica</span>"," ","","exp-sent","médica","","",""
"","5028","html-keyboard-response","137","747587","0.0-3.0-1.101","<span style=""font-size:30px; font-family: monospace"">descobriu</span>"," ","","exp-sent","descobriu","","",""
"","1729","html-keyboard-response","138","749570","0.0-3.0-1.102","<span style=""font-size:30px; font-family: monospace"">uma</span>"," ","","exp-sent","uma","","",""
"","2005","html-keyboard-response","139","751829","0.0-3.0-1.103","<span style=""font-size:30px; font-family: monospace"">cura</span>"," ","","exp-sent","cura","","",""
"","3589","html-keyboard-response","140","755673","0.0-3.0-1.104","<span style=""font-size:30px; font-family: monospace"">para</span>"," ","","exp-sent","para","","",""
"","1431","html-keyboard-response","141","757357","0.0-3.0-1.105","<span style=""font-size:30px; font-family: monospace"">a</span>"," ","","exp-sent","a","","",""
"","7330","html-keyboard-response","142","764940","0.0-3.0-1.106","<span style=""font-size:30px; font-family: monospace"">doença.</span>"," ","","exp-sent","doença.","","",""
"","null","html-keyboard-response","143","766195","0.0-3.0-0.107-0.107","<span style= ""font-size:30px; font-family: monospace"">+</span>","null","fixation","","","","",""
"","1446","html-keyboard-response","144","767896","0.0-3.0-1.107","<span style=""font-size:30px; font-family: monospace"">O</span>"," ","","exp-sent","O","","",""
"","4654","html-keyboard-response","145","772806","0.0-3.0-1.108","<span style=""font-size:30px; font-family: monospace"">menino</span>"," ","","exp-sent","menino","","",""
"","5327","html-keyboard-response","146","778384","0.0-3.0-1.109","<span style=""font-size:30px; font-family: monospace"">riscou</span>"," ","","exp-sent","riscou","","",""
"","1143","html-keyboard-response","147","779778","0.0-3.0-1.110","<span style=""font-size:30px; font-family: monospace"">o</span>"," ","","exp-sent","o","","",""
"","5395","html-keyboard-response","148","785433","0.0-3.0-1.111","<span style=""font-size:30px; font-family: monospace"">caderno</span>"," ","","exp-sent","caderno","","",""
"","1438","html-keyboard-response","149","787126","0.0-3.0-1.112","<span style=""font-size:30px; font-family: monospace"">com</span>"," ","","exp-sent","com","","",""
"","960","html-keyboard-response","150","788343","0.0-3.0-1.113","<span style=""font-size:30px; font-family: monospace"">a</span>"," ","","exp-sent","a","","",""
"","2414","html-keyboard-response","151","791014","0.0-3.0-1.114","<span style=""font-size:30px; font-family: monospace"">caneta.</span>"," ","","comp","caneta.","","",""
"","46857","html-keyboard-response","152","838139","0.0-3.0-2.114-0.114","<span style=""font-size:30px; font-family: monospace"">O menino riscou a parede com a caneta?</span>","s","","comp","","O menino riscou a parede com a caneta?","não","false"
"","null","html-keyboard-response","153","839648","0.0-3.0-0.115-0.115","<span style= ""font-size:30px; font-family: monospace"">+</span>","null","fixation","","","","",""
"","4047","html-keyboard-response","154","843951","0.0-3.0-1.115","<span style=""font-size:30px; font-family: monospace"">A</span>"," ","","exp-sent","A","","",""
"","4390","html-keyboard-response","155","848596","0.0-3.0-1.116","<span style=""font-size:30px; font-family: monospace"">motorista</span>"," ","","exp-sent","motorista","","",""
"","1757","html-keyboard-response","156","850607","0.0-3.0-1.117","<span style=""font-size:30px; font-family: monospace"">fez</span>"," ","","exp-sent","fez","","",""
"","1046","html-keyboard-response","157","851904","0.0-3.0-1.118","<span style=""font-size:30px; font-family: monospace"">o</span>"," ","","exp-sent","o","","",""
"","2379","html-keyboard-response","158","854538","0.0-3.0-1.119","<span style=""font-size:30px; font-family: monospace"">retorno</span>"," ","","exp-sent","retorno","","",""
"","8477","html-keyboard-response","159","863266","0.0-3.0-1.120","<span style=""font-size:30px; font-family: monospace"">com</span>"," ","","exp-sent","com","","",""
"","8911","html-keyboard-response","160","872430","0.0-3.0-1.121","<span style=""font-size:30px; font-family: monospace"">cuidado.</span>"," ","","exp-sent","cuidado.","","",""
"","null","html-keyboard-response","161","873690","0.0-3.0-0.122-0.122","<span style= ""font-size:30px; font-family: monospace"">+</span>","null","fixation","","","","",""
"","291","html-keyboard-response","162","874236","0.0-3.0-1.122","<span style=""font-size:30px; font-family: monospace"">Contos</span>"," ","","exp-sent","Contos","","",""
"","2059","html-keyboard-response","163","876551","0.0-3.0-1.123","<span style=""font-size:30px; font-family: monospace"">de</span>"," ","","exp-sent","de","","",""
"","2253","html-keyboard-response","164","879059","0.0-3.0-1.124","<span style=""font-size:30px; font-family: monospace"">ação</span>"," ","","exp-sent","ação","","",""
"","1388","html-keyboard-response","165","880703","0.0-3.0-1.125","<span style=""font-size:30px; font-family: monospace"">têm</span>"," ","","exp-sent","têm","","",""
"","12211","html-keyboard-response","166","893170","0.0-3.0-1.126","<span style=""font-size:30px; font-family: monospace"">chantagem</span>"," ","","exp-sent","chantagem","","",""
"","868","html-keyboard-response","167","894290","0.0-3.0-1.127","<span style=""font-size:30px; font-family: monospace"">e</span>"," ","","exp-sent","e","","",""
"","1545","html-keyboard-response","168","896087","0.0-3.0-1.128","<span style=""font-size:30px; font-family: monospace"">muita</span>"," ","","exp-sent","muita","","",""
"","1370","html-keyboard-response","169","897711","0.0-3.0-1.129","<span style=""font-size:30px; font-family: monospace"">luta.</span>"," ","","exp-sent","luta.","","",""
"","null","html-keyboard-response","170","898968","0.0-3.0-0.130-0.130","<span style= ""font-size:30px; font-family: monospace"">+</span>","null","fixation","","","","",""
"","1272","html-keyboard-response","171","900493","0.0-3.0-1.130","<span style=""font-size:30px; font-family: monospace"">A</span>"," ","","exp-sent","A","","",""
"","5474","html-keyboard-response","172","906222","0.0-3.0-1.131","<span style=""font-size:30px; font-family: monospace"">bisavó</span>"," ","","exp-sent","bisavó","","",""
"","2180","html-keyboard-response","173","908657","0.0-3.0-1.132","<span style=""font-size:30px; font-family: monospace"">recebeu</span>"," ","","exp-sent","recebeu","","",""
"","1092","html-keyboard-response","174","910002","0.0-3.0-1.133","<span style=""font-size:30px; font-family: monospace"">um</span>"," ","","exp-sent","um","","",""
"","3421","html-keyboard-response","175","913678","0.0-3.0-1.134","<span style=""font-size:30px; font-family: monospace"">benefício</span>"," ","","exp-sent","benefício","","",""
"","5469","html-keyboard-response","176","919400","0.0-3.0-1.135","<span style=""font-size:30px; font-family: monospace"">temporário</span>"," ","","exp-sent","temporário","","",""
"","1066","html-keyboard-response","177","920721","0.0-3.0-1.136","<span style=""font-size:30px; font-family: monospace"">do</span>"," ","","exp-sent","do","","",""
"","2075","html-keyboard-response","178","923047","0.0-3.0-1.137","<span style=""font-size:30px; font-family: monospace"">governo.</span>"," ","","exp-sent","governo.","","",""
"","null","html-keyboard-response","179","924305","0.0-3.0-0.138-0.138","<span style= ""font-size:30px; font-family: monospace"">+</span>","null","fixation","","","","",""
"","1791","html-keyboard-response","180","926352","0.0-3.0-1.138","<span style=""font-size:30px; font-family: monospace"">As</span>"," ","","exp-sent","As","","",""
"","1872","html-keyboard-response","181","928476","0.0-3.0-1.139","<span style=""font-size:30px; font-family: monospace"">crianças</span>"," ","","exp-sent","crianças","","",""
"","5823","html-keyboard-response","182","934551","0.0-3.0-1.140","<span style=""font-size:30px; font-family: monospace"">brincaram</span>"," ","","exp-sent","brincaram","","",""
"","2633","html-keyboard-response","183","937438","0.0-3.0-1.141","<span style=""font-size:30px; font-family: monospace"">no</span>"," ","","exp-sent","no","","",""
"","3464","html-keyboard-response","184","941155","0.0-3.0-1.142","<span style=""font-size:30px; font-family: monospace"">balanço</span>"," ","","exp-sent","balanço","","",""
"","1333","html-keyboard-response","185","942739","0.0-3.0-1.143","<span style=""font-size:30px; font-family: monospace"">a</span>"," ","","exp-sent","a","","",""
"","1706","html-keyboard-response","186","944698","0.0-3.0-1.144","<span style=""font-size:30px; font-family: monospace"">tarde</span>"," ","","exp-sent","tarde","","",""
"","1698","html-keyboard-response","187","946652","0.0-3.0-1.145","<span style=""font-size:30px; font-family: monospace"">toda.</span>"," ","","exp-sent","toda.","","",""
"","null","html-keyboard-response","188","947908","0.0-3.0-0.146-0.146","<span style= ""font-size:30px; font-family: monospace"">+</span>","null","fixation","","","","",""
"","8211","html-keyboard-response","189","956375","0.0-3.0-1.146","<span style=""font-size:30px; font-family: monospace"">Ela</span>"," ","","exp-sent","Ela","","",""
"","1473","html-keyboard-response","190","958100","0.0-3.0-1.147","<span style=""font-size:30px; font-family: monospace"">gosta</span>"," ","","exp-sent","gosta","","",""
"","923","html-keyboard-response","191","959274","0.0-3.0-1.148","<span style=""font-size:30px; font-family: monospace"">de</span>"," ","","exp-sent","de","","",""
"","3399","html-keyboard-response","192","962929","0.0-3.0-1.149","<span style=""font-size:30px; font-family: monospace"">comida</span>"," ","","exp-sent","comida","","",""
"","9773","html-keyboard-response","193","972955","0.0-3.0-1.150","<span style=""font-size:30px; font-family: monospace"">natural</span>"," ","","exp-sent","natural","","",""
"","1412","html-keyboard-response","194","974619","0.0-3.0-1.151","<span style=""font-size:30px; font-family: monospace"">no</span>"," ","","exp-sent","no","","",""
"","1622","html-keyboard-response","195","976495","0.0-3.0-1.152","<span style=""font-size:30px; font-family: monospace"">almoço.</span>"," ","","comp","almoço.","","",""
"","9433","html-keyboard-response","196","986181","0.0-3.0-2.152-0.152","<span style=""font-size:30px; font-family: monospace"">Ela gosta de comida natural no almoço?</span>","s","","comp","","Ela gosta de comida natural no almoço?","sim","false"
"","null","html-keyboard-response","197","987690","0.0-3.0-0.153-0.153","<span style= ""font-size:30px; font-family: monospace"">+</span>","null","fixation","","","","",""
"","4795","html-keyboard-response","198","992741","0.0-3.0-1.153","<span style=""font-size:30px; font-family: monospace"">As</span>"," ","","exp-sent","As","","",""
"","2337","html-keyboard-response","199","995333","0.0-3.0-1.154","<span style=""font-size:30px; font-family: monospace"">crianças</span>"," ","","exp-sent","crianças","","",""
"","2468","html-keyboard-response","200","998053","0.0-3.0-1.155","<span style=""font-size:30px; font-family: monospace"">viram</span>"," ","","exp-sent","viram","","",""
"","1091","html-keyboard-response","201","999399","0.0-3.0-1.156","<span style=""font-size:30px; font-family: monospace"">um</span>"," ","","exp-sent","um","","",""
"","8795","html-keyboard-response","202","1008446","0.0-3.0-1.157","<span style=""font-size:30px; font-family: monospace"">vaga-lume</span>"," ","","exp-sent","vaga-lume","","",""
"","1204","html-keyboard-response","203","1009903","0.0-3.0-1.158","<span style=""font-size:30px; font-family: monospace"">nos</span>"," ","","exp-sent","nos","","",""
"","5742","html-keyboard-response","204","1015898","0.0-3.0-1.159","<span style=""font-size:30px; font-family: monospace"">arbustos.</span>"," ","","exp-sent","arbustos.","","",""
"","null","html-keyboard-response","205","1017157","0.0-3.0-0.160-0.160","<span style= ""font-size:30px; font-family: monospace"">+</span>","null","fixation","","","","",""
"","4815","html-keyboard-response","206","1022227","0.0-3.0-1.160","<span style=""font-size:30px; font-family: monospace"">Ontem</span>"," ","","exp-sent","Ontem","","",""
"","1732","html-keyboard-response","207","1024212","0.0-3.0-1.161","<span style=""font-size:30px; font-family: monospace"">o</span>"," ","","exp-sent","o","","",""
"","3789","html-keyboard-response","208","1028255","0.0-3.0-1.162","<span style=""font-size:30px; font-family: monospace"">funcionário</span>"," ","","exp-sent","funcionário","","",""
"","4776","html-keyboard-response","209","1033283","0.0-3.0-1.163","<span style=""font-size:30px; font-family: monospace"">pediu</span>"," ","","exp-sent","pediu","","",""
"","9186","html-keyboard-response","210","1042720","0.0-3.0-1.164","<span style=""font-size:30px; font-family: monospace"">autorização</span>"," ","","exp-sent","autorização","","",""
"","1319","html-keyboard-response","211","1044291","0.0-3.0-1.165","<span style=""font-size:30px; font-family: monospace"">para</span>"," ","","exp-sent","para","","",""
"","1676","html-keyboard-response","212","1046222","0.0-3.0-1.166","<span style=""font-size:30px; font-family: monospace"">a</span>"," ","","exp-sent","a","","",""
"","3482","html-keyboard-response","213","1049955","0.0-3.0-1.167","<span style=""font-size:30px; font-family: monospace"">colega.</span>"," ","","exp-sent","colega.","","",""
"","null","html-keyboard-response","214","1051209","0.0-3.0-0.168-0.168","<span style= ""font-size:30px; font-family: monospace"">+</span>","null","fixation","","","","",""
"","1616","html-keyboard-response","215","1053081","0.0-3.0-1.168","<span style=""font-size:30px; font-family: monospace"">Eu</span>"," ","","exp-sent","Eu","","",""
"","1922","html-keyboard-response","216","1055257","0.0-3.0-1.169","<span style=""font-size:30px; font-family: monospace"">sempre</span>"," ","","exp-sent","sempre","","",""
"","2528","html-keyboard-response","217","1058039","0.0-3.0-1.170","<span style=""font-size:30px; font-family: monospace"">fujo</span>"," ","","exp-sent","fujo","","",""
"","606","html-keyboard-response","218","1058898","0.0-3.0-1.171","<span style=""font-size:30px; font-family: monospace"">de</span>"," ","","exp-sent","de","","",""
"","5964","html-keyboard-response","219","1065115","0.0-3.0-1.172","<span style=""font-size:30px; font-family: monospace"">conflito</span>"," ","","exp-sent","conflito","","",""
"","1014","html-keyboard-response","220","1066382","0.0-3.0-1.173","<span style=""font-size:30px; font-family: monospace"">com</span>"," ","","exp-sent","com","","",""
"","627","html-keyboard-response","221","1067261","0.0-3.0-1.174","<span style=""font-size:30px; font-family: monospace"">as</span>"," ","","exp-sent","as","","",""
"","1761","html-keyboard-response","222","1069277","0.0-3.0-1.175","<span style=""font-size:30px; font-family: monospace"">pessoas.</span>"," ","","exp-sent","pessoas.","","",""
"","null","html-keyboard-response","223","1070534","0.0-3.0-0.176-0.176","<span style= ""font-size:30px; font-family: monospace"">+</span>","null","fixation","","","","",""
"","677","html-keyboard-response","224","1071467","0.0-3.0-1.176","<span style=""font-size:30px; font-family: monospace"">O</span>"," ","","exp-sent","O","","",""
"","1873","html-keyboard-response","225","1073592","0.0-3.0-1.177","<span style=""font-size:30px; font-family: monospace"">bolo</span>"," ","","exp-sent","bolo","","",""
"","1864","html-keyboard-response","226","1075708","0.0-3.0-1.178","<span style=""font-size:30px; font-family: monospace"">era</span>"," ","","exp-sent","era","","",""
"","1207","html-keyboard-response","227","1077169","0.0-3.0-1.179","<span style=""font-size:30px; font-family: monospace"">de</span>"," ","","exp-sent","de","","",""
"","8299","html-keyboard-response","228","1085724","0.0-3.0-1.180","<span style=""font-size:30px; font-family: monospace"">abacaxi</span>"," ","","exp-sent","abacaxi","","",""
"","967","html-keyboard-response","229","1086943","0.0-3.0-1.181","<span style=""font-size:30px; font-family: monospace"">e</span>"," ","","exp-sent","e","","",""
"","1959","html-keyboard-response","230","1089154","0.0-3.0-1.182","<span style=""font-size:30px; font-family: monospace"">creme</span>"," ","","exp-sent","creme","","",""
"","994","html-keyboard-response","231","1090401","0.0-3.0-1.183","<span style=""font-size:30px; font-family: monospace"">de</span>"," ","","exp-sent","de","","",""
"","2175","html-keyboard-response","232","1092832","0.0-3.0-1.184","<span style=""font-size:30px; font-family: monospace"">coco.</span>"," ","","exp-sent","coco.","","",""
"","null","html-keyboard-response","233","1094091","0.0-3.0-0.185-0.185","<span style= ""font-size:30px; font-family: monospace"">+</span>","null","fixation","","","","",""
"","998","html-keyboard-response","234","1095345","0.0-3.0-1.185","<span style=""font-size:30px; font-family: monospace"">As</span>"," ","","exp-sent","As","","",""
"","1892","html-keyboard-response","235","1097494","0.0-3.0-1.186","<span style=""font-size:30px; font-family: monospace"">crianças</span>"," ","","exp-sent","crianças","","",""
"","4796","html-keyboard-response","236","1102545","0.0-3.0-1.187","<span style=""font-size:30px; font-family: monospace"">brincaram</span>"," ","","exp-sent","brincaram","","",""
"","1817","html-keyboard-response","237","1104616","0.0-3.0-1.188","<span style=""font-size:30px; font-family: monospace"">com</span>"," ","","exp-sent","com","","",""
"","9126","html-keyboard-response","238","1113998","0.0-3.0-1.189","<span style=""font-size:30px; font-family: monospace"">bolhas</span>"," ","","exp-sent","bolhas","","",""
"","2053","html-keyboard-response","239","1116306","0.0-3.0-1.190","<span style=""font-size:30px; font-family: monospace"">no</span>"," ","","exp-sent","no","","",""
"","4394","html-keyboard-response","240","1120951","0.0-3.0-1.191","<span style=""font-size:30px; font-family: monospace"">banho.</span>"," ","","comp","banho.","","",""
"","7131","html-keyboard-response","241","1128339","0.0-3.0-2.191-0.191","<span style=""font-size:30px; font-family: monospace"">As crianças brincaram com bolhas?</span>","s","","comp","","As crianças brincaram com bolhas?","sim","false"
"","null","html-keyboard-response","242","1129845","0.0-3.0-0.192-0.192","<span style= ""font-size:30px; font-family: monospace"">+</span>","null","fixation","","","","",""
"","3640","html-keyboard-response","243","1133741","0.0-3.0-1.192","<span style=""font-size:30px; font-family: monospace"">Ele</span>"," ","","exp-sent","Ele","","",""
"","2913","html-keyboard-response","244","1136909","0.0-3.0-1.193","<span style=""font-size:30px; font-family: monospace"">é</span>"," ","","exp-sent","é","","",""
"","1058","html-keyboard-response","245","1138223","0.0-3.0-1.194","<span style=""font-size:30px; font-family: monospace"">um</span>"," ","","exp-sent","um","","",""
"","2135","html-keyboard-response","246","1140613","0.0-3.0-1.195","<span style=""font-size:30px; font-family: monospace"">pai</span>"," ","","exp-sent","pai","","",""
"","4161","html-keyboard-response","247","1145027","0.0-3.0-1.196","<span style=""font-size:30px; font-family: monospace"">ausente</span>"," ","","exp-sent","ausente","","",""
"","3595","html-keyboard-response","248","1148876","0.0-3.0-1.197","<span style=""font-size:30px; font-family: monospace"">e</span>"," ","","exp-sent","e","","",""
"","1319","html-keyboard-response","249","1150449","0.0-3.0-1.198","<span style=""font-size:30px; font-family: monospace"">muito</span>"," ","","exp-sent","muito","","",""
"","12303","html-keyboard-response","250","1163006","0.0-3.0-1.199","<span style=""font-size:30px; font-family: monospace"">fofoqueiro.</span>"," ","","exp-sent","fofoqueiro.","","",""
"","null","html-keyboard-response","251","1164263","0.0-3.0-0.200-0.200","<span style= ""font-size:30px; font-family: monospace"">+</span>","null","fixation","","","","",""
"","2352","html-keyboard-response","252","1166871","0.0-3.0-1.200","<span style=""font-size:30px; font-family: monospace"">O</span>"," ","","exp-sent","O","","",""
"","8046","html-keyboard-response","253","1175172","0.0-3.0-1.201","<span style=""font-size:30px; font-family: monospace"">filho</span>"," ","","exp-sent","filho","","",""
"","1849","html-keyboard-response","254","1177275","0.0-3.0-1.202","<span style=""font-size:30px; font-family: monospace"">lavou</span>"," ","","exp-sent","lavou","","",""
"","688","html-keyboard-response","255","1178216","0.0-3.0-1.203","<span style=""font-size:30px; font-family: monospace"">a</span>"," ","","exp-sent","a","","",""
"","1568","html-keyboard-response","256","1180037","0.0-3.0-1.204","<span style=""font-size:30px; font-family: monospace"">roupa</span>"," ","","exp-sent","roupa","","",""
"","4856","html-keyboard-response","257","1185144","0.0-3.0-1.205","<span style=""font-size:30px; font-family: monospace"">sem</span>"," ","","exp-sent","sem","","",""
"","2513","html-keyboard-response","258","1187910","0.0-3.0-1.206","<span style=""font-size:30px; font-family: monospace"">nenhuma</span>"," ","","exp-sent","nenhuma","","",""
"","5917","html-keyboard-response","259","1194081","0.0-3.0-1.207","<span style=""font-size:30px; font-family: monospace"">ajuda.</span>"," ","","exp-sent","ajuda.","","",""
"","null","html-keyboard-response","260","1195338","0.0-3.0-0.208-0.208","<span style= ""font-size:30px; font-family: monospace"">+</span>","null","fixation","","","","",""
"","1970","html-keyboard-response","261","1197564","0.0-3.0-1.208","<span style=""font-size:30px; font-family: monospace"">O</span>"," ","","exp-sent","O","","",""
"","2596","html-keyboard-response","262","1200415","0.0-3.0-1.209","<span style=""font-size:30px; font-family: monospace"">menino</span>"," ","","exp-sent","menino","","",""
"","4869","html-keyboard-response","263","1205536","0.0-3.0-1.210","<span style=""font-size:30px; font-family: monospace"">quebrou</span>"," ","","exp-sent","quebrou","","",""
"","1387","html-keyboard-response","264","1207174","0.0-3.0-1.211","<span style=""font-size:30px; font-family: monospace"">a</span>"," ","","exp-sent","a","","",""
"","9337","html-keyboard-response","265","1216766","0.0-3.0-1.212","<span style=""font-size:30px; font-family: monospace"">perna</span>"," ","","exp-sent","perna","","",""
"","1170","html-keyboard-response","266","1218190","0.0-3.0-1.213","<span style=""font-size:30px; font-family: monospace"">nos</span>"," ","","exp-sent","nos","","",""
"","3375","html-keyboard-response","267","1221818","0.0-3.0-1.214","<span style=""font-size:30px; font-family: monospace"">esportes.</span>"," ","","exp-sent","esportes.","","",""
"","null","html-keyboard-response","268","1223075","0.0-3.0-0.215-0.215","<span style= ""font-size:30px; font-family: monospace"">+</span>","null","fixation","","","","",""
"","2761","html-keyboard-response","269","1226090","0.0-3.0-1.215","<span style=""font-size:30px; font-family: monospace"">Ela</span>"," ","","exp-sent","Ela","","",""
"","3782","html-keyboard-response","270","1230125","0.0-3.0-1.216","<span style=""font-size:30px; font-family: monospace"">brincou</span>"," ","","exp-sent","brincou","","",""
"","1129","html-keyboard-response","271","1231506","0.0-3.0-1.217","<span style=""font-size:30px; font-family: monospace"">com</span>"," ","","exp-sent","com","","",""
"","1296","html-keyboard-response","272","1233055","0.0-3.0-1.218","<span style=""font-size:30px; font-family: monospace"">uma</span>"," ","","exp-sent","uma","","",""
"","5595","html-keyboard-response","273","1238905","0.0-3.0-1.219","<span style=""font-size:30px; font-family: monospace"">menina</span>"," ","","exp-sent","menina","","",""
"","2997","html-keyboard-response","274","1242153","0.0-3.0-1.220","<span style=""font-size:30px; font-family: monospace"">da</span>"," ","","exp-sent","da","","",""
"","2090","html-keyboard-response","275","1244496","0.0-3.0-1.221","<span style=""font-size:30px; font-family: monospace"">turma.</span>"," ","","exp-sent","turma.","","",""
"","null","html-keyboard-response","276","1245755","0.0-3.0-0.222-0.222","<span style= ""font-size:30px; font-family: monospace"">+</span>","null","fixation","","","","",""
"","1760","html-keyboard-response","277","1247771","0.0-3.0-1.222","<span style=""font-size:30px; font-family: monospace"">Ele</span>"," ","","exp-sent","Ele","","",""
"","2746","html-keyboard-response","278","1250771","0.0-3.0-1.223","<span style=""font-size:30px; font-family: monospace"">esteve</span>"," ","","exp-sent","esteve","","",""
"","1168","html-keyboard-response","279","1252194","0.0-3.0-1.224","<span style=""font-size:30px; font-family: monospace"">no</span>"," ","","exp-sent","no","","",""
"","8552","html-keyboard-response","280","1261001","0.0-3.0-1.225","<span style=""font-size:30px; font-family: monospace"">escritório</span>"," ","","exp-sent","escritório","","",""
"","1506","html-keyboard-response","281","1262761","0.0-3.0-1.226","<span style=""font-size:30px; font-family: monospace"">o</span>"," ","","exp-sent","o","","",""
"","2097","html-keyboard-response","282","1265111","0.0-3.0-1.227","<span style=""font-size:30px; font-family: monospace"">dia</span>"," ","","exp-sent","dia","","",""
"","6655","html-keyboard-response","283","1272020","0.0-3.0-1.228","<span style=""font-size:30px; font-family: monospace"">inteiro.</span>"," ","","comp","inteiro.","","",""
"","49987","html-keyboard-response","284","1322260","0.0-3.0-2.228-0.228","<span style=""font-size:30px; font-family: monospace"">Ele esteve no parque o dia inteiro?</span>","n","","comp","","Ele esteve no parque o dia inteiro?","não","false"
"","null","html-keyboard-response","285","1323769","0.0-3.0-0.229-0.229","<span style= ""font-size:30px; font-family: monospace"">+</span>","null","fixation","","","","",""
"","7411","html-keyboard-response","286","1331436","0.0-3.0-1.229","<span style=""font-size:30px; font-family: monospace"">Eu</span>"," ","","exp-sent","Eu","","",""
"","2677","html-keyboard-response","287","1334365","0.0-3.0-1.230","<span style=""font-size:30px; font-family: monospace"">gosto</span>"," ","","exp-sent","gosto","","",""
"","992","html-keyboard-response","288","1335611","0.0-3.0-1.231","<span style=""font-size:30px; font-family: monospace"">de</span>"," ","","exp-sent","de","","",""
"","9332","html-keyboard-response","289","1345195","0.0-3.0-1.232","<span style=""font-size:30px; font-family: monospace"">molho</span>"," ","","exp-sent","molho","","",""
"","3604","html-keyboard-response","290","1349050","0.0-3.0-1.233","<span style=""font-size:30px; font-family: monospace"">picante</span>"," ","","exp-sent","picante","","",""
"","1471","html-keyboard-response","291","1350776","0.0-3.0-1.234","<span style=""font-size:30px; font-family: monospace"">nas</span>"," ","","exp-sent","nas","","",""
"","1764","html-keyboard-response","292","1352794","0.0-3.0-1.235","<span style=""font-size:30px; font-family: monospace"">batatas.</span>"," ","","exp-sent","batatas.","","",""
"","null","html-keyboard-response","293","1354049","0.0-3.0-0.236-0.236","<span style= ""font-size:30px; font-family: monospace"">+</span>","null","fixation","","","","",""
"","2707","html-keyboard-response","294","1357011","0.0-3.0-1.236","<span style=""font-size:30px; font-family: monospace"">As</span>"," ","","exp-sent","As","","",""
"","2006","html-keyboard-response","295","1359271","0.0-3.0-1.237","<span style=""font-size:30px; font-family: monospace"">pessoas</span>"," ","","exp-sent","pessoas","","",""
"","970","html-keyboard-response","296","1360493","0.0-3.0-1.238","<span style=""font-size:30px; font-family: monospace"">têm</span>"," ","","exp-sent","têm","","",""
"","2064","html-keyboard-response","297","1362812","0.0-3.0-1.239","<span style=""font-size:30px; font-family: monospace"">sua</span>"," ","","exp-sent","sua","","",""
"","5264","html-keyboard-response","298","1368328","0.0-3.0-1.240","<span style=""font-size:30px; font-family: monospace"">liberdade</span>"," ","","exp-sent","liberdade","","",""
"","4450","html-keyboard-response","299","1373030","0.0-3.0-1.241","<span style=""font-size:30px; font-family: monospace"">até</span>"," ","","exp-sent","até","","",""
"","1870","html-keyboard-response","300","1375151","0.0-3.0-1.242","<span style=""font-size:30px; font-family: monospace"">certo</span>"," ","","exp-sent","certo","","",""
"","1575","html-keyboard-response","301","1376981","0.0-3.0-1.243","<span style=""font-size:30px; font-family: monospace"">ponto.</span>"," ","","exp-sent","ponto.","","",""
"","null","html-keyboard-response","302","1378238","0.0-3.0-0.244-0.244","<span style= ""font-size:30px; font-family: monospace"">+</span>","null","fixation","","","","",""
"","915","html-keyboard-response","303","1379409","0.0-3.0-1.244","<span style=""font-size:30px; font-family: monospace"">A</span>"," ","","exp-sent","A","","",""
"","1856","html-keyboard-response","304","1381517","0.0-3.0-1.245","<span style=""font-size:30px; font-family: monospace"">empresa</span>"," ","","exp-sent","empresa","","",""
"","2034","html-keyboard-response","305","1383803","0.0-3.0-1.246","<span style=""font-size:30px; font-family: monospace"">enviou</span>"," ","","exp-sent","enviou","","",""
"","2470","html-keyboard-response","306","1386526","0.0-3.0-1.247","<span style=""font-size:30px; font-family: monospace"">o</span>"," ","","exp-sent","o","","",""
"","5431","html-keyboard-response","307","1392209","0.0-3.0-1.248","<span style=""font-size:30px; font-family: monospace"">aviso</span>"," ","","exp-sent","aviso","","",""
"","1968","html-keyboard-response","308","1394429","0.0-3.0-1.249","<span style=""font-size:30px; font-family: monospace"">hoje</span>"," ","","exp-sent","hoje","","",""
"","1862","html-keyboard-response","309","1396546","0.0-3.0-1.250","<span style=""font-size:30px; font-family: monospace"">de</span>"," ","","exp-sent","de","","",""
"","1161","html-keyboard-response","310","1397959","0.0-3.0-1.251","<span style=""font-size:30px; font-family: monospace"">tarde.</span>"," ","","exp-sent","tarde.","","",""
"","null","html-keyboard-response","311","1399218","0.0-3.0-0.252-0.252","<span style= ""font-size:30px; font-family: monospace"">+</span>","null","fixation","","","","",""
"","5343","html-keyboard-response","312","1404817","0.0-3.0-1.252","<span style=""font-size:30px; font-family: monospace"">A</span>"," ","","exp-sent","A","","",""
"","2047","html-keyboard-response","313","1407117","0.0-3.0-1.253","<span style=""font-size:30px; font-family: monospace"">loja</span>"," ","","exp-sent","loja","","",""
"","2007","html-keyboard-response","314","1409376","0.0-3.0-1.254","<span style=""font-size:30px; font-family: monospace"">vende</span>"," ","","exp-sent","vende","","",""
"","1634","html-keyboard-response","315","1411262","0.0-3.0-1.255","<span style=""font-size:30px; font-family: monospace"">tanto</span>"," ","","exp-sent","tanto","","",""
"","3404","html-keyboard-response","316","1414918","0.0-3.0-1.256","<span style=""font-size:30px; font-family: monospace"">frituras</span>"," ","","exp-sent","frituras","","",""
"","1584","html-keyboard-response","317","1416755","0.0-3.0-1.257","<span style=""font-size:30px; font-family: monospace"">quanto</span>"," ","","exp-sent","quanto","","",""
"","1572","html-keyboard-response","318","1418583","0.0-3.0-1.258","<span style=""font-size:30px; font-family: monospace"">comidas</span>"," ","","exp-sent","comidas","","",""
"","6717","html-keyboard-response","319","1425551","0.0-3.0-1.259","<span style=""font-size:30px; font-family: monospace"">leves.</span>"," ","","exp-sent","leves.","","",""
"","null","html-keyboard-response","320","1426810","0.0-3.0-0.260-0.260","<span style= ""font-size:30px; font-family: monospace"">+</span>","null","fixation","","","","",""
"","1773","html-keyboard-response","321","1428834","0.0-3.0-1.260","<span style=""font-size:30px; font-family: monospace"">As</span>"," ","","exp-sent","As","","",""
"","2285","html-keyboard-response","322","1431370","0.0-3.0-1.261","<span style=""font-size:30px; font-family: monospace"">cadeiras</span>"," ","","exp-sent","cadeiras","","",""
"","3334","html-keyboard-response","323","1434957","0.0-3.0-1.262","<span style=""font-size:30px; font-family: monospace"">azuis</span>"," ","","exp-sent","azuis","","",""
"","1110","html-keyboard-response","324","1436319","0.0-3.0-1.263","<span style=""font-size:30px; font-family: monospace"">da</span>"," ","","exp-sent","da","","",""
"","1954","html-keyboard-response","325","1438528","0.0-3.0-1.264","<span style=""font-size:30px; font-family: monospace"">sala</span>"," ","","exp-sent","sala","","",""
"","1685","html-keyboard-response","326","1440465","0.0-3.0-1.265","<span style=""font-size:30px; font-family: monospace"">eram</span>"," ","","exp-sent","eram","","",""
"","1094","html-keyboard-response","327","1441813","0.0-3.0-1.266","<span style=""font-size:30px; font-family: monospace"">da</span>"," ","","exp-sent","da","","",""
"","1935","html-keyboard-response","328","1444001","0.0-3.0-1.267","<span style=""font-size:30px; font-family: monospace"">minha</span>"," ","","exp-sent","minha","","",""
"","3056","html-keyboard-response","329","1447310","0.0-3.0-1.268","<span style=""font-size:30px; font-family: monospace"">vó.</span>"," ","","comp","vó.","","",""
"","6250","html-keyboard-response","330","1453813","0.0-3.0-2.268-0.268","<span style=""font-size:30px; font-family: monospace"">As cadeiras eram da avó?</span>","s","","comp","","As cadeiras eram da avó?","sim","false"
"","null","html-keyboard-response","331","1455318","0.0-3.0-0.269-0.269","<span style= ""font-size:30px; font-family: monospace"">+</span>","null","fixation","","","","",""
"","2776","html-keyboard-response","332","1458350","0.0-3.0-1.269","<span style=""font-size:30px; font-family: monospace"">A</span>"," ","","exp-sent","A","","",""
"","2813","html-keyboard-response","333","1461417","0.0-3.0-1.270","<span style=""font-size:30px; font-family: monospace"">força</span>"," ","","exp-sent","força","","",""
"","2507","html-keyboard-response","334","1464177","0.0-3.0-1.271","<span style=""font-size:30px; font-family: monospace"">d'água</span>"," ","","exp-sent","d'água","","",""
"","1997","html-keyboard-response","335","1466430","0.0-3.0-1.272","<span style=""font-size:30px; font-family: monospace"">estava</span>"," ","","exp-sent","estava","","",""
"","4905","html-keyboard-response","336","1471590","0.0-3.0-1.273","<span style=""font-size:30px; font-family: monospace"">normal</span>"," ","","exp-sent","normal","","",""
"","461","html-keyboard-response","337","1472307","0.0-3.0-1.274","<span style=""font-size:30px; font-family: monospace"">naquele</span>"," ","","exp-sent","naquele","","",""
"","1600","html-keyboard-response","338","1474160","0.0-3.0-1.275","<span style=""font-size:30px; font-family: monospace"">dia.</span>"," ","","exp-sent","dia.","","",""
"","null","html-keyboard-response","339","1475416","0.0-3.0-0.276-0.276","<span style= ""font-size:30px; font-family: monospace"">+</span>","null","fixation","","","","",""
"","1653","html-keyboard-response","340","1477324","0.0-3.0-1.276","<span style=""font-size:30px; font-family: monospace"">A</span>"," ","","exp-sent","A","","",""
"","1226","html-keyboard-response","341","1478802","0.0-3.0-1.277","<span style=""font-size:30px; font-family: monospace"">médica</span>"," ","","exp-sent","médica","","",""
"","3766","html-keyboard-response","342","1482822","0.0-3.0-1.278","<span style=""font-size:30px; font-family: monospace"">ofereceu</span>"," ","","exp-sent","ofereceu","","",""
"","1001","html-keyboard-response","343","1484079","0.0-3.0-1.279","<span style=""font-size:30px; font-family: monospace"">a</span>"," ","","exp-sent","a","","",""
"","4846","html-keyboard-response","344","1489179","0.0-3.0-1.280","<span style=""font-size:30px; font-family: monospace"">pomada</span>"," ","","exp-sent","pomada","","",""
"","1382","html-keyboard-response","345","1490811","0.0-3.0-1.281","<span style=""font-size:30px; font-family: monospace"">para</span>"," ","","exp-sent","para","","",""
"","1298","html-keyboard-response","346","1492365","0.0-3.0-1.282","<span style=""font-size:30px; font-family: monospace"">o</span>"," ","","exp-sent","o","","",""
"","6533","html-keyboard-response","347","1499150","0.0-3.0-1.283","<span style=""font-size:30px; font-family: monospace"">avô.</span>"," ","","exp-sent","avô.","","",""
"","null","html-keyboard-response","348","1500407","0.0-3.0-0.284-0.284","<span style= ""font-size:30px; font-family: monospace"">+</span>","null","fixation","","","","",""
"","2806","html-keyboard-response","349","1503468","0.0-3.0-1.284","<span style=""font-size:30px; font-family: monospace"">Ele</span>"," ","","exp-sent","Ele","","",""
"","3971","html-keyboard-response","350","1507693","0.0-3.0-1.285","<span style=""font-size:30px; font-family: monospace"">conversou</span>"," ","","exp-sent","conversou","","",""
"","2438","html-keyboard-response","351","1510385","0.0-3.0-1.286","<span style=""font-size:30px; font-family: monospace"">com</span>"," ","","exp-sent","com","","",""
"","1636","html-keyboard-response","352","1512277","0.0-3.0-1.287","<span style=""font-size:30px; font-family: monospace"">o</span>"," ","","exp-sent","o","","",""
"","6461","html-keyboard-response","353","1518991","0.0-3.0-1.288","<span style=""font-size:30px; font-family: monospace"">patrão</span>"," ","","exp-sent","patrão","","",""
"","1806","html-keyboard-response","354","1521050","0.0-3.0-1.289","<span style=""font-size:30px; font-family: monospace"">durante</span>"," ","","exp-sent","durante","","",""
"","1221","html-keyboard-response","355","1522526","0.0-3.0-1.290","<span style=""font-size:30px; font-family: monospace"">a</span>"," ","","exp-sent","a","","",""
"","1433","html-keyboard-response","356","1524212","0.0-3.0-1.291","<span style=""font-size:30px; font-family: monospace"">tarde.</span>"," ","","exp-sent","tarde.","","",""
"","null","html-keyboard-response","357","1525467","0.0-3.0-0.292-0.292","<span style= ""font-size:30px; font-family: monospace"">+</span>","null","fixation","","","","",""
"","2574","html-keyboard-response","358","1528297","0.0-3.0-1.292","<span style=""font-size:30px; font-family: monospace"">Algumas</span>"," ","","exp-sent","Algumas","","",""
"","2100","html-keyboard-response","359","1530650","0.0-3.0-1.293","<span style=""font-size:30px; font-family: monospace"">pessoas</span>"," ","","exp-sent","pessoas","","",""
"","2148","html-keyboard-response","360","1533053","0.0-3.0-1.294","<span style=""font-size:30px; font-family: monospace"">acreditam</span>"," ","","exp-sent","acreditam","","",""
"","1029","html-keyboard-response","361","1534334","0.0-3.0-1.295","<span style=""font-size:30px; font-family: monospace"">em</span>"," ","","exp-sent","em","","",""
"","3170","html-keyboard-response","362","1537758","0.0-3.0-1.296","<span style=""font-size:30px; font-family: monospace"">espíritos</span>"," ","","exp-sent","espíritos","","",""
"","5533","html-keyboard-response","363","1543545","0.0-3.0-1.297","<span style=""font-size:30px; font-family: monospace"">e</span>"," ","","exp-sent","e","","",""
"","1192","html-keyboard-response","364","1544992","0.0-3.0-1.298","<span style=""font-size:30px; font-family: monospace"">em</span>"," ","","exp-sent","em","","",""
"","1597","html-keyboard-response","365","1546843","0.0-3.0-1.299","<span style=""font-size:30px; font-family: monospace"">outras</span>"," ","","exp-sent","outras","","",""
"","3486","html-keyboard-response","366","1550580","0.0-3.0-1.300","<span style=""font-size:30px; font-family: monospace"">vidas.</span>"," ","","exp-sent","vidas.","","",""
"","null","html-keyboard-response","367","1551839","0.0-3.0-0.301-0.301","<span style= ""font-size:30px; font-family: monospace"">+</span>","null","fixation","","","","",""
"","3949","html-keyboard-response","368","1556045","0.0-3.0-1.301","<span style=""font-size:30px; font-family: monospace"">Ela</span>"," ","","exp-sent","Ela","","",""
"","1712","html-keyboard-response","369","1558010","0.0-3.0-1.302","<span style=""font-size:30px; font-family: monospace"">gosta</span>"," ","","exp-sent","gosta","","",""
"","1021","html-keyboard-response","370","1559287","0.0-3.0-1.303","<span style=""font-size:30px; font-family: monospace"">de</span>"," ","","exp-sent","de","","",""
"","3714","html-keyboard-response","371","1563258","0.0-3.0-1.304","<span style=""font-size:30px; font-family: monospace"">estudar</span>"," ","","exp-sent","estudar","","",""
"","2557","html-keyboard-response","372","1566071","0.0-3.0-1.305","<span style=""font-size:30px; font-family: monospace"">matemática</span>"," ","","exp-sent","matemática","","",""
"","1675","html-keyboard-response","373","1567998","0.0-3.0-1.306","<span style=""font-size:30px; font-family: monospace"">com</span>"," ","","exp-sent","com","","",""
"","7805","html-keyboard-response","374","1576056","0.0-3.0-1.307","<span style=""font-size:30px; font-family: monospace"">colegas.</span>"," ","","comp","colegas.","","",""
"","7259","html-keyboard-response","375","1583568","0.0-3.0-2.307-0.307","<span style=""font-size:30px; font-family: monospace"">Ela gosta de estudar física?</span>","n","","comp","","Ela gosta de estudar física?","não","false"
"","null","html-keyboard-response","376","1585074","0.0-3.0-0.308-0.308","<span style= ""font-size:30px; font-family: monospace"">+</span>","null","fixation","","","","",""
"","3067","html-keyboard-response","377","1588397","0.0-3.0-1.308","<span style=""font-size:30px; font-family: monospace"">O</span>"," ","","exp-sent","O","","",""
"","4907","html-keyboard-response","378","1593557","0.0-3.0-1.309","<span style=""font-size:30px; font-family: monospace"">travesseiro</span>"," ","","exp-sent","travesseiro","","",""
"","1476","html-keyboard-response","379","1595286","0.0-3.0-1.310","<span style=""font-size:30px; font-family: monospace"">era</span>"," ","","exp-sent","era","","",""
"","1342","html-keyboard-response","380","1596882","0.0-3.0-1.311","<span style=""font-size:30px; font-family: monospace"">muito</span>"," ","","exp-sent","muito","","",""
"","2157","html-keyboard-response","381","1599294","0.0-3.0-1.312","<span style=""font-size:30px; font-family: monospace"">macio</span>"," ","","exp-sent","macio","","",""
"","600","html-keyboard-response","382","1600146","0.0-3.0-1.313","<span style=""font-size:30px; font-family: monospace"">e</span>"," ","","exp-sent","e","","",""
"","3659","html-keyboard-response","383","1604058","0.0-3.0-1.314","<span style=""font-size:30px; font-family: monospace"">confortável.</span>"," ","","exp-sent","confortável.","","",""
"","null","html-keyboard-response","384","1605316","0.0-3.0-0.315-0.315","<span style= ""font-size:30px; font-family: monospace"">+</span>","null","fixation","","","","",""
"","1787","html-keyboard-response","385","1607358","0.0-3.0-1.315","<span style=""font-size:30px; font-family: monospace"">Hoje</span>"," ","","exp-sent","Hoje","","",""
"","1043","html-keyboard-response","386","1608652","0.0-3.0-1.316","<span style=""font-size:30px; font-family: monospace"">a</span>"," ","","exp-sent","a","","",""
"","3534","html-keyboard-response","387","1612438","0.0-3.0-1.317","<span style=""font-size:30px; font-family: monospace"">atendente</span>"," ","","exp-sent","atendente","","",""
"","2498","html-keyboard-response","388","1615192","0.0-3.0-1.318","<span style=""font-size:30px; font-family: monospace"">estava</span>"," ","","exp-sent","estava","","",""
"","6510","html-keyboard-response","389","1621956","0.0-3.0-1.319","<span style=""font-size:30px; font-family: monospace"">furiosa</span>"," ","","exp-sent","furiosa","","",""
"","1053","html-keyboard-response","390","1623262","0.0-3.0-1.320","<span style=""font-size:30px; font-family: monospace"">com</span>"," ","","exp-sent","com","","",""
"","617","html-keyboard-response","391","1624132","0.0-3.0-1.321","<span style=""font-size:30px; font-family: monospace"">o</span>"," ","","exp-sent","o","","",""
"","1565","html-keyboard-response","392","1625951","0.0-3.0-1.322","<span style=""font-size:30px; font-family: monospace"">cliente.</span>"," ","","exp-sent","cliente.","","",""
"","null","html-keyboard-response","393","1627207","0.0-3.0-0.323-0.323","<span style= ""font-size:30px; font-family: monospace"">+</span>","null","fixation","","","","",""
"","1357","html-keyboard-response","394","1628820","0.0-3.0-1.323","<span style=""font-size:30px; font-family: monospace"">O</span>"," ","","exp-sent","O","","",""
"","2369","html-keyboard-response","395","1631445","0.0-3.0-1.324","<span style=""font-size:30px; font-family: monospace"">vizinho</span>"," ","","exp-sent","vizinho","","",""
"","1191","html-keyboard-response","396","1632891","0.0-3.0-1.325","<span style=""font-size:30px; font-family: monospace"">é</span>"," ","","exp-sent","é","","",""
"","1177","html-keyboard-response","397","1634323","0.0-3.0-1.326","<span style=""font-size:30px; font-family: monospace"">um</span>"," ","","exp-sent","um","","",""
"","6227","html-keyboard-response","398","1640801","0.0-3.0-1.327","<span style=""font-size:30px; font-family: monospace"">arquiteto</span>"," ","","exp-sent","arquiteto","","",""
"","1445","html-keyboard-response","399","1642498","0.0-3.0-1.328","<span style=""font-size:30px; font-family: monospace"">muito</span>"," ","","exp-sent","muito","","",""
"","9549","html-keyboard-response","400","1652302","0.0-3.0-1.329","<span style=""font-size:30px; font-family: monospace"">excêntrico.</span>"," ","","exp-sent","excêntrico.","","",""
"","null","html-keyboard-response","401","1653562","0.0-3.0-0.330-0.330","<span style= ""font-size:30px; font-family: monospace"">+</span>","null","fixation","","","","",""
"","890","html-keyboard-response","402","1654707","0.0-3.0-1.330","<span style=""font-size:30px; font-family: monospace"">A</span>"," ","","exp-sent","A","","",""
"","1385","html-keyboard-response","403","1656346","0.0-3.0-1.331","<span style=""font-size:30px; font-family: monospace"">nossa</span>"," ","","exp-sent","nossa","","",""
"","1432","html-keyboard-response","404","1658030","0.0-3.0-1.332","<span style=""font-size:30px; font-family: monospace"">colega</span>"," ","","exp-sent","colega","","",""
"","1256","html-keyboard-response","405","1659540","0.0-3.0-1.333","<span style=""font-size:30px; font-family: monospace"">foi</span>"," ","","exp-sent","foi","","",""
"","8507","html-keyboard-response","406","1668298","0.0-3.0-1.334","<span style=""font-size:30px; font-family: monospace"">má</span>"," ","","exp-sent","má","","",""
"","1099","html-keyboard-response","407","1669650","0.0-3.0-1.335","<span style=""font-size:30px; font-family: monospace"">com</span>"," ","","exp-sent","com","","",""
"","1157","html-keyboard-response","408","1671061","0.0-3.0-1.336","<span style=""font-size:30px; font-family: monospace"">as</span>"," ","","exp-sent","as","","",""
"","5090","html-keyboard-response","409","1676404","0.0-3.0-1.337","<span style=""font-size:30px; font-family: monospace"">crianças.</span>"," ","","exp-sent","crianças.","","",""
"","null","html-keyboard-response","410","1677665","0.0-3.0-0.338-0.338","<span style= ""font-size:30px; font-family: monospace"">+</span>","null","fixation","","","","",""
"","3851","html-keyboard-response","411","1681771","0.0-3.0-1.338","<span style=""font-size:30px; font-family: monospace"">Virtudes</span>"," ","","exp-sent","Virtudes","","",""
"","1408","html-keyboard-response","412","1683433","0.0-3.0-1.339","<span style=""font-size:30px; font-family: monospace"">não</span>"," ","","exp-sent","não","","",""
"","1409","html-keyboard-response","413","1685094","0.0-3.0-1.340","<span style=""font-size:30px; font-family: monospace"">são</span>"," ","","exp-sent","são","","",""
"","7215","html-keyboard-response","414","1692561","0.0-3.0-1.341","<span style=""font-size:30px; font-family: monospace"">preguiça,</span>"," ","","exp-sent","preguiça,","","",""
"","1667","html-keyboard-response","415","1694483","0.0-3.0-1.342","<span style=""font-size:30px; font-family: monospace"">gula</span>"," ","","exp-sent","gula","","",""
"","2367","html-keyboard-response","416","1697104","0.0-3.0-1.343","<span style=""font-size:30px; font-family: monospace"">nem</span>"," ","","exp-sent","nem","","",""
"","4110","html-keyboard-response","417","1701467","0.0-3.0-1.344","<span style=""font-size:30px; font-family: monospace"">ganância.</span>"," ","","comp","ganância.","","",""
"","20293","html-keyboard-response","418","1722015","0.0-3.0-2.344-0.344","<span style=""font-size:30px; font-family: monospace"">Preguiça é uma virtude?</span>","n","","comp","","Preguiça é uma virtude?","não","false"
"","null","html-keyboard-response","419","1723519","0.0-3.0-0.345-0.345","<span style= ""font-size:30px; font-family: monospace"">+</span>","null","fixation","","","","",""
"","6095","html-keyboard-response","420","1729869","0.0-3.0-1.345","<span style=""font-size:30px; font-family: monospace"">Barulho</span>"," ","","exp-sent","Barulho","","",""
"","1407","html-keyboard-response","421","1731532","0.0-3.0-1.346","<span style=""font-size:30px; font-family: monospace"">de</span>"," ","","exp-sent","de","","",""
"","4743","html-keyboard-response","422","1736529","0.0-3.0-1.347","<span style=""font-size:30px; font-family: monospace"">carros</span>"," ","","exp-sent","carros","","",""
"","1778","html-keyboard-response","423","1738562","0.0-3.0-1.348","<span style=""font-size:30px; font-family: monospace"">é</span>"," ","","exp-sent","é","","",""
"","7952","html-keyboard-response","424","1746768","0.0-3.0-1.349","<span style=""font-size:30px; font-family: monospace"">irritante</span>"," ","","exp-sent","irritante","","",""
"","4651","html-keyboard-response","425","1751674","0.0-3.0-1.350","<span style=""font-size:30px; font-family: monospace"">para</span>"," ","","exp-sent","para","","",""
"","1788","html-keyboard-response","426","1753718","0.0-3.0-1.351","<span style=""font-size:30px; font-family: monospace"">a</span>"," ","","exp-sent","a","","",""
"","6693","html-keyboard-response","427","1760666","0.0-3.0-1.352","<span style=""font-size:30px; font-family: monospace"">moça.</span>"," ","","exp-sent","moça.","","",""
"","null","html-keyboard-response","428","1761925","0.0-3.0-0.353-0.353","<span style= ""font-size:30px; font-family: monospace"">+</span>","null","fixation","","","","",""
"","6526","html-keyboard-response","429","1768704","0.0-3.0-1.353","<span style=""font-size:30px; font-family: monospace"">A</span>"," ","","exp-sent","A","","",""
"","1756","html-keyboard-response","430","1770712","0.0-3.0-1.354","<span style=""font-size:30px; font-family: monospace"">loja</span>"," ","","exp-sent","loja","","",""
"","1521","html-keyboard-response","431","1772485","0.0-3.0-1.355","<span style=""font-size:30px; font-family: monospace"">também</span>"," ","","exp-sent","também","","",""
"","1563","html-keyboard-response","432","1774304","0.0-3.0-1.356","<span style=""font-size:30px; font-family: monospace"">vende</span>"," ","","exp-sent","vende","","",""
"","3354","html-keyboard-response","433","1777911","0.0-3.0-1.357","<span style=""font-size:30px; font-family: monospace"">taça</span>"," ","","exp-sent","taça","","",""
"","909","html-keyboard-response","434","1779072","0.0-3.0-1.358","<span style=""font-size:30px; font-family: monospace"">de</span>"," ","","exp-sent","de","","",""
"","1970","html-keyboard-response","435","1781293","0.0-3.0-1.359","<span style=""font-size:30px; font-family: monospace"">vinho</span>"," ","","exp-sent","vinho","","",""
"","1708","html-keyboard-response","436","1783255","0.0-3.0-1.360","<span style=""font-size:30px; font-family: monospace"">e</span>"," ","","exp-sent","e","","",""
"","9337","html-keyboard-response","437","1792846","0.0-3.0-1.361","<span style=""font-size:30px; font-family: monospace"">espumante.</span>"," ","","exp-sent","espumante.","","",""
"","null","html-keyboard-response","438","1794103","0.0-3.0-0.362-0.362","<span style= ""font-size:30px; font-family: monospace"">+</span>","null","fixation","","","","",""
"","1076","html-keyboard-response","439","1795433","0.0-3.0-1.362","<span style=""font-size:30px; font-family: monospace"">A</span>"," ","","exp-sent","A","","",""
"","1988","html-keyboard-response","440","1797676","0.0-3.0-1.363","<span style=""font-size:30px; font-family: monospace"">bruxa</span>"," ","","exp-sent","bruxa","","",""
"","1708","html-keyboard-response","441","1799637","0.0-3.0-1.364","<span style=""font-size:30px; font-family: monospace"">tinha</span>"," ","","exp-sent","tinha","","",""
"","1336","html-keyboard-response","442","1801227","0.0-3.0-1.365","<span style=""font-size:30px; font-family: monospace"">uma</span>"," ","","exp-sent","uma","","",""
"","5735","html-keyboard-response","443","1807213","0.0-3.0-1.366","<span style=""font-size:30px; font-family: monospace"">vassoura</span>"," ","","exp-sent","vassoura","","",""
"","992","html-keyboard-response","444","1808458","0.0-3.0-1.367","<span style=""font-size:30px; font-family: monospace"">e</span>"," ","","exp-sent","e","","",""
"","1021","html-keyboard-response","445","1809733","0.0-3.0-1.368","<span style=""font-size:30px; font-family: monospace"">um</span>"," ","","exp-sent","um","","",""
"","1752","html-keyboard-response","446","1811738","0.0-3.0-1.369","<span style=""font-size:30px; font-family: monospace"">gato.</span>"," ","","exp-sent","gato.","","",""
"","null","html-keyboard-response","447","1812998","0.0-3.0-0.370-0.370","<span style= ""font-size:30px; font-family: monospace"">+</span>","null","fixation","","","","",""
"","5787","html-keyboard-response","448","1819041","0.0-3.0-1.370","<span style=""font-size:30px; font-family: monospace"">Eu</span>"," ","","exp-sent","Eu","","",""
"","2530","html-keyboard-response","449","1821827","0.0-3.0-1.371","<span style=""font-size:30px; font-family: monospace"">me</span>"," ","","exp-sent","me","","",""
"","4858","html-keyboard-response","450","1826938","0.0-3.0-1.372","<span style=""font-size:30px; font-family: monospace"">divirto</span>"," ","","exp-sent","divirto","","",""
"","1293","html-keyboard-response","451","1828485","0.0-3.0-1.373","<span style=""font-size:30px; font-family: monospace"">em</span>"," ","","exp-sent","em","","",""
"","4438","html-keyboard-response","452","1833180","0.0-3.0-1.374","<span style=""font-size:30px; font-family: monospace"">festas</span>"," ","","exp-sent","festas","","",""
"","773","html-keyboard-response","453","1834206","0.0-3.0-1.375","<span style=""font-size:30px; font-family: monospace"">de</span>"," ","","exp-sent","de","","",""
"","1952","html-keyboard-response","454","1836412","0.0-3.0-1.376","<span style=""font-size:30px; font-family: monospace"">criança.</span>"," ","","exp-sent","criança.","","",""
"","null","html-keyboard-response","455","1837670","0.0-3.0-0.377-0.377","<span style= ""font-size:30px; font-family: monospace"">+</span>","null","fixation","","","","",""
"","840","html-keyboard-response","456","1838766","0.0-3.0-1.377","<span style=""font-size:30px; font-family: monospace"">A</span>"," ","","exp-sent","A","","",""
"","3959","html-keyboard-response","457","1842979","0.0-3.0-1.378","<span style=""font-size:30px; font-family: monospace"">janela</span>"," ","","exp-sent","janela","","",""
"","5676","html-keyboard-response","458","1848908","0.0-3.0-1.379","<span style=""font-size:30px; font-family: monospace"">alta</span>"," ","","exp-sent","alta","","",""
"","1732","html-keyboard-response","459","1850896","0.0-3.0-1.380","<span style=""font-size:30px; font-family: monospace"">estava</span>"," ","","exp-sent","estava","","",""
"","6477","html-keyboard-response","460","1857626","0.0-3.0-1.381","<span style=""font-size:30px; font-family: monospace"">quebrada</span>"," ","","exp-sent","quebrada","","",""
"","1675","html-keyboard-response","461","1859553","0.0-3.0-1.382","<span style=""font-size:30px; font-family: monospace"">desde</span>"," ","","exp-sent","desde","","",""
"","1909","html-keyboard-response","462","1861715","0.0-3.0-1.383","<span style=""font-size:30px; font-family: monospace"">ontem.</span>"," ","","comp","ontem.","","",""
"","20744","html-keyboard-response","463","1882714","0.0-3.0-2.383-0.383","<span style=""font-size:30px; font-family: monospace"">A janela alta estava quebrada?</span>","s","","comp","","A janela alta estava quebrada?","sim","false"
"","null","html-keyboard-response","464","1884221","0.0-3.0-0.384-0.384","<span style= ""font-size:30px; font-family: monospace"">+</span>","null","fixation","","","","",""
"","2703","html-keyboard-response","465","1887180","0.0-3.0-1.384","<span style=""font-size:30px; font-family: monospace"">A</span>"," ","","exp-sent","A","","",""
"","3557","html-keyboard-response","466","1890989","0.0-3.0-1.385","<span style=""font-size:30px; font-family: monospace"">senhora</span>"," ","","exp-sent","senhora","","",""
"","3682","html-keyboard-response","467","1894922","0.0-3.0-1.386","<span style=""font-size:30px; font-family: monospace"">cumprimentou</span>"," ","","exp-sent","cumprimentou","","",""
"","892","html-keyboard-response","468","1896067","0.0-3.0-1.387","<span style=""font-size:30px; font-family: monospace"">o</span>"," ","","exp-sent","o","","",""
"","1736","html-keyboard-response","469","1898055","0.0-3.0-1.388","<span style=""font-size:30px; font-family: monospace"">operador</span>"," ","","exp-sent","operador","","",""
"","1833","html-keyboard-response","470","1900144","0.0-3.0-1.389","<span style=""font-size:30px; font-family: monospace"">de</span>"," ","","exp-sent","de","","",""
"","796","html-keyboard-response","471","1901195","0.0-3.0-1.390","<span style=""font-size:30px; font-family: monospace"">caixa.</span>"," ","","exp-sent","caixa.","","",""
"","null","html-keyboard-response","472","1902455","0.0-3.0-0.391-0.391","<span style= ""font-size:30px; font-family: monospace"">+</span>","null","fixation","","","","",""
"","656","html-keyboard-response","473","1903367","0.0-3.0-1.391","<span style=""font-size:30px; font-family: monospace"">A</span>"," ","","exp-sent","A","","",""
"","2271","html-keyboard-response","474","1905893","0.0-3.0-1.392","<span style=""font-size:30px; font-family: monospace"">gente</span>"," ","","exp-sent","gente","","",""
"","1265","html-keyboard-response","475","1907412","0.0-3.0-1.393","<span style=""font-size:30px; font-family: monospace"">viu</span>"," ","","exp-sent","viu","","",""
"","5248","html-keyboard-response","476","1912916","0.0-3.0-1.394","<span style=""font-size:30px; font-family: monospace"">o</span>"," ","","exp-sent","o","","",""
"","5453","html-keyboard-response","477","1918623","0.0-3.0-1.395","<span style=""font-size:30px; font-family: monospace"">eclipse</span>"," ","","exp-sent","eclipse","","",""
"","1572","html-keyboard-response","478","1920450","0.0-3.0-1.396","<span style=""font-size:30px; font-family: monospace"">lunar</span>"," ","","exp-sent","lunar","","",""
"","1701","html-keyboard-response","479","1922407","0.0-3.0-1.397","<span style=""font-size:30px; font-family: monospace"">durante</span>"," ","","exp-sent","durante","","",""
"","1097","html-keyboard-response","480","1923760","0.0-3.0-1.398","<span style=""font-size:30px; font-family: monospace"">o</span>"," ","","exp-sent","o","","",""
"","1147","html-keyboard-response","481","1925162","0.0-3.0-1.399","<span style=""font-size:30px; font-family: monospace"">dia.</span>"," ","","exp-sent","dia.","","",""
"","null","html-keyboard-response","482","1926418","0.0-3.0-0.400-0.400","<span style= ""font-size:30px; font-family: monospace"">+</span>","null","fixation","","","","",""
"","4406","html-keyboard-response","483","1931078","0.0-3.0-1.400","<span style=""font-size:30px; font-family: monospace"">A</span>"," ","","exp-sent","A","","",""
"","2812","html-keyboard-response","484","1934141","0.0-3.0-1.401","<span style=""font-size:30px; font-family: monospace"">mordida</span>"," ","","exp-sent","mordida","","",""
"","959","html-keyboard-response","485","1935354","0.0-3.0-1.402","<span style=""font-size:30px; font-family: monospace"">do</span>"," ","","exp-sent","do","","",""
"","2990","html-keyboard-response","486","1938598","0.0-3.0-1.403","<span style=""font-size:30px; font-family: monospace"">cachorro</span>"," ","","exp-sent","cachorro","","",""
"","1959","html-keyboard-response","487","1940812","0.0-3.0-1.404","<span style=""font-size:30px; font-family: monospace"">voraz</span>"," ","","exp-sent","voraz","","",""
"","2533","html-keyboard-response","488","1943598","0.0-3.0-1.405","<span style=""font-size:30px; font-family: monospace"">causou</span>"," ","","exp-sent","causou","","",""
"","1033","html-keyboard-response","489","1944884","0.0-3.0-1.406","<span style=""font-size:30px; font-family: monospace"">uma</span>"," ","","exp-sent","uma","","",""
"","2480","html-keyboard-response","490","1947620","0.0-3.0-1.407","<span style=""font-size:30px; font-family: monospace"">cicatriz.</span>"," ","","exp-sent","cicatriz.","","",""
"","null","html-keyboard-response","491","1948878","0.0-3.0-0.408-0.408","<span style= ""font-size:30px; font-family: monospace"">+</span>","null","fixation","","","","",""
"","1817","html-keyboard-response","492","1950951","0.0-3.0-1.408","<span style=""font-size:30px; font-family: monospace"">Elas</span>"," ","","exp-sent","Elas","","",""
"","1193","html-keyboard-response","493","1952399","0.0-3.0-1.409","<span style=""font-size:30px; font-family: monospace"">não</span>"," ","","exp-sent","não","","",""
"","2707","html-keyboard-response","494","1955358","0.0-3.0-1.410","<span style=""font-size:30px; font-family: monospace"">viram</span>"," ","","exp-sent","viram","","",""
"","3949","html-keyboard-response","495","1959561","0.0-3.0-1.411","<span style=""font-size:30px; font-family: monospace"">nenhuma</span>"," ","","exp-sent","nenhuma","","",""
"","5560","html-keyboard-response","496","1965375","0.0-3.0-1.412","<span style=""font-size:30px; font-family: monospace"">diferença</span>"," ","","exp-sent","diferença","","",""
"","1177","html-keyboard-response","497","1966808","0.0-3.0-1.413","<span style=""font-size:30px; font-family: monospace"">entre</span>"," ","","exp-sent","entre","","",""
"","1787","html-keyboard-response","498","1968847","0.0-3.0-1.414","<span style=""font-size:30px; font-family: monospace"">os</span>"," ","","exp-sent","os","","",""
"","7799","html-keyboard-response","499","1976902","0.0-3.0-1.415","<span style=""font-size:30px; font-family: monospace"">textos.</span>"," ","","exp-sent","textos.","","",""
"","null","html-keyboard-response","500","1978159","0.0-3.0-0.416-0.416","<span style= ""font-size:30px; font-family: monospace"">+</span>","null","fixation","","","","",""
"","2480","html-keyboard-response","501","1980895","0.0-3.0-1.416","<span style=""font-size:30px; font-family: monospace"">Amanhã</span>"," ","","exp-sent","Amanhã","","",""
"","1560","html-keyboard-response","502","1982709","0.0-3.0-1.417","<span style=""font-size:30px; font-family: monospace"">vai</span>"," ","","exp-sent","vai","","",""
"","1321","html-keyboard-response","503","1984287","0.0-3.0-1.418","<span style=""font-size:30px; font-family: monospace"">ter</span>"," ","","exp-sent","ter","","",""
"","972","html-keyboard-response","504","1985511","0.0-3.0-1.419","<span style=""font-size:30px; font-family: monospace"">um</span>"," ","","exp-sent","um","","",""
"","3122","html-keyboard-response","505","1988886","0.0-3.0-1.420","<span style=""font-size:30px; font-family: monospace"">bazar</span>"," ","","exp-sent","bazar","","",""
"","1331","html-keyboard-response","506","1990474","0.0-3.0-1.421","<span style=""font-size:30px; font-family: monospace"">no</span>"," ","","exp-sent","no","","",""
"","1873","html-keyboard-response","507","1992600","0.0-3.0-1.422","<span style=""font-size:30px; font-family: monospace"">bairro.</span>"," ","","comp","bairro.","","",""
"","51149","html-keyboard-response","508","2044002","0.0-3.0-2.422-0.422","<span style=""font-size:30px; font-family: monospace"">Amanhã vai acontecer um bazar no bairro?</span>","s","","comp","","Amanhã vai acontecer um bazar no bairro?","sim","false"
"","null","html-keyboard-response","509","2045509","0.0-3.0-0.423-0.423","<span style= ""font-size:30px; font-family: monospace"">+</span>","null","fixation","","","","",""
"","5928","html-keyboard-response","510","2051693","0.0-3.0-1.423","<span style=""font-size:30px; font-family: monospace"">Minha</span>"," ","","exp-sent","Minha","","",""
"","1539","html-keyboard-response","511","2053486","0.0-3.0-1.424","<span style=""font-size:30px; font-family: monospace"">prima</span>"," ","","exp-sent","prima","","",""
"","1977","html-keyboard-response","512","2055718","0.0-3.0-1.425","<span style=""font-size:30px; font-family: monospace"">trocou</span>"," ","","exp-sent","trocou","","",""
"","912","html-keyboard-response","513","2056882","0.0-3.0-1.426","<span style=""font-size:30px; font-family: monospace"">a</span>"," ","","exp-sent","a","","",""
"","3543","html-keyboard-response","514","2060680","0.0-3.0-1.427","<span style=""font-size:30px; font-family: monospace"">tela</span>"," ","","exp-sent","tela","","",""
"","385","html-keyboard-response","515","2061318","0.0-3.0-1.428","<span style=""font-size:30px; font-family: monospace"">do</span>"," ","","exp-sent","do","","",""
"","1690","html-keyboard-response","516","2063263","0.0-3.0-1.429","<span style=""font-size:30px; font-family: monospace"">celular</span>"," ","","exp-sent","celular","","",""
"","998","html-keyboard-response","517","2064515","0.0-3.0-1.430","<span style=""font-size:30px; font-family: monospace"">duas</span>"," ","","exp-sent","duas","","",""
"","750","html-keyboard-response","518","2065516","0.0-3.0-1.431","<span style=""font-size:30px; font-family: monospace"">vezes.</span>"," ","","exp-sent","vezes.","","",""
"","null","html-keyboard-response","519","2066773","0.0-3.0-0.432-0.432","<span style= ""font-size:30px; font-family: monospace"">+</span>","null","fixation","","","","",""
"","1840","html-keyboard-response","520","2068869","0.0-3.0-1.432","<span style=""font-size:30px; font-family: monospace"">Agora</span>"," ","","exp-sent","Agora","","",""
"","1743","html-keyboard-response","521","2070868","0.0-3.0-1.433","<span style=""font-size:30px; font-family: monospace"">a</span>"," ","","exp-sent","a","","",""
"","959","html-keyboard-response","522","2072081","0.0-3.0-1.434","<span style=""font-size:30px; font-family: monospace"">minha</span>"," ","","exp-sent","minha","","",""
"","2318","html-keyboard-response","523","2074653","0.0-3.0-1.435","<span style=""font-size:30px; font-family: monospace"">única</span>"," ","","exp-sent","única","","",""
"","6211","html-keyboard-response","524","2081118","0.0-3.0-1.436","<span style=""font-size:30px; font-family: monospace"">preocupação</span>"," ","","exp-sent","preocupação","","",""
"","858","html-keyboard-response","525","2082232","0.0-3.0-1.437","<span style=""font-size:30px; font-family: monospace"">é</span>"," ","","exp-sent","é","","",""
"","1235","html-keyboard-response","526","2083723","0.0-3.0-1.438","<span style=""font-size:30px; font-family: monospace"">um</span>"," ","","exp-sent","um","","",""
"","3052","html-keyboard-response","527","2087026","0.0-3.0-1.439","<span style=""font-size:30px; font-family: monospace"">descanso</span>"," ","","exp-sent","descanso","","",""
"","2253","html-keyboard-response","528","2089582","0.0-3.0-1.440","<span style=""font-size:30px; font-family: monospace"">tranquilo.</span>"," ","","exp-sent","tranquilo.","","",""
"","null","html-keyboard-response","529","2090840","0.0-3.0-0.441-0.441","<span style= ""font-size:30px; font-family: monospace"">+</span>","null","fixation","","","","",""
"","2814","html-keyboard-response","530","2093910","0.0-3.0-1.441","<span style=""font-size:30px; font-family: monospace"">A</span>"," ","","exp-sent","A","","",""
"","2011","html-keyboard-response","531","2096172","0.0-3.0-1.442","<span style=""font-size:30px; font-family: monospace"">criança</span>"," ","","exp-sent","criança","","",""
"","1543","html-keyboard-response","532","2097968","0.0-3.0-1.443","<span style=""font-size:30px; font-family: monospace"">ganhou</span>"," ","","exp-sent","ganhou","","",""
"","1022","html-keyboard-response","533","2099243","0.0-3.0-1.444","<span style=""font-size:30px; font-family: monospace"">um</span>"," ","","exp-sent","um","","",""
"","3028","html-keyboard-response","534","2102525","0.0-3.0-1.445","<span style=""font-size:30px; font-family: monospace"">presente</span>"," ","","exp-sent","presente","","",""
"","14827","html-keyboard-response","535","2117608","0.0-3.0-1.446","<span style=""font-size:30px; font-family: monospace"">maravilhoso.</span>"," ","","exp-sent","maravilhoso.","","",""
"","null","html-keyboard-response","536","2118867","0.0-3.0-0.447-0.447","<span style= ""font-size:30px; font-family: monospace"">+</span>","null","fixation","","","","",""
"","779","html-keyboard-response","537","2119901","0.0-3.0-1.447","<span style=""font-size:30px; font-family: monospace"">Os</span>"," ","","exp-sent","Os","","",""
"","1847","html-keyboard-response","538","2122002","0.0-3.0-1.448","<span style=""font-size:30px; font-family: monospace"">bichos</span>"," ","","exp-sent","bichos","","",""
"","1296","html-keyboard-response","539","2123554","0.0-3.0-1.449","<span style=""font-size:30px; font-family: monospace"">têm</span>"," ","","exp-sent","têm","","",""
"","1017","html-keyboard-response","540","2124824","0.0-3.0-1.450","<span style=""font-size:30px; font-family: monospace"">um</span>"," ","","exp-sent","um","","",""
"","5784","html-keyboard-response","541","2130863","0.0-3.0-1.451","<span style=""font-size:30px; font-family: monospace"">instinto</span>"," ","","exp-sent","instinto","","",""
"","840","html-keyboard-response","542","2131956","0.0-3.0-1.452","<span style=""font-size:30px; font-family: monospace"">de</span>"," ","","exp-sent","de","","",""
"","3716","html-keyboard-response","543","2135923","0.0-3.0-1.453","<span style=""font-size:30px; font-family: monospace"">sobrevivência</span>"," ","","exp-sent","sobrevivência","","",""
"","1634","html-keyboard-response","544","2137813","0.0-3.0-1.454","<span style=""font-size:30px; font-family: monospace"">forte.</span>"," ","","exp-sent","forte.","","",""
"","null","html-keyboard-response","545","2139069","0.0-3.0-0.455-0.455","<span style= ""font-size:30px; font-family: monospace"">+</span>","null","fixation","","","","",""
"","2584","html-keyboard-response","546","2141908","0.0-3.0-1.455","<span style=""font-size:30px; font-family: monospace"">Aquele</span>"," ","","exp-sent","Aquele","","",""
"","2329","html-keyboard-response","547","2144493","0.0-3.0-1.456","<span style=""font-size:30px; font-family: monospace"">menino</span>"," ","","exp-sent","menino","","",""
"","1226","html-keyboard-response","548","2145973","0.0-3.0-1.457","<span style=""font-size:30px; font-family: monospace"">alto</span>"," ","","exp-sent","alto","","",""
"","932","html-keyboard-response","549","2147158","0.0-3.0-1.458","<span style=""font-size:30px; font-family: monospace"">é</span>"," ","","exp-sent","é","","",""
"","2237","html-keyboard-response","550","2149649","0.0-3.0-1.459","<span style=""font-size:30px; font-family: monospace"">exibido</span>"," ","","exp-sent","exibido","","",""
"","1664","html-keyboard-response","551","2151566","0.0-3.0-1.460","<span style=""font-size:30px; font-family: monospace"">e</span>"," ","","exp-sent","e","","",""
"","2442","html-keyboard-response","552","2154260","0.0-3.0-1.461","<span style=""font-size:30px; font-family: monospace"">sovina.</span>"," ","","comp","sovina.","","",""
"","62283","html-keyboard-response","553","2216796","0.0-3.0-2.461-0.461","<span style=""font-size:30px; font-family: monospace"">Aquele menino é humilde?</span>","n","","comp","","Aquele menino é humilde?","não","false"
"","null","html-keyboard-response","554","2218304","0.0-3.0-0.462-0.462","<span style= ""font-size:30px; font-family: monospace"">+</span>","null","fixation","","","","",""
"","5801","html-keyboard-response","555","2224361","0.0-3.0-1.462","<span style=""font-size:30px; font-family: monospace"">No</span>"," ","","exp-sent","No","","",""
"","2615","html-keyboard-response","556","2227229","0.0-3.0-1.463","<span style=""font-size:30px; font-family: monospace"">passado</span>"," ","","exp-sent","passado","","",""
"","1687","html-keyboard-response","557","2229168","0.0-3.0-1.464","<span style=""font-size:30px; font-family: monospace"">houve</span>"," ","","exp-sent","houve","","",""
"","554","html-keyboard-response","558","2229975","0.0-3.0-1.465","<span style=""font-size:30px; font-family: monospace"">uma</span>"," ","","exp-sent","uma","","",""
"","2491","html-keyboard-response","559","2232719","0.0-3.0-1.466","<span style=""font-size:30px; font-family: monospace"">rebelião</span>"," ","","exp-sent","rebelião","","",""
"","2273","html-keyboard-response","560","2235247","0.0-3.0-1.467","<span style=""font-size:30px; font-family: monospace"">nesta</span>"," ","","exp-sent","nesta","","",""
"","995","html-keyboard-response","561","2236496","0.0-3.0-1.468","<span style=""font-size:30px; font-family: monospace"">cidade.</span>"," ","","exp-sent","cidade.","","",""
"","null","html-keyboard-response","562","2237750","0.0-3.0-0.469-0.469","<span style= ""font-size:30px; font-family: monospace"">+</span>","null","fixation","","","","",""
"","772","html-keyboard-response","563","2238777","0.0-3.0-1.469","<span style=""font-size:30px; font-family: monospace"">Ele</span>"," ","","exp-sent","Ele","","",""
"","1412","html-keyboard-response","564","2240440","0.0-3.0-1.470","<span style=""font-size:30px; font-family: monospace"">fundou</span>"," ","","exp-sent","fundou","","",""
"","1610","html-keyboard-response","565","2242301","0.0-3.0-1.471","<span style=""font-size:30px; font-family: monospace"">uma</span>"," ","","exp-sent","uma","","",""
"","3409","html-keyboard-response","566","2245962","0.0-3.0-1.472","<span style=""font-size:30px; font-family: monospace"">empresa</span>"," ","","exp-sent","empresa","","",""
"","1469","html-keyboard-response","567","2247684","0.0-3.0-1.473","<span style=""font-size:30px; font-family: monospace"">privada</span>"," ","","exp-sent","privada","","",""
"","1334","html-keyboard-response","568","2249274","0.0-3.0-1.474","<span style=""font-size:30px; font-family: monospace"">sem</span>"," ","","exp-sent","sem","","",""
"","4115","html-keyboard-response","569","2253645","0.0-3.0-1.475","<span style=""font-size:30px; font-family: monospace"">ajuda.</span>"," ","","exp-sent","ajuda.","","",""
"","null","html-keyboard-response","570","2254899","0.0-3.0-0.476-0.476","<span style= ""font-size:30px; font-family: monospace"">+</span>","null","fixation","","","","",""
"","1224","html-keyboard-response","571","2256379","0.0-3.0-1.476","<span style=""font-size:30px; font-family: monospace"">As</span>"," ","","exp-sent","As","","",""
"","3450","html-keyboard-response","572","2260080","0.0-3.0-1.477","<span style=""font-size:30px; font-family: monospace"">meninas</span>"," ","","exp-sent","meninas","","",""
"","5910","html-keyboard-response","573","2266244","0.0-3.0-1.478","<span style=""font-size:30px; font-family: monospace"">encontraram</span>"," ","","exp-sent","encontraram","","",""
"","1197","html-keyboard-response","574","2267696","0.0-3.0-1.479","<span style=""font-size:30px; font-family: monospace"">um</span>"," ","","exp-sent","um","","",""
"","1560","html-keyboard-response","575","2269510","0.0-3.0-1.480","<span style=""font-size:30px; font-family: monospace"">rato</span>"," ","","exp-sent","rato","","",""
"","3095","html-keyboard-response","576","2272856","0.0-3.0-1.481","<span style=""font-size:30px; font-family: monospace"">dentro</span>"," ","","exp-sent","dentro","","",""
"","1865","html-keyboard-response","577","2274975","0.0-3.0-1.482","<span style=""font-size:30px; font-family: monospace"">de</span>"," ","","exp-sent","de","","",""
"","2938","html-keyboard-response","578","2278167","0.0-3.0-1.483","<span style=""font-size:30px; font-family: monospace"">casa.</span>"," ","","exp-sent","casa.","","",""
"","null","html-keyboard-response","579","2279426","0.0-3.0-0.484-0.484","<span style= ""font-size:30px; font-family: monospace"">+</span>","null","fixation","","","","",""
"","706","html-keyboard-response","580","2280388","0.0-3.0-1.484","<span style=""font-size:30px; font-family: monospace"">O</span>"," ","","exp-sent","O","","",""
