[
	{
		"view_history": [
			{
				"page_index": 0,
				"viewing_time": 24720
			}
		],
		"rt": 24722,
		"trial_type": "instructions",
		"trial_index": 0,
		"time_elapsed": 24732,
		"internal_node_id": "0.0-0.0"
	},
	{
		"rt": 418441,
		"response": {
			"tcle": "Concordo voluntariamente em participar da pesquisa conforme texto acima."
		},
		"question_order": [
			0
		],
		"trial_type": "survey-multi-choice",
		"trial_index": 1,
		"time_elapsed": 443359,
		"internal_node_id": "0.0-1.0"
	},
	{
		"rt": 55772,
		"response": {
			"email": "IR1FT"
		},
		"trial_type": "survey-text",
		"trial_index": 2,
		"time_elapsed": 502584,
		"internal_node_id": "0.0-2.0"
	}
]