[
	{
		"view_history": [
			{
				"page_index": 0,
				"viewing_time": 5000
			}
		],
		"rt": 5000,
		"trial_type": "instructions",
		"trial_index": 0,
		"time_elapsed": 5007,
		"internal_node_id": "0.0-0.0"
	},
	{
		"rt": 131987,
		"response": {
			"reading_habits_printed_magazines": "Todos os dias",
			"reading_habits_printed_newspapers": "Uma vez por semana",
			"reading_habits_books": "Todos os dias",
			"reading_habits_printed_socialmedias": "Todos os dias"
		},
		"question_order": [
			0,
			1,
			2,
			3
		],
		"trial_type": "survey-multi-choice",
		"trial_index": 1,
		"time_elapsed": 137104,
		"internal_node_id": "0.0-1.0"
	},
	{
		"rt": 55134,
		"response": {
			"reading_habits_virtual_magazines": "Uma vez por semana",
			"reading_habits_virtual_newspapers": "Todos os dias",
			"reading_habits_books": "Raramente",
			"reading_habits_virtual_socialmedias": "Todos os dias"
		},
		"question_order": [
			0,
			1,
			2,
			3
		],
		"trial_type": "survey-multi-choice",
		"trial_index": 2,
		"time_elapsed": 192344,
		"internal_node_id": "0.0-2.0"
	},
	{
		"rt": 72528,
		"response": {
			"reading_habits_other_which": "DICIONÁRIO",
			"reading_habits_other_frequency": "TODOS OS DIAS"
		},
		"trial_type": "survey-text",
		"trial_index": 3,
		"time_elapsed": 264980,
		"internal_node_id": "0.0-3.0"
	}
]