[
	{
		"view_history": [
			{
				"page_index": 0,
				"viewing_time": 79389
			}
		],
		"rt": 79389,
		"trial_type": "instructions",
		"trial_index": 0,
		"time_elapsed": 79394,
		"internal_node_id": "0.0-0.0"
	},
	{
		"rt": null,
		"stimulus": "+",
		"response": null,
		"trial_type": "html-keyboard-response",
		"trial_index": 1,
		"time_elapsed": 79998,
		"internal_node_id": "0.0-1.0-0.0"
	},
	{
		"rt": 14978,
		"stimulus": "chassi",
		"response": "n",
		"class": "null",
		"status": "cog",
		"answer": "word",
		"correct": "S",
		"trial": "prac",
		"letters": "null",
		"trial_type": "html-keyboard-response",
		"trial_index": 2,
		"time_elapsed": 94977,
		"internal_node_id": "0.0-1.0-1.0"
	},
	{
		"rt": null,
		"stimulus": "+",
		"response": null,
		"trial_type": "html-keyboard-response",
		"trial_index": 3,
		"time_elapsed": 95480,
		"internal_node_id": "0.0-1.0-0.1"
	},
	{
		"rt": 18792,
		"stimulus": "oliva",
		"response": "s",
		"class": "null",
		"status": "cog",
		"answer": "word",
		"correct": "S",
		"trial": "prac",
		"letters": "null",
		"trial_type": "html-keyboard-response",
		"trial_index": 4,
		"time_elapsed": 114274,
		"internal_node_id": "0.0-1.0-1.1"
	},
	{
		"rt": null,
		"stimulus": "+",
		"response": null,
		"trial_type": "html-keyboard-response",
		"trial_index": 5,
		"time_elapsed": 114777,
		"internal_node_id": "0.0-1.0-0.2"
	},
	{
		"rt": 6293,
		"stimulus": "daja",
		"response": "n",
		"class": "null",
		"status": "noncog",
		"answer": "pseudo",
		"correct": "N",
		"trial": "prac",
		"letters": "null",
		"trial_type": "html-keyboard-response",
		"trial_index": 6,
		"time_elapsed": 121071,
		"internal_node_id": "0.0-1.0-1.2"
	},
	{
		"rt": null,
		"stimulus": "+",
		"response": null,
		"trial_type": "html-keyboard-response",
		"trial_index": 7,
		"time_elapsed": 121575,
		"internal_node_id": "0.0-1.0-0.3"
	},
	{
		"rt": 4943,
		"stimulus": "plibar",
		"response": "s",
		"class": "null",
		"status": "noncog",
		"answer": "pseudo",
		"correct": "N",
		"trial": "prac",
		"letters": "null",
		"trial_type": "html-keyboard-response",
		"trial_index": 8,
		"time_elapsed": 126518,
		"internal_node_id": "0.0-1.0-1.3"
	},
	{
		"rt": null,
		"stimulus": "+",
		"response": null,
		"trial_type": "html-keyboard-response",
		"trial_index": 9,
		"time_elapsed": 127020,
		"internal_node_id": "0.0-1.0-0.4"
	},
	{
		"rt": 3717,
		"stimulus": "calmaria",
		"response": "s",
		"class": "null",
		"status": "noncog",
		"answer": "word",
		"correct": "S",
		"trial": "prac",
		"letters": "null",
		"trial_type": "html-keyboard-response",
		"trial_index": 10,
		"time_elapsed": 130738,
		"internal_node_id": "0.0-1.0-1.4"
	},
	{
		"rt": null,
		"stimulus": "+",
		"response": null,
		"trial_type": "html-keyboard-response",
		"trial_index": 11,
		"time_elapsed": 131240,
		"internal_node_id": "0.0-1.0-0.5"
	},
	{
		"rt": 4452,
		"stimulus": "órgão",
		"response": "s",
		"class": "null",
		"status": "noncog",
		"answer": "word",
		"correct": "S",
		"trial": "prac",
		"letters": "null",
		"trial_type": "html-keyboard-response",
		"trial_index": 12,
		"time_elapsed": 135693,
		"internal_node_id": "0.0-1.0-1.5"
	},
	{
		"rt": null,
		"stimulus": "+",
		"response": null,
		"trial_type": "html-keyboard-response",
		"trial_index": 13,
		"time_elapsed": 136198,
		"internal_node_id": "0.0-1.0-0.6"
	},
	{
		"rt": 5624,
		"stimulus": "crante",
		"response": "s",
		"class": "null",
		"status": "noncog",
		"answer": "pseudo",
		"correct": "N",
		"trial": "prac",
		"letters": "null",
		"trial_type": "html-keyboard-response",
		"trial_index": 14,
		"time_elapsed": 141822,
		"internal_node_id": "0.0-1.0-1.6"
	},
	{
		"view_history": [
			{
				"page_index": 0,
				"viewing_time": 14928
			}
		],
		"rt": 14928,
		"trial_type": "instructions",
		"trial_index": 15,
		"time_elapsed": 156752,
		"internal_node_id": "0.0-2.0"
	},
	{
		"rt": null,
		"stimulus": "+",
		"response": null,
		"trial_type": "html-keyboard-response",
		"trial_index": 16,
		"time_elapsed": 157358,
		"internal_node_id": "0.0-3.0-0.0"
	},
	{
		"rt": 6565,
		"stimulus": "chorão",
		"response": "s",
		"class": "a",
		"status": "noncog",
		"answer": "word",
		"correct": "S",
		"trial": "exp",
		"letters": "6",
		"trial_type": "html-keyboard-response",
		"trial_index": 17,
		"time_elapsed": 163924,
		"internal_node_id": "0.0-3.0-1.0"
	},
	{
		"rt": null,
		"stimulus": "+",
		"response": null,
		"trial_type": "html-keyboard-response",
		"trial_index": 18,
		"time_elapsed": 164428,
		"internal_node_id": "0.0-3.0-0.1"
	},
	{
		"rt": 3810,
		"stimulus": "conjerto",
		"response": "s",
		"class": "null",
		"status": "noncog",
		"answer": "pseudo",
		"correct": "N",
		"trial": "exp",
		"letters": "null",
		"trial_type": "html-keyboard-response",
		"trial_index": 19,
		"time_elapsed": 168239,
		"internal_node_id": "0.0-3.0-1.1"
	},
	{
		"rt": null,
		"stimulus": "+",
		"response": null,
		"trial_type": "html-keyboard-response",
		"trial_index": 20,
		"time_elapsed": 168742,
		"internal_node_id": "0.0-3.0-0.2"
	},
	{
		"rt": 2824,
		"stimulus": "pitada",
		"response": "s",
		"class": "n",
		"status": "noncog",
		"answer": "word",
		"correct": "S",
		"trial": "exp",
		"letters": "6",
		"trial_type": "html-keyboard-response",
		"trial_index": 21,
		"time_elapsed": 171567,
		"internal_node_id": "0.0-3.0-1.2"
	},
	{
		"rt": null,
		"stimulus": "+",
		"response": null,
		"trial_type": "html-keyboard-response",
		"trial_index": 22,
		"time_elapsed": 172070,
		"internal_node_id": "0.0-3.0-0.3"
	},
	{
		"rt": 4450,
		"stimulus": "verceja",
		"response": "s",
		"class": "null",
		"status": "noncog",
		"answer": "pseudo",
		"correct": "N",
		"trial": "exp",
		"letters": "null",
		"trial_type": "html-keyboard-response",
		"trial_index": 23,
		"time_elapsed": 176521,
		"internal_node_id": "0.0-3.0-1.3"
	},
	{
		"rt": null,
		"stimulus": "+",
		"response": null,
		"trial_type": "html-keyboard-response",
		"trial_index": 24,
		"time_elapsed": 177026,
		"internal_node_id": "0.0-3.0-0.4"
	},
	{
		"rt": 5488,
		"stimulus": "refletir",
		"response": "s",
		"class": "v",
		"status": "cog",
		"answer": "word",
		"correct": "S",
		"trial": "exp",
		"letters": "8",
		"trial_type": "html-keyboard-response",
		"trial_index": 25,
		"time_elapsed": 182514,
		"internal_node_id": "0.0-3.0-1.4"
	},
	{
		"rt": null,
		"stimulus": "+",
		"response": null,
		"trial_type": "html-keyboard-response",
		"trial_index": 26,
		"time_elapsed": 183016,
		"internal_node_id": "0.0-3.0-0.5"
	},
	{
		"rt": 5992,
		"stimulus": "oecano",
		"response": "n",
		"class": "null",
		"status": "noncog",
		"answer": "pseudo",
		"correct": "N",
		"trial": "exp",
		"letters": "null",
		"trial_type": "html-keyboard-response",
		"trial_index": 27,
		"time_elapsed": 189009,
		"internal_node_id": "0.0-3.0-1.5"
	},
	{
		"rt": null,
		"stimulus": "+",
		"response": null,
		"trial_type": "html-keyboard-response",
		"trial_index": 28,
		"time_elapsed": 189513,
		"internal_node_id": "0.0-3.0-0.6"
	},
	{
		"rt": 3319,
		"stimulus": "sintonizar",
		"response": "s",
		"class": "v",
		"status": "noncog",
		"answer": "word",
		"correct": "S",
		"trial": "exp",
		"letters": "10",
		"trial_type": "html-keyboard-response",
		"trial_index": 29,
		"time_elapsed": 192832,
		"internal_node_id": "0.0-3.0-1.6"
	},
	{
		"rt": null,
		"stimulus": "+",
		"response": null,
		"trial_type": "html-keyboard-response",
		"trial_index": 30,
		"time_elapsed": 193334,
		"internal_node_id": "0.0-3.0-0.7"
	},
	{
		"rt": 3086,
		"stimulus": "promessa",
		"response": "s",
		"class": "n",
		"status": "noncog",
		"answer": "word",
		"correct": "S",
		"trial": "exp",
		"letters": "8",
		"trial_type": "html-keyboard-response",
		"trial_index": 31,
		"time_elapsed": 196421,
		"internal_node_id": "0.0-3.0-1.7"
	},
	{
		"rt": null,
		"stimulus": "+",
		"response": null,
		"trial_type": "html-keyboard-response",
		"trial_index": 32,
		"time_elapsed": 196926,
		"internal_node_id": "0.0-3.0-0.8"
	},
	{
		"rt": 1365,
		"stimulus": "dia",
		"response": "s",
		"class": "n",
		"status": "noncog",
		"answer": "word",
		"correct": "S",
		"trial": "exp",
		"letters": "3",
		"trial_type": "html-keyboard-response",
		"trial_index": 33,
		"time_elapsed": 198291,
		"internal_node_id": "0.0-3.0-1.8"
	},
	{
		"rt": null,
		"stimulus": "+",
		"response": null,
		"trial_type": "html-keyboard-response",
		"trial_index": 34,
		"time_elapsed": 198795,
		"internal_node_id": "0.0-3.0-0.9"
	},
	{
		"rt": 1869,
		"stimulus": "imitar",
		"response": "s",
		"class": "v",
		"status": "cog",
		"answer": "word",
		"correct": "S",
		"trial": "exp",
		"letters": "6",
		"trial_type": "html-keyboard-response",
		"trial_index": 35,
		"time_elapsed": 200665,
		"internal_node_id": "0.0-3.0-1.9"
	},
	{
		"rt": null,
		"stimulus": "+",
		"response": null,
		"trial_type": "html-keyboard-response",
		"trial_index": 36,
		"time_elapsed": 201169,
		"internal_node_id": "0.0-3.0-0.10"
	},
	{
		"rt": 3624,
		"stimulus": "vervas",
		"response": "s",
		"class": "null",
		"status": "noncog",
		"answer": "pseudo",
		"correct": "N",
		"trial": "exp",
		"letters": "null",
		"trial_type": "html-keyboard-response",
		"trial_index": 37,
		"time_elapsed": 204794,
		"internal_node_id": "0.0-3.0-1.10"
	},
	{
		"rt": null,
		"stimulus": "+",
		"response": null,
		"trial_type": "html-keyboard-response",
		"trial_index": 38,
		"time_elapsed": 205297,
		"internal_node_id": "0.0-3.0-0.11"
	},
	{
		"rt": 3580,
		"stimulus": "faínas",
		"response": "s",
		"class": "null",
		"status": "noncog",
		"answer": "pseudo",
		"correct": "N",
		"trial": "exp",
		"letters": "null",
		"trial_type": "html-keyboard-response",
		"trial_index": 39,
		"time_elapsed": 208878,
		"internal_node_id": "0.0-3.0-1.11"
	},
	{
		"rt": null,
		"stimulus": "+",
		"response": null,
		"trial_type": "html-keyboard-response",
		"trial_index": 40,
		"time_elapsed": 209379,
		"internal_node_id": "0.0-3.0-0.12"
	},
	{
		"rt": 2392,
		"stimulus": "animado",
		"response": "s",
		"class": "a",
		"status": "noncog",
		"answer": "word",
		"correct": "S",
		"trial": "exp",
		"letters": "7",
		"trial_type": "html-keyboard-response",
		"trial_index": 41,
		"time_elapsed": 211772,
		"internal_node_id": "0.0-3.0-1.12"
	},
	{
		"rt": null,
		"stimulus": "+",
		"response": null,
		"trial_type": "html-keyboard-response",
		"trial_index": 42,
		"time_elapsed": 212275,
		"internal_node_id": "0.0-3.0-0.13"
	},
	{
		"rt": 4023,
		"stimulus": "selir",
		"response": "s",
		"class": "null",
		"status": "noncog",
		"answer": "pseudo",
		"correct": "N",
		"trial": "exp",
		"letters": "null",
		"trial_type": "html-keyboard-response",
		"trial_index": 43,
		"time_elapsed": 216298,
		"internal_node_id": "0.0-3.0-1.13"
	},
	{
		"rt": null,
		"stimulus": "+",
		"response": null,
		"trial_type": "html-keyboard-response",
		"trial_index": 44,
		"time_elapsed": 216803,
		"internal_node_id": "0.0-3.0-0.14"
	},
	{
		"rt": 2683,
		"stimulus": "papai",
		"response": "s",
		"class": "n",
		"status": "cog",
		"answer": "word",
		"correct": "S",
		"trial": "exp",
		"letters": "5",
		"trial_type": "html-keyboard-response",
		"trial_index": 45,
		"time_elapsed": 219486,
		"internal_node_id": "0.0-3.0-1.14"
	},
	{
		"rt": null,
		"stimulus": "+",
		"response": null,
		"trial_type": "html-keyboard-response",
		"trial_index": 46,
		"time_elapsed": 219990,
		"internal_node_id": "0.0-3.0-0.15"
	},
	{
		"rt": 1996,
		"stimulus": "lagras",
		"response": "s",
		"class": "null",
		"status": "noncog",
		"answer": "pseudo",
		"correct": "N",
		"trial": "exp",
		"letters": "null",
		"trial_type": "html-keyboard-response",
		"trial_index": 47,
		"time_elapsed": 221986,
		"internal_node_id": "0.0-3.0-1.15"
	},
	{
		"rt": null,
		"stimulus": "+",
		"response": null,
		"trial_type": "html-keyboard-response",
		"trial_index": 48,
		"time_elapsed": 222492,
		"internal_node_id": "0.0-3.0-0.16"
	},
	{
		"rt": 1701,
		"stimulus": "melão",
		"response": "s",
		"class": "n",
		"status": "cog",
		"answer": "word",
		"correct": "S",
		"trial": "exp",
		"letters": "5",
		"trial_type": "html-keyboard-response",
		"trial_index": 49,
		"time_elapsed": 224193,
		"internal_node_id": "0.0-3.0-1.16"
	},
	{
		"rt": null,
		"stimulus": "+",
		"response": null,
		"trial_type": "html-keyboard-response",
		"trial_index": 50,
		"time_elapsed": 224698,
		"internal_node_id": "0.0-3.0-0.17"
	},
	{
		"rt": 2963,
		"stimulus": "disbrituir",
		"response": "s",
		"class": "null",
		"status": "noncog",
		"answer": "pseudo",
		"correct": "N",
		"trial": "exp",
		"letters": "null",
		"trial_type": "html-keyboard-response",
		"trial_index": 51,
		"time_elapsed": 227662,
		"internal_node_id": "0.0-3.0-1.17"
	},
	{
		"rt": null,
		"stimulus": "+",
		"response": null,
		"trial_type": "html-keyboard-response",
		"trial_index": 52,
		"time_elapsed": 228163,
		"internal_node_id": "0.0-3.0-0.18"
	},
	{
		"rt": 1624,
		"stimulus": "jantar",
		"response": "s",
		"class": "v",
		"status": "noncog",
		"answer": "word",
		"correct": "S",
		"trial": "exp",
		"letters": "6",
		"trial_type": "html-keyboard-response",
		"trial_index": 53,
		"time_elapsed": 229788,
		"internal_node_id": "0.0-3.0-1.18"
	},
	{
		"rt": null,
		"stimulus": "+",
		"response": null,
		"trial_type": "html-keyboard-response",
		"trial_index": 54,
		"time_elapsed": 230289,
		"internal_node_id": "0.0-3.0-0.19"
	},
	{
		"rt": 3546,
		"stimulus": "civil",
		"response": "s",
		"class": "a",
		"status": "cog",
		"answer": "word",
		"correct": "S",
		"trial": "exp",
		"letters": "5",
		"trial_type": "html-keyboard-response",
		"trial_index": 55,
		"time_elapsed": 233836,
		"internal_node_id": "0.0-3.0-1.19"
	},
	{
		"rt": null,
		"stimulus": "+",
		"response": null,
		"trial_type": "html-keyboard-response",
		"trial_index": 56,
		"time_elapsed": 234340,
		"internal_node_id": "0.0-3.0-0.20"
	},
	{
		"rt": 3139,
		"stimulus": "morno",
		"response": "s",
		"class": "a",
		"status": "noncog",
		"answer": "word",
		"correct": "S",
		"trial": "exp",
		"letters": "5",
		"trial_type": "html-keyboard-response",
		"trial_index": 57,
		"time_elapsed": 237479,
		"internal_node_id": "0.0-3.0-1.20"
	},
	{
		"rt": null,
		"stimulus": "+",
		"response": null,
		"trial_type": "html-keyboard-response",
		"trial_index": 58,
		"time_elapsed": 237981,
		"internal_node_id": "0.0-3.0-0.21"
	},
	{
		"rt": 3552,
		"stimulus": "crolatário",
		"response": "s",
		"class": "null",
		"status": "noncog",
		"answer": "pseudo",
		"correct": "N",
		"trial": "exp",
		"letters": "null",
		"trial_type": "html-keyboard-response",
		"trial_index": 59,
		"time_elapsed": 241534,
		"internal_node_id": "0.0-3.0-1.21"
	},
	{
		"rt": null,
		"stimulus": "+",
		"response": null,
		"trial_type": "html-keyboard-response",
		"trial_index": 60,
		"time_elapsed": 242038,
		"internal_node_id": "0.0-3.0-0.22"
	},
	{
		"rt": 3396,
		"stimulus": "chato",
		"response": "s",
		"class": "n",
		"status": "noncog",
		"answer": "word",
		"correct": "S",
		"trial": "exp",
		"letters": "5",
		"trial_type": "html-keyboard-response",
		"trial_index": 61,
		"time_elapsed": 245437,
		"internal_node_id": "0.0-3.0-1.22"
	},
	{
		"rt": null,
		"stimulus": "+",
		"response": null,
		"trial_type": "html-keyboard-response",
		"trial_index": 62,
		"time_elapsed": 245943,
		"internal_node_id": "0.0-3.0-0.23"
	},
	{
		"rt": 2010,
		"stimulus": "sábio",
		"response": "s",
		"class": "n",
		"status": "noncog",
		"answer": "word",
		"correct": "S",
		"trial": "exp",
		"letters": "5",
		"trial_type": "html-keyboard-response",
		"trial_index": 63,
		"time_elapsed": 247956,
		"internal_node_id": "0.0-3.0-1.23"
	},
	{
		"rt": null,
		"stimulus": "+",
		"response": null,
		"trial_type": "html-keyboard-response",
		"trial_index": 64,
		"time_elapsed": 248461,
		"internal_node_id": "0.0-3.0-0.24"
	},
	{
		"rt": 1903,
		"stimulus": "gilha",
		"response": "s",
		"class": "null",
		"status": "noncog",
		"answer": "pseudo",
		"correct": "N",
		"trial": "exp",
		"letters": "null",
		"trial_type": "html-keyboard-response",
		"trial_index": 65,
		"time_elapsed": 250367,
		"internal_node_id": "0.0-3.0-1.24"
	},
	{
		"rt": null,
		"stimulus": "+",
		"response": null,
		"trial_type": "html-keyboard-response",
		"trial_index": 66,
		"time_elapsed": 250873,
		"internal_node_id": "0.0-3.0-0.25"
	},
	{
		"rt": 2895,
		"stimulus": "cinema",
		"response": "s",
		"class": "n",
		"status": "cog",
		"answer": "word",
		"correct": "S",
		"trial": "exp",
		"letters": "6",
		"trial_type": "html-keyboard-response",
		"trial_index": 67,
		"time_elapsed": 253772,
		"internal_node_id": "0.0-3.0-1.25"
	},
	{
		"rt": null,
		"stimulus": "+",
		"response": null,
		"trial_type": "html-keyboard-response",
		"trial_index": 68,
		"time_elapsed": 254274,
		"internal_node_id": "0.0-3.0-0.26"
	},
	{
		"rt": 6837,
		"stimulus": "prenas",
		"response": "s",
		"class": "null",
		"status": "noncog",
		"answer": "pseudo",
		"correct": "N",
		"trial": "exp",
		"letters": "null",
		"trial_type": "html-keyboard-response",
		"trial_index": 69,
		"time_elapsed": 261118,
		"internal_node_id": "0.0-3.0-1.26"
	},
	{
		"rt": null,
		"stimulus": "+",
		"response": null,
		"trial_type": "html-keyboard-response",
		"trial_index": 70,
		"time_elapsed": 261623,
		"internal_node_id": "0.0-3.0-0.27"
	},
	{
		"rt": 3130,
		"stimulus": "mabras",
		"response": "s",
		"class": "null",
		"status": "noncog",
		"answer": "pseudo",
		"correct": "N",
		"trial": "exp",
		"letters": "null",
		"trial_type": "html-keyboard-response",
		"trial_index": 71,
		"time_elapsed": 264756,
		"internal_node_id": "0.0-3.0-1.27"
	},
	{
		"rt": null,
		"stimulus": "+",
		"response": null,
		"trial_type": "html-keyboard-response",
		"trial_index": 72,
		"time_elapsed": 265259,
		"internal_node_id": "0.0-3.0-0.28"
	},
	{
		"rt": 3219,
		"stimulus": "distraído",
		"response": "s",
		"class": "a",
		"status": "cog",
		"answer": "word",
		"correct": "S",
		"trial": "exp",
		"letters": "9",
		"trial_type": "html-keyboard-response",
		"trial_index": 73,
		"time_elapsed": 268481,
		"internal_node_id": "0.0-3.0-1.28"
	},
	{
		"rt": null,
		"stimulus": "+",
		"response": null,
		"trial_type": "html-keyboard-response",
		"trial_index": 74,
		"time_elapsed": 268982,
		"internal_node_id": "0.0-3.0-0.29"
	},
	{
		"rt": 4093,
		"stimulus": "nacional",
		"response": "s",
		"class": "a",
		"status": "cog",
		"answer": "word",
		"correct": "S",
		"trial": "exp",
		"letters": "8",
		"trial_type": "html-keyboard-response",
		"trial_index": 75,
		"time_elapsed": 273078,
		"internal_node_id": "0.0-3.0-1.29"
	},
	{
		"rt": null,
		"stimulus": "+",
		"response": null,
		"trial_type": "html-keyboard-response",
		"trial_index": 76,
		"time_elapsed": 273581,
		"internal_node_id": "0.0-3.0-0.30"
	},
	{
		"rt": 4558,
		"stimulus": "propaganda",
		"response": "s",
		"class": "n",
		"status": "cog",
		"answer": "word",
		"correct": "S",
		"trial": "exp",
		"letters": "10",
		"trial_type": "html-keyboard-response",
		"trial_index": 77,
		"time_elapsed": 278142,
		"internal_node_id": "0.0-3.0-1.30"
	},
	{
		"rt": null,
		"stimulus": "+",
		"response": null,
		"trial_type": "html-keyboard-response",
		"trial_index": 78,
		"time_elapsed": 278644,
		"internal_node_id": "0.0-3.0-0.31"
	},
	{
		"rt": 3952,
		"stimulus": "taberia",
		"response": "s",
		"class": "null",
		"status": "noncog",
		"answer": "pseudo",
		"correct": "N",
		"trial": "exp",
		"letters": "null",
		"trial_type": "html-keyboard-response",
		"trial_index": 79,
		"time_elapsed": 282597,
		"internal_node_id": "0.0-3.0-1.31"
	},
	{
		"rt": null,
		"stimulus": "+",
		"response": null,
		"trial_type": "html-keyboard-response",
		"trial_index": 80,
		"time_elapsed": 283098,
		"internal_node_id": "0.0-3.0-0.32"
	},
	{
		"rt": 2287,
		"stimulus": "pimada",
		"response": "s",
		"class": "null",
		"status": "noncog",
		"answer": "pseudo",
		"correct": "N",
		"trial": "exp",
		"letters": "null",
		"trial_type": "html-keyboard-response",
		"trial_index": 81,
		"time_elapsed": 285386,
		"internal_node_id": "0.0-3.0-1.32"
	},
	{
		"rt": null,
		"stimulus": "+",
		"response": null,
		"trial_type": "html-keyboard-response",
		"trial_index": 82,
		"time_elapsed": 285891,
		"internal_node_id": "0.0-3.0-0.33"
	},
	{
		"rt": 7469,
		"stimulus": "aparme",
		"response": "n",
		"class": "null",
		"status": "noncog",
		"answer": "pseudo",
		"correct": "N",
		"trial": "exp",
		"letters": "null",
		"trial_type": "html-keyboard-response",
		"trial_index": 83,
		"time_elapsed": 293362,
		"internal_node_id": "0.0-3.0-1.33"
	},
	{
		"rt": null,
		"stimulus": "+",
		"response": null,
		"trial_type": "html-keyboard-response",
		"trial_index": 84,
		"time_elapsed": 293863,
		"internal_node_id": "0.0-3.0-0.34"
	},
	{
		"rt": 1761,
		"stimulus": "grátis",
		"response": "s",
		"class": "a",
		"status": "cog",
		"answer": "word",
		"correct": "S",
		"trial": "exp",
		"letters": "6",
		"trial_type": "html-keyboard-response",
		"trial_index": 85,
		"time_elapsed": 295625,
		"internal_node_id": "0.0-3.0-1.34"
	},
	{
		"rt": null,
		"stimulus": "+",
		"response": null,
		"trial_type": "html-keyboard-response",
		"trial_index": 86,
		"time_elapsed": 296126,
		"internal_node_id": "0.0-3.0-0.35"
	},
	{
		"rt": 2180,
		"stimulus": "franda",
		"response": "s",
		"class": "null",
		"status": "noncog",
		"answer": "pseudo",
		"correct": "N",
		"trial": "exp",
		"letters": "null",
		"trial_type": "html-keyboard-response",
		"trial_index": 87,
		"time_elapsed": 298307,
		"internal_node_id": "0.0-3.0-1.35"
	},
	{
		"rt": null,
		"stimulus": "+",
		"response": null,
		"trial_type": "html-keyboard-response",
		"trial_index": 88,
		"time_elapsed": 298809,
		"internal_node_id": "0.0-3.0-0.36"
	},
	{
		"rt": 2381,
		"stimulus": "mania",
		"response": "s",
		"class": "n",
		"status": "cog",
		"answer": "word",
		"correct": "S",
		"trial": "exp",
		"letters": "5",
		"trial_type": "html-keyboard-response",
		"trial_index": 89,
		"time_elapsed": 301191,
		"internal_node_id": "0.0-3.0-1.36"
	},
	{
		"rt": null,
		"stimulus": "+",
		"response": null,
		"trial_type": "html-keyboard-response",
		"trial_index": 90,
		"time_elapsed": 301694,
		"internal_node_id": "0.0-3.0-0.37"
	},
	{
		"rt": 1657,
		"stimulus": "telefone",
		"response": "s",
		"class": "n",
		"status": "cog",
		"answer": "word",
		"correct": "S",
		"trial": "exp",
		"letters": "8",
		"trial_type": "html-keyboard-response",
		"trial_index": 91,
		"time_elapsed": 303352,
		"internal_node_id": "0.0-3.0-1.37"
	},
	{
		"rt": null,
		"stimulus": "+",
		"response": null,
		"trial_type": "html-keyboard-response",
		"trial_index": 92,
		"time_elapsed": 303854,
		"internal_node_id": "0.0-3.0-0.38"
	},
	{
		"rt": 5062,
		"stimulus": "tímido",
		"response": "s",
		"class": "a",
		"status": "cog",
		"answer": "word",
		"correct": "S",
		"trial": "exp",
		"letters": "6",
		"trial_type": "html-keyboard-response",
		"trial_index": 93,
		"time_elapsed": 308917,
		"internal_node_id": "0.0-3.0-1.38"
	},
	{
		"rt": null,
		"stimulus": "+",
		"response": null,
		"trial_type": "html-keyboard-response",
		"trial_index": 94,
		"time_elapsed": 309421,
		"internal_node_id": "0.0-3.0-0.39"
	},
	{
		"rt": 5561,
		"stimulus": "candifência",
		"response": "s",
		"class": "null",
		"status": "noncog",
		"answer": "pseudo",
		"correct": "N",
		"trial": "exp",
		"letters": "null",
		"trial_type": "html-keyboard-response",
		"trial_index": 95,
		"time_elapsed": 314983,
		"internal_node_id": "0.0-3.0-1.39"
	},
	{
		"rt": null,
		"stimulus": "+",
		"response": null,
		"trial_type": "html-keyboard-response",
		"trial_index": 96,
		"time_elapsed": 315487,
		"internal_node_id": "0.0-3.0-0.40"
	},
	{
		"rt": 1856,
		"stimulus": "cristal",
		"response": "s",
		"class": "n",
		"status": "cog",
		"answer": "word",
		"correct": "S",
		"trial": "exp",
		"letters": "7",
		"trial_type": "html-keyboard-response",
		"trial_index": 97,
		"time_elapsed": 317344,
		"internal_node_id": "0.0-3.0-1.40"
	},
	{
		"rt": null,
		"stimulus": "+",
		"response": null,
		"trial_type": "html-keyboard-response",
		"trial_index": 98,
		"time_elapsed": 317846,
		"internal_node_id": "0.0-3.0-0.41"
	},
	{
		"rt": 2198,
		"stimulus": "preferir",
		"response": "s",
		"class": "v",
		"status": "cog",
		"answer": "word",
		"correct": "S",
		"trial": "exp",
		"letters": "8",
		"trial_type": "html-keyboard-response",
		"trial_index": 99,
		"time_elapsed": 320045,
		"internal_node_id": "0.0-3.0-1.41"
	},
	{
		"rt": null,
		"stimulus": "+",
		"response": null,
		"trial_type": "html-keyboard-response",
		"trial_index": 100,
		"time_elapsed": 320550,
		"internal_node_id": "0.0-3.0-0.42"
	},
	{
		"rt": 1759,
		"stimulus": "tartos",
		"response": "s",
		"class": "null",
		"status": "noncog",
		"answer": "pseudo",
		"correct": "N",
		"trial": "exp",
		"letters": "null",
		"trial_type": "html-keyboard-response",
		"trial_index": 101,
		"time_elapsed": 322310,
		"internal_node_id": "0.0-3.0-1.42"
	},
	{
		"rt": null,
		"stimulus": "+",
		"response": null,
		"trial_type": "html-keyboard-response",
		"trial_index": 102,
		"time_elapsed": 322814,
		"internal_node_id": "0.0-3.0-0.43"
	},
	{
		"rt": 2411,
		"stimulus": "reduzir",
		"response": "s",
		"class": "v",
		"status": "cog",
		"answer": "word",
		"correct": "S",
		"trial": "exp",
		"letters": "7",
		"trial_type": "html-keyboard-response",
		"trial_index": 103,
		"time_elapsed": 325226,
		"internal_node_id": "0.0-3.0-1.43"
	},
	{
		"rt": null,
		"stimulus": "+",
		"response": null,
		"trial_type": "html-keyboard-response",
		"trial_index": 104,
		"time_elapsed": 325728,
		"internal_node_id": "0.0-3.0-0.44"
	},
	{
		"rt": 2066,
		"stimulus": "gordo",
		"response": "s",
		"class": "a",
		"status": "noncog",
		"answer": "word",
		"correct": "S",
		"trial": "exp",
		"letters": "5",
		"trial_type": "html-keyboard-response",
		"trial_index": 105,
		"time_elapsed": 327795,
		"internal_node_id": "0.0-3.0-1.44"
	},
	{
		"rt": null,
		"stimulus": "+",
		"response": null,
		"trial_type": "html-keyboard-response",
		"trial_index": 106,
		"time_elapsed": 328299,
		"internal_node_id": "0.0-3.0-0.45"
	},
	{
		"rt": 4847,
		"stimulus": "deselegante",
		"response": "s",
		"class": "a",
		"status": "noncog",
		"answer": "word",
		"correct": "S",
		"trial": "exp",
		"letters": "11",
		"trial_type": "html-keyboard-response",
		"trial_index": 107,
		"time_elapsed": 333147,
		"internal_node_id": "0.0-3.0-1.45"
	},
	{
		"rt": null,
		"stimulus": "+",
		"response": null,
		"trial_type": "html-keyboard-response",
		"trial_index": 108,
		"time_elapsed": 333652,
		"internal_node_id": "0.0-3.0-0.46"
	},
	{
		"rt": 1593,
		"stimulus": "protas",
		"response": "s",
		"class": "null",
		"status": "noncog",
		"answer": "pseudo",
		"correct": "N",
		"trial": "exp",
		"letters": "null",
		"trial_type": "html-keyboard-response",
		"trial_index": 109,
		"time_elapsed": 335245,
		"internal_node_id": "0.0-3.0-1.46"
	},
	{
		"rt": null,
		"stimulus": "+",
		"response": null,
		"trial_type": "html-keyboard-response",
		"trial_index": 110,
		"time_elapsed": 335748,
		"internal_node_id": "0.0-3.0-0.47"
	},
	{
		"rt": 2450,
		"stimulus": "frotes",
		"response": "s",
		"class": "null",
		"status": "noncog",
		"answer": "pseudo",
		"correct": "N",
		"trial": "exp",
		"letters": "null",
		"trial_type": "html-keyboard-response",
		"trial_index": 111,
		"time_elapsed": 338199,
		"internal_node_id": "0.0-3.0-1.47"
	},
	{
		"rt": null,
		"stimulus": "+",
		"response": null,
		"trial_type": "html-keyboard-response",
		"trial_index": 112,
		"time_elapsed": 338702,
		"internal_node_id": "0.0-3.0-0.48"
	},
	{
		"rt": 2583,
		"stimulus": "morija",
		"response": "s",
		"class": "null",
		"status": "noncog",
		"answer": "pseudo",
		"correct": "N",
		"trial": "exp",
		"letters": "null",
		"trial_type": "html-keyboard-response",
		"trial_index": 113,
		"time_elapsed": 341287,
		"internal_node_id": "0.0-3.0-1.48"
	},
	{
		"rt": null,
		"stimulus": "+",
		"response": null,
		"trial_type": "html-keyboard-response",
		"trial_index": 114,
		"time_elapsed": 341791,
		"internal_node_id": "0.0-3.0-0.49"
	},
	{
		"rt": 21902,
		"stimulus": "delirar",
		"response": "s",
		"class": "v",
		"status": "noncog",
		"answer": "word",
		"correct": "S",
		"trial": "exp",
		"letters": "7",
		"trial_type": "html-keyboard-response",
		"trial_index": 115,
		"time_elapsed": 363694,
		"internal_node_id": "0.0-3.0-1.49"
	},
	{
		"rt": null,
		"stimulus": "+",
		"response": null,
		"trial_type": "html-keyboard-response",
		"trial_index": 116,
		"time_elapsed": 364199,
		"internal_node_id": "0.0-3.0-0.50"
	},
	{
		"rt": 3178,
		"stimulus": "pedaço",
		"response": "s",
		"class": "n",
		"status": "noncog",
		"answer": "word",
		"correct": "S",
		"trial": "exp",
		"letters": "6",
		"trial_type": "html-keyboard-response",
		"trial_index": 117,
		"time_elapsed": 367378,
		"internal_node_id": "0.0-3.0-1.50"
	},
	{
		"rt": null,
		"stimulus": "+",
		"response": null,
		"trial_type": "html-keyboard-response",
		"trial_index": 118,
		"time_elapsed": 367879,
		"internal_node_id": "0.0-3.0-0.51"
	},
	{
		"rt": 8499,
		"stimulus": "aemaça",
		"response": "s",
		"class": "null",
		"status": "noncog",
		"answer": "pseudo",
		"correct": "N",
		"trial": "exp",
		"letters": "null",
		"trial_type": "html-keyboard-response",
		"trial_index": 119,
		"time_elapsed": 376379,
		"internal_node_id": "0.0-3.0-1.51"
	},
	{
		"rt": null,
		"stimulus": "+",
		"response": null,
		"trial_type": "html-keyboard-response",
		"trial_index": 120,
		"time_elapsed": 376883,
		"internal_node_id": "0.0-3.0-0.52"
	},
	{
		"rt": 10010,
		"stimulus": "mua",
		"response": "s",
		"class": "null",
		"status": "noncog",
		"answer": "pseudo",
		"correct": "N",
		"trial": "exp",
		"letters": "null",
		"trial_type": "html-keyboard-response",
		"trial_index": 121,
		"time_elapsed": 386894,
		"internal_node_id": "0.0-3.0-1.52"
	},
	{
		"rt": null,
		"stimulus": "+",
		"response": null,
		"trial_type": "html-keyboard-response",
		"trial_index": 122,
		"time_elapsed": 387396,
		"internal_node_id": "0.0-3.0-0.53"
	},
	{
		"rt": 2278,
		"stimulus": "açúcar",
		"response": "s",
		"class": "n",
		"status": "noncog",
		"answer": "word",
		"correct": "S",
		"trial": "exp",
		"letters": "6",
		"trial_type": "html-keyboard-response",
		"trial_index": 123,
		"time_elapsed": 389675,
		"internal_node_id": "0.0-3.0-1.53"
	},
	{
		"rt": null,
		"stimulus": "+",
		"response": null,
		"trial_type": "html-keyboard-response",
		"trial_index": 124,
		"time_elapsed": 390177,
		"internal_node_id": "0.0-3.0-0.54"
	},
	{
		"rt": 1636,
		"stimulus": "crutas",
		"response": "s",
		"class": "null",
		"status": "noncog",
		"answer": "pseudo",
		"correct": "N",
		"trial": "exp",
		"letters": "null",
		"trial_type": "html-keyboard-response",
		"trial_index": 125,
		"time_elapsed": 391814,
		"internal_node_id": "0.0-3.0-1.54"
	},
	{
		"rt": null,
		"stimulus": "+",
		"response": null,
		"trial_type": "html-keyboard-response",
		"trial_index": 126,
		"time_elapsed": 392319,
		"internal_node_id": "0.0-3.0-0.55"
	},
	{
		"rt": 1676,
		"stimulus": "farcas",
		"response": "s",
		"class": "null",
		"status": "noncog",
		"answer": "pseudo",
		"correct": "N",
		"trial": "exp",
		"letters": "null",
		"trial_type": "html-keyboard-response",
		"trial_index": 127,
		"time_elapsed": 393996,
		"internal_node_id": "0.0-3.0-1.55"
	},
	{
		"rt": null,
		"stimulus": "+",
		"response": null,
		"trial_type": "html-keyboard-response",
		"trial_index": 128,
		"time_elapsed": 394497,
		"internal_node_id": "0.0-3.0-0.56"
	},
	{
		"rt": 5951,
		"stimulus": "hipócrita",
		"response": "s",
		"class": "a",
		"status": "noncog",
		"answer": "word",
		"correct": "S",
		"trial": "exp",
		"letters": "9",
		"trial_type": "html-keyboard-response",
		"trial_index": 129,
		"time_elapsed": 400449,
		"internal_node_id": "0.0-3.0-1.56"
	},
	{
		"rt": null,
		"stimulus": "+",
		"response": null,
		"trial_type": "html-keyboard-response",
		"trial_index": 130,
		"time_elapsed": 400954,
		"internal_node_id": "0.0-3.0-0.57"
	},
	{
		"rt": 2394,
		"stimulus": "risbos",
		"response": "s",
		"class": "null",
		"status": "noncog",
		"answer": "pseudo",
		"correct": "N",
		"trial": "exp",
		"letters": "null",
		"trial_type": "html-keyboard-response",
		"trial_index": 131,
		"time_elapsed": 403349,
		"internal_node_id": "0.0-3.0-1.57"
	},
	{
		"rt": null,
		"stimulus": "+",
		"response": null,
		"trial_type": "html-keyboard-response",
		"trial_index": 132,
		"time_elapsed": 403854,
		"internal_node_id": "0.0-3.0-0.58"
	},
	{
		"rt": 1896,
		"stimulus": "especial",
		"response": "s",
		"class": "a",
		"status": "cog",
		"answer": "word",
		"correct": "S",
		"trial": "exp",
		"letters": "8",
		"trial_type": "html-keyboard-response",
		"trial_index": 133,
		"time_elapsed": 405751,
		"internal_node_id": "0.0-3.0-1.58"
	},
	{
		"rt": null,
		"stimulus": "+",
		"response": null,
		"trial_type": "html-keyboard-response",
		"trial_index": 134,
		"time_elapsed": 406252,
		"internal_node_id": "0.0-3.0-0.59"
	},
	{
		"rt": 2503,
		"stimulus": "prever",
		"response": "s",
		"class": "v",
		"status": "cog",
		"answer": "word",
		"correct": "S",
		"trial": "exp",
		"letters": "6",
		"trial_type": "html-keyboard-response",
		"trial_index": 135,
		"time_elapsed": 408755,
		"internal_node_id": "0.0-3.0-1.59"
	},
	{
		"rt": null,
		"stimulus": "+",
		"response": null,
		"trial_type": "html-keyboard-response",
		"trial_index": 136,
		"time_elapsed": 409259,
		"internal_node_id": "0.0-3.0-0.60"
	},
	{
		"rt": 2166,
		"stimulus": "raspar",
		"response": "s",
		"class": "v",
		"status": "noncog",
		"answer": "word",
		"correct": "S",
		"trial": "exp",
		"letters": "6",
		"trial_type": "html-keyboard-response",
		"trial_index": 137,
		"time_elapsed": 411425,
		"internal_node_id": "0.0-3.0-1.60"
	},
	{
		"rt": null,
		"stimulus": "+",
		"response": null,
		"trial_type": "html-keyboard-response",
		"trial_index": 138,
		"time_elapsed": 411929,
		"internal_node_id": "0.0-3.0-0.61"
	},
	{
		"rt": 3665,
		"stimulus": "garastia",
		"response": "s",
		"class": "null",
		"status": "noncog",
		"answer": "pseudo",
		"correct": "N",
		"trial": "exp",
		"letters": "null",
		"trial_type": "html-keyboard-response",
		"trial_index": 139,
		"time_elapsed": 415595,
		"internal_node_id": "0.0-3.0-1.61"
	},
	{
		"rt": null,
		"stimulus": "+",
		"response": null,
		"trial_type": "html-keyboard-response",
		"trial_index": 140,
		"time_elapsed": 416097,
		"internal_node_id": "0.0-3.0-0.62"
	},
	{
		"rt": 1335,
		"stimulus": "tio",
		"response": "s",
		"class": "n",
		"status": "noncog",
		"answer": "word",
		"correct": "S",
		"trial": "exp",
		"letters": "3",
		"trial_type": "html-keyboard-response",
		"trial_index": 141,
		"time_elapsed": 417433,
		"internal_node_id": "0.0-3.0-1.62"
	},
	{
		"rt": null,
		"stimulus": "+",
		"response": null,
		"trial_type": "html-keyboard-response",
		"trial_index": 142,
		"time_elapsed": 417937,
		"internal_node_id": "0.0-3.0-0.63"
	},
	{
		"rt": 1986,
		"stimulus": "agressivo",
		"response": "s",
		"class": "a",
		"status": "cog",
		"answer": "word",
		"correct": "S",
		"trial": "exp",
		"letters": "9",
		"trial_type": "html-keyboard-response",
		"trial_index": 143,
		"time_elapsed": 419924,
		"internal_node_id": "0.0-3.0-1.63"
	},
	{
		"rt": null,
		"stimulus": "+",
		"response": null,
		"trial_type": "html-keyboard-response",
		"trial_index": 144,
		"time_elapsed": 420428,
		"internal_node_id": "0.0-3.0-0.64"
	},
	{
		"rt": 1387,
		"stimulus": "espaço",
		"response": "s",
		"class": "n",
		"status": "cog",
		"answer": "word",
		"correct": "S",
		"trial": "exp",
		"letters": "6",
		"trial_type": "html-keyboard-response",
		"trial_index": 145,
		"time_elapsed": 421816,
		"internal_node_id": "0.0-3.0-1.64"
	},
	{
		"rt": null,
		"stimulus": "+",
		"response": null,
		"trial_type": "html-keyboard-response",
		"trial_index": 146,
		"time_elapsed": 422320,
		"internal_node_id": "0.0-3.0-0.65"
	},
	{
		"rt": 1863,
		"stimulus": "medalha",
		"response": "s",
		"class": "n",
		"status": "cog",
		"answer": "word",
		"correct": "S",
		"trial": "exp",
		"letters": "7",
		"trial_type": "html-keyboard-response",
		"trial_index": 147,
		"time_elapsed": 424184,
		"internal_node_id": "0.0-3.0-1.65"
	},
	{
		"rt": null,
		"stimulus": "+",
		"response": null,
		"trial_type": "html-keyboard-response",
		"trial_index": 148,
		"time_elapsed": 424689,
		"internal_node_id": "0.0-3.0-0.66"
	},
	{
		"rt": 3630,
		"stimulus": "comércio",
		"response": "s",
		"class": "n",
		"status": "noncog",
		"answer": "word",
		"correct": "S",
		"trial": "exp",
		"letters": "8",
		"trial_type": "html-keyboard-response",
		"trial_index": 149,
		"time_elapsed": 428320,
		"internal_node_id": "0.0-3.0-1.66"
	},
	{
		"rt": null,
		"stimulus": "+",
		"response": null,
		"trial_type": "html-keyboard-response",
		"trial_index": 150,
		"time_elapsed": 428822,
		"internal_node_id": "0.0-3.0-0.67"
	},
	{
		"rt": 2076,
		"stimulus": "dilheira",
		"response": "s",
		"class": "null",
		"status": "noncog",
		"answer": "pseudo",
		"correct": "N",
		"trial": "exp",
		"letters": "null",
		"trial_type": "html-keyboard-response",
		"trial_index": 151,
		"time_elapsed": 430899,
		"internal_node_id": "0.0-3.0-1.67"
	},
	{
		"rt": null,
		"stimulus": "+",
		"response": null,
		"trial_type": "html-keyboard-response",
		"trial_index": 152,
		"time_elapsed": 431400,
		"internal_node_id": "0.0-3.0-0.68"
	},
	{
		"rt": 6433,
		"stimulus": "prantal",
		"response": "s",
		"class": "null",
		"status": "noncog",
		"answer": "pseudo",
		"correct": "N",
		"trial": "exp",
		"letters": "null",
		"trial_type": "html-keyboard-response",
		"trial_index": 153,
		"time_elapsed": 437834,
		"internal_node_id": "0.0-3.0-1.68"
	},
	{
		"rt": null,
		"stimulus": "+",
		"response": null,
		"trial_type": "html-keyboard-response",
		"trial_index": 154,
		"time_elapsed": 438337,
		"internal_node_id": "0.0-3.0-0.69"
	},
	{
		"rt": 1787,
		"stimulus": "perbas",
		"response": "s",
		"class": "null",
		"status": "noncog",
		"answer": "pseudo",
		"correct": "N",
		"trial": "exp",
		"letters": "null",
		"trial_type": "html-keyboard-response",
		"trial_index": 155,
		"time_elapsed": 440125,
		"internal_node_id": "0.0-3.0-1.69"
	},
	{
		"rt": null,
		"stimulus": "+",
		"response": null,
		"trial_type": "html-keyboard-response",
		"trial_index": 156,
		"time_elapsed": 440630,
		"internal_node_id": "0.0-3.0-0.70"
	},
	{
		"rt": 2834,
		"stimulus": "casuas",
		"response": "s",
		"class": "null",
		"status": "noncog",
		"answer": "pseudo",
		"correct": "N",
		"trial": "exp",
		"letters": "null",
		"trial_type": "html-keyboard-response",
		"trial_index": 157,
		"time_elapsed": 443465,
		"internal_node_id": "0.0-3.0-1.70"
	},
	{
		"rt": null,
		"stimulus": "+",
		"response": null,
		"trial_type": "html-keyboard-response",
		"trial_index": 158,
		"time_elapsed": 443968,
		"internal_node_id": "0.0-3.0-0.71"
	},
	{
		"rt": 2591,
		"stimulus": "dipata",
		"response": "s",
		"class": "null",
		"status": "noncog",
		"answer": "pseudo",
		"correct": "N",
		"trial": "exp",
		"letters": "null",
		"trial_type": "html-keyboard-response",
		"trial_index": 159,
		"time_elapsed": 446560,
		"internal_node_id": "0.0-3.0-1.71"
	},
	{
		"rt": null,
		"stimulus": "+",
		"response": null,
		"trial_type": "html-keyboard-response",
		"trial_index": 160,
		"time_elapsed": 447062,
		"internal_node_id": "0.0-3.0-0.72"
	},
	{
		"rt": 3014,
		"stimulus": "brincar",
		"response": "s",
		"class": "v",
		"status": "noncog",
		"answer": "word",
		"correct": "S",
		"trial": "exp",
		"letters": "7",
		"trial_type": "html-keyboard-response",
		"trial_index": 161,
		"time_elapsed": 450076,
		"internal_node_id": "0.0-3.0-1.72"
	},
	{
		"rt": null,
		"stimulus": "+",
		"response": null,
		"trial_type": "html-keyboard-response",
		"trial_index": 162,
		"time_elapsed": 450580,
		"internal_node_id": "0.0-3.0-0.73"
	},
	{
		"rt": 2955,
		"stimulus": "trair",
		"response": "s",
		"class": "v",
		"status": "cog",
		"answer": "word",
		"correct": "S",
		"trial": "exp",
		"letters": "5",
		"trial_type": "html-keyboard-response",
		"trial_index": 163,
		"time_elapsed": 453535,
		"internal_node_id": "0.0-3.0-1.73"
	},
	{
		"rt": null,
		"stimulus": "+",
		"response": null,
		"trial_type": "html-keyboard-response",
		"trial_index": 164,
		"time_elapsed": 454040,
		"internal_node_id": "0.0-3.0-0.74"
	},
	{
		"rt": 2007,
		"stimulus": "escumo",
		"response": "s",
		"class": "null",
		"status": "noncog",
		"answer": "pseudo",
		"correct": "N",
		"trial": "exp",
		"letters": "null",
		"trial_type": "html-keyboard-response",
		"trial_index": 165,
		"time_elapsed": 456047,
		"internal_node_id": "0.0-3.0-1.74"
	},
	{
		"rt": null,
		"stimulus": "+",
		"response": null,
		"trial_type": "html-keyboard-response",
		"trial_index": 166,
		"time_elapsed": 456548,
		"internal_node_id": "0.0-3.0-0.75"
	},
	{
		"rt": 1938,
		"stimulus": "alpica",
		"response": "s",
		"class": "null",
		"status": "noncog",
		"answer": "pseudo",
		"correct": "N",
		"trial": "exp",
		"letters": "null",
		"trial_type": "html-keyboard-response",
		"trial_index": 167,
		"time_elapsed": 458486,
		"internal_node_id": "0.0-3.0-1.75"
	},
	{
		"rt": null,
		"stimulus": "+",
		"response": null,
		"trial_type": "html-keyboard-response",
		"trial_index": 168,
		"time_elapsed": 458991,
		"internal_node_id": "0.0-3.0-0.76"
	},
	{
		"rt": 1856,
		"stimulus": "cirado",
		"response": "s",
		"class": "null",
		"status": "noncog",
		"answer": "pseudo",
		"correct": "N",
		"trial": "exp",
		"letters": "null",
		"trial_type": "html-keyboard-response",
		"trial_index": 169,
		"time_elapsed": 460848,
		"internal_node_id": "0.0-3.0-1.76"
	},
	{
		"rt": null,
		"stimulus": "+",
		"response": null,
		"trial_type": "html-keyboard-response",
		"trial_index": 170,
		"time_elapsed": 461349,
		"internal_node_id": "0.0-3.0-0.77"
	},
	{
		"rt": 6383,
		"stimulus": "tatear",
		"response": "n",
		"class": "v",
		"status": "cog",
		"answer": "word",
		"correct": "S",
		"trial": "exp",
		"letters": "6",
		"trial_type": "html-keyboard-response",
		"trial_index": 171,
		"time_elapsed": 467733,
		"internal_node_id": "0.0-3.0-1.77"
	},
	{
		"rt": null,
		"stimulus": "+",
		"response": null,
		"trial_type": "html-keyboard-response",
		"trial_index": 172,
		"time_elapsed": 468234,
		"internal_node_id": "0.0-3.0-0.78"
	},
	{
		"rt": 2072,
		"stimulus": "macras",
		"response": "s",
		"class": "null",
		"status": "noncog",
		"answer": "pseudo",
		"correct": "N",
		"trial": "exp",
		"letters": "null",
		"trial_type": "html-keyboard-response",
		"trial_index": 173,
		"time_elapsed": 470307,
		"internal_node_id": "0.0-3.0-1.78"
	},
	{
		"rt": null,
		"stimulus": "+",
		"response": null,
		"trial_type": "html-keyboard-response",
		"trial_index": 174,
		"time_elapsed": 470811,
		"internal_node_id": "0.0-3.0-0.79"
	},
	{
		"rt": 3364,
		"stimulus": "pneucania",
		"response": "s",
		"class": "null",
		"status": "noncog",
		"answer": "pseudo",
		"correct": "N",
		"trial": "exp",
		"letters": "null",
		"trial_type": "html-keyboard-response",
		"trial_index": 175,
		"time_elapsed": 474176,
		"internal_node_id": "0.0-3.0-1.79"
	},
	{
		"rt": null,
		"stimulus": "+",
		"response": null,
		"trial_type": "html-keyboard-response",
		"trial_index": 176,
		"time_elapsed": 474677,
		"internal_node_id": "0.0-3.0-0.80"
	},
	{
		"rt": 1964,
		"stimulus": "carregar",
		"response": "s",
		"class": "v",
		"status": "noncog",
		"answer": "word",
		"correct": "S",
		"trial": "exp",
		"letters": "8",
		"trial_type": "html-keyboard-response",
		"trial_index": 177,
		"time_elapsed": 476641,
		"internal_node_id": "0.0-3.0-1.80"
	},
	{
		"rt": null,
		"stimulus": "+",
		"response": null,
		"trial_type": "html-keyboard-response",
		"trial_index": 178,
		"time_elapsed": 477144,
		"internal_node_id": "0.0-3.0-0.81"
	},
	{
		"rt": 2220,
		"stimulus": "jastor",
		"response": "s",
		"class": "null",
		"status": "noncog",
		"answer": "pseudo",
		"correct": "N",
		"trial": "exp",
		"letters": "null",
		"trial_type": "html-keyboard-response",
		"trial_index": 179,
		"time_elapsed": 479365,
		"internal_node_id": "0.0-3.0-1.81"
	},
	{
		"rt": null,
		"stimulus": "+",
		"response": null,
		"trial_type": "html-keyboard-response",
		"trial_index": 180,
		"time_elapsed": 479867,
		"internal_node_id": "0.0-3.0-0.82"
	},
	{
		"rt": 3012,
		"stimulus": "barco",
		"response": "s",
		"class": "n",
		"status": "cog",
		"answer": "word",
		"correct": "S",
		"trial": "exp",
		"letters": "5",
		"trial_type": "html-keyboard-response",
		"trial_index": 181,
		"time_elapsed": 482880,
		"internal_node_id": "0.0-3.0-1.82"
	},
	{
		"rt": null,
		"stimulus": "+",
		"response": null,
		"trial_type": "html-keyboard-response",
		"trial_index": 182,
		"time_elapsed": 483384,
		"internal_node_id": "0.0-3.0-0.83"
	},
	{
		"rt": 8734,
		"stimulus": "enxerido",
		"response": "s",
		"class": "a",
		"status": "noncog",
		"answer": "word",
		"correct": "S",
		"trial": "exp",
		"letters": "8",
		"trial_type": "html-keyboard-response",
		"trial_index": 183,
		"time_elapsed": 492119,
		"internal_node_id": "0.0-3.0-1.83"
	},
	{
		"rt": null,
		"stimulus": "+",
		"response": null,
		"trial_type": "html-keyboard-response",
		"trial_index": 184,
		"time_elapsed": 492621,
		"internal_node_id": "0.0-3.0-0.84"
	},
	{
		"rt": 9696,
		"stimulus": "cenada",
		"response": "s",
		"class": "null",
		"status": "noncog",
		"answer": "pseudo",
		"correct": "N",
		"trial": "exp",
		"letters": "null",
		"trial_type": "html-keyboard-response",
		"trial_index": 185,
		"time_elapsed": 502317,
		"internal_node_id": "0.0-3.0-1.84"
	},
	{
		"rt": null,
		"stimulus": "+",
		"response": null,
		"trial_type": "html-keyboard-response",
		"trial_index": 186,
		"time_elapsed": 502820,
		"internal_node_id": "0.0-3.0-0.85"
	},
	{
		"rt": 1720,
		"stimulus": "trabalhar",
		"response": "s",
		"class": "v",
		"status": "noncog",
		"answer": "word",
		"correct": "S",
		"trial": "exp",
		"letters": "9",
		"trial_type": "html-keyboard-response",
		"trial_index": 187,
		"time_elapsed": 504541,
		"internal_node_id": "0.0-3.0-1.85"
	},
	{
		"rt": null,
		"stimulus": "+",
		"response": null,
		"trial_type": "html-keyboard-response",
		"trial_index": 188,
		"time_elapsed": 505044,
		"internal_node_id": "0.0-3.0-0.86"
	},
	{
		"rt": 3224,
		"stimulus": "podilo",
		"response": "s",
		"class": "null",
		"status": "noncog",
		"answer": "pseudo",
		"correct": "N",
		"trial": "exp",
		"letters": "null",
		"trial_type": "html-keyboard-response",
		"trial_index": 189,
		"time_elapsed": 508269,
		"internal_node_id": "0.0-3.0-1.86"
	},
	{
		"rt": null,
		"stimulus": "+",
		"response": null,
		"trial_type": "html-keyboard-response",
		"trial_index": 190,
		"time_elapsed": 508771,
		"internal_node_id": "0.0-3.0-0.87"
	},
	{
		"rt": 2059,
		"stimulus": "perdão",
		"response": "s",
		"class": "n",
		"status": "noncog",
		"answer": "word",
		"correct": "S",
		"trial": "exp",
		"letters": "6",
		"trial_type": "html-keyboard-response",
		"trial_index": 191,
		"time_elapsed": 510830,
		"internal_node_id": "0.0-3.0-1.87"
	},
	{
		"rt": null,
		"stimulus": "+",
		"response": null,
		"trial_type": "html-keyboard-response",
		"trial_index": 192,
		"time_elapsed": 511334,
		"internal_node_id": "0.0-3.0-0.88"
	},
	{
		"rt": 2401,
		"stimulus": "encelhor",
		"response": "s",
		"class": "null",
		"status": "noncog",
		"answer": "pseudo",
		"correct": "N",
		"trial": "exp",
		"letters": "null",
		"trial_type": "html-keyboard-response",
		"trial_index": 193,
		"time_elapsed": 513736,
		"internal_node_id": "0.0-3.0-1.88"
	},
	{
		"rt": null,
		"stimulus": "+",
		"response": null,
		"trial_type": "html-keyboard-response",
		"trial_index": 194,
		"time_elapsed": 514239,
		"internal_node_id": "0.0-3.0-0.89"
	},
	{
		"rt": 4991,
		"stimulus": "nivelado",
		"response": "s",
		"class": "a",
		"status": "cog",
		"answer": "word",
		"correct": "S",
		"trial": "exp",
		"letters": "8",
		"trial_type": "html-keyboard-response",
		"trial_index": 195,
		"time_elapsed": 519231,
		"internal_node_id": "0.0-3.0-1.89"
	},
	{
		"rt": null,
		"stimulus": "+",
		"response": null,
		"trial_type": "html-keyboard-response",
		"trial_index": 196,
		"time_elapsed": 519732,
		"internal_node_id": "0.0-3.0-0.90"
	},
	{
		"rt": 3390,
		"stimulus": "berquesa",
		"response": "s",
		"class": "null",
		"status": "noncog",
		"answer": "pseudo",
		"correct": "N",
		"trial": "exp",
		"letters": "null",
		"trial_type": "html-keyboard-response",
		"trial_index": 197,
		"time_elapsed": 523123,
		"internal_node_id": "0.0-3.0-1.90"
	},
	{
		"rt": null,
		"stimulus": "+",
		"response": null,
		"trial_type": "html-keyboard-response",
		"trial_index": 198,
		"time_elapsed": 523626,
		"internal_node_id": "0.0-3.0-0.91"
	},
	{
		"rt": 2741,
		"stimulus": "dencosto",
		"response": "s",
		"class": "null",
		"status": "noncog",
		"answer": "pseudo",
		"correct": "N",
		"trial": "exp",
		"letters": "null",
		"trial_type": "html-keyboard-response",
		"trial_index": 199,
		"time_elapsed": 526368,
		"internal_node_id": "0.0-3.0-1.91"
	},
	{
		"rt": null,
		"stimulus": "+",
		"response": null,
		"trial_type": "html-keyboard-response",
		"trial_index": 200,
		"time_elapsed": 526871,
		"internal_node_id": "0.0-3.0-0.92"
	},
	{
		"rt": 4727,
		"stimulus": "aitrou",
		"response": "n",
		"class": "null",
		"status": "noncog",
		"answer": "pseudo",
		"correct": "N",
		"trial": "exp",
		"letters": "null",
		"trial_type": "html-keyboard-response",
		"trial_index": 201,
		"time_elapsed": 531599,
		"internal_node_id": "0.0-3.0-1.92"
	},
	{
		"rt": null,
		"stimulus": "+",
		"response": null,
		"trial_type": "html-keyboard-response",
		"trial_index": 202,
		"time_elapsed": 532102,
		"internal_node_id": "0.0-3.0-0.93"
	},
	{
		"rt": 1871,
		"stimulus": "terdia",
		"response": "s",
		"class": "null",
		"status": "noncog",
		"answer": "pseudo",
		"correct": "N",
		"trial": "exp",
		"letters": "null",
		"trial_type": "html-keyboard-response",
		"trial_index": 203,
		"time_elapsed": 533973,
		"internal_node_id": "0.0-3.0-1.93"
	},
	{
		"rt": null,
		"stimulus": "+",
		"response": null,
		"trial_type": "html-keyboard-response",
		"trial_index": 204,
		"time_elapsed": 534476,
		"internal_node_id": "0.0-3.0-0.94"
	},
	{
		"rt": 3117,
		"stimulus": "undivídio",
		"response": "s",
		"class": "null",
		"status": "noncog",
		"answer": "pseudo",
		"correct": "N",
		"trial": "exp",
		"letters": "null",
		"trial_type": "html-keyboard-response",
		"trial_index": 205,
		"time_elapsed": 537594,
		"internal_node_id": "0.0-3.0-1.94"
	},
	{
		"rt": null,
		"stimulus": "+",
		"response": null,
		"trial_type": "html-keyboard-response",
		"trial_index": 206,
		"time_elapsed": 538098,
		"internal_node_id": "0.0-3.0-0.95"
	},
	{
		"rt": 2589,
		"stimulus": "fusbão",
		"response": "s",
		"class": "null",
		"status": "noncog",
		"answer": "pseudo",
		"correct": "N",
		"trial": "exp",
		"letters": "null",
		"trial_type": "html-keyboard-response",
		"trial_index": 207,
		"time_elapsed": 540688,
		"internal_node_id": "0.0-3.0-1.95"
	},
	{
		"rt": null,
		"stimulus": "+",
		"response": null,
		"trial_type": "html-keyboard-response",
		"trial_index": 208,
		"time_elapsed": 541193,
		"internal_node_id": "0.0-3.0-0.96"
	},
	{
		"rt": 1771,
		"stimulus": "motre",
		"response": "s",
		"class": "null",
		"status": "noncog",
		"answer": "pseudo",
		"correct": "N",
		"trial": "exp",
		"letters": "null",
		"trial_type": "html-keyboard-response",
		"trial_index": 209,
		"time_elapsed": 542964,
		"internal_node_id": "0.0-3.0-1.96"
	},
	{
		"rt": null,
		"stimulus": "+",
		"response": null,
		"trial_type": "html-keyboard-response",
		"trial_index": 210,
		"time_elapsed": 543468,
		"internal_node_id": "0.0-3.0-0.97"
	},
	{
		"rt": 2213,
		"stimulus": "manais",
		"response": "s",
		"class": "null",
		"status": "noncog",
		"answer": "pseudo",
		"correct": "N",
		"trial": "exp",
		"letters": "null",
		"trial_type": "html-keyboard-response",
		"trial_index": 211,
		"time_elapsed": 545682,
		"internal_node_id": "0.0-3.0-1.97"
	},
	{
		"rt": null,
		"stimulus": "+",
		"response": null,
		"trial_type": "html-keyboard-response",
		"trial_index": 212,
		"time_elapsed": 546185,
		"internal_node_id": "0.0-3.0-0.98"
	},
	{
		"rt": 2323,
		"stimulus": "planalto",
		"response": "s",
		"class": "n",
		"status": "cog",
		"answer": "word",
		"correct": "S",
		"trial": "exp",
		"letters": "8",
		"trial_type": "html-keyboard-response",
		"trial_index": 213,
		"time_elapsed": 548509,
		"internal_node_id": "0.0-3.0-1.98"
	},
	{
		"rt": null,
		"stimulus": "+",
		"response": null,
		"trial_type": "html-keyboard-response",
		"trial_index": 214,
		"time_elapsed": 549012,
		"internal_node_id": "0.0-3.0-0.99"
	},
	{
		"rt": 1551,
		"stimulus": "cerca",
		"response": "s",
		"class": "n",
		"status": "noncog",
		"answer": "word",
		"correct": "S",
		"trial": "exp",
		"letters": "5",
		"trial_type": "html-keyboard-response",
		"trial_index": 215,
		"time_elapsed": 550564,
		"internal_node_id": "0.0-3.0-1.99"
	},
	{
		"rt": null,
		"stimulus": "+",
		"response": null,
		"trial_type": "html-keyboard-response",
		"trial_index": 216,
		"time_elapsed": 551067,
		"internal_node_id": "0.0-3.0-0.100"
	},
	{
		"rt": 2185,
		"stimulus": "hedoru",
		"response": "s",
		"class": "null",
		"status": "noncog",
		"answer": "pseudo",
		"correct": "N",
		"trial": "exp",
		"letters": "null",
		"trial_type": "html-keyboard-response",
		"trial_index": 217,
		"time_elapsed": 553253,
		"internal_node_id": "0.0-3.0-1.100"
	},
	{
		"rt": null,
		"stimulus": "+",
		"response": null,
		"trial_type": "html-keyboard-response",
		"trial_index": 218,
		"time_elapsed": 553755,
		"internal_node_id": "0.0-3.0-0.101"
	},
	{
		"rt": 6287,
		"stimulus": "pega-pega",
		"response": "s",
		"class": "n",
		"status": "noncog",
		"answer": "word",
		"correct": "S",
		"trial": "exp",
		"letters": "8",
		"trial_type": "html-keyboard-response",
		"trial_index": 219,
		"time_elapsed": 560043,
		"internal_node_id": "0.0-3.0-1.101"
	},
	{
		"rt": null,
		"stimulus": "+",
		"response": null,
		"trial_type": "html-keyboard-response",
		"trial_index": 220,
		"time_elapsed": 560547,
		"internal_node_id": "0.0-3.0-0.102"
	},
	{
		"rt": 1793,
		"stimulus": "bambu",
		"response": "s",
		"class": "n",
		"status": "cog",
		"answer": "word",
		"correct": "S",
		"trial": "exp",
		"letters": "5",
		"trial_type": "html-keyboard-response",
		"trial_index": 221,
		"time_elapsed": 562341,
		"internal_node_id": "0.0-3.0-1.102"
	},
	{
		"rt": null,
		"stimulus": "+",
		"response": null,
		"trial_type": "html-keyboard-response",
		"trial_index": 222,
		"time_elapsed": 562846,
		"internal_node_id": "0.0-3.0-0.103"
	},
	{
		"rt": 1805,
		"stimulus": "drama",
		"response": "s",
		"class": "n",
		"status": "cog",
		"answer": "word",
		"correct": "S",
		"trial": "exp",
		"letters": "5",
		"trial_type": "html-keyboard-response",
		"trial_index": 223,
		"time_elapsed": 564652,
		"internal_node_id": "0.0-3.0-1.103"
	},
	{
		"rt": null,
		"stimulus": "+",
		"response": null,
		"trial_type": "html-keyboard-response",
		"trial_index": 224,
		"time_elapsed": 565156,
		"internal_node_id": "0.0-3.0-0.104"
	},
	{
		"rt": 2442,
		"stimulus": "mudança",
		"response": "s",
		"class": "n",
		"status": "noncog",
		"answer": "word",
		"correct": "S",
		"trial": "exp",
		"letters": "7",
		"trial_type": "html-keyboard-response",
		"trial_index": 225,
		"time_elapsed": 567599,
		"internal_node_id": "0.0-3.0-1.104"
	},
	{
		"rt": null,
		"stimulus": "+",
		"response": null,
		"trial_type": "html-keyboard-response",
		"trial_index": 226,
		"time_elapsed": 568100,
		"internal_node_id": "0.0-3.0-0.105"
	},
	{
		"rt": 1366,
		"stimulus": "morar",
		"response": "s",
		"class": "v",
		"status": "noncog",
		"answer": "word",
		"correct": "S",
		"trial": "exp",
		"letters": "5",
		"trial_type": "html-keyboard-response",
		"trial_index": 227,
		"time_elapsed": 569467,
		"internal_node_id": "0.0-3.0-1.105"
	},
	{
		"rt": null,
		"stimulus": "+",
		"response": null,
		"trial_type": "html-keyboard-response",
		"trial_index": 228,
		"time_elapsed": 569969,
		"internal_node_id": "0.0-3.0-0.106"
	},
	{
		"rt": 1509,
		"stimulus": "afonher",
		"response": "s",
		"class": "null",
		"status": "noncog",
		"answer": "pseudo",
		"correct": "N",
		"trial": "exp",
		"letters": "null",
		"trial_type": "html-keyboard-response",
		"trial_index": 229,
		"time_elapsed": 571479,
		"internal_node_id": "0.0-3.0-1.106"
	},
	{
		"rt": null,
		"stimulus": "+",
		"response": null,
		"trial_type": "html-keyboard-response",
		"trial_index": 230,
		"time_elapsed": 571983,
		"internal_node_id": "0.0-3.0-0.107"
	},
	{
		"rt": 1197,
		"stimulus": "mal",
		"response": "s",
		"class": "a",
		"status": "cog",
		"answer": "word",
		"correct": "S",
		"trial": "exp",
		"letters": "3",
		"trial_type": "html-keyboard-response",
		"trial_index": 231,
		"time_elapsed": 573181,
		"internal_node_id": "0.0-3.0-1.107"
	},
	{
		"rt": null,
		"stimulus": "+",
		"response": null,
		"trial_type": "html-keyboard-response",
		"trial_index": 232,
		"time_elapsed": 573684,
		"internal_node_id": "0.0-3.0-0.108"
	},
	{
		"rt": 2006,
		"stimulus": "carona",
		"response": "s",
		"class": "n",
		"status": "noncog",
		"answer": "word",
		"correct": "S",
		"trial": "exp",
		"letters": "6",
		"trial_type": "html-keyboard-response",
		"trial_index": 233,
		"time_elapsed": 575691,
		"internal_node_id": "0.0-3.0-1.108"
	},
	{
		"rt": null,
		"stimulus": "+",
		"response": null,
		"trial_type": "html-keyboard-response",
		"trial_index": 234,
		"time_elapsed": 576192,
		"internal_node_id": "0.0-3.0-0.109"
	},
	{
		"rt": 2064,
		"stimulus": "lorfaz",
		"response": "s",
		"class": "null",
		"status": "noncog",
		"answer": "pseudo",
		"correct": "N",
		"trial": "exp",
		"letters": "null",
		"trial_type": "html-keyboard-response",
		"trial_index": 235,
		"time_elapsed": 578257,
		"internal_node_id": "0.0-3.0-1.109"
	},
	{
		"rt": null,
		"stimulus": "+",
		"response": null,
		"trial_type": "html-keyboard-response",
		"trial_index": 236,
		"time_elapsed": 578762,
		"internal_node_id": "0.0-3.0-0.110"
	},
	{
		"rt": 1326,
		"stimulus": "cravo",
		"response": "s",
		"class": "n",
		"status": "noncog",
		"answer": "word",
		"correct": "S",
		"trial": "exp",
		"letters": "5",
		"trial_type": "html-keyboard-response",
		"trial_index": 237,
		"time_elapsed": 580089,
		"internal_node_id": "0.0-3.0-1.110"
	},
	{
		"rt": null,
		"stimulus": "+",
		"response": null,
		"trial_type": "html-keyboard-response",
		"trial_index": 238,
		"time_elapsed": 580592,
		"internal_node_id": "0.0-3.0-0.111"
	},
	{
		"rt": 1809,
		"stimulus": "trenos",
		"response": "s",
		"class": "null",
		"status": "noncog",
		"answer": "pseudo",
		"correct": "N",
		"trial": "exp",
		"letters": "null",
		"trial_type": "html-keyboard-response",
		"trial_index": 239,
		"time_elapsed": 582402,
		"internal_node_id": "0.0-3.0-1.111"
	},
	{
		"rt": null,
		"stimulus": "+",
		"response": null,
		"trial_type": "html-keyboard-response",
		"trial_index": 240,
		"time_elapsed": 582903,
		"internal_node_id": "0.0-3.0-0.112"
	},
	{
		"rt": 2149,
		"stimulus": "ejerro",
		"response": "s",
		"class": "null",
		"status": "noncog",
		"answer": "pseudo",
		"correct": "N",
		"trial": "exp",
		"letters": "null",
		"trial_type": "html-keyboard-response",
		"trial_index": 241,
		"time_elapsed": 585052,
		"internal_node_id": "0.0-3.0-1.112"
	},
	{
		"rt": null,
		"stimulus": "+",
		"response": null,
		"trial_type": "html-keyboard-response",
		"trial_index": 242,
		"time_elapsed": 585556,
		"internal_node_id": "0.0-3.0-0.113"
	},
	{
		"rt": 2874,
		"stimulus": "nevela",
		"response": "s",
		"class": "null",
		"status": "noncog",
		"answer": "pseudo",
		"correct": "N",
		"trial": "exp",
		"letters": "null",
		"trial_type": "html-keyboard-response",
		"trial_index": 243,
		"time_elapsed": 588430,
		"internal_node_id": "0.0-3.0-1.113"
	},
	{
		"rt": null,
		"stimulus": "+",
		"response": null,
		"trial_type": "html-keyboard-response",
		"trial_index": 244,
		"time_elapsed": 588934,
		"internal_node_id": "0.0-3.0-0.114"
	},
	{
		"rt": 1756,
		"stimulus": "socorro",
		"response": "s",
		"class": "n",
		"status": "noncog",
		"answer": "word",
		"correct": "S",
		"trial": "exp",
		"letters": "7",
		"trial_type": "html-keyboard-response",
		"trial_index": 245,
		"time_elapsed": 590691,
		"internal_node_id": "0.0-3.0-1.114"
	},
	{
		"rt": null,
		"stimulus": "+",
		"response": null,
		"trial_type": "html-keyboard-response",
		"trial_index": 246,
		"time_elapsed": 591192,
		"internal_node_id": "0.0-3.0-0.115"
	},
	{
		"rt": 2114,
		"stimulus": "usnado",
		"response": "s",
		"class": "null",
		"status": "noncog",
		"answer": "pseudo",
		"correct": "N",
		"trial": "exp",
		"letters": "null",
		"trial_type": "html-keyboard-response",
		"trial_index": 247,
		"time_elapsed": 593307,
		"internal_node_id": "0.0-3.0-1.115"
	},
	{
		"rt": null,
		"stimulus": "+",
		"response": null,
		"trial_type": "html-keyboard-response",
		"trial_index": 248,
		"time_elapsed": 593811,
		"internal_node_id": "0.0-3.0-0.116"
	},
	{
		"rt": 14712,
		"stimulus": "ilhure",
		"response": "s",
		"class": "null",
		"status": "noncog",
		"answer": "pseudo",
		"correct": "N",
		"trial": "exp",
		"letters": "null",
		"trial_type": "html-keyboard-response",
		"trial_index": 249,
		"time_elapsed": 608524,
		"internal_node_id": "0.0-3.0-1.116"
	},
	{
		"rt": null,
		"stimulus": "+",
		"response": null,
		"trial_type": "html-keyboard-response",
		"trial_index": 250,
		"time_elapsed": 609026,
		"internal_node_id": "0.0-3.0-0.117"
	},
	{
		"rt": 2720,
		"stimulus": "vitrive",
		"response": "s",
		"class": "null",
		"status": "noncog",
		"answer": "pseudo",
		"correct": "N",
		"trial": "exp",
		"letters": "null",
		"trial_type": "html-keyboard-response",
		"trial_index": 251,
		"time_elapsed": 611746,
		"internal_node_id": "0.0-3.0-1.117"
	},
	{
		"rt": null,
		"stimulus": "+",
		"response": null,
		"trial_type": "html-keyboard-response",
		"trial_index": 252,
		"time_elapsed": 612248,
		"internal_node_id": "0.0-3.0-0.118"
	},
	{
		"rt": 2232,
		"stimulus": "hébies",
		"response": "s",
		"class": "null",
		"status": "noncog",
		"answer": "pseudo",
		"correct": "N",
		"trial": "exp",
		"letters": "null",
		"trial_type": "html-keyboard-response",
		"trial_index": 253,
		"time_elapsed": 614480,
		"internal_node_id": "0.0-3.0-1.118"
	},
	{
		"rt": null,
		"stimulus": "+",
		"response": null,
		"trial_type": "html-keyboard-response",
		"trial_index": 254,
		"time_elapsed": 614982,
		"internal_node_id": "0.0-3.0-0.119"
	},
	{
		"rt": 2334,
		"stimulus": "pantufa",
		"response": "s",
		"class": "n",
		"status": "cog",
		"answer": "word",
		"correct": "S",
		"trial": "exp",
		"letters": "7",
		"trial_type": "html-keyboard-response",
		"trial_index": 255,
		"time_elapsed": 617316,
		"internal_node_id": "0.0-3.0-1.119"
	},
	{
		"rt": null,
		"stimulus": "+",
		"response": null,
		"trial_type": "html-keyboard-response",
		"trial_index": 256,
		"time_elapsed": 617821,
		"internal_node_id": "0.0-3.0-0.120"
	},
	{
		"rt": 2822,
		"stimulus": "bandido",
		"response": "s",
		"class": "n",
		"status": "cog",
		"answer": "word",
		"correct": "S",
		"trial": "exp",
		"letters": "7",
		"trial_type": "html-keyboard-response",
		"trial_index": 257,
		"time_elapsed": 620644,
		"internal_node_id": "0.0-3.0-1.120"
	},
	{
		"rt": null,
		"stimulus": "+",
		"response": null,
		"trial_type": "html-keyboard-response",
		"trial_index": 258,
		"time_elapsed": 621147,
		"internal_node_id": "0.0-3.0-0.121"
	},
	{
		"rt": 2060,
		"stimulus": "apontar",
		"response": "s",
		"class": "v",
		"status": "noncog",
		"answer": "word",
		"correct": "S",
		"trial": "exp",
		"letters": "7",
		"trial_type": "html-keyboard-response",
		"trial_index": 259,
		"time_elapsed": 623208,
		"internal_node_id": "0.0-3.0-1.121"
	},
	{
		"rt": null,
		"stimulus": "+",
		"response": null,
		"trial_type": "html-keyboard-response",
		"trial_index": 260,
		"time_elapsed": 623713,
		"internal_node_id": "0.0-3.0-0.122"
	},
	{
		"rt": 1569,
		"stimulus": "verde",
		"response": "s",
		"class": "a",
		"status": "noncog",
		"answer": "word",
		"correct": "S",
		"trial": "exp",
		"letters": "5",
		"trial_type": "html-keyboard-response",
		"trial_index": 261,
		"time_elapsed": 625282,
		"internal_node_id": "0.0-3.0-1.122"
	},
	{
		"rt": null,
		"stimulus": "+",
		"response": null,
		"trial_type": "html-keyboard-response",
		"trial_index": 262,
		"time_elapsed": 625785,
		"internal_node_id": "0.0-3.0-0.123"
	},
	{
		"rt": 1786,
		"stimulus": "tênis",
		"response": "s",
		"class": "n",
		"status": "cog",
		"answer": "word",
		"correct": "S",
		"trial": "exp",
		"letters": "5",
		"trial_type": "html-keyboard-response",
		"trial_index": 263,
		"time_elapsed": 627573,
		"internal_node_id": "0.0-3.0-1.123"
	},
	{
		"rt": null,
		"stimulus": "+",
		"response": null,
		"trial_type": "html-keyboard-response",
		"trial_index": 264,
		"time_elapsed": 628074,
		"internal_node_id": "0.0-3.0-0.124"
	},
	{
		"rt": 1721,
		"stimulus": "costra",
		"response": "s",
		"class": "null",
		"status": "noncog",
		"answer": "pseudo",
		"correct": "N",
		"trial": "exp",
		"letters": "null",
		"trial_type": "html-keyboard-response",
		"trial_index": 265,
		"time_elapsed": 629796,
		"internal_node_id": "0.0-3.0-1.124"
	},
	{
		"rt": null,
		"stimulus": "+",
		"response": null,
		"trial_type": "html-keyboard-response",
		"trial_index": 266,
		"time_elapsed": 630297,
		"internal_node_id": "0.0-3.0-0.125"
	},
	{
		"rt": 1370,
		"stimulus": "nome",
		"response": "s",
		"class": "n",
		"status": "cog",
		"answer": "word",
		"correct": "S",
		"trial": "exp",
		"letters": "4",
		"trial_type": "html-keyboard-response",
		"trial_index": 267,
		"time_elapsed": 631668,
		"internal_node_id": "0.0-3.0-1.125"
	},
	{
		"rt": null,
		"stimulus": "+",
		"response": null,
		"trial_type": "html-keyboard-response",
		"trial_index": 268,
		"time_elapsed": 632171,
		"internal_node_id": "0.0-3.0-0.126"
	},
	{
		"rt": 2137,
		"stimulus": "montanha",
		"response": "s",
		"class": "n",
		"status": "cog",
		"answer": "word",
		"correct": "S",
		"trial": "exp",
		"letters": "8",
		"trial_type": "html-keyboard-response",
		"trial_index": 269,
		"time_elapsed": 634309,
		"internal_node_id": "0.0-3.0-1.126"
	},
	{
		"rt": null,
		"stimulus": "+",
		"response": null,
		"trial_type": "html-keyboard-response",
		"trial_index": 270,
		"time_elapsed": 634812,
		"internal_node_id": "0.0-3.0-0.127"
	},
	{
		"rt": 1490,
		"stimulus": "plinta",
		"response": "s",
		"class": "null",
		"status": "noncog",
		"answer": "pseudo",
		"correct": "N",
		"trial": "exp",
		"letters": "null",
		"trial_type": "html-keyboard-response",
		"trial_index": 271,
		"time_elapsed": 636303,
		"internal_node_id": "0.0-3.0-1.127"
	},
	{
		"rt": null,
		"stimulus": "+",
		"response": null,
		"trial_type": "html-keyboard-response",
		"trial_index": 272,
		"time_elapsed": 636804,
		"internal_node_id": "0.0-3.0-0.128"
	},
	{
		"rt": 1419,
		"stimulus": "gertas",
		"response": "s",
		"class": "null",
		"status": "noncog",
		"answer": "pseudo",
		"correct": "N",
		"trial": "exp",
		"letters": "null",
		"trial_type": "html-keyboard-response",
		"trial_index": 273,
		"time_elapsed": 638223,
		"internal_node_id": "0.0-3.0-1.128"
	},
	{
		"rt": null,
		"stimulus": "+",
		"response": null,
		"trial_type": "html-keyboard-response",
		"trial_index": 274,
		"time_elapsed": 638725,
		"internal_node_id": "0.0-3.0-0.129"
	},
	{
		"rt": 1905,
		"stimulus": "fasdas",
		"response": "s",
		"class": "null",
		"status": "noncog",
		"answer": "pseudo",
		"correct": "N",
		"trial": "exp",
		"letters": "null",
		"trial_type": "html-keyboard-response",
		"trial_index": 275,
		"time_elapsed": 640630,
		"internal_node_id": "0.0-3.0-1.129"
	},
	{
		"rt": null,
		"stimulus": "+",
		"response": null,
		"trial_type": "html-keyboard-response",
		"trial_index": 276,
		"time_elapsed": 641134,
		"internal_node_id": "0.0-3.0-0.130"
	},
	{
		"rt": 2538,
		"stimulus": "independente",
		"response": "s",
		"class": "a",
		"status": "noncog",
		"answer": "word",
		"correct": "S",
		"trial": "exp",
		"letters": "12",
		"trial_type": "html-keyboard-response",
		"trial_index": 277,
		"time_elapsed": 643673,
		"internal_node_id": "0.0-3.0-1.130"
	},
	{
		"rt": null,
		"stimulus": "+",
		"response": null,
		"trial_type": "html-keyboard-response",
		"trial_index": 278,
		"time_elapsed": 644176,
		"internal_node_id": "0.0-3.0-0.131"
	},
	{
		"rt": 1639,
		"stimulus": "memória",
		"response": "s",
		"class": "n",
		"status": "cog",
		"answer": "word",
		"correct": "S",
		"trial": "exp",
		"letters": "7",
		"trial_type": "html-keyboard-response",
		"trial_index": 279,
		"time_elapsed": 645816,
		"internal_node_id": "0.0-3.0-1.131"
	},
	{
		"rt": null,
		"stimulus": "+",
		"response": null,
		"trial_type": "html-keyboard-response",
		"trial_index": 280,
		"time_elapsed": 646318,
		"internal_node_id": "0.0-3.0-0.132"
	},
	{
		"rt": 1325,
		"stimulus": "esfoce",
		"response": "s",
		"class": "null",
		"status": "noncog",
		"answer": "pseudo",
		"correct": "N",
		"trial": "exp",
		"letters": "null",
		"trial_type": "html-keyboard-response",
		"trial_index": 281,
		"time_elapsed": 647644,
		"internal_node_id": "0.0-3.0-1.132"
	},
	{
		"rt": null,
		"stimulus": "+",
		"response": null,
		"trial_type": "html-keyboard-response",
		"trial_index": 282,
		"time_elapsed": 648147,
		"internal_node_id": "0.0-3.0-0.133"
	},
	{
		"rt": 11400,
		"stimulus": "rovaz",
		"response": "s",
		"class": "null",
		"status": "noncog",
		"answer": "pseudo",
		"correct": "N",
		"trial": "exp",
		"letters": "null",
		"trial_type": "html-keyboard-response",
		"trial_index": 283,
		"time_elapsed": 659548,
		"internal_node_id": "0.0-3.0-1.133"
	},
	{
		"rt": null,
		"stimulus": "+",
		"response": null,
		"trial_type": "html-keyboard-response",
		"trial_index": 284,
		"time_elapsed": 660053,
		"internal_node_id": "0.0-3.0-0.134"
	},
	{
		"rt": 2077,
		"stimulus": "gruja",
		"response": "s",
		"class": "null",
		"status": "noncog",
		"answer": "pseudo",
		"correct": "N",
		"trial": "exp",
		"letters": "null",
		"trial_type": "html-keyboard-response",
		"trial_index": 285,
		"time_elapsed": 662131,
		"internal_node_id": "0.0-3.0-1.134"
	},
	{
		"rt": null,
		"stimulus": "+",
		"response": null,
		"trial_type": "html-keyboard-response",
		"trial_index": 286,
		"time_elapsed": 662635,
		"internal_node_id": "0.0-3.0-0.135"
	},
	{
		"rt": 2159,
		"stimulus": "promeção",
		"response": "s",
		"class": "null",
		"status": "noncog",
		"answer": "pseudo",
		"correct": "N",
		"trial": "exp",
		"letters": "null",
		"trial_type": "html-keyboard-response",
		"trial_index": 287,
		"time_elapsed": 664795,
		"internal_node_id": "0.0-3.0-1.135"
	},
	{
		"rt": null,
		"stimulus": "+",
		"response": null,
		"trial_type": "html-keyboard-response",
		"trial_index": 288,
		"time_elapsed": 665296,
		"internal_node_id": "0.0-3.0-0.136"
	},
	{
		"rt": 1291,
		"stimulus": "país",
		"response": "s",
		"class": "n",
		"status": "noncog",
		"answer": "word",
		"correct": "S",
		"trial": "exp",
		"letters": "4",
		"trial_type": "html-keyboard-response",
		"trial_index": 289,
		"time_elapsed": 666587,
		"internal_node_id": "0.0-3.0-1.136"
	},
	{
		"rt": null,
		"stimulus": "+",
		"response": null,
		"trial_type": "html-keyboard-response",
		"trial_index": 290,
		"time_elapsed": 667089,
		"internal_node_id": "0.0-3.0-0.137"
	},
	{
		"rt": 2016,
		"stimulus": "convidado",
		"response": "s",
		"class": "n",
		"status": "noncog",
		"answer": "word",
		"correct": "S",
		"trial": "exp",
		"letters": "9",
		"trial_type": "html-keyboard-response",
		"trial_index": 291,
		"time_elapsed": 669106,
		"internal_node_id": "0.0-3.0-1.137"
	},
	{
		"rt": null,
		"stimulus": "+",
		"response": null,
		"trial_type": "html-keyboard-response",
		"trial_index": 292,
		"time_elapsed": 669608,
		"internal_node_id": "0.0-3.0-0.138"
	},
	{
		"rt": 2578,
		"stimulus": "extravagante",
		"response": "s",
		"class": "a",
		"status": "cog",
		"answer": "word",
		"correct": "S",
		"trial": "exp",
		"letters": "12",
		"trial_type": "html-keyboard-response",
		"trial_index": 293,
		"time_elapsed": 672187,
		"internal_node_id": "0.0-3.0-1.138"
	},
	{
		"rt": null,
		"stimulus": "+",
		"response": null,
		"trial_type": "html-keyboard-response",
		"trial_index": 294,
		"time_elapsed": 672691,
		"internal_node_id": "0.0-3.0-0.139"
	},
	{
		"rt": 1431,
		"stimulus": "esperar",
		"response": "s",
		"class": "v",
		"status": "cog",
		"answer": "word",
		"correct": "S",
		"trial": "exp",
		"letters": "7",
		"trial_type": "html-keyboard-response",
		"trial_index": 295,
		"time_elapsed": 674123,
		"internal_node_id": "0.0-3.0-1.139"
	},
	{
		"rt": null,
		"stimulus": "+",
		"response": null,
		"trial_type": "html-keyboard-response",
		"trial_index": 296,
		"time_elapsed": 674624,
		"internal_node_id": "0.0-3.0-0.140"
	},
	{
		"rt": 1540,
		"stimulus": "multiplicar",
		"response": "s",
		"class": "v",
		"status": "cog",
		"answer": "word",
		"correct": "S",
		"trial": "exp",
		"letters": "11",
		"trial_type": "html-keyboard-response",
		"trial_index": 297,
		"time_elapsed": 676165,
		"internal_node_id": "0.0-3.0-1.140"
	},
	{
		"rt": null,
		"stimulus": "+",
		"response": null,
		"trial_type": "html-keyboard-response",
		"trial_index": 298,
		"time_elapsed": 676668,
		"internal_node_id": "0.0-3.0-0.141"
	},
	{
		"rt": 2301,
		"stimulus": "ensuas",
		"response": "s",
		"class": "null",
		"status": "noncog",
		"answer": "pseudo",
		"correct": "N",
		"trial": "exp",
		"letters": "null",
		"trial_type": "html-keyboard-response",
		"trial_index": 299,
		"time_elapsed": 678969,
		"internal_node_id": "0.0-3.0-1.141"
	},
	{
		"rt": null,
		"stimulus": "+",
		"response": null,
		"trial_type": "html-keyboard-response",
		"trial_index": 300,
		"time_elapsed": 679472,
		"internal_node_id": "0.0-3.0-0.142"
	},
	{
		"rt": 2174,
		"stimulus": "oricia",
		"response": "s",
		"class": "null",
		"status": "noncog",
		"answer": "pseudo",
		"correct": "N",
		"trial": "exp",
		"letters": "null",
		"trial_type": "html-keyboard-response",
		"trial_index": 301,
		"time_elapsed": 681647,
		"internal_node_id": "0.0-3.0-1.142"
	},
	{
		"rt": null,
		"stimulus": "+",
		"response": null,
		"trial_type": "html-keyboard-response",
		"trial_index": 302,
		"time_elapsed": 682148,
		"internal_node_id": "0.0-3.0-0.143"
	},
	{
		"rt": 2017,
		"stimulus": "anjo",
		"response": "s",
		"class": "n",
		"status": "cog",
		"answer": "word",
		"correct": "S",
		"trial": "exp",
		"letters": "4",
		"trial_type": "html-keyboard-response",
		"trial_index": 303,
		"time_elapsed": 684166,
		"internal_node_id": "0.0-3.0-1.143"
	},
	{
		"rt": null,
		"stimulus": "+",
		"response": null,
		"trial_type": "html-keyboard-response",
		"trial_index": 304,
		"time_elapsed": 684667,
		"internal_node_id": "0.0-3.0-0.144"
	},
	{
		"rt": 2751,
		"stimulus": "avenas",
		"response": "s",
		"class": "null",
		"status": "noncog",
		"answer": "pseudo",
		"correct": "N",
		"trial": "exp",
		"letters": "null",
		"trial_type": "html-keyboard-response",
		"trial_index": 305,
		"time_elapsed": 687419,
		"internal_node_id": "0.0-3.0-1.144"
	},
	{
		"rt": null,
		"stimulus": "+",
		"response": null,
		"trial_type": "html-keyboard-response",
		"trial_index": 306,
		"time_elapsed": 687924,
		"internal_node_id": "0.0-3.0-0.145"
	},
	{
		"rt": 3849,
		"stimulus": "bagunceira",
		"response": "s",
		"class": "a",
		"status": "noncog",
		"answer": "word",
		"correct": "S",
		"trial": "exp",
		"letters": "10",
		"trial_type": "html-keyboard-response",
		"trial_index": 307,
		"time_elapsed": 691773,
		"internal_node_id": "0.0-3.0-1.145"
	},
	{
		"rt": null,
		"stimulus": "+",
		"response": null,
		"trial_type": "html-keyboard-response",
		"trial_index": 308,
		"time_elapsed": 692278,
		"internal_node_id": "0.0-3.0-0.146"
	},
	{
		"rt": 1684,
		"stimulus": "temperar",
		"response": "s",
		"class": "v",
		"status": "noncog",
		"answer": "word",
		"correct": "S",
		"trial": "exp",
		"letters": "8",
		"trial_type": "html-keyboard-response",
		"trial_index": 309,
		"time_elapsed": 693963,
		"internal_node_id": "0.0-3.0-1.146"
	},
	{
		"rt": null,
		"stimulus": "+",
		"response": null,
		"trial_type": "html-keyboard-response",
		"trial_index": 310,
		"time_elapsed": 694466,
		"internal_node_id": "0.0-3.0-0.147"
	},
	{
		"rt": 1742,
		"stimulus": "pangos",
		"response": "s",
		"class": "null",
		"status": "noncog",
		"answer": "pseudo",
		"correct": "N",
		"trial": "exp",
		"letters": "null",
		"trial_type": "html-keyboard-response",
		"trial_index": 311,
		"time_elapsed": 696209,
		"internal_node_id": "0.0-3.0-1.147"
	},
	{
		"rt": null,
		"stimulus": "+",
		"response": null,
		"trial_type": "html-keyboard-response",
		"trial_index": 312,
		"time_elapsed": 696713,
		"internal_node_id": "0.0-3.0-0.148"
	},
	{
		"rt": 4106,
		"stimulus": "dobradiça",
		"response": "s",
		"class": "n",
		"status": "noncog",
		"answer": "word",
		"correct": "S",
		"trial": "exp",
		"letters": "9",
		"trial_type": "html-keyboard-response",
		"trial_index": 313,
		"time_elapsed": 700819,
		"internal_node_id": "0.0-3.0-1.148"
	},
	{
		"rt": null,
		"stimulus": "+",
		"response": null,
		"trial_type": "html-keyboard-response",
		"trial_index": 314,
		"time_elapsed": 701322,
		"internal_node_id": "0.0-3.0-0.149"
	},
	{
		"rt": 3375,
		"stimulus": "resmungar",
		"response": "s",
		"class": "v",
		"status": "noncog",
		"answer": "word",
		"correct": "S",
		"trial": "exp",
		"letters": "9",
		"trial_type": "html-keyboard-response",
		"trial_index": 315,
		"time_elapsed": 704698,
		"internal_node_id": "0.0-3.0-1.149"
	},
	{
		"rt": null,
		"stimulus": "+",
		"response": null,
		"trial_type": "html-keyboard-response",
		"trial_index": 316,
		"time_elapsed": 705202,
		"internal_node_id": "0.0-3.0-0.150"
	},
	{
		"rt": 5839,
		"stimulus": "grótis",
		"response": "s",
		"class": "null",
		"status": "noncog",
		"answer": "pseudo",
		"correct": "N",
		"trial": "exp",
		"letters": "null",
		"trial_type": "html-keyboard-response",
		"trial_index": 317,
		"time_elapsed": 711042,
		"internal_node_id": "0.0-3.0-1.150"
	},
	{
		"rt": null,
		"stimulus": "+",
		"response": null,
		"trial_type": "html-keyboard-response",
		"trial_index": 318,
		"time_elapsed": 711545,
		"internal_node_id": "0.0-3.0-0.151"
	},
	{
		"rt": 2699,
		"stimulus": "ênclio",
		"response": "s",
		"class": "null",
		"status": "noncog",
		"answer": "pseudo",
		"correct": "N",
		"trial": "exp",
		"letters": "null",
		"trial_type": "html-keyboard-response",
		"trial_index": 319,
		"time_elapsed": 714245,
		"internal_node_id": "0.0-3.0-1.151"
	},
	{
		"rt": null,
		"stimulus": "+",
		"response": null,
		"trial_type": "html-keyboard-response",
		"trial_index": 320,
		"time_elapsed": 714749,
		"internal_node_id": "0.0-3.0-0.152"
	},
	{
		"rt": 1567,
		"stimulus": "verdade",
		"response": "s",
		"class": "n",
		"status": "cog",
		"answer": "word",
		"correct": "S",
		"trial": "exp",
		"letters": "7",
		"trial_type": "html-keyboard-response",
		"trial_index": 321,
		"time_elapsed": 716317,
		"internal_node_id": "0.0-3.0-1.152"
	},
	{
		"rt": null,
		"stimulus": "+",
		"response": null,
		"trial_type": "html-keyboard-response",
		"trial_index": 322,
		"time_elapsed": 716822,
		"internal_node_id": "0.0-3.0-0.153"
	},
	{
		"rt": 4376,
		"stimulus": "bibarconato",
		"response": "s",
		"class": "null",
		"status": "noncog",
		"answer": "pseudo",
		"correct": "N",
		"trial": "exp",
		"letters": "null",
		"trial_type": "html-keyboard-response",
		"trial_index": 323,
		"time_elapsed": 721199,
		"internal_node_id": "0.0-3.0-1.153"
	},
	{
		"rt": null,
		"stimulus": "+",
		"response": null,
		"trial_type": "html-keyboard-response",
		"trial_index": 324,
		"time_elapsed": 721704,
		"internal_node_id": "0.0-3.0-0.154"
	},
	{
		"rt": 2801,
		"stimulus": "uçar",
		"response": "s",
		"class": "null",
		"status": "noncog",
		"answer": "pseudo",
		"correct": "N",
		"trial": "exp",
		"letters": "null",
		"trial_type": "html-keyboard-response",
		"trial_index": 325,
		"time_elapsed": 724506,
		"internal_node_id": "0.0-3.0-1.154"
	},
	{
		"rt": null,
		"stimulus": "+",
		"response": null,
		"trial_type": "html-keyboard-response",
		"trial_index": 326,
		"time_elapsed": 725007,
		"internal_node_id": "0.0-3.0-0.155"
	},
	{
		"rt": 4246,
		"stimulus": "matinal",
		"response": "s",
		"class": "a",
		"status": "cog",
		"answer": "word",
		"correct": "S",
		"trial": "exp",
		"letters": "7",
		"trial_type": "html-keyboard-response",
		"trial_index": 327,
		"time_elapsed": 729254,
		"internal_node_id": "0.0-3.0-1.155"
	},
	{
		"rt": null,
		"stimulus": "+",
		"response": null,
		"trial_type": "html-keyboard-response",
		"trial_index": 328,
		"time_elapsed": 729756,
		"internal_node_id": "0.0-3.0-0.156"
	},
	{
		"rt": 2441,
		"stimulus": "boreta",
		"response": "s",
		"class": "null",
		"status": "noncog",
		"answer": "pseudo",
		"correct": "N",
		"trial": "exp",
		"letters": "null",
		"trial_type": "html-keyboard-response",
		"trial_index": 329,
		"time_elapsed": 732198,
		"internal_node_id": "0.0-3.0-1.156"
	},
	{
		"rt": null,
		"stimulus": "+",
		"response": null,
		"trial_type": "html-keyboard-response",
		"trial_index": 330,
		"time_elapsed": 732699,
		"internal_node_id": "0.0-3.0-0.157"
	},
	{
		"rt": 1828,
		"stimulus": "burtos",
		"response": "s",
		"class": "null",
		"status": "noncog",
		"answer": "pseudo",
		"correct": "N",
		"trial": "exp",
		"letters": "null",
		"trial_type": "html-keyboard-response",
		"trial_index": 331,
		"time_elapsed": 734528,
		"internal_node_id": "0.0-3.0-1.157"
	},
	{
		"rt": null,
		"stimulus": "+",
		"response": null,
		"trial_type": "html-keyboard-response",
		"trial_index": 332,
		"time_elapsed": 735033,
		"internal_node_id": "0.0-3.0-0.158"
	},
	{
		"rt": 3052,
		"stimulus": "incomodar",
		"response": "s",
		"class": "v",
		"status": "noncog",
		"answer": "word",
		"correct": "S",
		"trial": "exp",
		"letters": "9",
		"trial_type": "html-keyboard-response",
		"trial_index": 333,
		"time_elapsed": 738085,
		"internal_node_id": "0.0-3.0-1.158"
	},
	{
		"rt": null,
		"stimulus": "+",
		"response": null,
		"trial_type": "html-keyboard-response",
		"trial_index": 334,
		"time_elapsed": 738587,
		"internal_node_id": "0.0-3.0-0.159"
	},
	{
		"rt": 3975,
		"stimulus": "atrasar",
		"response": "s",
		"class": "v",
		"status": "noncog",
		"answer": "word",
		"correct": "S",
		"trial": "exp",
		"letters": "7",
		"trial_type": "html-keyboard-response",
		"trial_index": 335,
		"time_elapsed": 742562,
		"internal_node_id": "0.0-3.0-1.159"
	},
	{
		"rt": null,
		"stimulus": "+",
		"response": null,
		"trial_type": "html-keyboard-response",
		"trial_index": 336,
		"time_elapsed": 743067,
		"internal_node_id": "0.0-3.0-0.160"
	},
	{
		"rt": 1217,
		"stimulus": "grave",
		"response": "s",
		"class": "a",
		"status": "cog",
		"answer": "word",
		"correct": "S",
		"trial": "exp",
		"letters": "5",
		"trial_type": "html-keyboard-response",
		"trial_index": 337,
		"time_elapsed": 744285,
		"internal_node_id": "0.0-3.0-1.160"
	},
	{
		"rt": null,
		"stimulus": "+",
		"response": null,
		"trial_type": "html-keyboard-response",
		"trial_index": 338,
		"time_elapsed": 744785,
		"internal_node_id": "0.0-3.0-0.161"
	},
	{
		"rt": 2033,
		"stimulus": "bancada",
		"response": "s",
		"class": "n",
		"status": "noncog",
		"answer": "word",
		"correct": "S",
		"trial": "exp",
		"letters": "7",
		"trial_type": "html-keyboard-response",
		"trial_index": 339,
		"time_elapsed": 746819,
		"internal_node_id": "0.0-3.0-1.161"
	},
	{
		"rt": null,
		"stimulus": "+",
		"response": null,
		"trial_type": "html-keyboard-response",
		"trial_index": 340,
		"time_elapsed": 747322,
		"internal_node_id": "0.0-3.0-0.162"
	},
	{
		"rt": 1899,
		"stimulus": "aperor",
		"response": "s",
		"class": "null",
		"status": "noncog",
		"answer": "pseudo",
		"correct": "N",
		"trial": "exp",
		"letters": "null",
		"trial_type": "html-keyboard-response",
		"trial_index": 341,
		"time_elapsed": 749222,
		"internal_node_id": "0.0-3.0-1.162"
	},
	{
		"rt": null,
		"stimulus": "+",
		"response": null,
		"trial_type": "html-keyboard-response",
		"trial_index": 342,
		"time_elapsed": 749726,
		"internal_node_id": "0.0-3.0-0.163"
	},
	{
		"rt": 2109,
		"stimulus": "delomir",
		"response": "s",
		"class": "null",
		"status": "noncog",
		"answer": "pseudo",
		"correct": "N",
		"trial": "exp",
		"letters": "null",
		"trial_type": "html-keyboard-response",
		"trial_index": 343,
		"time_elapsed": 751836,
		"internal_node_id": "0.0-3.0-1.163"
	},
	{
		"rt": null,
		"stimulus": "+",
		"response": null,
		"trial_type": "html-keyboard-response",
		"trial_index": 344,
		"time_elapsed": 752338,
		"internal_node_id": "0.0-3.0-0.164"
	},
	{
		"rt": 2074,
		"stimulus": "revista",
		"response": "s",
		"class": "n",
		"status": "cog",
		"answer": "word",
		"correct": "S",
		"trial": "exp",
		"letters": "7",
		"trial_type": "html-keyboard-response",
		"trial_index": 345,
		"time_elapsed": 754413,
		"internal_node_id": "0.0-3.0-1.164"
	},
	{
		"rt": null,
		"stimulus": "+",
		"response": null,
		"trial_type": "html-keyboard-response",
		"trial_index": 346,
		"time_elapsed": 754915,
		"internal_node_id": "0.0-3.0-0.165"
	},
	{
		"rt": 1951,
		"stimulus": "enedro",
		"response": "s",
		"class": "null",
		"status": "noncog",
		"answer": "pseudo",
		"correct": "N",
		"trial": "exp",
		"letters": "null",
		"trial_type": "html-keyboard-response",
		"trial_index": 347,
		"time_elapsed": 756868,
		"internal_node_id": "0.0-3.0-1.165"
	},
	{
		"rt": null,
		"stimulus": "+",
		"response": null,
		"trial_type": "html-keyboard-response",
		"trial_index": 348,
		"time_elapsed": 757371,
		"internal_node_id": "0.0-3.0-0.166"
	},
	{
		"rt": 2064,
		"stimulus": "loaco",
		"response": "s",
		"class": "null",
		"status": "noncog",
		"answer": "pseudo",
		"correct": "N",
		"trial": "exp",
		"letters": "null",
		"trial_type": "html-keyboard-response",
		"trial_index": 349,
		"time_elapsed": 759436,
		"internal_node_id": "0.0-3.0-1.166"
	},
	{
		"rt": null,
		"stimulus": "+",
		"response": null,
		"trial_type": "html-keyboard-response",
		"trial_index": 350,
		"time_elapsed": 759937,
		"internal_node_id": "0.0-3.0-0.167"
	},
	{
		"rt": 1662,
		"stimulus": "adoçar",
		"response": "s",
		"class": "v",
		"status": "noncog",
		"answer": "word",
		"correct": "S",
		"trial": "exp",
		"letters": "6",
		"trial_type": "html-keyboard-response",
		"trial_index": 351,
		"time_elapsed": 761600,
		"internal_node_id": "0.0-3.0-1.167"
	},
	{
		"rt": null,
		"stimulus": "+",
		"response": null,
		"trial_type": "html-keyboard-response",
		"trial_index": 352,
		"time_elapsed": 762102,
		"internal_node_id": "0.0-3.0-0.168"
	},
	{
		"rt": 1955,
		"stimulus": "atitro",
		"response": "s",
		"class": "null",
		"status": "noncog",
		"answer": "pseudo",
		"correct": "N",
		"trial": "exp",
		"letters": "null",
		"trial_type": "html-keyboard-response",
		"trial_index": 353,
		"time_elapsed": 764058,
		"internal_node_id": "0.0-3.0-1.168"
	},
	{
		"rt": null,
		"stimulus": "+",
		"response": null,
		"trial_type": "html-keyboard-response",
		"trial_index": 354,
		"time_elapsed": 764561,
		"internal_node_id": "0.0-3.0-0.169"
	},
	{
		"rt": 1418,
		"stimulus": "viver",
		"response": "s",
		"class": "v",
		"status": "cog",
		"answer": "word",
		"correct": "S",
		"trial": "exp",
		"letters": "5",
		"trial_type": "html-keyboard-response",
		"trial_index": 355,
		"time_elapsed": 765980,
		"internal_node_id": "0.0-3.0-1.169"
	},
	{
		"rt": null,
		"stimulus": "+",
		"response": null,
		"trial_type": "html-keyboard-response",
		"trial_index": 356,
		"time_elapsed": 766485,
		"internal_node_id": "0.0-3.0-0.170"
	},
	{
		"rt": 1781,
		"stimulus": "tronca",
		"response": "s",
		"class": "null",
		"status": "noncog",
		"answer": "pseudo",
		"correct": "N",
		"trial": "exp",
		"letters": "null",
		"trial_type": "html-keyboard-response",
		"trial_index": 357,
		"time_elapsed": 768267,
		"internal_node_id": "0.0-3.0-1.170"
	},
	{
		"rt": null,
		"stimulus": "+",
		"response": null,
		"trial_type": "html-keyboard-response",
		"trial_index": 358,
		"time_elapsed": 768768,
		"internal_node_id": "0.0-3.0-0.171"
	},
	{
		"rt": 1843,
		"stimulus": "euorpa",
		"response": "s",
		"class": "null",
		"status": "noncog",
		"answer": "pseudo",
		"correct": "N",
		"trial": "exp",
		"letters": "null",
		"trial_type": "html-keyboard-response",
		"trial_index": 359,
		"time_elapsed": 770612,
		"internal_node_id": "0.0-3.0-1.171"
	},
	{
		"rt": null,
		"stimulus": "+",
		"response": null,
		"trial_type": "html-keyboard-response",
		"trial_index": 360,
		"time_elapsed": 771114,
		"internal_node_id": "0.0-3.0-0.172"
	},
	{
		"rt": 19136,
		"stimulus": "telafonir",
		"response": "n",
		"class": "null",
		"status": "noncog",
		"answer": "pseudo",
		"correct": "N",
		"trial": "exp",
		"letters": "null",
		"trial_type": "html-keyboard-response",
		"trial_index": 361,
		"time_elapsed": 790251,
		"internal_node_id": "0.0-3.0-1.172"
	},
	{
		"rt": null,
		"stimulus": "+",
		"response": null,
		"trial_type": "html-keyboard-response",
		"trial_index": 362,
		"time_elapsed": 790756,
		"internal_node_id": "0.0-3.0-0.173"
	},
	{
		"rt": 2102,
		"stimulus": "bracos",
		"response": "s",
		"class": "null",
		"status": "noncog",
		"answer": "pseudo",
		"correct": "N",
		"trial": "exp",
		"letters": "null",
		"trial_type": "html-keyboard-response",
		"trial_index": 363,
		"time_elapsed": 792859,
		"internal_node_id": "0.0-3.0-1.173"
	},
	{
		"rt": null,
		"stimulus": "+",
		"response": null,
		"trial_type": "html-keyboard-response",
		"trial_index": 364,
		"time_elapsed": 793363,
		"internal_node_id": "0.0-3.0-0.174"
	},
	{
		"rt": 2348,
		"stimulus": "senareta",
		"response": "s",
		"class": "null",
		"status": "noncog",
		"answer": "pseudo",
		"correct": "N",
		"trial": "exp",
		"letters": "null",
		"trial_type": "html-keyboard-response",
		"trial_index": 365,
		"time_elapsed": 795711,
		"internal_node_id": "0.0-3.0-1.174"
	},
	{
		"rt": null,
		"stimulus": "+",
		"response": null,
		"trial_type": "html-keyboard-response",
		"trial_index": 366,
		"time_elapsed": 796213,
		"internal_node_id": "0.0-3.0-0.175"
	},
	{
		"rt": 2789,
		"stimulus": "sustentar",
		"response": "s",
		"class": "v",
		"status": "noncog",
		"answer": "word",
		"correct": "S",
		"trial": "exp",
		"letters": "9",
		"trial_type": "html-keyboard-response",
		"trial_index": 367,
		"time_elapsed": 799003,
		"internal_node_id": "0.0-3.0-1.175"
	},
	{
		"rt": null,
		"stimulus": "+",
		"response": null,
		"trial_type": "html-keyboard-response",
		"trial_index": 368,
		"time_elapsed": 799505,
		"internal_node_id": "0.0-3.0-0.176"
	},
	{
		"rt": 1800,
		"stimulus": "orupas",
		"response": "s",
		"class": "null",
		"status": "noncog",
		"answer": "pseudo",
		"correct": "N",
		"trial": "exp",
		"letters": "null",
		"trial_type": "html-keyboard-response",
		"trial_index": 369,
		"time_elapsed": 801306,
		"internal_node_id": "0.0-3.0-1.176"
	},
	{
		"rt": null,
		"stimulus": "+",
		"response": null,
		"trial_type": "html-keyboard-response",
		"trial_index": 370,
		"time_elapsed": 801810,
		"internal_node_id": "0.0-3.0-0.177"
	},
	{
		"rt": 1897,
		"stimulus": "traduzir",
		"response": "s",
		"class": "v",
		"status": "cog",
		"answer": "word",
		"correct": "S",
		"trial": "exp",
		"letters": "8",
		"trial_type": "html-keyboard-response",
		"trial_index": 371,
		"time_elapsed": 803707,
		"internal_node_id": "0.0-3.0-1.177"
	},
	{
		"rt": null,
		"stimulus": "+",
		"response": null,
		"trial_type": "html-keyboard-response",
		"trial_index": 372,
		"time_elapsed": 804208,
		"internal_node_id": "0.0-3.0-0.178"
	},
	{
		"rt": 1429,
		"stimulus": "lagoa",
		"response": "s",
		"class": "n",
		"status": "cog",
		"answer": "word",
		"correct": "S",
		"trial": "exp",
		"letters": "5",
		"trial_type": "html-keyboard-response",
		"trial_index": 373,
		"time_elapsed": 805638,
		"internal_node_id": "0.0-3.0-1.178"
	},
	{
		"rt": null,
		"stimulus": "+",
		"response": null,
		"trial_type": "html-keyboard-response",
		"trial_index": 374,
		"time_elapsed": 806140,
		"internal_node_id": "0.0-3.0-0.179"
	},
	{
		"rt": 2157,
		"stimulus": "espionar",
		"response": "s",
		"class": "v",
		"status": "cog",
		"answer": "word",
		"correct": "S",
		"trial": "exp",
		"letters": "8",
		"trial_type": "html-keyboard-response",
		"trial_index": 375,
		"time_elapsed": 808298,
		"internal_node_id": "0.0-3.0-1.179"
	},
	{
		"rt": null,
		"stimulus": "+",
		"response": null,
		"trial_type": "html-keyboard-response",
		"trial_index": 376,
		"time_elapsed": 808799,
		"internal_node_id": "0.0-3.0-0.180"
	},
	{
		"rt": 1497,
		"stimulus": "fratos",
		"response": "s",
		"class": "null",
		"status": "noncog",
		"answer": "pseudo",
		"correct": "N",
		"trial": "exp",
		"letters": "null",
		"trial_type": "html-keyboard-response",
		"trial_index": 377,
		"time_elapsed": 810297,
		"internal_node_id": "0.0-3.0-1.180"
	},
	{
		"rt": null,
		"stimulus": "+",
		"response": null,
		"trial_type": "html-keyboard-response",
		"trial_index": 378,
		"time_elapsed": 810802,
		"internal_node_id": "0.0-3.0-0.181"
	},
	{
		"rt": 1722,
		"stimulus": "destino",
		"response": "s",
		"class": "n",
		"status": "cog",
		"answer": "word",
		"correct": "S",
		"trial": "exp",
		"letters": "7",
		"trial_type": "html-keyboard-response",
		"trial_index": 379,
		"time_elapsed": 812525,
		"internal_node_id": "0.0-3.0-1.181"
	},
	{
		"rt": null,
		"stimulus": "+",
		"response": null,
		"trial_type": "html-keyboard-response",
		"trial_index": 380,
		"time_elapsed": 813026,
		"internal_node_id": "0.0-3.0-0.182"
	},
	{
		"rt": 2220,
		"stimulus": "arranjar",
		"response": "s",
		"class": "v",
		"status": "cog",
		"answer": "word",
		"correct": "S",
		"trial": "exp",
		"letters": "8",
		"trial_type": "html-keyboard-response",
		"trial_index": 381,
		"time_elapsed": 815247,
		"internal_node_id": "0.0-3.0-1.182"
	},
	{
		"rt": null,
		"stimulus": "+",
		"response": null,
		"trial_type": "html-keyboard-response",
		"trial_index": 382,
		"time_elapsed": 815748,
		"internal_node_id": "0.0-3.0-0.183"
	},
	{
		"rt": 1581,
		"stimulus": "areia",
		"response": "s",
		"class": "n",
		"status": "noncog",
		"answer": "word",
		"correct": "S",
		"trial": "exp",
		"letters": "5",
		"trial_type": "html-keyboard-response",
		"trial_index": 383,
		"time_elapsed": 817329,
		"internal_node_id": "0.0-3.0-1.183"
	},
	{
		"rt": null,
		"stimulus": "+",
		"response": null,
		"trial_type": "html-keyboard-response",
		"trial_index": 384,
		"time_elapsed": 817832,
		"internal_node_id": "0.0-3.0-0.184"
	},
	{
		"rt": 1455,
		"stimulus": "agravar",
		"response": "s",
		"class": "v",
		"status": "cog",
		"answer": "word",
		"correct": "S",
		"trial": "exp",
		"letters": "7",
		"trial_type": "html-keyboard-response",
		"trial_index": 385,
		"time_elapsed": 819287,
		"internal_node_id": "0.0-3.0-1.184"
	},
	{
		"rt": null,
		"stimulus": "+",
		"response": null,
		"trial_type": "html-keyboard-response",
		"trial_index": 386,
		"time_elapsed": 819788,
		"internal_node_id": "0.0-3.0-0.185"
	},
	{
		"rt": 1480,
		"stimulus": "dacada",
		"response": "s",
		"class": "null",
		"status": "noncog",
		"answer": "pseudo",
		"correct": "N",
		"trial": "exp",
		"letters": "null",
		"trial_type": "html-keyboard-response",
		"trial_index": 387,
		"time_elapsed": 821269,
		"internal_node_id": "0.0-3.0-1.185"
	},
	{
		"rt": null,
		"stimulus": "+",
		"response": null,
		"trial_type": "html-keyboard-response",
		"trial_index": 388,
		"time_elapsed": 821774,
		"internal_node_id": "0.0-3.0-0.186"
	},
	{
		"rt": 1529,
		"stimulus": "fogão",
		"response": "s",
		"class": "n",
		"status": "noncog",
		"answer": "word",
		"correct": "S",
		"trial": "exp",
		"letters": "5",
		"trial_type": "html-keyboard-response",
		"trial_index": 389,
		"time_elapsed": 823304,
		"internal_node_id": "0.0-3.0-1.186"
	},
	{
		"rt": null,
		"stimulus": "+",
		"response": null,
		"trial_type": "html-keyboard-response",
		"trial_index": 390,
		"time_elapsed": 823805,
		"internal_node_id": "0.0-3.0-0.187"
	},
	{
		"rt": 1905,
		"stimulus": "irratinte",
		"response": "s",
		"class": "null",
		"status": "noncog",
		"answer": "pseudo",
		"correct": "N",
		"trial": "exp",
		"letters": "null",
		"trial_type": "html-keyboard-response",
		"trial_index": 391,
		"time_elapsed": 825711,
		"internal_node_id": "0.0-3.0-1.187"
	},
	{
		"rt": null,
		"stimulus": "+",
		"response": null,
		"trial_type": "html-keyboard-response",
		"trial_index": 392,
		"time_elapsed": 826215,
		"internal_node_id": "0.0-3.0-0.188"
	},
	{
		"rt": 5002,
		"stimulus": "quenzina",
		"response": "s",
		"class": "null",
		"status": "noncog",
		"answer": "pseudo",
		"correct": "N",
		"trial": "exp",
		"letters": "null",
		"trial_type": "html-keyboard-response",
		"trial_index": 393,
		"time_elapsed": 831218,
		"internal_node_id": "0.0-3.0-1.188"
	},
	{
		"rt": null,
		"stimulus": "+",
		"response": null,
		"trial_type": "html-keyboard-response",
		"trial_index": 394,
		"time_elapsed": 831719,
		"internal_node_id": "0.0-3.0-0.189"
	},
	{
		"rt": 1458,
		"stimulus": "detative",
		"response": "s",
		"class": "null",
		"status": "noncog",
		"answer": "pseudo",
		"correct": "N",
		"trial": "exp",
		"letters": "null",
		"trial_type": "html-keyboard-response",
		"trial_index": 395,
		"time_elapsed": 833178,
		"internal_node_id": "0.0-3.0-1.189"
	},
	{
		"rt": null,
		"stimulus": "+",
		"response": null,
		"trial_type": "html-keyboard-response",
		"trial_index": 396,
		"time_elapsed": 833680,
		"internal_node_id": "0.0-3.0-0.190"
	},
	{
		"rt": 2401,
		"stimulus": "enxarto",
		"response": "s",
		"class": "null",
		"status": "noncog",
		"answer": "pseudo",
		"correct": "N",
		"trial": "exp",
		"letters": "null",
		"trial_type": "html-keyboard-response",
		"trial_index": 397,
		"time_elapsed": 836082,
		"internal_node_id": "0.0-3.0-1.190"
	},
	{
		"rt": null,
		"stimulus": "+",
		"response": null,
		"trial_type": "html-keyboard-response",
		"trial_index": 398,
		"time_elapsed": 836583,
		"internal_node_id": "0.0-3.0-0.191"
	},
	{
		"rt": 1692,
		"stimulus": "sanque",
		"response": "s",
		"class": "null",
		"status": "noncog",
		"answer": "pseudo",
		"correct": "N",
		"trial": "exp",
		"letters": "null",
		"trial_type": "html-keyboard-response",
		"trial_index": 399,
		"time_elapsed": 838275,
		"internal_node_id": "0.0-3.0-1.191"
	},
	{
		"rt": null,
		"stimulus": "+",
		"response": null,
		"trial_type": "html-keyboard-response",
		"trial_index": 400,
		"time_elapsed": 838777,
		"internal_node_id": "0.0-3.0-0.192"
	},
	{
		"rt": 2171,
		"stimulus": "cápsula",
		"response": "s",
		"class": "n",
		"status": "noncog",
		"answer": "word",
		"correct": "S",
		"trial": "exp",
		"letters": "7",
		"trial_type": "html-keyboard-response",
		"trial_index": 401,
		"time_elapsed": 840949,
		"internal_node_id": "0.0-3.0-1.192"
	},
	{
		"rt": null,
		"stimulus": "+",
		"response": null,
		"trial_type": "html-keyboard-response",
		"trial_index": 402,
		"time_elapsed": 841452,
		"internal_node_id": "0.0-3.0-0.193"
	},
	{
		"rt": 2368,
		"stimulus": "parceter",
		"response": "s",
		"class": "null",
		"status": "noncog",
		"answer": "pseudo",
		"correct": "N",
		"trial": "exp",
		"letters": "null",
		"trial_type": "html-keyboard-response",
		"trial_index": 403,
		"time_elapsed": 843822,
		"internal_node_id": "0.0-3.0-1.193"
	},
	{
		"rt": null,
		"stimulus": "+",
		"response": null,
		"trial_type": "html-keyboard-response",
		"trial_index": 404,
		"time_elapsed": 844327,
		"internal_node_id": "0.0-3.0-0.194"
	},
	{
		"rt": 2685,
