"view_history","rt","trial_type","trial_index","time_elapsed","internal_node_id","stimulus","response","trial_part","word","question","answer","trial","accuracy"
"[{""page_index"":0,""viewing_time"":53074},{""page_index"":1,""viewing_time"":6741}]","59815","instructions","0","59817","0.0-0.0","","","","","","","",""
"","null","html-keyboard-response","1","60955","0.0-1.0-0.0-0.0","<span style= ""font-size:30px; font-family: monospace"">+</span>","null","fixation","","","","",""
"","4310","audio-keyboard-response","2","65853","0.0-1.0-1.0","../audio/prac-question-1-1.mp3"," ","","O","","","",""
"","2339","audio-keyboard-response","3","68497","0.0-1.0-1.1","../audio/prac-question-1-2.mp3"," ","","dia","","","",""
"","2171","audio-keyboard-response","4","70980","0.0-1.0-1.2","../audio/prac-question-1-3.mp3"," ","","estará","","","",""
"","1620","audio-keyboard-response","5","72894","0.0-1.0-1.3","../audio/prac-question-1-4.mp3"," ","","cheio","","","",""
"","1190","audio-keyboard-response","6","74370","0.0-1.0-1.4","../audio/prac-question-1-5.mp3"," ","","de","","","",""
"","1800","audio-keyboard-response","7","76477","0.0-1.0-1.5","../audio/prac-question-1-6.mp3"," ","","nuvens","","","",""
"","1730","audio-keyboard-response","8","78502","0.0-1.0-1.6","../audio/prac-question-1-7.mp3"," ","","hoje.","","","",""
"","null","html-keyboard-response","9","79764","0.0-1.0-0.7-0.7","<span style= ""font-size:30px; font-family: monospace"">+</span>","null","fixation","","","","",""
"","9970","audio-keyboard-response","10","90024","0.0-1.0-1.7","../audio/prac-question-2-1.mp3"," ","","A","","","",""
"","2069","audio-keyboard-response","11","92390","0.0-1.0-1.8","../audio/prac-question-2-2.mp3"," ","","caneca","","","",""
"","2351","audio-keyboard-response","12","95028","0.0-1.0-1.9","../audio/prac-question-2-3.mp3"," ","","colorida","","","",""
"","1901","audio-keyboard-response","13","97229","0.0-1.0-1.10","../audio/prac-question-2-4.mp3"," ","","caiu","","","",""
"","1538","audio-keyboard-response","14","99057","0.0-1.0-1.11","../audio/prac-question-2-5.mp3"," ","","da","","","",""
"","1480","audio-keyboard-response","15","100818","0.0-1.0-1.12","../audio/prac-question-2-6.mp3"," ","","mesa","","","",""
"","1268","audio-keyboard-response","16","102381","0.0-1.0-1.13","../audio/prac-question-2-7.mp3"," ","","de","","","",""
"","1959","audio-keyboard-response","17","104635","0.0-1.0-1.14","../audio/prac-question-2-8.mp3"," ","","jantar.","","","",""
"","29805","html-keyboard-response","18","134712","0.0-1.0-2.14-0.14","<span style=""font-size:25px; font-family: monospace"">A caneca era colorida?</span>","s","","","A caneca era colorida?","null","prac-sent","false"
"[{""page_index"":0,""viewing_time"":10100}]","10100","instructions","19","145328","0.0-2.0","","","","","","","",""
"","null","html-keyboard-response","20","146454","0.0-3.0-0.0-0.0","<span style= ""font-size:30px; font-family: monospace"">+</span>","null","fixation","","","","",""
"","3460","audio-keyboard-response","21","150261","0.0-3.0-1.0","../audio/48-1-masc.mp3"," ","","Ela","","","",""
"","1712","audio-keyboard-response","22","152313","0.0-3.0-1.1","../audio/48-2-masc.mp3"," ","","come","","","",""
"","2040","audio-keyboard-response","23","154702","0.0-3.0-1.2","../audio/48-3-masc.mp3"," ","","feijão","","","",""
"","1451","audio-keyboard-response","24","156514","0.0-3.0-1.3","../audio/48-4-masc.mp3"," ","","com","","","",""
"","1669","audio-keyboard-response","25","158526","0.0-3.0-1.4","../audio/48-5-masc.mp3"," ","","arroz","","","",""
"","1419","audio-keyboard-response","26","160307","0.0-3.0-1.5","../audio/48-6-masc.mp3"," ","","todos","","","",""
"","1210","audio-keyboard-response","27","161858","0.0-3.0-1.6","../audio/48-7-masc.mp3"," ","","os","","","",""
"","1739","audio-keyboard-response","28","163930","0.0-3.0-1.7","../audio/48-8-masc.mp3"," ","","dias.","","","",""
"","null","html-keyboard-response","29","165201","0.0-3.0-0.8-0.8","<span style= ""font-size:30px; font-family: monospace"">+</span>","null","fixation","","","","",""
"","1489","audio-keyboard-response","30","166997","0.0-3.0-1.8","../audio/47-1-masc.mp3"," ","","O","","","",""
"","1292","audio-keyboard-response","31","168572","0.0-3.0-1.9","../audio/47-2-masc.mp3"," ","","tio","","","",""
"","1562","audio-keyboard-response","32","170436","0.0-3.0-1.10","../audio/47-3-masc.mp3"," ","","recusou","","","",""
"","1109","audio-keyboard-response","33","171837","0.0-3.0-1.11","../audio/47-4-masc.mp3"," ","","a","","","",""
"","1509","audio-keyboard-response","34","173653","0.0-3.0-1.12","../audio/47-5-masc.mp3"," ","","sobremesa","","","",""
"","1210","audio-keyboard-response","35","175161","0.0-3.0-1.13","../audio/47-6-masc.mp3"," ","","no","","","",""
"","2142","audio-keyboard-response","36","177598","0.0-3.0-1.14","../audio/47-7-masc.mp3"," ","","almoço.","","","",""
"","null","html-keyboard-response","37","178877","0.0-3.0-0.15-0.15","<span style= ""font-size:30px; font-family: monospace"">+</span>","null","fixation","","","","",""
"","1689","audio-keyboard-response","38","180888","0.0-3.0-1.15","../audio/46-1-fem.mp3"," ","","Meu","","","",""
"","1399","audio-keyboard-response","39","182605","0.0-3.0-1.16","../audio/46-2-fem.mp3"," ","","primo","","","",""
"","1689","audio-keyboard-response","40","184618","0.0-3.0-1.17","../audio/46-3-fem.mp3"," ","","estava","","","",""
"","1428","audio-keyboard-response","41","186368","0.0-3.0-1.18","../audio/46-4-fem.mp3"," ","","muito","","","",""
"","2011","audio-keyboard-response","42","188710","0.0-3.0-1.19","../audio/46-5-fem.mp3"," ","","deprimido","","","",""
"","1431","audio-keyboard-response","43","190474","0.0-3.0-1.20","../audio/46-6-fem.mp3"," ","","no","","","",""
"","2220","audio-keyboard-response","44","193028","0.0-3.0-1.21","../audio/46-7-fem.mp3"," ","","inverno.","","","",""
"","null","html-keyboard-response","45","194304","0.0-3.0-0.22-0.22","<span style= ""font-size:30px; font-family: monospace"">+</span>","null","fixation","","","","",""
"","1440","audio-keyboard-response","46","196046","0.0-3.0-1.22","../audio/49-1-fem.mp3"," ","","Eu","","","",""
"","1260","audio-keyboard-response","47","197606","0.0-3.0-1.23","../audio/49-2-fem.mp3"," ","","quero","","","",""
"","1120","audio-keyboard-response","48","199036","0.0-3.0-1.24","../audio/49-3-fem.mp3"," ","","um","","","",""
"","1489","audio-keyboard-response","49","200831","0.0-3.0-1.25","../audio/49-4-fem.mp3"," ","","lanche","","","",""
"","1599","audio-keyboard-response","50","202722","0.0-3.0-1.26","../audio/49-5-fem.mp3"," ","","duplo","","","",""
"","1231","audio-keyboard-response","51","204249","0.0-3.0-1.27","../audio/49-6-fem.mp3"," ","","e","","","",""
"","1109","audio-keyboard-response","52","205641","0.0-3.0-1.28","../audio/49-7-fem.mp3"," ","","um","","","",""
"","2081","audio-keyboard-response","53","208016","0.0-3.0-1.29","../audio/49-8-fem.mp3"," ","","suco.","","","",""
"","null","html-keyboard-response","54","209296","0.0-3.0-0.30-0.30","<span style= ""font-size:30px; font-family: monospace"">+</span>","null","fixation","","","","",""
"","1239","audio-keyboard-response","55","210842","0.0-3.0-1.30","../audio/50-1-masc.mp3"," ","","O","","","",""
"","1329","audio-keyboard-response","56","212466","0.0-3.0-1.31","../audio/50-2-masc.mp3"," ","","pássaro","","","",""
"","1228","audio-keyboard-response","57","213998","0.0-3.0-1.32","../audio/50-3-masc.mp3"," ","","fugiu","","","",""
"","1001","audio-keyboard-response","58","215302","0.0-3.0-1.33","../audio/50-4-masc.mp3"," ","","da","","","",""
"","1399","audio-keyboard-response","59","216991","0.0-3.0-1.34","../audio/50-5-masc.mp3"," ","","gaiola","","","",""
"","1120","audio-keyboard-response","60","218398","0.0-3.0-1.35","../audio/50-6-masc.mp3"," ","","pela","","","",""
"","3120","audio-keyboard-response","61","221817","0.0-3.0-1.36","../audio/50-7-masc.mp3"," ","","portinhola.","","","",""
"","17430","html-keyboard-response","62","239505","0.0-3.0-2.36-0.36","<span style=""font-size:25px; font-family: monospace"">O pássaro fugiu da gaiola?</span>","s","","","O pássaro fugiu da gaiola?","null","exp-sent","false"
"","null","html-keyboard-response","63","241030","0.0-3.0-0.37-0.37","<span style= ""font-size:30px; font-family: monospace"">+</span>","null","fixation","","","","",""
"","2490","audio-keyboard-response","64","243817","0.0-3.0-1.37","../audio/59-1-fem.mp3"," ","","O","","","",""
"","1811","audio-keyboard-response","65","245936","0.0-3.0-1.38","../audio/59-2-fem.mp3"," ","","carteiro","","","",""
"","1402","audio-keyboard-response","66","247645","0.0-3.0-1.39","../audio/59-3-fem.mp3"," ","","fez","","","",""
"","1129","audio-keyboard-response","67","249086","0.0-3.0-1.40","../audio/59-4-fem.mp3"," ","","uma","","","",""
"","1872","audio-keyboard-response","68","251250","0.0-3.0-1.41","../audio/59-5-fem.mp3"," ","","tentativa","","","",""
"","891","audio-keyboard-response","69","252439","0.0-3.0-1.42","../audio/59-6-fem.mp3"," ","","de","","","",""
"","1480","audio-keyboard-response","70","254207","0.0-3.0-1.43","../audio/59-7-fem.mp3"," ","","entrega.","","","",""
"","null","html-keyboard-response","71","255474","0.0-3.0-0.44-0.44","<span style= ""font-size:30px; font-family: monospace"">+</span>","null","fixation","","","","",""
"","949","audio-keyboard-response","72","256719","0.0-3.0-1.44","../audio/57-1-masc.mp3"," ","","O","","","",""
"","1390","audio-keyboard-response","73","258414","0.0-3.0-1.45","../audio/57-2-masc.mp3"," ","","capitão","","","",""
"","1059","audio-keyboard-response","74","259777","0.0-3.0-1.46","../audio/57-3-masc.mp3"," ","","deu","","","",""
"","1120","audio-keyboard-response","75","261200","0.0-3.0-1.47","../audio/57-4-masc.mp3"," ","","uma","","","",""
"","1611","audio-keyboard-response","76","263117","0.0-3.0-1.48","../audio/57-5-masc.mp3"," ","","instrução","","","",""
"","1149","audio-keyboard-response","77","264558","0.0-3.0-1.49","../audio/57-6-masc.mp3"," ","","para","","","",""
"","998","audio-keyboard-response","78","265865","0.0-3.0-1.50","../audio/57-7-masc.mp3"," ","","as","","","",""
"","1689","audio-keyboard-response","79","267858","0.0-3.0-1.51","../audio/57-8-masc.mp3"," ","","pessoas.","","","",""
"","null","html-keyboard-response","80","269124","0.0-3.0-0.52-0.52","<span style= ""font-size:30px; font-family: monospace"">+</span>","null","fixation","","","","",""
"","1178","audio-keyboard-response","81","270602","0.0-3.0-1.52","../audio/56-1-masc.mp3"," ","","A","","","",""
"","1207","audio-keyboard-response","82","272111","0.0-3.0-1.53","../audio/56-2-masc.mp3"," ","","moça","","","",""
"","920","audio-keyboard-response","83","273337","0.0-3.0-1.54","../audio/56-3-masc.mp3"," ","","foi","","","",""
"","888","audio-keyboard-response","84","274529","0.0-3.0-1.55","../audio/56-4-masc.mp3"," ","","à","","","",""
"","1379","audio-keyboard-response","85","276214","0.0-3.0-1.56","../audio/56-5-masc.mp3"," ","","agência","","","",""
"","1570","audio-keyboard-response","86","278077","0.0-3.0-1.57","../audio/56-6-masc.mp3"," ","","bancária","","","",""
"","1132","audio-keyboard-response","87","279499","0.0-3.0-1.58","../audio/56-7-masc.mp3"," ","","ontem","","","",""
"","929","audio-keyboard-response","88","280736","0.0-3.0-1.59","../audio/56-8-masc.mp3"," ","","de","","","",""
"","1579","audio-keyboard-response","89","282617","0.0-3.0-1.60","../audio/56-9-masc.mp3"," ","","tarde.","","","",""
"","null","html-keyboard-response","90","283886","0.0-3.0-0.61-0.61","<span style= ""font-size:30px; font-family: monospace"">+</span>","null","fixation","","","","",""
"","1440","audio-keyboard-response","91","285657","0.0-3.0-1.61","../audio/58-1-fem.mp3"," ","","Havia","","","",""
"","1501","audio-keyboard-response","92","287485","0.0-3.0-1.62","../audio/58-2-fem.mp3"," ","","apenas","","","",""
"","969","audio-keyboard-response","93","288784","0.0-3.0-1.63","../audio/58-3-fem.mp3"," ","","um","","","",""
"","1370","audio-keyboard-response","94","290494","0.0-3.0-1.64","../audio/58-4-fem.mp3"," ","","último","","","",""
"","1428","audio-keyboard-response","95","292273","0.0-3.0-1.65","../audio/58-5-fem.mp3"," ","","herdeiro","","","",""
"","1010","audio-keyboard-response","96","293603","0.0-3.0-1.66","../audio/58-6-fem.mp3"," ","","do","","","",""
"","1640","audio-keyboard-response","97","295573","0.0-3.0-1.67","../audio/58-7-fem.mp3"," ","","dinheiro.","","","",""
"","null","html-keyboard-response","98","296855","0.0-3.0-0.68-0.68","<span style= ""font-size:30px; font-family: monospace"">+</span>","null","fixation","","","","",""
"","1408","audio-keyboard-response","99","298558","0.0-3.0-1.68","../audio/60-1-fem.mp3"," ","","Ondas","","","",""
"","1030","audio-keyboard-response","100","299876","0.0-3.0-1.69","../audio/60-2-fem.mp3"," ","","têm","","","",""
"","1100","audio-keyboard-response","101","301270","0.0-3.0-1.70","../audio/60-3-fem.mp3"," ","","um","","","",""
"","1541","audio-keyboard-response","102","303116","0.0-3.0-1.71","../audio/60-4-fem.mp3"," ","","impacto","","","",""
"","1739","audio-keyboard-response","103","305163","0.0-3.0-1.72","../audio/60-5-fem.mp3"," ","","destrutivo","","","",""
"","1117","audio-keyboard-response","104","306587","0.0-3.0-1.73","../audio/60-6-fem.mp3"," ","","no","","","",""
"","1890","audio-keyboard-response","105","308780","0.0-3.0-1.74","../audio/60-7-fem.mp3"," ","","litoral.","","","",""
"","19916","html-keyboard-response","106","328957","0.0-3.0-2.74-0.74","<span style=""font-size:25px; font-family: monospace"">Ondas têm um impacto destrutivo?</span>","s","","","Ondas têm um impacto destrutivo?","null","exp-sent","false"
"","null","html-keyboard-response","107","330474","0.0-3.0-0.75-0.75","<span style= ""font-size:30px; font-family: monospace"">+</span>","null","fixation","","","","",""
"","1228","audio-keyboard-response","108","332004","0.0-3.0-1.75","../audio/07-1-masc.mp3"," ","","Meu","","","",""
"","1382","audio-keyboard-response","109","333673","0.0-3.0-1.76","../audio/07-2-masc.mp3"," ","","filho","","","",""
"","1321","audio-keyboard-response","110","335297","0.0-3.0-1.77","../audio/07-3-masc.mp3"," ","","é","","","",""
"","1280","audio-keyboard-response","111","336874","0.0-3.0-1.78","../audio/07-4-masc.mp3"," ","","muito","","","",""
"","1927","audio-keyboard-response","112","339118","0.0-3.0-1.79","../audio/07-5-masc.mp3"," ","","responsável","","","",""
"","1222","audio-keyboard-response","113","340636","0.0-3.0-1.80","../audio/07-6-masc.mp3"," ","","nos","","","",""
"","1509","audio-keyboard-response","114","342445","0.0-3.0-1.81","../audio/07-7-masc.mp3"," ","","estudos.","","","",""
"","null","html-keyboard-response","115","343723","0.0-3.0-0.82-0.82","<span style= ""font-size:30px; font-family: monospace"">+</span>","null","fixation","","","","",""
"","1631","audio-keyboard-response","116","345666","0.0-3.0-1.82","../audio/06-1-fem.mp3"," ","","Ouvimos","","","",""
"","969","audio-keyboard-response","117","346953","0.0-3.0-1.83","../audio/06-2-fem.mp3"," ","","a","","","",""
"","2241","audio-keyboard-response","118","349504","0.0-3.0-1.84","../audio/06-3-fem.mp3"," ","","fala","","","",""
"","1071","audio-keyboard-response","119","350914","0.0-3.0-1.85","../audio/06-4-fem.mp3"," ","","do","","","",""
"","1631","audio-keyboard-response","120","352875","0.0-3.0-1.86","../audio/06-5-fem.mp3"," ","","profeta","","","",""
"","1469","audio-keyboard-response","121","354663","0.0-3.0-1.87","../audio/06-6-fem.mp3"," ","","no","","","",""
"","1411","audio-keyboard-response","122","356396","0.0-3.0-1.88","../audio/06-7-fem.mp3"," ","","púlpito","","","",""
"","1042","audio-keyboard-response","123","357765","0.0-3.0-1.89","../audio/06-8-fem.mp3"," ","","da","","","",""
"","1599","audio-keyboard-response","124","359692","0.0-3.0-1.90","../audio/06-9-fem.mp3"," ","","igreja.","","","",""
"","null","html-keyboard-response","125","360955","0.0-3.0-0.91-0.91","<span style= ""font-size:30px; font-family: monospace"">+</span>","null","fixation","","","","",""
"","958","audio-keyboard-response","126","362198","0.0-3.0-1.91","../audio/09-1-fem.mp3"," ","","O","","","",""
"","1280","audio-keyboard-response","127","363782","0.0-3.0-1.92","../audio/09-2-fem.mp3"," ","","rapaz","","","",""
"","1387","audio-keyboard-response","128","365457","0.0-3.0-1.93","../audio/09-3-fem.mp3"," ","","limpou","","","",""
"","969","audio-keyboard-response","129","366708","0.0-3.0-1.94","../audio/09-4-fem.mp3"," ","","o","","","",""
"","1280","audio-keyboard-response","130","368282","0.0-3.0-1.95","../audio/09-5-fem.mp3"," ","","terreno","","","",""
"","859","audio-keyboard-response","131","369430","0.0-3.0-1.96","../audio/09-6-fem.mp3"," ","","com","","","",""
"","1051","audio-keyboard-response","132","370770","0.0-3.0-1.97","../audio/09-7-fem.mp3"," ","","uma","","","",""
"","1010","audio-keyboard-response","133","372073","0.0-3.0-1.98","../audio/09-8-fem.mp3"," ","","pá.","","","",""
"","null","html-keyboard-response","134","373344","0.0-3.0-0.99-0.99","<span style= ""font-size:30px; font-family: monospace"">+</span>","null","fixation","","","","",""
"","1190","audio-keyboard-response","135","374827","0.0-3.0-1.99","../audio/08-1-masc.mp3"," ","","A","","","",""
"","1350","audio-keyboard-response","136","376482","0.0-3.0-1.100","../audio/08-2-masc.mp3"," ","","receita","","","",""
"","1109","audio-keyboard-response","137","377896","0.0-3.0-1.101","../audio/08-3-masc.mp3"," ","","pede","","","",""
"","1001","audio-keyboard-response","138","379190","0.0-3.0-1.102","../audio/08-4-masc.mp3"," ","","um","","","",""
"","1321","audio-keyboard-response","139","380815","0.0-3.0-1.103","../audio/08-5-masc.mp3"," ","","litro","","","",""
"","882","audio-keyboard-response","140","381995","0.0-3.0-1.104","../audio/08-6-masc.mp3"," ","","de","","","",""
"","1242","audio-keyboard-response","141","383544","0.0-3.0-1.105","../audio/08-7-masc.mp3"," ","","leite","","","",""
"","1570","audio-keyboard-response","142","385407","0.0-3.0-1.106","../audio/08-8-masc.mp3"," ","","integral.","","","",""
"","null","html-keyboard-response","143","386694","0.0-3.0-0.107-0.107","<span style= ""font-size:30px; font-family: monospace"">+</span>","null","fixation","","","","",""
"","981","audio-keyboard-response","144","388028","0.0-3.0-1.107","../audio/10-1-masc.mp3"," ","","O","","","",""
"","1170","audio-keyboard-response","145","389534","0.0-3.0-1.108","../audio/10-2-masc.mp3"," ","","pássaro","","","",""
"","1202","audio-keyboard-response","146","391068","0.0-3.0-1.109","../audio/10-3-masc.mp3"," ","","azul","","","",""
"","1370","audio-keyboard-response","147","392762","0.0-3.0-1.110","../audio/10-4-masc.mp3"," ","","estava","","","",""
"","1149","audio-keyboard-response","148","394246","0.0-3.0-1.111","../audio/10-5-masc.mp3"," ","","vivo","","","",""
"","1219","audio-keyboard-response","149","396020","0.0-3.0-1.112","../audio/10-6-masc.mp3"," ","","e","","","",""
"","1088","audio-keyboard-response","150","397431","0.0-3.0-1.113","../audio/10-7-masc.mp3"," ","","em","","","",""
"","1730","audio-keyboard-response","151","399491","0.0-3.0-1.114","../audio/10-8-masc.mp3"," ","","segurança.","","","",""
"","5448","html-keyboard-response","152","405204","0.0-3.0-2.114-0.114","<span style=""font-size:25px; font-family: monospace"">O pássaro vermelho estava em segurança?</span>","s","","","O pássaro vermelho estava em segurança?","null","exp-sent","false"
"","null","html-keyboard-response","153","406724","0.0-3.0-0.115-0.115","<span style= ""font-size:30px; font-family: monospace"">+</span>","null","fixation","","","","",""
"","1451","audio-keyboard-response","154","408472","0.0-3.0-1.115","../audio/78-1-masc.mp3"," ","","Eles","","","",""
"","1280","audio-keyboard-response","155","410050","0.0-3.0-1.116","../audio/78-2-masc.mp3"," ","","trazem","","","",""
"","1080","audio-keyboard-response","156","411419","0.0-3.0-1.117","../audio/78-3-masc.mp3"," ","","um","","","",""
"","1170","audio-keyboard-response","157","412879","0.0-3.0-1.118","../audio/78-4-masc.mp3"," ","","fato","","","",""
"","1469","audio-keyboard-response","158","414644","0.0-3.0-1.119","../audio/78-5-masc.mp3"," ","","urgente","","","",""
"","1309","audio-keyboard-response","159","416251","0.0-3.0-1.120","../audio/78-6-masc.mp3"," ","","todos","","","",""
"","990","audio-keyboard-response","160","417547","0.0-3.0-1.121","../audio/78-7-masc.mp3"," ","","os","","","",""
"","1370","audio-keyboard-response","161","419216","0.0-3.0-1.122","../audio/78-8-masc.mp3"," ","","dias.","","","",""
"","null","html-keyboard-response","162","420494","0.0-3.0-0.123-0.123","<span style= ""font-size:30px; font-family: monospace"">+</span>","null","fixation","","","","",""
"","1521","audio-keyboard-response","163","422305","0.0-3.0-1.123","../audio/77-1-fem.mp3"," ","","A","","","",""
"","1379","audio-keyboard-response","164","423986","0.0-3.0-1.124","../audio/77-2-fem.mp3"," ","","criança","","","",""
"","1309","audio-keyboard-response","165","425589","0.0-3.0-1.125","../audio/77-3-fem.mp3"," ","","ficou","","","",""
"","1292","audio-keyboard-response","166","427184","0.0-3.0-1.126","../audio/77-4-fem.mp3"," ","","muito","","","",""
"","1239","audio-keyboard-response","167","428737","0.0-3.0-1.127","../audio/77-5-fem.mp3"," ","","feliz","","","",""
"","958","audio-keyboard-response","168","430001","0.0-3.0-1.128","../audio/77-6-fem.mp3"," ","","com","","","",""
"","1219","audio-keyboard-response","169","431497","0.0-3.0-1.129","../audio/77-7-fem.mp3"," ","","o","","","",""
"","1428","audio-keyboard-response","170","433231","0.0-3.0-1.130","../audio/77-8-fem.mp3"," ","","brinquedo.","","","",""
"","null","html-keyboard-response","171","434495","0.0-3.0-0.131-0.131","<span style= ""font-size:30px; font-family: monospace"">+</span>","null","fixation","","","","",""
"","1071","audio-keyboard-response","172","435876","0.0-3.0-1.131","../audio/76-1-masc.mp3"," ","","O","","","",""
"","1260","audio-keyboard-response","173","437434","0.0-3.0-1.132","../audio/76-2-masc.mp3"," ","","bisavô","","","",""
"","1170","audio-keyboard-response","174","438905","0.0-3.0-1.133","../audio/76-3-masc.mp3"," ","","comprou","","","",""
"","998","audio-keyboard-response","175","440187","0.0-3.0-1.134","../audio/76-4-masc.mp3"," ","","um","","","",""
"","1390","audio-keyboard-response","176","441877","0.0-3.0-1.135","../audio/76-5-masc.mp3"," ","","ralador","","","",""
"","842","audio-keyboard-response","177","443016","0.0-3.0-1.136","../audio/76-6-masc.mp3"," ","","de","","","",""
"","1419","audio-keyboard-response","178","444735","0.0-3.0-1.137","../audio/76-7-masc.mp3"," ","","queijo.","","","",""
"","null","html-keyboard-response","179","446013","0.0-3.0-0.138-0.138","<span style= ""font-size:30px; font-family: monospace"">+</span>","null","fixation","","","","",""
"","1550","audio-keyboard-response","180","447889","0.0-3.0-1.138","../audio/79-1-fem.mp3"," ","","A","","","",""
"","1533","audio-keyboard-response","181","449743","0.0-3.0-1.139","../audio/79-2-fem.mp3"," ","","médica","","","",""
"","1440","audio-keyboard-response","182","451504","0.0-3.0-1.140","../audio/79-3-fem.mp3"," ","","verificou","","","",""
"","990","audio-keyboard-response","183","452822","0.0-3.0-1.141","../audio/79-4-fem.mp3"," ","","a","","","",""
"","1779","audio-keyboard-response","184","454920","0.0-3.0-1.142","../audio/79-5-fem.mp3"," ","","gengiva","","","",""
"","969","audio-keyboard-response","185","456227","0.0-3.0-1.143","../audio/79-6-fem.mp3"," ","","por","","","",""
"","4058","audio-keyboard-response","186","460627","0.0-3.0-1.144","../audio/79-7-fem.mp3"," ","","último.","","","",""
"","null","html-keyboard-response","187","461900","0.0-3.0-0.145-0.145","<span style= ""font-size:30px; font-family: monospace"">+</span>","null","fixation","","","","",""
"","1199","audio-keyboard-response","188","463450","0.0-3.0-1.145","../audio/80-1-masc.mp3"," ","","Meu","","","",""
"","1190","audio-keyboard-response","189","464966","0.0-3.0-1.146","../audio/80-2-masc.mp3"," ","","primo","","","",""
"","1341","audio-keyboard-response","190","466647","0.0-3.0-1.147","../audio/80-3-masc.mp3"," ","","conheceu","","","",""
"","981","audio-keyboard-response","191","467939","0.0-3.0-1.148","../audio/80-4-masc.mp3"," ","","um","","","",""
"","1350","audio-keyboard-response","192","469623","0.0-3.0-1.149","../audio/80-5-masc.mp3"," ","","jovem","","","",""
"","1402","audio-keyboard-response","193","471370","0.0-3.0-1.150","../audio/80-6-masc.mp3"," ","","amável","","","",""
"","961","audio-keyboard-response","194","472648","0.0-3.0-1.151","../audio/80-7-masc.mp3"," ","","e","","","",""
"","5021","audio-keyboard-response","195","478006","0.0-3.0-1.152","../audio/80-8-masc.mp3"," ","","confiante.","","","",""
"","80874","html-keyboard-response","196","559149","0.0-3.0-2.152-0.152","<span style=""font-size:25px; font-family: monospace"">O primo conheceu um jovem irritante?</span>","n","","","O primo conheceu um jovem irritante?","null","exp-sent","false"
"","null","html-keyboard-response","197","560665","0.0-3.0-0.153-0.153","<span style= ""font-size:30px; font-family: monospace"">+</span>","null","fixation","","","","",""
"","2058","audio-keyboard-response","198","563037","0.0-3.0-1.153","../audio/37-1-masc.mp3"," ","","Eu","","","",""
"","1919","audio-keyboard-response","199","565250","0.0-3.0-1.154","../audio/37-2-masc.mp3"," ","","adoro","","","",""
"","1730","audio-keyboard-response","200","567276","0.0-3.0-1.155","../audio/37-3-masc.mp3"," ","","suco","","","",""
"","1158","audio-keyboard-response","201","568727","0.0-3.0-1.156","../audio/37-4-masc.mp3"," ","","de","","","",""
"","1419","audio-keyboard-response","202","570449","0.0-3.0-1.157","../audio/37-5-masc.mp3"," ","","manga","","","",""
"","1001","audio-keyboard-response","203","571754","0.0-3.0-1.158","../audio/37-6-masc.mp3"," ","","com","","","",""
"","3260","audio-keyboard-response","204","575326","0.0-3.0-1.159","../audio/37-7-masc.mp3"," ","","hortelã.","","","",""
"","null","html-keyboard-response","205","576597","0.0-3.0-0.160-0.160","<span style= ""font-size:30px; font-family: monospace"">+</span>","null","fixation","","","","",""
"","1178","audio-keyboard-response","206","578074","0.0-3.0-1.160","../audio/39-1-fem.mp3"," ","","O","","","",""
"","1730","audio-keyboard-response","207","580111","0.0-3.0-1.161","../audio/39-2-fem.mp3"," ","","conselho","","","",""
"","1202","audio-keyboard-response","208","581617","0.0-3.0-1.162","../audio/39-3-fem.mp3"," ","","foi","","","",""
"","1599","audio-keyboard-response","209","583507","0.0-3.0-1.163","../audio/39-4-fem.mp3"," ","","muito","","","",""
"","1509","audio-keyboard-response","210","585326","0.0-3.0-1.164","../audio/39-5-fem.mp3"," ","","útil","","","",""
"","1173","audio-keyboard-response","211","586787","0.0-3.0-1.165","../audio/39-6-fem.mp3"," ","","para","","","",""
"","1251","audio-keyboard-response","212","588337","0.0-3.0-1.166","../audio/39-7-fem.mp3"," ","","minha","","","",""
"","1402","audio-keyboard-response","213","590029","0.0-3.0-1.167","../audio/39-8-fem.mp3"," ","","tia.","","","",""
"","null","html-keyboard-response","214","591314","0.0-3.0-0.168-0.168","<span style= ""font-size:30px; font-family: monospace"">+</span>","null","fixation","","","","",""
"","969","audio-keyboard-response","215","592585","0.0-3.0-1.168","../audio/36-1-masc.mp3"," ","","Meu","","","",""
"","1109","audio-keyboard-response","216","593991","0.0-3.0-1.169","../audio/36-2-masc.mp3"," ","","tio","","","",""
"","1170","audio-keyboard-response","217","595452","0.0-3.0-1.170","../audio/36-3-masc.mp3"," ","","comprou","","","",""
"","879","audio-keyboard-response","218","596608","0.0-3.0-1.171","../audio/36-4-masc.mp3"," ","","um","","","",""
"","981","audio-keyboard-response","219","597890","0.0-3.0-1.172","../audio/36-5-masc.mp3"," ","","filtro","","","",""
"","888","audio-keyboard-response","220","599076","0.0-3.0-1.173","../audio/36-6-masc.mp3"," ","","de","","","",""
"","781","audio-keyboard-response","221","600165","0.0-3.0-1.174","../audio/36-7-masc.mp3"," ","","água","","","",""
"","859","audio-keyboard-response","222","601336","0.0-3.0-1.175","../audio/36-8-masc.mp3"," ","","hoje","","","",""
"","2612","audio-keyboard-response","223","604243","0.0-3.0-1.176","../audio/36-9-masc.mp3"," ","","cedo.","","","",""
"","null","html-keyboard-response","224","605504","0.0-3.0-0.177-0.177","<span style= ""font-size:30px; font-family: monospace"">+</span>","null","fixation","","","","",""
"","859","audio-keyboard-response","225","606678","0.0-3.0-1.177","../audio/38-1-masc.mp3"," ","","A","","","",""
"","1181","audio-keyboard-response","226","608148","0.0-3.0-1.178","../audio/38-2-masc.mp3"," ","","empresa","","","",""
"","998","audio-keyboard-response","227","609439","0.0-3.0-1.179","../audio/38-3-masc.mp3"," ","","criou","","","",""
"","978","audio-keyboard-response","228","610725","0.0-3.0-1.180","../audio/38-4-masc.mp3"," ","","a","","","",""
"","1379","audio-keyboard-response","229","612410","0.0-3.0-1.181","../audio/38-5-masc.mp3"," ","","patente","","","",""
"","940","audio-keyboard-response","230","613646","0.0-3.0-1.182","../audio/38-6-masc.mp3"," ","","da","","","",""
"","1440","audio-keyboard-response","231","615383","0.0-3.0-1.183","../audio/38-7-masc.mp3"," ","","frigideira.","","","",""
"","null","html-keyboard-response","232","616664","0.0-3.0-0.184-0.184","<span style= ""font-size:30px; font-family: monospace"">+</span>","null","fixation","","","","",""
"","981","audio-keyboard-response","233","618009","0.0-3.0-1.184","../audio/40-1-fem.mp3"," ","","O","","","",""
"","1268","audio-keyboard-response","234","619596","0.0-3.0-1.185","../audio/40-2-fem.mp3"," ","","jogo","","","",""
"","1152","audio-keyboard-response","235","621080","0.0-3.0-1.186","../audio/40-3-fem.mp3"," ","","falava","","","",""
"","900","audio-keyboard-response","236","622294","0.0-3.0-1.187","../audio/40-4-fem.mp3"," ","","de","","","",""
"","1550","audio-keyboard-response","237","624184","0.0-3.0-1.188","../audio/40-5-fem.mp3"," ","","fantasia","","","",""
"","1170","audio-keyboard-response","238","625673","0.0-3.0-1.189","../audio/40-6-fem.mp3"," ","","e","","","",""
"","1100","audio-keyboard-response","239","627088","0.0-3.0-1.190","../audio/40-7-fem.mp3"," ","","de","","","",""
"","1759","audio-keyboard-response","240","629180","0.0-3.0-1.191","../audio/40-8-fem.mp3"," ","","aventura.","","","",""
"","18517","html-keyboard-response","241","647964","0.0-3.0-2.191-0.191","<span style=""font-size:25px; font-family: monospace"">O jogo tinha fantasia e aventura?</span>","s","","","O jogo tinha fantasia e aventura?","null","exp-sent","false"
"","null","html-keyboard-response","242","649504","0.0-3.0-0.192-0.192","<span style= ""font-size:30px; font-family: monospace"">+</span>","null","fixation","","","","",""
"","1219","audio-keyboard-response","243","651038","0.0-3.0-1.192","../audio/03-1-fem.mp3"," ","","O","","","",""
"","1501","audio-keyboard-response","244","652846","0.0-3.0-1.193","../audio/03-2-fem.mp3"," ","","coelho","","","",""
"","1178","audio-keyboard-response","245","654336","0.0-3.0-1.194","../audio/03-3-fem.mp3"," ","","foi","","","",""
"","1640","audio-keyboard-response","246","656296","0.0-3.0-1.195","../audio/03-4-fem.mp3"," ","","bastante","","","",""
"","1300","audio-keyboard-response","247","657907","0.0-3.0-1.196","../audio/03-5-fem.mp3"," ","","dócil","","","",""
"","1088","audio-keyboard-response","248","659287","0.0-3.0-1.197","../audio/03-6-fem.mp3"," ","","com","","","",""
"","1051","audio-keyboard-response","249","660635","0.0-3.0-1.198","../audio/03-7-fem.mp3"," ","","as","","","",""
"","1460","audio-keyboard-response","250","662395","0.0-3.0-1.199","../audio/03-8-fem.mp3"," ","","crianças.","","","",""
"","null","html-keyboard-response","251","663673","0.0-3.0-0.200-0.200","<span style= ""font-size:30px; font-family: monospace"">+</span>","null","fixation","","","","",""
"","929","audio-keyboard-response","252","664881","0.0-3.0-1.200","../audio/01-1-fem.mp3"," ","","O","","","",""
"","1530","audio-keyboard-response","253","666715","0.0-3.0-1.201","../audio/01-2-fem.mp3"," ","","menino","","","",""
"","1280","audio-keyboard-response","254","668289","0.0-3.0-1.202","../audio/01-3-fem.mp3"," ","","derrubou","","","",""
"","949","audio-keyboard-response","255","669533","0.0-3.0-1.203","../audio/01-4-fem.mp3"," ","","a","","","",""
"","1431","audio-keyboard-response","256","671267","0.0-3.0-1.204","../audio/01-5-fem.mp3"," ","","guitarra","","","",""
"","1010","audio-keyboard-response","257","672569","0.0-3.0-1.205","../audio/01-6-fem.mp3"," ","","no","","","",""
"","2302","audio-keyboard-response","258","675160","0.0-3.0-1.206","../audio/01-7-fem.mp3"," ","","chão.","","","",""
"","null","html-keyboard-response","259","676435","0.0-3.0-0.207-0.207","<span style= ""font-size:30px; font-family: monospace"">+</span>","null","fixation","","","","",""
"","969","audio-keyboard-response","260","677697","0.0-3.0-1.207","../audio/02-2-masc.mp3"," ","","Havia","","","",""
"","2110","audio-keyboard-response","261","680058","0.0-3.0-1.208","../audio/02-2-masc.mp3"," ","","um","","","",""
"","1358","audio-keyboard-response","262","681717","0.0-3.0-1.209","../audio/02-3-masc.mp3"," ","","cheiro","","","",""
"","961","audio-keyboard-response","263","682970","0.0-3.0-1.210","../audio/02-4-masc.mp3"," ","","de","","","",""
"","1129","audio-keyboard-response","264","684406","0.0-3.0-1.211","../audio/02-5-masc.mp3"," ","","gasolina","","","",""
"","1010","audio-keyboard-response","265","685708","0.0-3.0-1.212","../audio/02-6-masc.mp3"," ","","na","","","",""
"","2278","audio-keyboard-response","266","688296","0.0-3.0-1.213","../audio/02-7-masc.mp3"," ","","garagem.","","","",""
"","null","html-keyboard-response","267","689563","0.0-3.0-0.214-0.214","<span style= ""font-size:30px; font-family: monospace"">+</span>","null","fixation","","","","",""
"","1628","audio-keyboard-response","268","691538","0.0-3.0-1.214","../audio/04-1-masc.mp3"," ","","Duzentos","","","",""
"","1382","audio-keyboard-response","269","693244","0.0-3.0-1.215","../audio/04-2-masc.mp3"," ","","carros","","","",""
"","1161","audio-keyboard-response","270","694723","0.0-3.0-1.216","../audio/04-3-masc.mp3"," ","","passaram","","","",""
"","1001","audio-keyboard-response","271","696054","0.0-3.0-1.217","../audio/04-4-masc.mp3"," ","","pela","","","",""
"","1019","audio-keyboard-response","272","697407","0.0-3.0-1.218","../audio/04-5-masc.mp3"," ","","ponte","","","",""
"","1161","audio-keyboard-response","273","698881","0.0-3.0-1.219","../audio/04-6-masc.mp3"," ","","hoje","","","",""
"","1100","audio-keyboard-response","274","700308","0.0-3.0-1.220","../audio/04-7-masc.mp3"," ","","de","","","",""
"","1489","audio-keyboard-response","275","702113","0.0-3.0-1.221","../audio/04-8-masc.mp3"," ","","tarde.","","","",""
"","null","html-keyboard-response","276","703384","0.0-3.0-0.222-0.222","<span style= ""font-size:30px; font-family: monospace"">+</span>","null","fixation","","","","",""
"","862","audio-keyboard-response","277","704528","0.0-3.0-1.222","../audio/05-1-masc.mp3"," ","","A","","","",""
"","1370","audio-keyboard-response","278","706212","0.0-3.0-1.223","../audio/05-2-masc.mp3"," ","","vendedora","","","",""
"","1231","audio-keyboard-response","279","707742","0.0-3.0-1.224","../audio/05-3-masc.mp3"," ","","ajudou","","","",""
"","978","audio-keyboard-response","280","709008","0.0-3.0-1.225","../audio/05-4-masc.mp3"," ","","um","","","",""
"","1117","audio-keyboard-response","281","710428","0.0-3.0-1.226","../audio/05-5-masc.mp3"," ","","turista","","","",""
"","1071","audio-keyboard-response","282","711788","0.0-3.0-1.227","../audio/05-6-masc.mp3"," ","","na","","","",""
"","2351","audio-keyboard-response","283","714443","0.0-3.0-1.228","../audio/05-7-masc.mp3"," ","","loja.","","","",""
"","26076","html-keyboard-response","284","740781","0.0-3.0-2.228-0.228","<span style=""font-size:25px; font-family: monospace"">A vendedora ajudou um turista?</span>","n","","","A vendedora ajudou um turista?","null","exp-sent","false"
"","null","html-keyboard-response","285","742306","0.0-3.0-0.229-0.229","<span style= ""font-size:30px; font-family: monospace"">+</span>","null","fixation","","","","",""
"","1782","audio-keyboard-response","286","744394","0.0-3.0-1.229","../audio/19-1-masc.mp3"," ","","O","","","",""
"","1431","audio-keyboard-response","287","746134","0.0-3.0-1.230","../audio/19-2-masc.mp3"," ","","menino","","","",""
"","1387","audio-keyboard-response","288","747824","0.0-3.0-1.231","../audio/19-3-masc.mp3"," ","","ganhou","","","",""
"","1059","audio-keyboard-response","289","749178","0.0-3.0-1.232","../audio/19-4-masc.mp3"," ","","uma","","","",""
"","1260","audio-keyboard-response","290","750737","0.0-3.0-1.233","../audio/19-5-masc.mp3"," ","","bala","","","",""
"","1199","audio-keyboard-response","291","752243","0.0-3.0-1.234","../audio/19-6-masc.mp3"," ","","depois","","","",""
"","961","audio-keyboard-response","292","753495","0.0-3.0-1.235","../audio/19-7-masc.mp3"," ","","do","","","",""
"","2261","audio-keyboard-response","293","756052","0.0-3.0-1.236","../audio/19-8-masc.mp3"," ","","almoço.","","","",""
"","null","html-keyboard-response","294","757317","0.0-3.0-0.237-0.237","<span style= ""font-size:30px; font-family: monospace"">+</span>","null","fixation","","","","",""
"","958","audio-keyboard-response","295","758603","0.0-3.0-1.237","../audio/18-1-fem.mp3"," ","","O","","","",""
"","1521","audio-keyboard-response","296","760469","0.0-3.0-1.238","../audio/18-2-fem.mp3"," ","","enredo","","","",""
"","1239","audio-keyboard-response","297","762037","0.0-3.0-1.239","../audio/18-3-fem.mp3"," ","","traz","","","",""
"","1071","audio-keyboard-response","298","763427","0.0-3.0-1.240","../audio/18-4-fem.mp3"," ","","um","","","",""
"","1361","audio-keyboard-response","299","765121","0.0-3.0-1.241","../audio/18-5-fem.mp3"," ","","dragão","","","",""
"","981","audio-keyboard-response","300","766418","0.0-3.0-1.242","../audio/18-6-fem.mp3"," ","","forte","","","",""
"","850","audio-keyboard-response","301","767570","0.0-3.0-1.243","../audio/18-7-fem.mp3"," ","","e","","","",""
"","1649","audio-keyboard-response","302","769548","0.0-3.0-1.244","../audio/18-8-fem.mp3"," ","","solitário.","","","",""
"","null","html-keyboard-response","303","770824","0.0-3.0-0.245-0.245","<span style= ""font-size:30px; font-family: monospace"">+</span>","null","fixation","","","","",""
"","911","audio-keyboard-response","304","772125","0.0-3.0-1.245","../audio/16-1-fem.mp3"," ","","Eu","","","",""
"","1428","audio-keyboard-response","305","773896","0.0-3.0-1.246","../audio/16-2-fem.mp3"," ","","nunca","","","",""
"","1411","audio-keyboard-response","306","775628","0.0-3.0-1.247","../audio/16-3-fem.mp3"," ","","conheci","","","",""
"","1048","audio-keyboard-response","307","776997","0.0-3.0-1.248","../audio/16-4-fem.mp3"," ","","um","","","",""
"","1559","audio-keyboard-response","308","778896","0.0-3.0-1.249","../audio/16-5-fem.mp3"," ","","general","","","",""
"","871","audio-keyboard-response","309","780085","0.0-3.0-1.250","../audio/16-6-fem.mp3"," ","","do","","","",""
"","2618","audio-keyboard-response","310","783034","0.0-3.0-1.251","../audio/16-7-fem.mp3"," ","","exército.","","","",""
"","null","html-keyboard-response","311","784304","0.0-3.0-0.252-0.252","<span style= ""font-size:30px; font-family: monospace"">+</span>","null","fixation","","","","",""
"","1550","audio-keyboard-response","312","786157","0.0-3.0-1.252","../audio/17-1-fem.mp3"," ","","Falaram","","","",""
"","1051","audio-keyboard-response","313","787489","0.0-3.0-1.253","../audio/17-2-fem.mp3"," ","","da","","","",""
"","1222","audio-keyboard-response","314","789015","0.0-3.0-1.254","../audio/17-3-fem.mp3"," ","","lei","","","",""
"","1071","audio-keyboard-response","315","790379","0.0-3.0-1.255","../audio/17-4-fem.mp3"," ","","no","","","",""
"","1620","audio-keyboard-response","316","792304","0.0-3.0-1.256","../audio/17-5-fem.mp3"," ","","ministério","","","",""
"","1329","audio-keyboard-response","317","793929","0.0-3.0-1.257","../audio/17-6-fem.mp3"," ","","diversas","","","",""
"","1109","audio-keyboard-response","318","795329","0.0-3.0-1.258","../audio/17-7-fem.mp3"," ","","vezes.","","","",""
"","null","html-keyboard-response","319","796589","0.0-3.0-0.259-0.259","<span style= ""font-size:30px; font-family: monospace"">+</span>","null","fixation","","","","",""
"","1030","audio-keyboard-response","320","797911","0.0-3.0-1.259","../audio/20-1-fem.mp3"," ","","O","","","",""
"","1350","audio-keyboard-response","321","799560","0.0-3.0-1.260","../audio/20-2-fem.mp3"," ","","colega","","","",""
"","1512","audio-keyboard-response","322","801358","0.0-3.0-1.261","../audio/20-3-fem.mp3"," ","","parecia","","","",""
"","1730","audio-keyboard-response","323","803394","0.0-3.0-1.262","../audio/20-4-fem.mp3"," ","","muito","","","",""
"","1701","audio-keyboard-response","324","805394","0.0-3.0-1.263","../audio/20-5-fem.mp3"," ","","gripado","","","",""
"","1088","audio-keyboard-response","325","806788","0.0-3.0-1.264","../audio/20-6-fem.mp3"," ","","no","","","",""
"","1120","audio-keyboard-response","326","808207","0.0-3.0-1.265","../audio/20-7-fem.mp3"," ","","dia","","","",""
"","2601","audio-keyboard-response","327","811124","0.0-3.0-1.266","../audio/20-8-fem.mp3"," ","","anterior.","","","",""
"","10224","html-keyboard-response","328","821608","0.0-3.0-2.266-0.266","<span style=""font-size:25px; font-family: monospace"">O colega parecia muito gripado?</span>","s","","","O colega parecia muito gripado?","null","exp-sent","false"
"","null","html-keyboard-response","329","823115","0.0-3.0-0.267-0.267","<span style= ""font-size:30px; font-family: monospace"">+</span>","null","fixation","","","","",""
"","3431","audio-keyboard-response","330","826860","0.0-3.0-1.267","../audio/23-1-fem.mp3"," ","","Português","","","",""
"","1300","audio-keyboard-response","331","828454","0.0-3.0-1.268","../audio/23-2-fem.mp3"," ","","é","","","",""
"","1280","audio-keyboard-response","332","830017","0.0-3.0-1.269","../audio/23-3-fem.mp3"," ","","um","","","",""
"","1788","audio-keyboard-response","333","832106","0.0-3.0-1.270","../audio/23-4-fem.mp3"," ","","assunto","","","",""
"","1820","audio-keyboard-response","334","834234","0.0-3.0-1.271","../audio/23-5-fem.mp3"," ","","elementar","","","",""
"","1300","audio-keyboard-response","335","835844","0.0-3.0-1.272","../audio/23-6-fem.mp3"," ","","para","","","",""
"","1100","audio-keyboard-response","336","837247","0.0-3.0-1.273","../audio/23-7-fem.mp3"," ","","os","","","",""
"","2331","audio-keyboard-response","337","839868","0.0-3.0-1.274","../audio/23-8-fem.mp3"," ","","alunos.","","","",""
"","null","html-keyboard-response","338","841129","0.0-3.0-0.275-0.275","<span style= ""font-size:30px; font-family: monospace"">+</span>","null","fixation","","","","",""
"","1509","audio-keyboard-response","339","843006","0.0-3.0-1.275","../audio/21-1-fem.mp3"," ","","Precisamos","","","",""
"","1010","audio-keyboard-response","340","844343","0.0-3.0-1.276","../audio/21-2-fem.mp3"," ","","de","","","",""
"","1872","audio-keyboard-response","341","846547","0.0-3.0-1.277","../audio/21-3-fem.mp3"," ","","paciência","","","",""
"","1080","audio-keyboard-response","342","847990","0.0-3.0-1.278","../audio/21-4-fem.mp3"," ","","e","","","",""
"","1620","audio-keyboard-response","343","849941","0.0-3.0-1.279","../audio/21-5-fem.mp3"," ","","bondade","","","",""
"","1170","audio-keyboard-response","344","851437","0.0-3.0-1.280","../audio/21-6-fem.mp3"," ","","para","","","",""
"","1059","audio-keyboard-response","345","852814","0.0-3.0-1.281","../audio/21-7-fem.mp3"," ","","um","","","",""
"","1321","audio-keyboard-response","346","854466","0.0-3.0-1.282","../audio/21-8-fem.mp3"," ","","mundo","","","",""
"","1591","audio-keyboard-response","347","856387","0.0-3.0-1.283","../audio/21-9-fem.mp3"," ","","melhor.","","","",""
"","null","html-keyboard-response","348","857670","0.0-3.0-0.284-0.284","<span style= ""font-size:30px; font-family: monospace"">+</span>","null","fixation","","","","",""
"","1329","audio-keyboard-response","349","859333","0.0-3.0-1.284","../audio/24-1-masc.mp3"," ","","As","","","",""
"","1231","audio-keyboard-response","350","860878","0.0-3.0-1.285","../audio/24-2-masc.mp3"," ","","crianças","","","",""
"","1170","audio-keyboard-response","351","862368","0.0-3.0-1.286","../audio/24-3-masc.mp3"," ","","vão","","","",""
"","1222","audio-keyboard-response","352","863899","0.0-3.0-1.287","../audio/24-4-masc.mp3"," ","","ao","","","",""
"","1361","audio-keyboard-response","353","865567","0.0-3.0-1.288","../audio/24-5-masc.mp3"," ","","cinema","","","",""
"","1199","audio-keyboard-response","354","867083","0.0-3.0-1.289","../audio/24-6-masc.mp3"," ","","mais","","","",""
"","1869","audio-keyboard-response","355","869264","0.0-3.0-1.290","../audio/24-7-masc.mp3"," ","","tarde.","","","",""
"","null","html-keyboard-response","356","870532","0.0-3.0-0.291-0.291","<span style= ""font-size:30px; font-family: monospace"">+</span>","null","fixation","","","","",""
"","1120","audio-keyboard-response","357","871950","0.0-3.0-1.291","../audio/22-1-masc.mp3"," ","","Eu","","","",""
"","1422","audio-keyboard-response","358","873667","0.0-3.0-1.292","../audio/22-2-masc.mp3"," ","","detesto","","","",""
"","1379","audio-keyboard-response","359","875355","0.0-3.0-1.293","../audio/22-3-masc.mp3"," ","","fumaça","","","",""
"","1051","audio-keyboard-response","360","876697","0.0-3.0-1.294","../audio/22-4-masc.mp3"," ","","de","","","",""
"","1379","audio-keyboard-response","361","878368","0.0-3.0-1.295","../audio/22-5-masc.mp3"," ","","cachimbo","","","",""
"","952","audio-keyboard-response","362","879624","0.0-3.0-1.296","../audio/22-6-masc.mp3"," ","","e","","","",""
"","1051","audio-keyboard-response","363","880968","0.0-3.0-1.297","../audio/22-7-masc.mp3"," ","","de","","","",""
"","1898","audio-keyboard-response","364","883166","0.0-3.0-1.298","../audio/22-8-masc.mp3"," ","","cigarro.","","","",""
"","null","html-keyboard-response","365","884440","0.0-3.0-0.299-0.299","<span style= ""font-size:30px; font-family: monospace"">+</span>","null","fixation","","","","",""
"","1109","audio-keyboard-response","366","885882","0.0-3.0-1.299","../audio/25-1-masc.mp3"," ","","Ela","","","",""
"","1059","audio-keyboard-response","367","887260","0.0-3.0-1.300","../audio/25-2-masc.mp3"," ","","faz","","","",""
"","1219","audio-keyboard-response","368","888801","0.0-3.0-1.301","../audio/25-3-masc.mp3"," ","","tanto","","","",""
"","1158","audio-keyboard-response","369","890285","0.0-3.0-1.302","../audio/25-4-masc.mp3"," ","","cabelo","","","",""
"","1068","audio-keyboard-response","370","891670","0.0-3.0-1.303","../audio/25-5-masc.mp3"," ","","liso","","","",""
"","1080","audio-keyboard-response","371","893063","0.0-3.0-1.304","../audio/25-6-masc.mp3"," ","","quanto","","","",""
"","2601","audio-keyboard-response","372","895997","0.0-3.0-1.305","../audio/25-7-masc.mp3"," ","","cacheado.","","","",""
"","14608","html-keyboard-response","373","910873","0.0-3.0-2.305-0.305","<span style=""font-size:25px; font-family: monospace"">Ela só faz cabelo cacheado?</span>","s","","","Ela só faz cabelo cacheado?","null","exp-sent","false"
"","null","html-keyboard-response","374","912394","0.0-3.0-0.306-0.306","<span style= ""font-size:30px; font-family: monospace"">+</span>","null","fixation","","","","",""
"","1741","audio-keyboard-response","375","914498","0.0-3.0-1.306","../audio/61-1-masc.mp3"," ","","Aquele","","","",""
"","2029","audio-keyboard-response","376","916875","0.0-3.0-1.307","../audio/61-2-masc.mp3"," ","","senhor","","","",""
"","1071","audio-keyboard-response","377","918271","0.0-3.0-1.308","../audio/61-3-masc.mp3"," ","","é","","","",""
"","1622","audio-keyboard-response","378","920217","0.0-3.0-1.309","../audio/61-4-masc.mp3"," ","","muito","","","",""
"","1550","audio-keyboard-response","379","922107","0.0-3.0-1.310","../audio/61-5-masc.mp3"," ","","sovina","","","",""
"","998","audio-keyboard-response","380","923423","0.0-3.0-1.311","../audio/61-6-masc.mp3"," ","","e","","","",""
"","2261","audio-keyboard-response","381","926021","0.0-3.0-1.312","../audio/61-7-masc.mp3"," ","","inflexível.","","","",""
"","null","html-keyboard-response","382","927289","0.0-3.0-0.313-0.313","<span style= ""font-size:30px; font-family: monospace"">+</span>","null","fixation","","","","",""
"","1019","audio-keyboard-response","383","928611","0.0-3.0-1.313","../audio/64-1-fem.mp3"," ","","O","","","",""
"","1059","audio-keyboard-response","384","929967","0.0-3.0-1.314","../audio/64-2-fem.mp3"," ","","dia","","","",""
"","1408","audio-keyboard-response","385","931671","0.0-3.0-1.315","../audio/64-3-fem.mp3"," ","","começou","","","",""
"","949","audio-keyboard-response","386","932898","0.0-3.0-1.316","../audio/64-4-fem.mp3"," ","","com","","","",""
"","1379","audio-keyboard-response","387","934579","0.0-3.0-1.317","../audio/64-5-fem.mp3"," ","","garoa","","","",""
"","1440","audio-keyboard-response","388","936331","0.0-3.0-1.318","../audio/64-6-fem.mp3"," ","","gelada","","","",""
"","940","audio-keyboard-response","389","937559","0.0-3.0-1.319","../audio/64-7-fem.mp3"," ","","e","","","",""
"","1431","audio-keyboard-response","390","939290","0.0-3.0-1.320","../audio/64-8-fem.mp3"," ","","leve.","","","",""
"","null","html-keyboard-response","391","940553","0.0-3.0-0.321-0.321","<span style= ""font-size:30px; font-family: monospace"">+</span>","null","fixation","","","","",""
"","1001","audio-keyboard-response","392","941855","0.0-3.0-1.321","../audio/63-1-fem.mp3"," ","","A","","","",""
"","1379","audio-keyboard-response","393","943546","0.0-3.0-1.322","../audio/63-2-fem.mp3"," ","","chuva","","","",""
"","1292","audio-keyboard-response","394","945130","0.0-3.0-1.323","../audio/63-3-fem.mp3"," ","","entrou","","","",""
"","1010","audio-keyboard-response","395","946422","0.0-3.0-1.324","../audio/63-4-fem.mp3"," ","","pela","","","",""
"","1530","audio-keyboard-response","396","948238","0.0-3.0-1.325","../audio/63-5-fem.mp3"," ","","abertura","","","",""
"","1248","audio-keyboard-response","397","949773","0.0-3.0-1.326","../audio/63-6-fem.mp3"," ","","na","","","",""
"","1860","audio-keyboard-response","398","951949","0.0-3.0-1.327","../audio/63-7-fem.mp3"," ","","janela.","","","",""
"","null","html-keyboard-response","399","953228","0.0-3.0-0.328-0.328","<span style= ""font-size:30px; font-family: monospace"">+</span>","null","fixation","","","","",""
"","1190","audio-keyboard-response","400","954725","0.0-3.0-1.328","../audio/62-1-fem.mp3"," ","","As","","","",""
"","1640","audio-keyboard-response","401","956687","0.0-3.0-1.329","../audio/62-2-fem.mp3"," ","","artesãs","","","",""
"","1228","audio-keyboard-response","402","958216","0.0-3.0-1.330","../audio/62-3-fem.mp3"," ","","gostam","","","",""
"","1109","audio-keyboard-response","403","959624","0.0-3.0-1.331","../audio/62-4-fem.mp3"," ","","de","","","",""
"","1602","audio-keyboard-response","404","961538","0.0-3.0-1.332","../audio/62-5-fem.mp3"," ","","maquiagem","","","",""
"","1117","audio-keyboard-response","405","962954","0.0-3.0-1.333","../audio/62-6-fem.mp3"," ","","e","","","",""
"","1149","audio-keyboard-response","406","964417","0.0-3.0-1.334","../audio/62-7-fem.mp3"," ","","de","","","",""
"","2662","audio-keyboard-response","407","967384","0.0-3.0-1.335","../audio/62-8-fem.mp3"," ","","crochê.","","","",""
"","null","html-keyboard-response","408","968653","0.0-3.0-0.336-0.336","<span style= ""font-size:30px; font-family: monospace"">+</span>","null","fixation","","","","",""
"","1161","audio-keyboard-response","409","970219","0.0-3.0-1.336","../audio/65-1-masc.mp3"," ","","O","","","",""
"","1312","audio-keyboard-response","410","971856","0.0-3.0-1.337","../audio/65-2-masc.mp3"," ","","fantasma","","","",""
"","1080","audio-keyboard-response","411","973277","0.0-3.0-1.338","../audio/65-3-masc.mp3"," ","","veio","","","",""
"","952","audio-keyboard-response","412","974543","0.0-3.0-1.339","../audio/65-4-masc.mp3"," ","","da","","","",""
"","1808","audio-keyboard-response","413","976675","0.0-3.0-1.340","../audio/65-5-masc.mp3"," ","","escuridão","","","",""
"","1010","audio-keyboard-response","414","978027","0.0-3.0-1.341","../audio/65-6-masc.mp3"," ","","do","","","",""
"","1831","audio-keyboard-response","415","980184","0.0-3.0-1.342","../audio/65-7-masc.mp3"," ","","armário.","","","",""
"","115848","html-keyboard-response","416","1096284","0.0-3.0-2.342-0.342","<span style=""font-size:25px; font-family: monospace"">O fantasma veio da escuridão do armário?</span>","s","","","O fantasma veio da escuridão do armário?","null","exp-sent","false"
"","null","html-keyboard-response","417","1097789","0.0-3.0-0.343-0.343","<span style= ""font-size:30px; font-family: monospace"">+</span>","null","fixation","","","","",""
"","2281","audio-keyboard-response","418","1100370","0.0-3.0-1.343","../audio/33-1-masc.mp3"," ","","Eles","","","",""
"","1991","audio-keyboard-response","419","1102658","0.0-3.0-1.344","../audio/33-2-masc.mp3"," ","","sabem","","","",""
"","1620","audio-keyboard-response","420","1104582","0.0-3.0-1.345","../audio/33-3-masc.mp3"," ","","do","","","",""
"","1620","audio-keyboard-response","421","1106498","0.0-3.0-1.346","../audio/33-4-masc.mp3"," ","","seu","","","",""
"","1829","audio-keyboard-response","422","1108638","0.0-3.0-1.347","../audio/33-5-masc.mp3"," ","","privilégio","","","",""
"","1669","audio-keyboard-response","423","1110617","0.0-3.0-1.348","../audio/33-6-masc.mp3"," ","","nessa","","","",""
"","2122","audio-keyboard-response","424","1113037","0.0-3.0-1.349","../audio/33-7-masc.mp3"," ","","confusão.","","","",""
"","null","html-keyboard-response","425","1114305","0.0-3.0-0.350-0.350","<span style= ""font-size:30px; font-family: monospace"">+</span>","null","fixation","","","","",""
"","2409","audio-keyboard-response","426","1117009","0.0-3.0-1.350","../audio/32-1-fem.mp3"," ","","A","","","",""
"","1390","audio-keyboard-response","427","1118701","0.0-3.0-1.351","../audio/32-2-fem.mp3"," ","","tia","","","",""
"","1358","audio-keyboard-response","428","1120366","0.0-3.0-1.352","../audio/32-3-fem.mp3"," ","","comprou","","","",""
"","1149","audio-keyboard-response","429","1121801","0.0-3.0-1.353","../audio/32-4-fem.mp3"," ","","um","","","",""
"","1588","audio-keyboard-response","430","1123691","0.0-3.0-1.354","../audio/32-5-fem.mp3"," ","","pilão","","","",""
"","1158","audio-keyboard-response","431","1125148","0.0-3.0-1.355","../audio/32-6-fem.mp3"," ","","para","","","",""
"","981","audio-keyboard-response","432","1126424","0.0-3.0-1.356","../audio/32-7-fem.mp3"," ","","a","","","",""
"","2249","audio-keyboard-response","433","1128977","0.0-3.0-1.357","../audio/32-8-fem.mp3"," ","","cozinha.","","","",""
"","null","html-keyboard-response","434","1130247","0.0-3.0-0.358-0.358","<span style= ""font-size:30px; font-family: monospace"">+</span>","null","fixation","","","","",""
"","1980","audio-keyboard-response","435","1132545","0.0-3.0-1.358","../audio/34-1-fem.mp3"," ","","Cobrança","","","",""
"","1980","audio-keyboard-response","436","1134835","0.0-3.0-1.359","../audio/34-2-fem.mp3"," ","","excessiva","","","",""
"","1660","audio-keyboard-response","437","1136796","0.0-3.0-1.360","../audio/34-3-fem.mp3"," ","","é","","","",""
"","1239","audio-keyboard-response","438","1138324","0.0-3.0-1.361","../audio/34-4-fem.mp3"," ","","um","","","",""
"","1318","audio-keyboard-response","439","1139948","0.0-3.0-1.362","../audio/34-5-fem.mp3"," ","","fardo","","","",""
"","1141","audio-keyboard-response","440","1141395","0.0-3.0-1.363","../audio/34-6-fem.mp3"," ","","para","","","",""
"","1100","audio-keyboard-response","441","1142794","0.0-3.0-1.364","../audio/34-7-fem.mp3"," ","","a","","","",""
"","1660","audio-keyboard-response","442","1144751","0.0-3.0-1.365","../audio/34-8-fem.mp3"," ","","cabeça.","","","",""
"","null","html-keyboard-response","443","1146024","0.0-3.0-0.366-0.366","<span style= ""font-size:30px; font-family: monospace"">+</span>","null","fixation","","","","",""
"","1170","audio-keyboard-response","444","1147496","0.0-3.0-1.366","../audio/31-1-fem.mp3"," ","","O","","","",""
"","1649","audio-keyboard-response","445","1149441","0.0-3.0-1.367","../audio/31-2-fem.mp3"," ","","padeiro","","","",""
"","2871","audio-keyboard-response","446","1152601","0.0-3.0-1.368","../audio/31-3-fem.mp3"," ","","usou","","","",""
"","1599","audio-keyboard-response","447","1154479","0.0-3.0-1.369","../audio/31-4-fem.mp3"," ","","a","","","",""
"","1840","audio-keyboard-response","448","1156615","0.0-3.0-1.370","../audio/31-5-fem.mp3"," ","","balança","","","",""
"","1138","audio-keyboard-response","449","1158050","0.0-3.0-1.371","../audio/31-6-fem.mp3"," ","","o","","","",""
"","1402","audio-keyboard-response","450","1159747","0.0-3.0-1.372","../audio/31-7-fem.mp3"," ","","dia","","","",""
"","2778","audio-keyboard-response","451","1162831","0.0-3.0-1.373","../audio/31-8-fem.mp3"," ","","inteiro.","","","",""
"","null","html-keyboard-response","452","1164099","0.0-3.0-0.374-0.374","<span style= ""font-size:30px; font-family: monospace"">+</span>","null","fixation","","","","",""
"","1109","audio-keyboard-response","453","1165520","0.0-3.0-1.374","../audio/35-1-fem.mp3"," ","","A","","","",""
"","1521","audio-keyboard-response","454","1167337","0.0-3.0-1.375","../audio/35-2-fem.mp3"," ","","receita","","","",""
"","1091","audio-keyboard-response","455","1168722","0.0-3.0-1.376","../audio/35-3-fem.mp3"," ","","para","","","",""
"","961","audio-keyboard-response","456","1169962","0.0-3.0-1.377","../audio/35-4-fem.mp3"," ","","a","","","",""
"","1779","audio-keyboard-response","457","1172048","0.0-3.0-1.378","../audio/35-5-fem.mp3"," ","","preparação","","","",""
"","961","audio-keyboard-response","458","1173299","0.0-3.0-1.379","../audio/35-6-fem.mp3"," ","","do","","","",""
"","1219","audio-keyboard-response","459","1174821","0.0-3.0-1.380","../audio/35-7-fem.mp3"," ","","bolo","","","",""
"","859","audio-keyboard-response","460","1175987","0.0-3.0-1.381","../audio/35-8-fem.mp3"," ","","é","","","",""
"","1771","audio-keyboard-response","461","1178065","0.0-3.0-1.382","../audio/35-9-fem.mp3"," ","","leve.","","","",""
"","26853","html-keyboard-response","462","1205188","0.0-3.0-2.382-0.382","<span style=""font-size:25px; font-family: monospace"">A receita do bolo é pesada?</span>","n","","","A receita do bolo é pesada?","null","exp-sent","false"
"","null","html-keyboard-response","463","1206714","0.0-3.0-0.383-0.383","<span style= ""font-size:30px; font-family: monospace"">+</span>","null","fixation","","","","",""
"","1701","audio-keyboard-response","464","1208745","0.0-3.0-1.383","../audio/71-1-masc.mp3"," ","","Minhas","","","",""
"","1741","audio-keyboard-response","465","1210785","0.0-3.0-1.384","../audio/71-2-masc.mp3"," ","","comidas","","","",""
"","1640","audio-keyboard-response","466","1212719","0.0-3.0-1.385","../audio/71-3-masc.mp3"," ","","favoritas","","","",""
"","1329","audio-keyboard-response","467","1214345","0.0-3.0-1.386","../audio/71-4-masc.mp3"," ","","são","","","",""
"","1559","audio-keyboard-response","468","1216211","0.0-3.0-1.387","../audio/71-5-masc.mp3"," ","","morango","","","",""
"","1071","audio-keyboard-response","469","1217574","0.0-3.0-1.388","../audio/71-6-masc.mp3"," ","","e","","","",""
"","1910","audio-keyboard-response","470","1219778","0.0-3.0-1.389","../audio/71-7-masc.mp3"," ","","uva.","","","",""
"","null","html-keyboard-response","471","1221041","0.0-3.0-0.390-0.390","<span style= ""font-size:30px; font-family: monospace"">+</span>","null","fixation","","","","",""
"","1431","audio-keyboard-response","472","1222779","0.0-3.0-1.390","../audio/72-1-fem.mp3"," ","","A","","","",""
"","1988","audio-keyboard-response","473","1225084","0.0-3.0-1.391","../audio/72-2-fem.mp3"," ","","vencedora","","","",""
"","1518","audio-keyboard-response","474","1226901","0.0-3.0-1.392","../audio/72-3-fem.mp3"," ","","recebeu","","","",""
"","1010","audio-keyboard-response","475","1228203","0.0-3.0-1.393","../audio/72-4-fem.mp3"," ","","um","","","",""
"","1382","audio-keyboard-response","476","1229875","0.0-3.0-1.394","../audio/72-5-fem.mp3"," ","","prêmio","","","",""
"","1239","audio-keyboard-response","477","1231417","0.0-3.0-1.395","../audio/72-6-fem.mp3"," ","","em","","","",""
"","2307","audio-keyboard-response","478","1234024","0.0-3.0-1.396","../audio/72-7-fem.mp3"," ","","dinheiro.","","","",""
"","null","html-keyboard-response","479","1235299","0.0-3.0-0.397-0.397","<span style= ""font-size:30px; font-family: monospace"">+</span>","null","fixation","","","","",""
"","1280","audio-keyboard-response","480","1236878","0.0-3.0-1.397","../audio/73-1-masc.mp3"," ","","O","","","",""
"","1669","audio-keyboard-response","481","1238837","0.0-3.0-1.398","../audio/73-2-masc.mp3"," ","","cliente","","","",""
"","1292","audio-keyboard-response","482","1240432","0.0-3.0-1.399","../audio/73-3-masc.mp3"," ","","era","","","",""
"","1030","audio-keyboard-response","483","1241763","0.0-3.0-1.400","../audio/73-4-masc.mp3"," ","","um","","","",""
"","1271","audio-keyboard-response","484","1243321","0.0-3.0-1.401","../audio/73-5-masc.mp3"," ","","homem","","","",""
"","1341","audio-keyboard-response","485","1244965","0.0-3.0-1.402","../audio/73-6-masc.mp3"," ","","muito","","","",""
"","1791","audio-keyboard-response","486","1247061","0.0-3.0-1.403","../audio/73-7-masc.mp3"," ","","educado.","","","",""
"","null","html-keyboard-response","487","1248329","0.0-3.0-0.404-0.404","<span style= ""font-size:30px; font-family: monospace"">+</span>","null","fixation","","","","",""
"","1329","audio-keyboard-response","488","1249966","0.0-3.0-1.404","../audio/74-1-fem.mp3"," ","","Este","","","",""
"","1460","audio-keyboard-response","489","1251733","0.0-3.0-1.405","../audio/74-2-fem.mp3"," ","","emprego","","","",""
"","1071","audio-keyboard-response","490","1253089","0.0-3.0-1.406","../audio/74-3-fem.mp3"," ","","é","","","",""
"","1199","audio-keyboard-response","491","1254577","0.0-3.0-1.407","../audio/74-4-fem.mp3"," ","","muito","","","",""
"","1701","audio-keyboard-response","492","1256589","0.0-3.0-1.408","../audio/74-5-fem.mp3"," ","","cansativo","","","",""
"","961","audio-keyboard-response","493","1257827","0.0-3.0-1.409","../audio/74-6-fem.mp3"," ","","a","","","",""
"","1318","audio-keyboard-response","494","1259438","0.0-3.0-1.410","../audio/74-7-fem.mp3"," ","","longo","","","",""
"","1919","audio-keyboard-response","495","1261665","0.0-3.0-1.411","../audio/74-8-fem.mp3"," ","","prazo.","","","",""
"","null","html-keyboard-response","496","1262938","0.0-3.0-0.412-0.412","<span style= ""font-size:30px; font-family: monospace"">+</span>","null","fixation","","","","",""
"","1010","audio-keyboard-response","497","1264295","0.0-3.0-1.412","../audio/75-1-masc.mp3"," ","","Só","","","",""
"","1280","audio-keyboard-response","498","1265909","0.0-3.0-1.413","../audio/75-2-masc.mp3"," ","","existe","","","",""
"","1051","audio-keyboard-response","499","1267285","0.0-3.0-1.414","../audio/75-3-masc.mp3"," ","","uma","","","",""
"","1170","audio-keyboard-response","500","1268774","0.0-3.0-1.415","../audio/75-4-masc.mp3"," ","","pessoa","","","",""
"","1321","audio-keyboard-response","501","1270417","0.0-3.0-1.416","../audio/75-5-masc.mp3"," ","","canhota","","","",""
"","1158","audio-keyboard-response","502","1271899","0.0-3.0-1.417","../audio/75-6-masc.mp3"," ","","nesta","","","",""
"","2749","audio-keyboard-response","503","1274966","0.0-3.0-1.418","../audio/75-7-masc.mp3"," ","","cidade.","","","",""
"","15440","html-keyboard-response","504","1290672","0.0-3.0-2.418-0.418","<span style=""font-size:25px; font-family: monospace"">Só existe uma pessoa canhota na cidade?</span>","n","","","Só existe uma pessoa canhota na cidade?","null","exp-sent","false"
"","null","html-keyboard-response","505","1292189","0.0-3.0-0.419-0.419","<span style= ""font-size:30px; font-family: monospace"">+</span>","null","fixation","","","","",""
"","1538","audio-keyboard-response","506","1294018","0.0-3.0-1.419","../audio/41-1-fem.mp3"," ","","A","","","",""
"","1681","audio-keyboard-response","507","1296007","0.0-3.0-1.420","../audio/41-2-fem.mp3"," ","","novela","","","",""
"","1771","audio-keyboard-response","508","1298078","0.0-3.0-1.421","../audio/41-3-fem.mp3"," ","","falava","","","",""
"","1022","audio-keyboard-response","509","1299395","0.0-3.0-1.422","../audio/41-4-fem.mp3"," ","","de","","","",""
"","1628","audio-keyboard-response","510","1301326","0.0-3.0-1.423","../audio/41-5-fem.mp3"," ","","paixão","","","",""
"","1219","audio-keyboard-response","511","1302839","0.0-3.0-1.424","../audio/41-6-fem.mp3"," ","","e","","","",""
"","1721","audio-keyboard-response","512","1304867","0.0-3.0-1.425","../audio/41-7-fem.mp3"," ","","comédia.","","","",""
"","null","html-keyboard-response","513","1306134","0.0-3.0-0.426-0.426","<span style= ""font-size:30px; font-family: monospace"">+</span>","null","fixation","","","","",""
"","1080","audio-keyboard-response","514","1307509","0.0-3.0-1.426","../audio/42-1-masc.mp3"," ","","Eu","","","",""
"","961","audio-keyboard-response","515","1308767","0.0-3.0-1.427","../audio/42-2-masc.mp3"," ","","fui","","","",""
"","961","audio-keyboard-response","516","1310023","0.0-3.0-1.428","../audio/42-3-masc.mp3"," ","","a","","","",""
"","1100","audio-keyboard-response","517","1311415","0.0-3.0-1.429","../audio/42-4-masc.mp3"," ","","uma","","","",""
"","1477","audio-keyboard-response","518","1313202","0.0-3.0-1.430","../audio/42-5-masc.mp3"," ","","loja","","","",""
"","1141","audio-keyboard-response","519","1314619","0.0-3.0-1.431","../audio/42-6-masc.mp3"," ","","de","","","",""
"","1428","audio-keyboard-response","520","1316343","0.0-3.0-1.432","../audio/42-7-masc.mp3"," ","","móveis","","","",""
"","1149","audio-keyboard-response","521","1317792","0.0-3.0-1.433","../audio/42-8-masc.mp3"," ","","no","","","",""
"","2168","audio-keyboard-response","522","1320247","0.0-3.0-1.434","../audio/42-9-masc.mp3"," ","","bairro.","","","",""
"","null","html-keyboard-response","523","1321527","0.0-3.0-0.435-0.435","<span style= ""font-size:30px; font-family: monospace"">+</span>","null","fixation","","","","",""
"","1289","audio-keyboard-response","524","1323124","0.0-3.0-1.435","../audio/44-1-masc.mp3"," ","","Meus","","","",""
"","1370","audio-keyboard-response","525","1324792","0.0-3.0-1.436","../audio/44-2-masc.mp3"," ","","irmãos","","","",""
"","1297","audio-keyboard-response","526","1326386","0.0-3.0-1.437","../audio/44-3-masc.mp3"," ","","brigam","","","",""
"","1100","audio-keyboard-response","527","1327785","0.0-3.0-1.438","../audio/44-4-masc.mp3"," ","","por","","","",""
"","1248","audio-keyboard-response","528","1329340","0.0-3.0-1.439","../audio/44-5-masc.mp3"," ","","bobagem","","","",""
"","1010","audio-keyboard-response","529","1330639","0.0-3.0-1.440","../audio/44-6-masc.mp3"," ","","todos","","","",""
"","850","audio-keyboard-response","530","1331778","0.0-3.0-1.441","../audio/44-7-masc.mp3"," ","","os","","","",""
"","1120","audio-keyboard-response","531","1333205","0.0-3.0-1.442","../audio/44-8-masc.mp3"," ","","dias.","","","",""
"","null","html-keyboard-response","532","1334484","0.0-3.0-0.443-0.443","<span style= ""font-size:30px; font-family: monospace"">+</span>","null","fixation","","","","",""
"","1010","audio-keyboard-response","533","1335829","0.0-3.0-1.443","../audio/43-1-fem.mp3"," ","","Eu","","","",""
"","1411","audio-keyboard-response","534","1337558","0.0-3.0-1.444","../audio/43-2-fem.mp3"," ","","achei","","","",""
"","917","audio-keyboard-response","535","1338804","0.0-3.0-1.445","../audio/43-3-fem.mp3"," ","","um","","","",""
"","1518","audio-keyboard-response","536","1340664","0.0-3.0-1.446","../audio/43-4-fem.mp3"," ","","colchão","","","",""
"","1402","audio-keyboard-response","537","1342397","0.0-3.0-1.447","../audio/43-5-fem.mp3"," ","","velho","","","",""
"","1019","audio-keyboard-response","538","1343739","0.0-3.0-1.448","../audio/43-6-fem.mp3"," ","","e","","","",""
"","1460","audio-keyboard-response","539","1345526","0.0-3.0-1.449","../audio/43-7-fem.mp3"," ","","imundo","","","",""
"","1161","audio-keyboard-response","540","1347015","0.0-3.0-1.450","../audio/43-8-fem.mp3"," ","","na","","","",""
"","1530","audio-keyboard-response","541","1348876","0.0-3.0-1.451","../audio/43-9-fem.mp3"," ","","casa.","","","",""
"","null","html-keyboard-response","542","1350144","0.0-3.0-0.452-0.452","<span style= ""font-size:30px; font-family: monospace"">+</span>","null","fixation","","","","",""
"","1541","audio-keyboard-response","543","1351996","0.0-3.0-1.452","../audio/45-1-masc.mp3"," ","","O","","","",""
"","10809","audio-keyboard-response","544","1363094","0.0-3.0-1.453","../audio/45-2-masc.mp3"," ","","homem","","","",""
"","2151","audio-keyboard-response","545","1365556","0.0-3.0-1.454","../audio/45-3-masc.mp3"," ","","pagou","","","",""
"","1509","audio-keyboard-response","546","1367360","0.0-3.0-1.455","../audio/45-4-masc.mp3"," ","","o","","","",""
"","2418","audio-keyboard-response","547","1370084","0.0-3.0-1.456","../audio/45-5-masc.mp3"," ","","aluguel","","","",""
"","2331","audio-keyboard-response","548","1372714","0.0-3.0-1.457","../audio/45-6-masc.mp3"," ","","com","","","",""
"","1489","audio-keyboard-response","549","1374506","0.0-3.0-1.458","../audio/45-7-masc.mp3"," ","","atraso.","","","",""
"","44639","html-keyboard-response","550","1419404","0.0-3.0-2.458-0.458","<span style=""font-size:25px; font-family: monospace"">O homem pagou o aluguel em dia?</span>","n","","","O homem pagou o aluguel em dia?","null","exp-sent","false"
"","null","html-keyboard-response","551","1420934","0.0-3.0-0.459-0.459","<span style= ""font-size:30px; font-family: monospace"">+</span>","null","fixation","","","","",""
"","1611","audio-keyboard-response","552","1422861","0.0-3.0-1.459","../audio/53-1-fem.mp3"," ","","O","","","",""
"","1811","audio-keyboard-response","553","1424974","0.0-3.0-1.460","../audio/53-2-fem.mp3"," ","","médico","","","",""
"","1260","audio-keyboard-response","554","1426533","0.0-3.0-1.461","../audio/53-3-fem.mp3"," ","","foi","","","",""
"","1660","audio-keyboard-response","555","1428484","0.0-3.0-1.462","../audio/53-4-fem.mp3"," ","","bastante","","","",""
"","1611","audio-keyboard-response","556","1430404","0.0-3.0-1.463","../audio/53-5-fem.mp3"," ","","preciso","","","",""
"","1501","audio-keyboard-response","557","1432201","0.0-3.0-1.464","../audio/53-6-fem.mp3"," ","","durante","","","",""
"","1158","audio-keyboard-response","558","1433649","0.0-3.0-1.465","../audio/53-7-fem.mp3"," ","","a","","","",""
"","3152","audio-keyboard-response","559","1437071","0.0-3.0-1.466","../audio/53-8-fem.mp3"," ","","cirurgia.","","","",""
"","null","html-keyboard-response","560","1438342","0.0-3.0-0.467-0.467","<span style= ""font-size:30px; font-family: monospace"">+</span>","null","fixation","","","","",""
"","1541","audio-keyboard-response","561","1440177","0.0-3.0-1.467","../audio/54-1-fem.mp3"," ","","Estou","","","",""
"","1332","audio-keyboard-response","562","1441815","0.0-3.0-1.468","../audio/54-2-fem.mp3"," ","","com","","","",""
"","1739","audio-keyboard-response","563","1443849","0.0-3.0-1.469","../audio/54-3-fem.mp3"," ","","medo","","","",""
"","1109","audio-keyboard-response","564","1445258","0.0-3.0-1.470","../audio/54-4-fem.mp3"," ","","da","","","",""
"","1428","audio-keyboard-response","565","1446995","0.0-3.0-1.471","../audio/54-5-fem.mp3"," ","","atual","","","",""
"","2020","audio-keyboard-response","566","1449329","0.0-3.0-1.472","../audio/54-6-fem.mp3"," ","","organização","","","",""
"","1062","audio-keyboard-response","567","1450687","0.0-3.0-1.473","../audio/54-7-fem.mp3"," ","","do","","","",""
"","2342","audio-keyboard-response","568","1453334","0.0-3.0-1.474","../audio/54-8-fem.mp3"," ","","país.","","","",""
"","null","html-keyboard-response","569","1454602","0.0-3.0-0.475-0.475","<span style= ""font-size:30px; font-family: monospace"">+</span>","null","fixation","","","","",""
"","1419","audio-keyboard-response","570","1456368","0.0-3.0-1.475","../audio/52-1-fem.mp3"," ","","Às","","","",""
"","1399","audio-keyboard-response","571","1458105","0.0-3.0-1.476","../audio/52-2-fem.mp3"," ","","vezes","","","",""
"","1068","audio-keyboard-response","572","1459501","0.0-3.0-1.477","../audio/52-3-fem.mp3"," ","","eu","","","",""
"","1170","audio-keyboard-response","573","1460997","0.0-3.0-1.478","../audio/52-4-fem.mp3"," ","","tenho","","","",""
"","1892","audio-keyboard-response","574","1463209","0.0-3.0-1.479","../audio/52-5-fem.mp3"," ","","azia","","","",""
"","1370","audio-keyboard-response","575","1464922","0.0-3.0-1.480","../audio/52-6-fem.mp3"," ","","depois","","","",""
"","1100","audio-keyboard-response","576","1466338","0.0-3.0-1.481","../audio/52-7-fem.mp3"," ","","da","","","",""
"","2409","audio-keyboard-response","577","1469077","0.0-3.0-1.482","../audio/52-8-fem.mp3"," ","","janta.","","","",""
"","null","html-keyboard-response","578","1470344","0.0-3.0-0.483-0.483","<span style= ""font-size:30px; font-family: monospace"">+</span>","null","fixation","","","","",""
"","1309","audio-keyboard-response","579","1471959","0.0-3.0-1.483","../audio/51-1-masc.mp3"," ","","Suco","","","",""
"","1059","audio-keyboard-response","580","1473318","0.0-3.0-1.484","../audio/51-2-masc.mp3"," ","","de","","","",""
"","1472","audio-keyboard-response","581","1475090","0.0-3.0-1.485","../audio/51-3-masc.mp3"," ","","acerola","","","",""
"","1001","audio-keyboard-response","582","1476377","0.0-3.0-1.486","../audio/51-4-masc.mp3"," ","","é","","","",""
"","1390","audio-keyboard-response","583","1478075","0.0-3.0-1.487","../audio/51-5-masc.mp3"," ","","azedo","","","",""
"","1199","audio-keyboard-response","584","1479575","0.0-3.0-1.488","../audio/51-6-masc.mp3"," ","","e","","","",""
"","1309","audio-keyboard-response","585","1481193","0.0-3.0-1.489","../audio/51-7-masc.mp3"," ","","até","","","",""
"","2470","audio-keyboard-response","586","1483952","0.0-3.0-1.490","../audio/51-8-masc.mp3"," ","","barato.","","","",""
"","null","html-keyboard-response","587","1485222","0.0-3.0-0.491-0.491","<span style= ""font-size:30px; font-family: monospace"">+</span>","null","fixation","","","","",""
"","1178","audio-keyboard-response","588","1486739","0.0-3.0-1.491","../audio/55-1-fem.mp3"," ","","O","","","",""
"","1689","audio-keyboard-response","589","1488753","0.0-3.0-1.492","../audio/55-2-fem.mp3"," ","","insulto","","","",""
"","1451","audio-keyboard-response","590","1490564","0.0-3.0-1.493","../audio/55-3-fem.mp3"," ","","recente","","","",""
"","1312","audio-keyboard-response","591","1492207","0.0-3.0-1.494","../audio/55-4-fem.mp3"," ","","causou","","","",""
"","2009","audio-keyboard-response","592","1494553","0.0-3.0-1.495","../audio/55-5-fem.mp3"," ","","indignação","","","",""
"","929","audio-keyboard-response","593","1495813","0.0-3.0-1.496","../audio/55-6-fem.mp3"," ","","em","","","",""
"","1472","audio-keyboard-response","594","1497622","0.0-3.0-1.497","../audio/55-7-fem.mp3"," ","","todos.","","","",""
"","14910","html-keyboard-response","595","1512795","0.0-3.0-2.497-0.497","<span style=""font-size:25px; font-family: monospace"">O insulto causou calmaria?</span>","s","","","O insulto causou calmaria?","null","exp-sent","false"
"","null","html-keyboard-response","596","1514304","0.0-3.0-0.498-0.498","<span style= ""font-size:30px; font-family: monospace"">+</span>","null","fixation","","","","",""
"","1501","audio-keyboard-response","597","1516149","0.0-3.0-1.498","../audio/11-1-fem.mp3"," ","","Elas","","","",""
"","1350","audio-keyboard-response","598","1517811","0.0-3.0-1.499","../audio/11-2-fem.mp3"," ","","gostam","","","",""
"","1469","audio-keyboard-response","599","1519610","0.0-3.0-1.500","../audio/11-3-fem.mp3"," ","","muito","","","",""
"","1173","audio-keyboard-response","600","1521098","0.0-3.0-1.501","../audio/11-4-fem.mp3"," ","","de","","","",""
"","2151","audio-keyboard-response","601","1523583","0.0-3.0-1.502","../audio/11-5-fem.mp3"," ","","aritmética","","","",""
"","1080","audio-keyboard-response","602","1524991","0.0-3.0-1.503","../audio/11-6-fem.mp3"," ","","e","","","",""
"","1088","audio-keyboard-response","603","1526605","0.0-3.0-1.504","../audio/11-7-fem.mp3"," ","","de","","","",""
"","1460","audio-keyboard-response","604","1528402","0.0-3.0-1.505","../audio/11-8-fem.mp3"," ","","leitura.","","","",""
"","null","html-keyboard-response","605","1529664","0.0-3.0-0.506-0.506","<span style= ""font-size:30px; font-family: monospace"">+</span>","null","fixation","","","","",""
"","920","audio-keyboard-response","606","1530869","0.0-3.0-1.506","../audio/12-1-masc.mp3"," ","","O","","","",""
"","1088","audio-keyboard-response","607","1532249","0.0-3.0-1.507","../audio/12-2-masc.mp3"," ","","dia","","","",""
"","1309","audio-keyboard-response","608","1533853","0.0-3.0-1.508","../audio/12-3-masc.mp3"," ","","estava","","","",""
"","1181","audio-keyboard-response","609","1535317","0.0-3.0-1.509","../audio/12-4-masc.mp3"," ","","quente,","","","",""
"","1268","audio-keyboard-response","610","1536880","0.0-3.0-1.510","../audio/12-5-masc.mp3"," ","","tranquilo","","","",""
"","1080","audio-keyboard-response","611","1538238","0.0-3.0-1.511","../audio/12-6-masc.mp3"," ","","e","","","",""
"","2212","audio-keyboard-response","612","1540748","0.0-3.0-1.512","../audio/12-7-masc.mp3"," ","","ensolarado.","","","",""
"","null","html-keyboard-response","613","1542029","0.0-3.0-0.513-0.513","<span style= ""font-size:30px; font-family: monospace"">+</span>","null","fixation","","","","",""
"","1088","audio-keyboard-response","614","1543461","0.0-3.0-1.513","../audio/13-1-masc.mp3"," ","","Para","","","",""
"","1039","audio-keyboard-response","615","1544815","0.0-3.0-1.514","../audio/13-2-masc.mp3"," ","","mim","","","",""
"","1039","audio-keyboard-response","616","1546179","0.0-3.0-1.515","../audio/13-3-masc.mp3"," ","","é","","","",""
"","1219","audio-keyboard-response","617","1547717","0.0-3.0-1.516","../audio/13-4-masc.mp3"," ","","muito","","","",""
"","1422","audio-keyboard-response","618","1549445","0.0-3.0-1.517","../audio/13-5-masc.mp3"," ","","difícil","","","",""
"","1170","audio-keyboard-response","619","1550943","0.0-3.0-1.518","../audio/13-6-masc.mp3"," ","","acordar","","","",""
"","2038","audio-keyboard-response","620","1553303","0.0-3.0-1.519","../audio/13-7-masc.mp3"," ","","cedo.","","","",""
"","null","html-keyboard-response","621","1554574","0.0-3.0-0.520-0.520","<span style= ""font-size:30px; font-family: monospace"">+</span>","null","fixation","","","","",""
"","1010","audio-keyboard-response","622","1555877","0.0-3.0-1.520","../audio/14-1-masc.mp3"," ","","O","","","",""
"","1408","audio-keyboard-response","623","1557597","0.0-3.0-1.521","../audio/14-2-masc.mp3"," ","","cachorro","","","",""
"","1022","audio-keyboard-response","624","1558923","0.0-3.0-1.522","../audio/14-3-masc.mp3"," ","","é","","","",""
"","1091","audio-keyboard-response","625","1560312","0.0-3.0-1.523","../audio/14-4-masc.mp3"," ","","muito","","","",""
"","1248","audio-keyboard-response","626","1561857","0.0-3.0-1.524","../audio/14-5-masc.mp3"," ","","fiel","","","",""
"","1120","audio-keyboard-response","627","1563281","0.0-3.0-1.525","../audio/14-6-masc.mp3"," ","","a","","","",""
"","1370","audio-keyboard-response","628","1564949","0.0-3.0-1.526","../audio/14-7-masc.mp3"," ","","seus","","","",""
"","3831","audio-keyboard-response","629","1569073","0.0-3.0-1.527","../audio/14-8-masc.mp3"," ","","donos.","","","",""
"","null","html-keyboard-response","630","1570350","0.0-3.0-0.528-0.528","<span style= ""font-size:30px; font-family: monospace"">+</span>","null","fixation","","","","",""
"","1161","audio-keyboard-response","631","1571863","0.0-3.0-1.528","../audio/15-1-fem.mp3"," ","","Meu","","","",""
"","1350","audio-keyboard-response","632","1573528","0.0-3.0-1.529","../audio/15-2-fem.mp3"," ","","primo","","","",""
"","1080","audio-keyboard-response","633","1574917","0.0-3.0-1.530","../audio/15-3-fem.mp3"," ","","é","","","",""
"","981","audio-keyboard-response","634","1576221","0.0-3.0-1.531","../audio/15-4-fem.mp3"," ","","um","","","",""
"","1358","audio-keyboard-response","635","1577909","0.0-3.0-1.532","../audio/15-5-fem.mp3"," ","","grande","","","",""
"","1248","audio-keyboard-response","636","1579486","0.0-3.0-1.533","../audio/15-6-fem.mp3"," ","","vendedor","","","",""
"","900","audio-keyboard-response","637","1580717","0.0-3.0-1.534","../audio/15-7-fem.mp3"," ","","de","","","",""
"","3680","audio-keyboard-response","638","1584732","0.0-3.0-1.535","../audio/15-8-fem.mp3"," ","","carros.","","","",""
"","8846","html-keyboard-response","639","1593840","0.0-3.0-2.535-0.535","<span style=""font-size:25px; font-family: monospace"">O primo é um vendedor de carros?</span>","s","","","O primo é um vendedor de carros?","null","exp-sent","false"
"","null","html-keyboard-response","640","1595355","0.0-3.0-0.536-0.536","<span style= ""font-size:30px; font-family: monospace"">+</span>","null","fixation","","","","",""
"","1538","audio-keyboard-response","641","1597206","0.0-3.0-1.536","../audio/67-1-masc.mp3"," ","","Minha","","","",""
"","1300","audio-keyboard-response","642","1598812","0.0-3.0-1.537","../audio/67-2-masc.mp3"," ","","tia","","","",""
"","1280","audio-keyboard-response","643","1600382","0.0-3.0-1.538","../audio/67-3-masc.mp3"," ","","comprou","","","",""
"","1039","audio-keyboard-response","644","1601708","0.0-3.0-1.539","../audio/67-4-masc.mp3"," ","","um","","","",""
"","1559","audio-keyboard-response","645","1603569","0.0-3.0-1.540","../audio/67-5-masc.mp3"," ","","cordão","","","",""
"","1051","audio-keyboard-response","646","1604916","0.0-3.0-1.541","../audio/67-6-masc.mp3"," ","","para","","","",""
"","969","audio-keyboard-response","647","1606181","0.0-3.0-1.542","../audio/67-7-masc.mp3"," ","","o","","","",""
"","1721","audio-keyboard-response","648","1608192","0.0-3.0-1.543","../audio/67-8-masc.mp3"," ","","varal.","","","",""
"","null","html-keyboard-response","649","1609464","0.0-3.0-0.544-0.544","<span style= ""font-size:30px; font-family: monospace"">+</span>","null","fixation","","","","",""
"","1207","audio-keyboard-response","650","1610992","0.0-3.0-1.544","../audio/68-1-fem.mp3"," ","","Meu","","","",""
"","1219","audio-keyboard-response","651","1612514","0.0-3.0-1.545","../audio/68-2-fem.mp3"," ","","irmão","","","",""
"","1152","audio-keyboard-response","652","1613961","0.0-3.0-1.546","../audio/68-3-fem.mp3"," ","","teve","","","",""
"","990","audio-keyboard-response","653","1615249","0.0-3.0-1.547","../audio/68-4-fem.mp3"," ","","um","","","",""
"","1591","audio-keyboard-response","654","1617147","0.0-3.0-1.548","../audio/68-5-fem.mp3"," ","","noivado","","","",""
"","1382","audio-keyboard-response","655","1618828","0.0-3.0-1.549","../audio/68-6-fem.mp3"," ","","longo","","","",""
"","1202","audio-keyboard-response","656","1620316","0.0-3.0-1.550","../audio/68-7-fem.mp3"," ","","e","","","",""
"","1968","audio-keyboard-response","657","1622603","0.0-3.0-1.551","../audio/68-8-fem.mp3"," ","","maravilhoso.","","","",""
"","null","html-keyboard-response","658","1623860","0.0-3.0-0.552-0.552","<span style= ""font-size:30px; font-family: monospace"">+</span>","null","fixation","","","","",""
"","1231","audio-keyboard-response","659","1625372","0.0-3.0-1.552","../audio/66-1-fem.mp3"," ","","Não","","","",""
"","1231","audio-keyboard-response","660","1626885","0.0-3.0-1.553","../audio/66-2-fem.mp3"," ","","gosto","","","",""
"","972","audio-keyboard-response","661","1628156","0.0-3.0-1.554","../audio/66-3-fem.mp3"," ","","de","","","",""
"","1660","audio-keyboard-response","662","1630118","0.0-3.0-1.555","../audio/66-4-fem.mp3"," ","","gente","","","",""
"","1730","audio-keyboard-response","663","1632147","0.0-3.0-1.556","../audio/66-5-fem.mp3"," ","","egoísta","","","",""
"","1190","audio-keyboard-response","664","1633639","0.0-3.0-1.557","../audio/66-6-fem.mp3"," ","","nem","","","",""
"","1660","audio-keyboard-response","665","1635591","0.0-3.0-1.558","../audio/66-7-fem.mp3"," ","","chata.","","","",""
"","null","html-keyboard-response","666","1636864","0.0-3.0-0.559-0.559","<span style= ""font-size:30px; font-family: monospace"">+</span>","null","fixation","","","","",""
"","1309","audio-keyboard-response","667","1638474","0.0-3.0-1.559","../audio/69-1-masc.mp3"," ","","A","","","",""
"","1300","audio-keyboard-response","668","1640066","0.0-3.0-1.560","../audio/69-2-masc.mp3"," ","","loja","","","",""
"","1309","audio-keyboard-response","669","1641680","0.0-3.0-1.561","../audio/69-3-masc.mp3"," ","","recebeu","","","",""
"","1091","audio-keyboard-response","670","1643074","0.0-3.0-1.562","../audio/69-4-masc.mp3"," ","","uma","","","",""
"","1521","audio-keyboard-response","671","1644897","0.0-3.0-1.563","../audio/69-5-masc.mp3"," ","","poltrona","","","",""
"","900","audio-keyboard-response","672","1646096","0.0-3.0-1.564","../audio/69-6-masc.mp3"," ","","de","","","",""
"","1152","audio-keyboard-response","673","1647547","0.0-3.0-1.565","../audio/69-7-masc.mp3"," ","","couro","","","",""
"","2052","audio-keyboard-response","674","1649895","0.0-3.0-1.566","../audio/69-8-masc.mp3"," ","","preto.","","","",""
"","null","html-keyboard-response","675","1651164","0.0-3.0-0.567-0.567","<span style= ""font-size:30px; font-family: monospace"">+</span>","null","fixation","","","","",""
"","1538","audio-keyboard-response","676","1653056","0.0-3.0-1.567","../audio/70-1-fem.mp3"," ","","O","","","",""
"","1048","audio-keyboard-response","677","1654438","0.0-3.0-1.568","../audio/70-2-fem.mp3"," ","","meu","","","",""
"","1149","audio-keyboard-response","678","1655902","0.0-3.0-1.569","../audio/70-3-fem.mp3"," ","","filho","","","",""
"","978","audio-keyboard-response","679","1657199","0.0-3.0-1.570","../audio/70-4-fem.mp3"," ","","tem","","","",""
"","1312","audio-keyboard-response","680","1658836","0.0-3.0-1.571","../audio/70-5-fem.mp3"," ","","medo","","","",""
"","998","audio-keyboard-response","681","1660165","0.0-3.0-1.572","../audio/70-6-fem.mp3"," ","","de","","","",""
"","1640","audio-keyboard-response","682","1662131","0.0-3.0-1.573","../audio/70-7-fem.mp3"," ","","enguia","","","",""
"","1059","audio-keyboard-response","683","1663507","0.0-3.0-1.574","../audio/70-8-fem.mp3"," ","","e","","","",""
"","3910","audio-keyboard-response","684","1667753","0.0-3.0-1.575","../audio/70-9-fem.mp3"," ","","beija-flor.","","","",""
"","11256","html-keyboard-response","685","1679261","0.0-3.0-2.575-0.575","<span style=""font-size:25px; font-family: monospace"">O filho tem medo de tigre?</span>","s","","","O filho tem medo de tigre?","null","exp-sent","false"
"","null","html-keyboard-response","686","1680784","0.0-3.0-0.576-0.576","<span style= ""font-size:30px; font-family: monospace"">+</span>","null","fixation","","","","",""
"","2511","audio-keyboard-response","687","1683647","0.0-3.0-1.576","../audio/27-1-masc.mp3"," ","","O","","","",""
"","1869","audio-keyboard-response","688","1685867","0.0-3.0-1.577","../audio/27-2-masc.mp3"," ","","dinheiro","","","",""
"","1370","audio-keyboard-response","689","1687569","0.0-3.0-1.578","../audio/27-3-masc.mp3"," ","","chegou","","","",""
"","1100","audio-keyboard-response","690","1688992","0.0-3.0-1.579","../audio/27-4-masc.mp3"," ","","à","","","",""
"","1428","audio-keyboard-response","691","1690751","0.0-3.0-1.580","../audio/27-5-masc.mp3"," ","","elite","","","",""
"","1268","audio-keyboard-response","692","1692347","0.0-3.0-1.581","../audio/27-6-masc.mp3"," ","","deste","","","",""
"","2099","audio-keyboard-response","693","1694772","0.0-3.0-1.582","../audio/27-7-masc.mp3"," ","","país.","","","",""
"","null","html-keyboard-response","694","1696043","0.0-3.0-0.583-0.583","<span style= ""font-size:30px; font-family: monospace"">+</span>","null","fixation","","","","",""
"","990","audio-keyboard-response","695","1697376","0.0-3.0-1.583","../audio/28-1-masc.mp3"," ","","O","","","",""
"","1202","audio-keyboard-response","696","1698909","0.0-3.0-1.584","../audio/28-2-masc.mp3"," ","","time","","","",""
"","1132","audio-keyboard-response","697","1700352","0.0-3.0-1.585","../audio/28-3-masc.mp3"," ","","quer","","","",""
"","1019","audio-keyboard-response","698","1701678","0.0-3.0-1.586","../audio/28-4-masc.mp3"," ","","a","","","",""
"","1289","audio-keyboard-response","699","1703300","0.0-3.0-1.587","../audio/28-5-masc.mp3"," ","","vitória","","","",""
"","1181","audio-keyboard-response","700","1704800","0.0-3.0-1.588","../audio/28-6-masc.mp3"," ","","no","","","",""
"","1419","audio-keyboard-response","701","1706541","0.0-3.0-1.589","../audio/28-7-masc.mp3"," ","","jogo","","","",""
"","1010","audio-keyboard-response","702","1707873","0.0-3.0-1.590","../audio/28-8-masc.mp3"," ","","de","","","",""
"","1950","audio-keyboard-response","703","1710136","0.0-3.0-1.591","../audio/28-9-masc.mp3"," ","","vôlei.","","","",""
"","null","html-keyboard-response","704","1711418","0.0-3.0-0.592-0.592","<span style= ""font-size:30px; font-family: monospace"">+</span>","null","fixation","","","","",""
"","1202","audio-keyboard-response","705","1712925","0.0-3.0-1.592","../audio/29-1-masc.mp3"," ","","Hoje","","","",""
"","1219","audio-keyboard-response","706","1714447","0.0-3.0-1.593","../audio/29-2-masc.mp3"," ","","vamos","","","",""
"","1178","audio-keyboard-response","707","1715927","0.0-3.0-1.594","../audio/29-3-masc.mp3"," ","","fazer","","","",""
"","1141","audio-keyboard-response","708","1717359","0.0-3.0-1.595","../audio/29-4-masc.mp3"," ","","uma","","","",""
"","1759","audio-keyboard-response","709","1719437","0.0-3.0-1.596","../audio/29-5-masc.mp3"," ","","atividade","","","",""
"","1141","audio-keyboard-response","710","1720886","0.0-3.0-1.597","../audio/29-6-masc.mp3"," ","","sobre","","","",""
"","1321","audio-keyboard-response","711","1722503","0.0-3.0-1.598","../audio/29-7-masc.mp3"," ","","fauna","","","",""
"","2859","audio-keyboard-response","712","1726267","0.0-3.0-1.599","../audio/29-8-masc.mp3"," ","","marinha.","","","",""
"","null","html-keyboard-response","713","1727544","0.0-3.0-0.600-0.600","<span style= ""font-size:30px; font-family: monospace"">+</span>","null","fixation","","","","",""
"","1289","audio-keyboard-response","714","1729156","0.0-3.0-1.600","../audio/26-1-masc.mp3"," ","","Amanhã","","","",""
"","998","audio-keyboard-response","715","1730453","0.0-3.0-1.601","../audio/26-2-masc.mp3"," ","","temos","","","",""
"","1048","audio-keyboard-response","716","1731804","0.0-3.0-1.602","../audio/26-3-masc.mp3"," ","","festa","","","",""
"","1019","audio-keyboard-response","717","1733119","0.0-3.0-1.603","../audio/26-4-masc.mp3"," ","","na","","","",""
"","1210","audio-keyboard-response","718","1734618","0.0-3.0-1.604","../audio/26-5-masc.mp3"," ","","piscina","","","",""
"","978","audio-keyboard-response","719","1735895","0.0-3.0-1.605","../audio/26-6-masc.mp3"," ","","o","","","",""
"","1051","audio-keyboard-response","720","1737238","0.0-3.0-1.606","../audio/26-7-masc.mp3"," ","","dia","","","",""
"","1422","audio-keyboard-response","721","1738957","0.0-3.0-1.607","../audio/26-8-masc.mp3"," ","","todo.","","","",""
"","null","html-keyboard-response","722","1740238","0.0-3.0-0.608-0.608","<span style= ""font-size:30px; font-family: monospace"">+</span>","null","fixation","","","","",""
"","981","audio-keyboard-response","723","1741559","0.0-3.0-1.608","../audio/30-1-fem.mp3"," ","","O","","","",""
"","1640","audio-keyboard-response","724","1743518","0.0-3.0-1.609","../audio/30-2-fem.mp3"," ","","funcionário","","","",""
"","1411","audio-keyboard-response","725","1745253","0.0-3.0-1.610","../audio/30-3-fem.mp3"," ","","entregou","","","",""
"","1010","audio-keyboard-response","726","1746581","0.0-3.0-1.611","../audio/30-4-fem.mp3"," ","","o","","","",""
"","1562","audio-keyboard-response","727","1748472","0.0-3.0-1.612","../audio/30-5-fem.mp3"," ","","restante","","","",""
"","998","audio-keyboard-response","728","1749774","0.0-3.0-1.613","../audio/30-6-fem.mp3"," ","","do","","","",""
"","1660","audio-keyboard-response","729","1751768","0.0-3.0-1.614","../audio/30-7-fem.mp3"," ","","dinheiro.","","","",""
"","118192","html-keyboard-response","730","1870217","0.0-3.0-2.614-0.614","<span style=""font-size:25px; font-family: monospace"">O funcionário entregou o contrato?</span>","n","","","O funcionário entregou o contrato?","null","exp-sent","false"
"[{""page_index"":0,""viewing_time"":8971}]","8971","instructions","731","1879696","0.0-4.0","","","","","","","",""
