[
	{
		"view_history": [
			{
				"page_index": 0,
				"viewing_time": 81230
			},
			{
				"page_index": 1,
				"viewing_time": 10139
			}
		],
		"rt": 91370,
		"trial_type": "instructions",
		"trial_index": 0,
		"time_elapsed": 91375,
		"internal_node_id": "0.0-0.0"
	},
	{
		"rt": null,
		"stimulus": "<span style= \"font-size:30px; font-family: monospace\">+</span>",
		"response": null,
		"trial_part": "fixation",
		"trial_type": "html-keyboard-response",
		"trial_index": 1,
		"time_elapsed": 92494,
		"internal_node_id": "0.0-1.0-0.0-0.0"
	},
	{
		"rt": 6933,
		"stimulus": "<span style=\"font-size:30px; font-family: monospace\">O</span>",
		"response": " ",
		"trial": "prac-sent",
		"word": "O",
		"trial_type": "html-keyboard-response",
		"trial_index": 2,
		"time_elapsed": 99698,
		"internal_node_id": "0.0-1.0-1.0"
	},
	{
		"rt": 24364,
		"stimulus": "<span style=\"font-size:30px; font-family: monospace\">dia</span>",
		"response": " ",
		"trial": "prac-sent",
		"word": "dia",
		"trial_type": "html-keyboard-response",
		"trial_index": 3,
		"time_elapsed": 124319,
		"internal_node_id": "0.0-1.0-1.1"
	},
	{
		"rt": 11711,
		"stimulus": "<span style=\"font-size:30px; font-family: monospace\">estará</span>",
		"response": " ",
		"trial": "prac-sent",
		"word": "estará",
		"trial_type": "html-keyboard-response",
		"trial_index": 4,
		"time_elapsed": 136296,
		"internal_node_id": "0.0-1.0-1.2"
	},
	{
		"rt": 6477,
		"stimulus": "<span style=\"font-size:30px; font-family: monospace\">cheio</span>",
		"response": " ",
		"trial": "prac-sent",
		"word": "cheio",
		"trial_type": "html-keyboard-response",
		"trial_index": 5,
		"time_elapsed": 143031,
		"internal_node_id": "0.0-1.0-1.3"
	},
	{
		"rt": 6294,
		"stimulus": "<span style=\"font-size:30px; font-family: monospace\">de</span>",
		"response": " ",
		"trial": "prac-sent",
		"word": "de",
		"trial_type": "html-keyboard-response",
		"trial_index": 6,
		"time_elapsed": 149579,
		"internal_node_id": "0.0-1.0-1.4"
	},
	{
		"rt": 6072,
		"stimulus": "<span style=\"font-size:30px; font-family: monospace\">nuvens</span>",
		"response": " ",
		"trial": "prac-sent",
		"word": "nuvens",
		"trial_type": "html-keyboard-response",
		"trial_index": 7,
		"time_elapsed": 155916,
		"internal_node_id": "0.0-1.0-1.5"
	},
	{
		"rt": 9929,
		"stimulus": "<span style=\"font-size:30px; font-family: monospace\">hoje.</span>",
		"response": " ",
		"trial": "prac-sent",
		"word": "hoje.",
		"trial_type": "html-keyboard-response",
		"trial_index": 8,
		"time_elapsed": 166114,
		"internal_node_id": "0.0-1.0-1.6"
	},
	{
		"rt": null,
		"stimulus": "<span style= \"font-size:30px; font-family: monospace\">+</span>",
		"response": null,
		"trial_part": "fixation",
		"trial_type": "html-keyboard-response",
		"trial_index": 9,
		"time_elapsed": 167394,
		"internal_node_id": "0.0-1.0-0.7-0.7"
	},
	{
		"rt": 6446,
		"stimulus": "<span style=\"font-size:30px; font-family: monospace\">A</span>",
		"response": " ",
		"trial": "prac-sent",
		"word": "A",
		"trial_type": "html-keyboard-response",
		"trial_index": 10,
		"time_elapsed": 174093,
		"internal_node_id": "0.0-1.0-1.7"
	},
	{
		"rt": 11997,
		"stimulus": "<span style=\"font-size:30px; font-family: monospace\">caneca</span>",
		"response": " ",
		"trial": "prac-sent",
		"word": "caneca",
		"trial_type": "html-keyboard-response",
		"trial_index": 11,
		"time_elapsed": 186363,
		"internal_node_id": "0.0-1.0-1.8"
	},
	{
		"rt": 7368,
		"stimulus": "<span style=\"font-size:30px; font-family: monospace\">colorida</span>",
		"response": " ",
		"trial": "prac-sent",
		"word": "colorida",
		"trial_type": "html-keyboard-response",
		"trial_index": 12,
		"time_elapsed": 193993,
		"internal_node_id": "0.0-1.0-1.9"
	},
	{
		"rt": 6318,
		"stimulus": "<span style=\"font-size:30px; font-family: monospace\">caiu</span>",
		"response": " ",
		"trial": "prac-sent",
		"word": "caiu",
		"trial_type": "html-keyboard-response",
		"trial_index": 13,
		"time_elapsed": 200572,
		"internal_node_id": "0.0-1.0-1.10"
	},
	{
		"rt": 4899,
		"stimulus": "<span style=\"font-size:30px; font-family: monospace\">da</span>",
		"response": " ",
		"trial": "prac-sent",
		"word": "da",
		"trial_type": "html-keyboard-response",
		"trial_index": 14,
		"time_elapsed": 205723,
		"internal_node_id": "0.0-1.0-1.11"
	},
	{
		"rt": 5589,
		"stimulus": "<span style=\"font-size:30px; font-family: monospace\">mesa</span>",
		"response": " ",
		"trial": "prac-sent",
		"word": "mesa",
		"trial_type": "html-keyboard-response",
		"trial_index": 15,
		"time_elapsed": 211574,
		"internal_node_id": "0.0-1.0-1.12"
	},
	{
		"rt": 3104,
		"stimulus": "<span style=\"font-size:30px; font-family: monospace\">de</span>",
		"response": " ",
		"trial": "prac-sent",
		"word": "de",
		"trial_type": "html-keyboard-response",
		"trial_index": 16,
		"time_elapsed": 214930,
		"internal_node_id": "0.0-1.0-1.13"
	},
	{
		"rt": 10925,
		"stimulus": "<span style=\"font-size:30px; font-family: monospace\">jantar.</span>",
		"response": " ",
		"trial": "prac-comp",
		"word": "jantar.",
		"trial_type": "html-keyboard-response",
		"trial_index": 17,
		"time_elapsed": 226118,
		"internal_node_id": "0.0-1.0-1.14"
	},
	{
		"rt": 92817,
		"stimulus": "<span style=\"font-size:30px; font-family: monospace\">A caneca permaneceu na mesa?</span>",
		"response": "n",
		"question": "A caneca permaneceu na mesa?",
		"answer": "não",
		"trial": "prac-comp",
		"trial_type": "html-keyboard-response",
		"trial_index": 18,
		"time_elapsed": 319192,
		"internal_node_id": "0.0-1.0-2.14-0.14",
		"accuracy": false
	},
	{
		"view_history": [
			{
				"page_index": 0,
				"viewing_time": 72152
			}
		],
		"rt": 72152,
		"trial_type": "instructions",
		"trial_index": 19,
		"time_elapsed": 391847,
		"internal_node_id": "0.0-2.0"
	},
	{
		"rt": null,
		"stimulus": "<span style= \"font-size:30px; font-family: monospace\">+</span>",
		"response": null,
		"trial_part": "fixation",
		"trial_type": "html-keyboard-response",
		"trial_index": 20,
		"time_elapsed": 392964,
		"internal_node_id": "0.0-3.0-0.0-0.0"
	},
	{
		"rt": 5830,
		"stimulus": "<span style=\"font-size:30px; font-family: monospace\">O</span>",
		"response": " ",
		"trial": "exp-sent",
		"word": "O",
		"trial_type": "html-keyboard-response",
		"trial_index": 21,
		"time_elapsed": 399063,
		"internal_node_id": "0.0-3.0-1.0"
	},
	{
		"rt": 5903,
		"stimulus": "<span style=\"font-size:30px; font-family: monospace\">texto</span>",
		"response": " ",
		"trial": "exp-sent",
		"word": "texto",
		"trial_type": "html-keyboard-response",
		"trial_index": 22,
		"time_elapsed": 405228,
		"internal_node_id": "0.0-3.0-1.1"
	},
	{
		"rt": 6043,
		"stimulus": "<span style=\"font-size:30px; font-family: monospace\">trazia</span>",
		"response": " ",
		"trial": "exp-sent",
		"word": "trazia",
		"trial_type": "html-keyboard-response",
		"trial_index": 23,
		"time_elapsed": 411537,
		"internal_node_id": "0.0-3.0-1.2"
	},
	{
		"rt": 3465,
		"stimulus": "<span style=\"font-size:30px; font-family: monospace\">um</span>",
		"response": " ",
		"trial": "exp-sent",
		"word": "um",
		"trial_type": "html-keyboard-response",
		"trial_index": 24,
		"time_elapsed": 415259,
		"internal_node_id": "0.0-3.0-1.3"
	},
	{
		"rt": 14996,
		"stimulus": "<span style=\"font-size:30px; font-family: monospace\">argumento</span>",
		"response": " ",
		"trial": "exp-sent",
		"word": "argumento",
		"trial_type": "html-keyboard-response",
		"trial_index": 25,
		"time_elapsed": 430510,
		"internal_node_id": "0.0-3.0-1.4"
	},
	{
		"rt": 8781,
		"stimulus": "<span style=\"font-size:30px; font-family: monospace\">central</span>",
		"response": " ",
		"trial": "exp-sent",
		"word": "central",
		"trial_type": "html-keyboard-response",
		"trial_index": 26,
		"time_elapsed": 439545,
		"internal_node_id": "0.0-3.0-1.5"
	},
	{
		"rt": 4741,
		"stimulus": "<span style=\"font-size:30px; font-family: monospace\">para</span>",
		"response": " ",
		"trial": "exp-sent",
		"word": "para",
		"trial_type": "html-keyboard-response",
		"trial_index": 27,
		"time_elapsed": 444556,
		"internal_node_id": "0.0-3.0-1.6"
	},
	{
		"rt": 10204,
		"stimulus": "<span style=\"font-size:30px; font-family: monospace\">a</span>",
		"response": " ",
		"trial": "exp-sent",
		"word": "a",
		"trial_type": "html-keyboard-response",
		"trial_index": 28,
		"time_elapsed": 455029,
		"internal_node_id": "0.0-3.0-1.7"
	},
	{
		"rt": 7928,
		"stimulus": "<span style=\"font-size:30px; font-family: monospace\">conversa.</span>",
		"response": " ",
		"trial": "exp-sent",
		"word": "conversa.",
		"trial_type": "html-keyboard-response",
		"trial_index": 29,
		"time_elapsed": 463211,
		"internal_node_id": "0.0-3.0-1.8"
	},
	{
		"rt": null,
		"stimulus": "<span style= \"font-size:30px; font-family: monospace\">+</span>",
		"response": null,
		"trial_part": "fixation",
		"trial_type": "html-keyboard-response",
		"trial_index": 30,
		"time_elapsed": 464493,
		"internal_node_id": "0.0-3.0-0.9-0.9"
	},
	{
		"rt": 15020,
		"stimulus": "<span style=\"font-size:30px; font-family: monospace\">Ontem</span>",
		"response": " ",
		"trial": "exp-sent",
		"word": "Ontem",
		"trial_type": "html-keyboard-response",
		"trial_index": 31,
		"time_elapsed": 479774,
		"internal_node_id": "0.0-3.0-1.9"
	},
	{
		"rt": 4229,
		"stimulus": "<span style=\"font-size:30px; font-family: monospace\">a</span>",
		"response": " ",
		"trial": "exp-sent",
		"word": "a",
		"trial_type": "html-keyboard-response",
		"trial_index": 32,
		"time_elapsed": 484273,
		"internal_node_id": "0.0-3.0-1.10"
	},
	{
		"rt": 6324,
		"stimulus": "<span style=\"font-size:30px; font-family: monospace\">temperatura</span>",
		"response": " ",
		"trial": "exp-sent",
		"word": "temperatura",
		"trial_type": "html-keyboard-response",
		"trial_index": 33,
		"time_elapsed": 490869,
		"internal_node_id": "0.0-3.0-1.11"
	},
	{
		"rt": 4082,
		"stimulus": "<span style=\"font-size:30px; font-family: monospace\">estava</span>",
		"response": " ",
		"trial": "exp-sent",
		"word": "estava",
		"trial_type": "html-keyboard-response",
		"trial_index": 34,
		"time_elapsed": 495204,
		"internal_node_id": "0.0-3.0-1.12"
	},
	{
		"rt": 5173,
		"stimulus": "<span style=\"font-size:30px; font-family: monospace\">amena</span>",
		"response": " ",
		"trial": "exp-sent",
		"word": "amena",
		"trial_type": "html-keyboard-response",
		"trial_index": 35,
		"time_elapsed": 500647,
		"internal_node_id": "0.0-3.0-1.13"
	},
	{
		"rt": 2794,
		"stimulus": "<span style=\"font-size:30px; font-family: monospace\">durante</span>",
		"response": " ",
		"trial": "exp-sent",
		"word": "durante",
		"trial_type": "html-keyboard-response",
		"trial_index": 36,
		"time_elapsed": 503698,
		"internal_node_id": "0.0-3.0-1.14"
	},
	{
		"rt": 2578,
		"stimulus": "<span style=\"font-size:30px; font-family: monospace\">o</span>",
		"response": " ",
		"trial": "exp-sent",
		"word": "o",
		"trial_type": "html-keyboard-response",
		"trial_index": 37,
		"time_elapsed": 506542,
		"internal_node_id": "0.0-3.0-1.15"
	},
	{
		"rt": 4502,
		"stimulus": "<span style=\"font-size:30px; font-family: monospace\">dia.</span>",
		"response": " ",
		"trial": "exp-sent",
		"word": "dia.",
		"trial_type": "html-keyboard-response",
		"trial_index": 38,
		"time_elapsed": 511306,
		"internal_node_id": "0.0-3.0-1.16"
	},
	{
		"rt": null,
		"stimulus": "<span style= \"font-size:30px; font-family: monospace\">+</span>",
		"response": null,
		"trial_part": "fixation",
		"trial_type": "html-keyboard-response",
		"trial_index": 39,
		"time_elapsed": 512593,
		"internal_node_id": "0.0-3.0-0.17-0.17"
	},
	{
		"rt": 5819,
		"stimulus": "<span style=\"font-size:30px; font-family: monospace\">Havia</span>",
		"response": " ",
		"trial": "exp-sent",
		"word": "Havia",
		"trial_type": "html-keyboard-response",
		"trial_index": 40,
		"time_elapsed": 518684,
		"internal_node_id": "0.0-3.0-1.17"
	},
	{
		"rt": 2432,
		"stimulus": "<span style=\"font-size:30px; font-family: monospace\">um</span>",
		"response": " ",
		"trial": "exp-sent",
		"word": "um",
		"trial_type": "html-keyboard-response",
		"trial_index": 41,
		"time_elapsed": 521385,
		"internal_node_id": "0.0-3.0-1.18"
	},
	{
		"rt": 6520,
		"stimulus": "<span style=\"font-size:30px; font-family: monospace\">machucado</span>",
		"response": " ",
		"trial": "exp-sent",
		"word": "machucado",
		"trial_type": "html-keyboard-response",
		"trial_index": 42,
		"time_elapsed": 528173,
		"internal_node_id": "0.0-3.0-1.19"
	},
	{
		"rt": 2009,
		"stimulus": "<span style=\"font-size:30px; font-family: monospace\">no</span>",
		"response": " ",
		"trial": "exp-sent",
		"word": "no",
		"trial_type": "html-keyboard-response",
		"trial_index": 43,
		"time_elapsed": 530444,
		"internal_node_id": "0.0-3.0-1.20"
	},
	{
		"rt": 4643,
		"stimulus": "<span style=\"font-size:30px; font-family: monospace\">dedo</span>",
		"response": " ",
		"trial": "exp-sent",
		"word": "dedo",
		"trial_type": "html-keyboard-response",
		"trial_index": 44,
		"time_elapsed": 535347,
		"internal_node_id": "0.0-3.0-1.21"
	},
	{
		"rt": 1905,
		"stimulus": "<span style=\"font-size:30px; font-family: monospace\">da</span>",
		"response": " ",
		"trial": "exp-sent",
		"word": "da",
		"trial_type": "html-keyboard-response",
		"trial_index": 45,
		"time_elapsed": 537519,
		"internal_node_id": "0.0-3.0-1.22"
	},
	{
		"rt": 2981,
		"stimulus": "<span style=\"font-size:30px; font-family: monospace\">criança.</span>",
		"response": " ",
		"trial": "exp-sent",
		"word": "criança.",
		"trial_type": "html-keyboard-response",
		"trial_index": 46,
		"time_elapsed": 540765,
		"internal_node_id": "0.0-3.0-1.23"
	},
	{
		"rt": null,
		"stimulus": "<span style= \"font-size:30px; font-family: monospace\">+</span>",
		"response": null,
		"trial_part": "fixation",
		"trial_type": "html-keyboard-response",
		"trial_index": 47,
		"time_elapsed": 542049,
		"internal_node_id": "0.0-3.0-0.24-0.24"
	},
	{
		"rt": 5491,
		"stimulus": "<span style=\"font-size:30px; font-family: monospace\">A</span>",
		"response": " ",
		"trial": "exp-sent",
		"word": "A",
		"trial_type": "html-keyboard-response",
		"trial_index": 48,
		"time_elapsed": 547805,
		"internal_node_id": "0.0-3.0-1.24"
	},
	{
		"rt": 4444,
		"stimulus": "<span style=\"font-size:30px; font-family: monospace\">borboleta</span>",
		"response": " ",
		"trial": "exp-sent",
		"word": "borboleta",
		"trial_type": "html-keyboard-response",
		"trial_index": 49,
		"time_elapsed": 552507,
		"internal_node_id": "0.0-3.0-1.25"
	},
	{
		"rt": 3622,
		"stimulus": "<span style=\"font-size:30px; font-family: monospace\">pousou</span>",
		"response": " ",
		"trial": "exp-sent",
		"word": "pousou",
		"trial_type": "html-keyboard-response",
		"trial_index": 50,
		"time_elapsed": 556386,
		"internal_node_id": "0.0-3.0-1.26"
	},
	{
		"rt": 1929,
		"stimulus": "<span style=\"font-size:30px; font-family: monospace\">no</span>",
		"response": " ",
		"trial": "exp-sent",
		"word": "no",
		"trial_type": "html-keyboard-response",
		"trial_index": 51,
		"time_elapsed": 558573,
		"internal_node_id": "0.0-3.0-1.27"
	},
	{
		"rt": 2966,
		"stimulus": "<span style=\"font-size:30px; font-family: monospace\">ombro</span>",
		"response": " ",
		"trial": "exp-sent",
		"word": "ombro",
		"trial_type": "html-keyboard-response",
		"trial_index": 52,
		"time_elapsed": 561810,
		"internal_node_id": "0.0-3.0-1.28"
	},
	{
		"rt": 3775,
		"stimulus": "<span style=\"font-size:30px; font-family: monospace\">daquela</span>",
		"response": " ",
		"trial": "exp-sent",
		"word": "daquela",
		"trial_type": "html-keyboard-response",
		"trial_index": 53,
		"time_elapsed": 565849,
		"internal_node_id": "0.0-3.0-1.29"
	},
	{
		"rt": 3382,
		"stimulus": "<span style=\"font-size:30px; font-family: monospace\">moça.</span>",
		"response": " ",
		"trial": "exp-sent",
		"word": "moça.",
		"trial_type": "html-keyboard-response",
		"trial_index": 54,
		"time_elapsed": 569485,
		"internal_node_id": "0.0-3.0-1.30"
	},
	{
		"rt": null,
		"stimulus": "<span style= \"font-size:30px; font-family: monospace\">+</span>",
		"response": null,
		"trial_part": "fixation",
		"trial_type": "html-keyboard-response",
		"trial_index": 55,
		"time_elapsed": 570763,
		"internal_node_id": "0.0-3.0-0.31-0.31"
	},
	{
		"rt": 2964,
		"stimulus": "<span style=\"font-size:30px; font-family: monospace\">Eu</span>",
		"response": " ",
		"trial": "exp-sent",
		"word": "Eu",
		"trial_type": "html-keyboard-response",
		"trial_index": 56,
		"time_elapsed": 573998,
		"internal_node_id": "0.0-3.0-1.31"
	},
	{
		"rt": 2098,
		"stimulus": "<span style=\"font-size:30px; font-family: monospace\">quero</span>",
		"response": " ",
		"trial": "exp-sent",
		"word": "quero",
		"trial_type": "html-keyboard-response",
		"trial_index": 57,
		"time_elapsed": 576352,
		"internal_node_id": "0.0-3.0-1.32"
	},
	{
		"rt": 1815,
		"stimulus": "<span style=\"font-size:30px; font-family: monospace\">um</span>",
		"response": " ",
		"trial": "exp-sent",
		"word": "um",
		"trial_type": "html-keyboard-response",
		"trial_index": 58,
		"time_elapsed": 578419,
		"internal_node_id": "0.0-3.0-1.33"
	},
	{
		"rt": 7646,
		"stimulus": "<span style=\"font-size:30px; font-family: monospace\">namorado</span>",
		"response": " ",
		"trial": "exp-sent",
		"word": "namorado",
		"trial_type": "html-keyboard-response",
		"trial_index": 59,
		"time_elapsed": 586330,
		"internal_node_id": "0.0-3.0-1.34"
	},
	{
		"rt": 23237,
		"stimulus": "<span style=\"font-size:30px; font-family: monospace\">honesto</span>",
		"response": " ",
		"trial": "exp-sent",
		"word": "honesto",
		"trial_type": "html-keyboard-response",
		"trial_index": 60,
		"time_elapsed": 609822,
		"internal_node_id": "0.0-3.0-1.35"
	},
	{
		"rt": 2925,
		"stimulus": "<span style=\"font-size:30px; font-family: monospace\">e</span>",
		"response": " ",
		"trial": "exp-sent",
		"word": "e",
		"trial_type": "html-keyboard-response",
		"trial_index": 61,
		"time_elapsed": 613009,
		"internal_node_id": "0.0-3.0-1.36"
	},
	{
		"rt": 6037,
		"stimulus": "<span style=\"font-size:30px; font-family: monospace\">compreensivo.</span>",
		"response": " ",
		"trial": "comp",
		"word": "compreensivo.",
		"trial_type": "html-keyboard-response",
		"trial_index": 62,
		"time_elapsed": 619303,
		"internal_node_id": "0.0-3.0-1.37"
	},
	{
		"rt": 25103,
		"stimulus": "<span style=\"font-size:30px; font-family: monospace\">Eu quero um namorado honesto?</span>",
		"response": "s",
		"question": "Eu quero um namorado honesto?",
		"answer": "sim",
		"trial": "comp",
		"trial_type": "html-keyboard-response",
		"trial_index": 63,
		"time_elapsed": 644666,
		"internal_node_id": "0.0-3.0-2.37-0.37",
		"accuracy": false
	},
	{
		"rt": null,
		"stimulus": "<span style= \"font-size:30px; font-family: monospace\">+</span>",
		"response": null,
		"trial_part": "fixation",
		"trial_type": "html-keyboard-response",
		"trial_index": 64,
		"time_elapsed": 646183,
		"internal_node_id": "0.0-3.0-0.38-0.38"
	},
	{
		"rt": 6842,
		"stimulus": "<span style=\"font-size:30px; font-family: monospace\">No</span>",
		"response": " ",
		"trial": "exp-sent",
		"word": "No",
		"trial_type": "html-keyboard-response",
		"trial_index": 65,
		"time_elapsed": 653295,
		"internal_node_id": "0.0-3.0-1.38"
	},
	{
		"rt": 4468,
		"stimulus": "<span style=\"font-size:30px; font-family: monospace\">passado</span>",
		"response": " ",
		"trial": "exp-sent",
		"word": "passado",
		"trial_type": "html-keyboard-response",
		"trial_index": 66,
		"time_elapsed": 658022,
		"internal_node_id": "0.0-3.0-1.39"
	},
	{
		"rt": 3408,
		"stimulus": "<span style=\"font-size:30px; font-family: monospace\">houve</span>",
		"response": " ",
		"trial": "exp-sent",
		"word": "houve",
		"trial_type": "html-keyboard-response",
		"trial_index": 67,
		"time_elapsed": 661683,
		"internal_node_id": "0.0-3.0-1.40"
	},
	{
		"rt": 1543,
		"stimulus": "<span style=\"font-size:30px; font-family: monospace\">uma</span>",
		"response": " ",
		"trial": "exp-sent",
		"word": "uma",
		"trial_type": "html-keyboard-response",
		"trial_index": 68,
		"time_elapsed": 663487,
		"internal_node_id": "0.0-3.0-1.41"
	},
	{
		"rt": 3377,
		"stimulus": "<span style=\"font-size:30px; font-family: monospace\">rebelião</span>",
		"response": " ",
		"trial": "exp-sent",
		"word": "rebelião",
		"trial_type": "html-keyboard-response",
		"trial_index": 69,
		"time_elapsed": 667122,
		"internal_node_id": "0.0-3.0-1.42"
	},
	{
		"rt": 2134,
		"stimulus": "<span style=\"font-size:30px; font-family: monospace\">nesta</span>",
		"response": " ",
		"trial": "exp-sent",
		"word": "nesta",
		"trial_type": "html-keyboard-response",
		"trial_index": 70,
		"time_elapsed": 669508,
		"internal_node_id": "0.0-3.0-1.43"
	},
	{
		"rt": 1880,
		"stimulus": "<span style=\"font-size:30px; font-family: monospace\">cidade.</span>",
		"response": " ",
		"trial": "exp-sent",
		"word": "cidade.",
		"trial_type": "html-keyboard-response",
		"trial_index": 71,
		"time_elapsed": 671655,
		"internal_node_id": "0.0-3.0-1.44"
	},
	{
		"rt": null,
		"stimulus": "<span style= \"font-size:30px; font-family: monospace\">+</span>",
		"response": null,
		"trial_part": "fixation",
		"trial_type": "html-keyboard-response",
		"trial_index": 72,
		"time_elapsed": 672944,
		"internal_node_id": "0.0-3.0-0.45-0.45"
	},
	{
		"rt": 1866,
		"stimulus": "<span style=\"font-size:30px; font-family: monospace\">Ele</span>",
		"response": " ",
		"trial": "exp-sent",
		"word": "Ele",
		"trial_type": "html-keyboard-response",
		"trial_index": 73,
		"time_elapsed": 675070,
		"internal_node_id": "0.0-3.0-1.45"
	},
	{
		"rt": 5154,
		"stimulus": "<span style=\"font-size:30px; font-family: monospace\">fundou</span>",
		"response": " ",
		"trial": "exp-sent",
		"word": "fundou",
		"trial_type": "html-keyboard-response",
		"trial_index": 74,
		"time_elapsed": 680488,
		"internal_node_id": "0.0-3.0-1.46"
	},
	{
		"rt": 1555,
		"stimulus": "<span style=\"font-size:30px; font-family: monospace\">uma</span>",
		"response": " ",
		"trial": "exp-sent",
		"word": "uma",
		"trial_type": "html-keyboard-response",
		"trial_index": 75,
		"time_elapsed": 682309,
		"internal_node_id": "0.0-3.0-1.47"
	},
	{
		"rt": 2557,
		"stimulus": "<span style=\"font-size:30px; font-family: monospace\">empresa</span>",
		"response": " ",
		"trial": "exp-sent",
		"word": "empresa",
		"trial_type": "html-keyboard-response",
		"trial_index": 76,
		"time_elapsed": 685130,
		"internal_node_id": "0.0-3.0-1.48"
	},
	{
		"rt": 2829,
		"stimulus": "<span style=\"font-size:30px; font-family: monospace\">privada</span>",
		"response": " ",
		"trial": "exp-sent",
		"word": "privada",
		"trial_type": "html-keyboard-response",
		"trial_index": 77,
		"time_elapsed": 688214,
		"internal_node_id": "0.0-3.0-1.49"
	},
	{
		"rt": 1932,
		"stimulus": "<span style=\"font-size:30px; font-family: monospace\">sem</span>",
		"response": " ",
		"trial": "exp-sent",
		"word": "sem",
		"trial_type": "html-keyboard-response",
		"trial_index": 78,
		"time_elapsed": 690416,
		"internal_node_id": "0.0-3.0-1.50"
	},
	{
		"rt": 2283,
		"stimulus": "<span style=\"font-size:30px; font-family: monospace\">ajuda.</span>",
		"response": " ",
		"trial": "exp-sent",
		"word": "ajuda.",
		"trial_type": "html-keyboard-response",
		"trial_index": 79,
		"time_elapsed": 692959,
		"internal_node_id": "0.0-3.0-1.51"
	},
	{
		"rt": null,
		"stimulus": "<span style= \"font-size:30px; font-family: monospace\">+</span>",
		"response": null,
		"trial_part": "fixation",
		"trial_type": "html-keyboard-response",
		"trial_index": 80,
		"time_elapsed": 694224,
		"internal_node_id": "0.0-3.0-0.52-0.52"
	},
	{
		"rt": 1973,
		"stimulus": "<span style=\"font-size:30px; font-family: monospace\">As</span>",
		"response": " ",
		"trial": "exp-sent",
		"word": "As",
		"trial_type": "html-keyboard-response",
		"trial_index": 81,
		"time_elapsed": 696450,
		"internal_node_id": "0.0-3.0-1.52"
	},
	{
		"rt": 6008,
		"stimulus": "<span style=\"font-size:30px; font-family: monospace\">meninas</span>",
		"response": " ",
		"trial": "exp-sent",
		"word": "meninas",
		"trial_type": "html-keyboard-response",
		"trial_index": 82,
		"time_elapsed": 702723,
		"internal_node_id": "0.0-3.0-1.53"
	},
	{
		"rt": 2919,
		"stimulus": "<span style=\"font-size:30px; font-family: monospace\">encontraram</span>",
		"response": " ",
		"trial": "exp-sent",
		"word": "encontraram",
		"trial_type": "html-keyboard-response",
		"trial_index": 83,
		"time_elapsed": 705904,
		"internal_node_id": "0.0-3.0-1.54"
	},
	{
		"rt": 1625,
		"stimulus": "<span style=\"font-size:30px; font-family: monospace\">um</span>",
		"response": " ",
		"trial": "exp-sent",
		"word": "um",
		"trial_type": "html-keyboard-response",
		"trial_index": 84,
		"time_elapsed": 707790,
		"internal_node_id": "0.0-3.0-1.55"
	},
	{
		"rt": 4779,
		"stimulus": "<span style=\"font-size:30px; font-family: monospace\">rato</span>",
		"response": " ",
		"trial": "exp-sent",
		"word": "rato",
		"trial_type": "html-keyboard-response",
		"trial_index": 85,
		"time_elapsed": 712823,
		"internal_node_id": "0.0-3.0-1.56"
	},
	{
		"rt": 1810,
		"stimulus": "<span style=\"font-size:30px; font-family: monospace\">dentro</span>",
		"response": " ",
		"trial": "exp-sent",
		"word": "dentro",
		"trial_type": "html-keyboard-response",
		"trial_index": 86,
		"time_elapsed": 714884,
		"internal_node_id": "0.0-3.0-1.57"
	},
	{
		"rt": 1292,
		"stimulus": "<span style=\"font-size:30px; font-family: monospace\">de</span>",
		"response": " ",
		"trial": "exp-sent",
		"word": "de",
		"trial_type": "html-keyboard-response",
		"trial_index": 87,
		"time_elapsed": 716445,
		"internal_node_id": "0.0-3.0-1.58"
	},
	{
		"rt": 1934,
		"stimulus": "<span style=\"font-size:30px; font-family: monospace\">casa.</span>",
		"response": " ",
		"trial": "exp-sent",
		"word": "casa.",
		"trial_type": "html-keyboard-response",
		"trial_index": 88,
		"time_elapsed": 718637,
		"internal_node_id": "0.0-3.0-1.59"
	},
	{
		"rt": null,
		"stimulus": "<span style= \"font-size:30px; font-family: monospace\">+</span>",
		"response": null,
		"trial_part": "fixation",
		"trial_type": "html-keyboard-response",
		"trial_index": 89,
		"time_elapsed": 719913,
		"internal_node_id": "0.0-3.0-0.60-0.60"
	},
	{
		"rt": 4304,
		"stimulus": "<span style=\"font-size:30px; font-family: monospace\">O</span>",
		"response": " ",
		"trial": "exp-sent",
		"word": "O",
		"trial_type": "html-keyboard-response",
		"trial_index": 90,
		"time_elapsed": 724478,
		"internal_node_id": "0.0-3.0-1.60"
	},
	{
		"rt": 1919,
		"stimulus": "<span style=\"font-size:30px; font-family: monospace\">texto</span>",
		"response": " ",
		"trial": "exp-sent",
		"word": "texto",
		"trial_type": "html-keyboard-response",
		"trial_index": 91,
		"time_elapsed": 726663,
		"internal_node_id": "0.0-3.0-1.61"
	},
	{
		"rt": 1872,
		"stimulus": "<span style=\"font-size:30px; font-family: monospace\">tinha</span>",
		"response": " ",
		"trial": "exp-sent",
		"word": "tinha",
		"trial_type": "html-keyboard-response",
		"trial_index": 92,
		"time_elapsed": 728786,
		"internal_node_id": "0.0-3.0-1.62"
	},
	{
		"rt": 3144,
		"stimulus": "<span style=\"font-size:30px; font-family: monospace\">ideias</span>",
		"response": " ",
		"trial": "exp-sent",
		"word": "ideias",
		"trial_type": "html-keyboard-response",
		"trial_index": 93,
		"time_elapsed": 732189,
		"internal_node_id": "0.0-3.0-1.63"
	},
	{
		"rt": 2728,
		"stimulus": "<span style=\"font-size:30px; font-family: monospace\">vagas</span>",
		"response": " ",
		"trial": "exp-sent",
		"word": "vagas",
		"trial_type": "html-keyboard-response",
		"trial_index": 94,
		"time_elapsed": 735172,
		"internal_node_id": "0.0-3.0-1.64"
	},
	{
		"rt": 1903,
		"stimulus": "<span style=\"font-size:30px; font-family: monospace\">e</span>",
		"response": " ",
		"trial": "exp-sent",
		"word": "e",
		"trial_type": "html-keyboard-response",
		"trial_index": 95,
		"time_elapsed": 737337,
		"internal_node_id": "0.0-3.0-1.65"
	},
	{
		"rt": 5884,
		"stimulus": "<span style=\"font-size:30px; font-family: monospace\">confusas.</span>",
		"response": " ",
		"trial": "exp-sent",
		"word": "confusas.",
		"trial_type": "html-keyboard-response",
		"trial_index": 96,
		"time_elapsed": 743478,
		"internal_node_id": "0.0-3.0-1.66"
	},
	{
		"rt": null,
		"stimulus": "<span style= \"font-size:30px; font-family: monospace\">+</span>",
		"response": null,
		"trial_part": "fixation",
		"trial_type": "html-keyboard-response",
		"trial_index": 97,
		"time_elapsed": 744753,
		"internal_node_id": "0.0-3.0-0.67-0.67"
	},
	{
		"rt": 1437,
		"stimulus": "<span style=\"font-size:30px; font-family: monospace\">As</span>",
		"response": " ",
		"trial": "exp-sent",
		"word": "As",
		"trial_type": "html-keyboard-response",
		"trial_index": 98,
		"time_elapsed": 746462,
		"internal_node_id": "0.0-3.0-1.67"
	},
	{
		"rt": 2111,
		"stimulus": "<span style=\"font-size:30px; font-family: monospace\">crianças</span>",
		"response": " ",
		"trial": "exp-sent",
		"word": "crianças",
		"trial_type": "html-keyboard-response",
		"trial_index": 99,
		"time_elapsed": 748837,
		"internal_node_id": "0.0-3.0-1.68"
	},
	{
		"rt": 2462,
		"stimulus": "<span style=\"font-size:30px; font-family: monospace\">viram</span>",
		"response": " ",
		"trial": "exp-sent",
		"word": "viram",
		"trial_type": "html-keyboard-response",
		"trial_index": 100,
		"time_elapsed": 751558,
		"internal_node_id": "0.0-3.0-1.69"
	},
	{
		"rt": 1874,
		"stimulus": "<span style=\"font-size:30px; font-family: monospace\">a</span>",
		"response": " ",
		"trial": "exp-sent",
		"word": "a",
		"trial_type": "html-keyboard-response",
		"trial_index": 101,
		"time_elapsed": 753698,
		"internal_node_id": "0.0-3.0-1.70"
	},
	{
		"rt": 7993,
		"stimulus": "<span style=\"font-size:30px; font-family: monospace\">acrobata</span>",
		"response": " ",
		"trial": "exp-sent",
		"word": "acrobata",
		"trial_type": "html-keyboard-response",
		"trial_index": 102,
		"time_elapsed": 761947,
		"internal_node_id": "0.0-3.0-1.71"
	},
	{
		"rt": 5058,
		"stimulus": "<span style=\"font-size:30px; font-family: monospace\">talentosa</span>",
		"response": " ",
		"trial": "exp-sent",
		"word": "talentosa",
		"trial_type": "html-keyboard-response",
		"trial_index": 103,
		"time_elapsed": 767261,
		"internal_node_id": "0.0-3.0-1.72"
	},
	{
		"rt": 1389,
		"stimulus": "<span style=\"font-size:30px; font-family: monospace\">no</span>",
		"response": " ",
		"trial": "exp-sent",
		"word": "no",
		"trial_type": "html-keyboard-response",
		"trial_index": 104,
		"time_elapsed": 768903,
		"internal_node_id": "0.0-3.0-1.73"
	},
	{
		"rt": 3351,
		"stimulus": "<span style=\"font-size:30px; font-family: monospace\">circo.</span>",
		"response": " ",
		"trial": "comp",
		"word": "circo.",
		"trial_type": "html-keyboard-response",
		"trial_index": 105,
		"time_elapsed": 772527,
		"internal_node_id": "0.0-3.0-1.74"
	},
	{
		"rt": 66557,
		"stimulus": "<span style=\"font-size:30px; font-family: monospace\">As crianças viram o palhaço no circo?</span>",
		"response": "s",
		"question": "As crianças viram o palhaço no circo?",
		"answer": "não",
		"trial": "comp",
		"trial_type": "html-keyboard-response",
		"trial_index": 106,
		"time_elapsed": 839340,
		"internal_node_id": "0.0-3.0-2.74-0.74",
		"accuracy": false
	},
	{
		"rt": null,
		"stimulus": "<span style= \"font-size:30px; font-family: monospace\">+</span>",
		"response": null,
		"trial_part": "fixation",
		"trial_type": "html-keyboard-response",
		"trial_index": 107,
		"time_elapsed": 840864,
		"internal_node_id": "0.0-3.0-0.75-0.75"
	},
	{
		"rt": 4911,
		"stimulus": "<span style=\"font-size:30px; font-family: monospace\">Barulho</span>",
		"response": " ",
		"trial": "exp-sent",
		"word": "Barulho",
		"trial_type": "html-keyboard-response",
		"trial_index": 108,
		"time_elapsed": 846035,
		"internal_node_id": "0.0-3.0-1.75"
	},
	{
		"rt": 1605,
		"stimulus": "<span style=\"font-size:30px; font-family: monospace\">de</span>",
		"response": " ",
		"trial": "exp-sent",
		"word": "de",
		"trial_type": "html-keyboard-response",
		"trial_index": 109,
		"time_elapsed": 847908,
		"internal_node_id": "0.0-3.0-1.76"
	},
	{
		"rt": 2649,
		"stimulus": "<span style=\"font-size:30px; font-family: monospace\">carros</span>",
		"response": " ",
		"trial": "exp-sent",
		"word": "carros",
		"trial_type": "html-keyboard-response",
		"trial_index": 110,
		"time_elapsed": 850813,
		"internal_node_id": "0.0-3.0-1.77"
	},
	{
		"rt": 1535,
		"stimulus": "<span style=\"font-size:30px; font-family: monospace\">é</span>",
		"response": " ",
		"trial": "exp-sent",
		"word": "é",
		"trial_type": "html-keyboard-response",
		"trial_index": 111,
		"time_elapsed": 852621,
		"internal_node_id": "0.0-3.0-1.78"
	},
	{
		"rt": 7003,
		"stimulus": "<span style=\"font-size:30px; font-family: monospace\">irritante</span>",
		"response": " ",
		"trial": "exp-sent",
		"word": "irritante",
		"trial_type": "html-keyboard-response",
		"trial_index": 112,
		"time_elapsed": 859877,
		"internal_node_id": "0.0-3.0-1.79"
	},
	{
		"rt": 1630,
		"stimulus": "<span style=\"font-size:30px; font-family: monospace\">para</span>",
		"response": " ",
		"trial": "exp-sent",
		"word": "para",
		"trial_type": "html-keyboard-response",
		"trial_index": 113,
		"time_elapsed": 861774,
		"internal_node_id": "0.0-3.0-1.80"
	},
	{
		"rt": 1396,
		"stimulus": "<span style=\"font-size:30px; font-family: monospace\">a</span>",
		"response": " ",
		"trial": "exp-sent",
		"word": "a",
		"trial_type": "html-keyboard-response",
		"trial_index": 114,
		"time_elapsed": 863440,
		"internal_node_id": "0.0-3.0-1.81"
	},
	{
		"rt": 2159,
		"stimulus": "<span style=\"font-size:30px; font-family: monospace\">moça.</span>",
		"response": " ",
		"trial": "exp-sent",
		"word": "moça.",
		"trial_type": "html-keyboard-response",
		"trial_index": 115,
		"time_elapsed": 865852,
		"internal_node_id": "0.0-3.0-1.82"
	},
	{
		"rt": null,
		"stimulus": "<span style= \"font-size:30px; font-family: monospace\">+</span>",
		"response": null,
		"trial_part": "fixation",
		"trial_type": "html-keyboard-response",
		"trial_index": 116,
		"time_elapsed": 867123,
		"internal_node_id": "0.0-3.0-0.83-0.83"
	},
	{
		"rt": 1695,
		"stimulus": "<span style=\"font-size:30px; font-family: monospace\">A</span>",
		"response": " ",
		"trial": "exp-sent",
		"word": "A",
		"trial_type": "html-keyboard-response",
		"trial_index": 117,
		"time_elapsed": 869078,
		"internal_node_id": "0.0-3.0-1.83"
	},
	{
		"rt": 2605,
		"stimulus": "<span style=\"font-size:30px; font-family: monospace\">loja</span>",
		"response": " ",
		"trial": "exp-sent",
		"word": "loja",
		"trial_type": "html-keyboard-response",
		"trial_index": 118,
		"time_elapsed": 871934,
		"internal_node_id": "0.0-3.0-1.84"
	},
	{
		"rt": 2104,
		"stimulus": "<span style=\"font-size:30px; font-family: monospace\">também</span>",
		"response": " ",
		"trial": "exp-sent",
		"word": "também",
		"trial_type": "html-keyboard-response",
		"trial_index": 119,
		"time_elapsed": 874309,
		"internal_node_id": "0.0-3.0-1.85"
	},
	{
		"rt": 1811,
		"stimulus": "<span style=\"font-size:30px; font-family: monospace\">vende</span>",
		"response": " ",
		"trial": "exp-sent",
		"word": "vende",
		"trial_type": "html-keyboard-response",
		"trial_index": 120,
		"time_elapsed": 876375,
		"internal_node_id": "0.0-3.0-1.86"
	},
	{
		"rt": 7113,
		"stimulus": "<span style=\"font-size:30px; font-family: monospace\">taça</span>",
		"response": " ",
		"trial": "exp-sent",
		"word": "taça",
		"trial_type": "html-keyboard-response",
		"trial_index": 121,
		"time_elapsed": 883757,
		"internal_node_id": "0.0-3.0-1.87"
	},
	{
		"rt": 1466,
		"stimulus": "<span style=\"font-size:30px; font-family: monospace\">de</span>",
		"response": " ",
		"trial": "exp-sent",
		"word": "de",
		"trial_type": "html-keyboard-response",
		"trial_index": 122,
		"time_elapsed": 885484,
		"internal_node_id": "0.0-3.0-1.88"
	},
	{
		"rt": 9883,
		"stimulus": "<span style=\"font-size:30px; font-family: monospace\">vinho</span>",
		"response": " ",
		"trial": "exp-sent",
		"word": "vinho",
		"trial_type": "html-keyboard-response",
		"trial_index": 123,
		"time_elapsed": 895627,
		"internal_node_id": "0.0-3.0-1.89"
	},
	{
		"rt": 1662,
		"stimulus": "<span style=\"font-size:30px; font-family: monospace\">e</span>",
		"response": " ",
		"trial": "exp-sent",
		"word": "e",
		"trial_type": "html-keyboard-response",
		"trial_index": 124,
		"time_elapsed": 897546,
		"internal_node_id": "0.0-3.0-1.90"
	},
	{
		"rt": 9555,
		"stimulus": "<span style=\"font-size:30px; font-family: monospace\">espumante.</span>",
		"response": " ",
		"trial": "exp-sent",
		"word": "espumante.",
		"trial_type": "html-keyboard-response",
		"trial_index": 125,
		"time_elapsed": 907356,
		"internal_node_id": "0.0-3.0-1.91"
	},
	{
		"rt": null,
		"stimulus": "<span style= \"font-size:30px; font-family: monospace\">+</span>",
		"response": null,
		"trial_part": "fixation",
		"trial_type": "html-keyboard-response",
		"trial_index": 126,
		"time_elapsed": 908633,
		"internal_node_id": "0.0-3.0-0.92-0.92"
	},
	{
		"rt": 1697,
		"stimulus": "<span style=\"font-size:30px; font-family: monospace\">A</span>",
		"response": " ",
		"trial": "exp-sent",
		"word": "A",
		"trial_type": "html-keyboard-response",
		"trial_index": 127,
		"time_elapsed": 910593,
		"internal_node_id": "0.0-3.0-1.92"
	},
	{
		"rt": 5034,
		"stimulus": "<span style=\"font-size:30px; font-family: monospace\">bruxa</span>",
		"response": " ",
		"trial": "exp-sent",
		"word": "bruxa",
		"trial_type": "html-keyboard-response",
		"trial_index": 128,
		"time_elapsed": 915889,
		"internal_node_id": "0.0-3.0-1.93"
	},
	{
		"rt": 2398,
		"stimulus": "<span style=\"font-size:30px; font-family: monospace\">tinha</span>",
		"response": " ",
		"trial": "exp-sent",
		"word": "tinha",
		"trial_type": "html-keyboard-response",
		"trial_index": 129,
		"time_elapsed": 918542,
		"internal_node_id": "0.0-3.0-1.94"
	},
	{
		"rt": 1574,
		"stimulus": "<span style=\"font-size:30px; font-family: monospace\">uma</span>",
		"response": " ",
		"trial": "exp-sent",
		"word": "uma",
		"trial_type": "html-keyboard-response",
		"trial_index": 130,
		"time_elapsed": 920367,
		"internal_node_id": "0.0-3.0-1.95"
	},
	{
		"rt": 8666,
		"stimulus": "<span style=\"font-size:30px; font-family: monospace\">vassoura</span>",
		"response": " ",
		"trial": "exp-sent",
		"word": "vassoura",
		"trial_type": "html-keyboard-response",
		"trial_index": 131,
		"time_elapsed": 929290,
		"internal_node_id": "0.0-3.0-1.96"
	},
	{
		"rt": 1504,
		"stimulus": "<span style=\"font-size:30px; font-family: monospace\">e</span>",
		"response": " ",
		"trial": "exp-sent",
		"word": "e",
		"trial_type": "html-keyboard-response",
		"trial_index": 132,
		"time_elapsed": 931048,
		"internal_node_id": "0.0-3.0-1.97"
	},
	{
		"rt": 1655,
		"stimulus": "<span style=\"font-size:30px; font-family: monospace\">um</span>",
		"response": " ",
		"trial": "exp-sent",
		"word": "um",
		"trial_type": "html-keyboard-response",
		"trial_index": 133,
		"time_elapsed": 932959,
		"internal_node_id": "0.0-3.0-1.98"
	},
	{
		"rt": 3670,
		"stimulus": "<span style=\"font-size:30px; font-family: monospace\">gato.</span>",
		"response": " ",
		"trial": "exp-sent",
		"word": "gato.",
		"trial_type": "html-keyboard-response",
		"trial_index": 134,
		"time_elapsed": 936884,
		"internal_node_id": "0.0-3.0-1.99"
	},
	{
		"rt": null,
		"stimulus": "<span style= \"font-size:30px; font-family: monospace\">+</span>",
		"response": null,
		"trial_part": "fixation",
		"trial_type": "html-keyboard-response",
		"trial_index": 135,
		"time_elapsed": 938173,
		"internal_node_id": "0.0-3.0-0.100-0.100"
	},
	{
		"rt": 1693,
		"stimulus": "<span style=\"font-size:30px; font-family: monospace\">Eu</span>",
		"response": " ",
		"trial": "exp-sent",
		"word": "Eu",
		"trial_type": "html-keyboard-response",
		"trial_index": 136,
		"time_elapsed": 940126,
		"internal_node_id": "0.0-3.0-1.100"
	},
	{
		"rt": 1457,
		"stimulus": "<span style=\"font-size:30px; font-family: monospace\">me</span>",
		"response": " ",
		"trial": "exp-sent",
		"word": "me",
		"trial_type": "html-keyboard-response",
		"trial_index": 137,
		"time_elapsed": 941841,
		"internal_node_id": "0.0-3.0-1.101"
	},
	{
		"rt": 2316,
		"stimulus": "<span style=\"font-size:30px; font-family: monospace\">divirto</span>",
		"response": " ",
		"trial": "exp-sent",
		"word": "divirto",
		"trial_type": "html-keyboard-response",
		"trial_index": 138,
		"time_elapsed": 944421,
		"internal_node_id": "0.0-3.0-1.102"
	},
	{
		"rt": 1780,
		"stimulus": "<span style=\"font-size:30px; font-family: monospace\">em</span>",
		"response": " ",
		"trial": "exp-sent",
		"word": "em",
		"trial_type": "html-keyboard-response",
		"trial_index": 139,
		"time_elapsed": 946465,
		"internal_node_id": "0.0-3.0-1.103"
	},
	{
		"rt": 2063,
		"stimulus": "<span style=\"font-size:30px; font-family: monospace\">festas</span>",
		"response": " ",
		"trial": "exp-sent",
		"word": "festas",
		"trial_type": "html-keyboard-response",
		"trial_index": 140,
		"time_elapsed": 948797,
		"internal_node_id": "0.0-3.0-1.104"
	},
	{
		"rt": 1421,
		"stimulus": "<span style=\"font-size:30px; font-family: monospace\">de</span>",
		"response": " ",
		"trial": "exp-sent",
		"word": "de",
		"trial_type": "html-keyboard-response",
		"trial_index": 141,
		"time_elapsed": 950485,
		"internal_node_id": "0.0-3.0-1.105"
	},
	{
		"rt": 2242,
		"stimulus": "<span style=\"font-size:30px; font-family: monospace\">criança.</span>",
		"response": " ",
		"trial": "exp-sent",
		"word": "criança.",
		"trial_type": "html-keyboard-response",
		"trial_index": 142,
		"time_elapsed": 952997,
		"internal_node_id": "0.0-3.0-1.106"
	},
	{
		"rt": null,
		"stimulus": "<span style= \"font-size:30px; font-family: monospace\">+</span>",
		"response": null,
		"trial_part": "fixation",
		"trial_type": "html-keyboard-response",
		"trial_index": 143,
		"time_elapsed": 954274,
		"internal_node_id": "0.0-3.0-0.107-0.107"
	},
	{
		"rt": 1830,
		"stimulus": "<span style=\"font-size:30px; font-family: monospace\">A</span>",
		"response": " ",
		"trial": "exp-sent",
		"word": "A",
		"trial_type": "html-keyboard-response",
		"trial_index": 144,
		"time_elapsed": 956374,
		"internal_node_id": "0.0-3.0-1.107"
	},
	{
		"rt": 2161,
		"stimulus": "<span style=\"font-size:30px; font-family: monospace\">janela</span>",
		"response": " ",
		"trial": "exp-sent",
		"word": "janela",
		"trial_type": "html-keyboard-response",
		"trial_index": 145,
		"time_elapsed": 958805,
		"internal_node_id": "0.0-3.0-1.108"
	},
	{
		"rt": 3702,
		"stimulus": "<span style=\"font-size:30px; font-family: monospace\">alta</span>",
		"response": " ",
		"trial": "exp-sent",
		"word": "alta",
		"trial_type": "html-keyboard-response",
		"trial_index": 146,
		"time_elapsed": 962776,
		"internal_node_id": "0.0-3.0-1.109"
	},
	{
		"rt": 1919,
		"stimulus": "<span style=\"font-size:30px; font-family: monospace\">estava</span>",
		"response": " ",
		"trial": "exp-sent",
		"word": "estava",
		"trial_type": "html-keyboard-response",
		"trial_index": 147,
		"time_elapsed": 964963,
		"internal_node_id": "0.0-3.0-1.110"
	},
	{
		"rt": 2322,
		"stimulus": "<span style=\"font-size:30px; font-family: monospace\">quebrada</span>",
		"response": " ",
		"trial": "exp-sent",
		"word": "quebrada",
		"trial_type": "html-keyboard-response",
		"trial_index": 148,
		"time_elapsed": 967557,
		"internal_node_id": "0.0-3.0-1.111"
	},
	{
		"rt": 1779,
		"stimulus": "<span style=\"font-size:30px; font-family: monospace\">desde</span>",
		"response": " ",
		"trial": "exp-sent",
		"word": "desde",
		"trial_type": "html-keyboard-response",
		"trial_index": 149,
		"time_elapsed": 969603,
		"internal_node_id": "0.0-3.0-1.112"
	},
	{
		"rt": 2125,
		"stimulus": "<span style=\"font-size:30px; font-family: monospace\">ontem.</span>",
		"response": " ",
		"trial": "comp",
		"word": "ontem.",
		"trial_type": "html-keyboard-response",
		"trial_index": 150,
		"time_elapsed": 971979,
		"internal_node_id": "0.0-3.0-1.113"
	},
	{
		"rt": 83795,
		"stimulus": "<span style=\"font-size:30px; font-family: monospace\">A janela alta estava quebrada?</span>",
		"response": "n",
		"question": "A janela alta estava quebrada?",
		"answer": "sim",
		"trial": "comp",
		"trial_type": "html-keyboard-response",
		"trial_index": 151,
		"time_elapsed": 1056029,
		"internal_node_id": "0.0-3.0-2.113-0.113",
		"accuracy": false
	},
	{
		"rt": null,
		"stimulus": "<span style= \"font-size:30px; font-family: monospace\">+</span>",
		"response": null,
		"trial_part": "fixation",
		"trial_type": "html-keyboard-response",
		"trial_index": 152,
		"time_elapsed": 1057544,
		"internal_node_id": "0.0-3.0-0.114-0.114"
	},
	{
		"rt": 2386,
		"stimulus": "<span style=\"font-size:30px; font-family: monospace\">Ele</span>",
		"response": " ",
		"trial": "exp-sent",
		"word": "Ele",
		"trial_type": "html-keyboard-response",
		"trial_index": 153,
		"time_elapsed": 1060190,
		"internal_node_id": "0.0-3.0-1.114"
	},
	{
		"rt": 2020,
		"stimulus": "<span style=\"font-size:30px; font-family: monospace\">é</span>",
		"response": " ",
		"trial": "exp-sent",
		"word": "é",
		"trial_type": "html-keyboard-response",
		"trial_index": 154,
		"time_elapsed": 1062465,
		"internal_node_id": "0.0-3.0-1.115"
	},
	{
		"rt": 1503,
		"stimulus": "<span style=\"font-size:30px; font-family: monospace\">um</span>",
		"response": " ",
		"trial": "exp-sent",
		"word": "um",
		"trial_type": "html-keyboard-response",
		"trial_index": 155,
		"time_elapsed": 1064237,
		"internal_node_id": "0.0-3.0-1.116"
	},
	{
		"rt": 1656,
		"stimulus": "<span style=\"font-size:30px; font-family: monospace\">pai</span>",
		"response": " ",
		"trial": "exp-sent",
		"word": "pai",
		"trial_type": "html-keyboard-response",
		"trial_index": 156,
		"time_elapsed": 1066150,
		"internal_node_id": "0.0-3.0-1.117"
	},
	{
		"rt": 6466,
		"stimulus": "<span style=\"font-size:30px; font-family: monospace\">ausente</span>",
		"response": " ",
		"trial": "exp-sent",
		"word": "ausente",
		"trial_type": "html-keyboard-response",
		"trial_index": 157,
		"time_elapsed": 1072880,
		"internal_node_id": "0.0-3.0-1.118"
	},
	{
		"rt": 2461,
		"stimulus": "<span style=\"font-size:30px; font-family: monospace\">e</span>",
		"response": " ",
		"trial": "exp-sent",
		"word": "e",
		"trial_type": "html-keyboard-response",
		"trial_index": 158,
		"time_elapsed": 1075605,
		"internal_node_id": "0.0-3.0-1.119"
	},
	{
		"rt": 1827,
		"stimulus": "<span style=\"font-size:30px; font-family: monospace\">muito</span>",
		"response": " ",
		"trial": "exp-sent",
		"word": "muito",
		"trial_type": "html-keyboard-response",
		"trial_index": 159,
		"time_elapsed": 1077701,
		"internal_node_id": "0.0-3.0-1.120"
	},
	{
		"rt": 4046,
		"stimulus": "<span style=\"font-size:30px; font-family: monospace\">fofoqueiro.</span>",
		"response": " ",
		"trial": "exp-sent",
		"word": "fofoqueiro.",
		"trial_type": "html-keyboard-response",
		"trial_index": 160,
		"time_elapsed": 1082001,
		"internal_node_id": "0.0-3.0-1.121"
	},
	{
		"rt": null,
		"stimulus": "<span style= \"font-size:30px; font-family: monospace\">+</span>",
		"response": null,
		"trial_part": "fixation",
		"trial_type": "html-keyboard-response",
		"trial_index": 161,
		"time_elapsed": 1083264,
		"internal_node_id": "0.0-3.0-0.122-0.122"
	},
	{
		"rt": 2557,
		"stimulus": "<span style=\"font-size:30px; font-family: monospace\">O</span>",
		"response": " ",
		"trial": "exp-sent",
		"word": "O",
		"trial_type": "html-keyboard-response",
		"trial_index": 162,
		"time_elapsed": 1086082,
		"internal_node_id": "0.0-3.0-1.122"
	},
	{
		"rt": 1777,
		"stimulus": "<span style=\"font-size:30px; font-family: monospace\">filho</span>",
		"response": " ",
		"trial": "exp-sent",
		"word": "filho",
		"trial_type": "html-keyboard-response",
		"trial_index": 163,
		"time_elapsed": 1088112,
		"internal_node_id": "0.0-3.0-1.123"
	},
	{
		"rt": 4931,
		"stimulus": "<span style=\"font-size:30px; font-family: monospace\">lavou</span>",
		"response": " ",
		"trial": "exp-sent",
		"word": "lavou",
		"trial_type": "html-keyboard-response",
		"trial_index": 164,
		"time_elapsed": 1093296,
		"internal_node_id": "0.0-3.0-1.124"
	},
	{
		"rt": 1138,
		"stimulus": "<span style=\"font-size:30px; font-family: monospace\">a</span>",
		"response": " ",
		"trial": "exp-sent",
		"word": "a",
		"trial_type": "html-keyboard-response",
		"trial_index": 165,
		"time_elapsed": 1094704,
		"internal_node_id": "0.0-3.0-1.125"
	},
	{
		"rt": 1774,
		"stimulus": "<span style=\"font-size:30px; font-family: monospace\">roupa</span>",
		"response": " ",
		"trial": "exp-sent",
		"word": "roupa",
		"trial_type": "html-keyboard-response",
		"trial_index": 166,
		"time_elapsed": 1096728,
		"internal_node_id": "0.0-3.0-1.126"
	},
	{
		"rt": 1520,
		"stimulus": "<span style=\"font-size:30px; font-family: monospace\">sem</span>",
		"response": " ",
		"trial": "exp-sent",
		"word": "sem",
		"trial_type": "html-keyboard-response",
		"trial_index": 167,
		"time_elapsed": 1098514,
		"internal_node_id": "0.0-3.0-1.127"
	},
	{
		"rt": 2831,
		"stimulus": "<span style=\"font-size:30px; font-family: monospace\">nenhuma</span>",
		"response": " ",
		"trial": "exp-sent",
		"word": "nenhuma",
		"trial_type": "html-keyboard-response",
		"trial_index": 168,
		"time_elapsed": 1101616,
		"internal_node_id": "0.0-3.0-1.128"
	},
	{
		"rt": 2304,
		"stimulus": "<span style=\"font-size:30px; font-family: monospace\">ajuda.</span>",
		"response": " ",
		"trial": "exp-sent",
		"word": "ajuda.",
		"trial_type": "html-keyboard-response",
		"trial_index": 169,
		"time_elapsed": 1104178,
		"internal_node_id": "0.0-3.0-1.129"
	},
	{
		"rt": null,
		"stimulus": "<span style= \"font-size:30px; font-family: monospace\">+</span>",
		"response": null,
		"trial_part": "fixation",
		"trial_type": "html-keyboard-response",
		"trial_index": 170,
		"time_elapsed": 1105453,
		"internal_node_id": "0.0-3.0-0.130-0.130"
	},
	{
		"rt": 1947,
		"stimulus": "<span style=\"font-size:30px; font-family: monospace\">O</span>",
		"response": " ",
		"trial": "exp-sent",
		"word": "O",
		"trial_type": "html-keyboard-response",
		"trial_index": 171,
		"time_elapsed": 1107662,
		"internal_node_id": "0.0-3.0-1.130"
	},
	{
		"rt": 1893,
		"stimulus": "<span style=\"font-size:30px; font-family: monospace\">menino</span>",
		"response": " ",
		"trial": "exp-sent",
		"word": "menino",
		"trial_type": "html-keyboard-response",
		"trial_index": 172,
		"time_elapsed": 1109817,
		"internal_node_id": "0.0-3.0-1.131"
	},
	{
		"rt": 1936,
		"stimulus": "<span style=\"font-size:30px; font-family: monospace\">quebrou</span>",
		"response": " ",
		"trial": "exp-sent",
		"word": "quebrou",
		"trial_type": "html-keyboard-response",
		"trial_index": 173,
		"time_elapsed": 1112009,
		"internal_node_id": "0.0-3.0-1.132"
	},
	{
		"rt": 1469,
		"stimulus": "<span style=\"font-size:30px; font-family: monospace\">a</span>",
		"response": " ",
		"trial": "exp-sent",
		"word": "a",
		"trial_type": "html-keyboard-response",
		"trial_index": 174,
		"time_elapsed": 1113744,
		"internal_node_id": "0.0-3.0-1.133"
	},
	{
		"rt": 2554,
		"stimulus": "<span style=\"font-size:30px; font-family: monospace\">perna</span>",
		"response": " ",
		"trial": "exp-sent",
		"word": "perna",
		"trial_type": "html-keyboard-response",
		"trial_index": 175,
		"time_elapsed": 1116558,
		"internal_node_id": "0.0-3.0-1.134"
	},
	{
		"rt": 1287,
		"stimulus": "<span style=\"font-size:30px; font-family: monospace\">nos</span>",
		"response": " ",
		"trial": "exp-sent",
		"word": "nos",
		"trial_type": "html-keyboard-response",
		"trial_index": 176,
		"time_elapsed": 1118112,
		"internal_node_id": "0.0-3.0-1.135"
	},
	{
		"rt": 2520,
		"stimulus": "<span style=\"font-size:30px; font-family: monospace\">esportes.</span>",
		"response": " ",
		"trial": "exp-sent",
		"word": "esportes.",
		"trial_type": "html-keyboard-response",
		"trial_index": 177,
		"time_elapsed": 1120883,
		"internal_node_id": "0.0-3.0-1.136"
	},
	{
		"rt": null,
		"stimulus": "<span style= \"font-size:30px; font-family: monospace\">+</span>",
		"response": null,
		"trial_part": "fixation",
		"trial_type": "html-keyboard-response",
		"trial_index": 178,
		"time_elapsed": 1122134,
		"internal_node_id": "0.0-3.0-0.137-0.137"
	},
	{
		"rt": 1505,
		"stimulus": "<span style=\"font-size:30px; font-family: monospace\">Ela</span>",
		"response": " ",
		"trial": "exp-sent",
		"word": "Ela",
		"trial_type": "html-keyboard-response",
		"trial_index": 179,
		"time_elapsed": 1123907,
		"internal_node_id": "0.0-3.0-1.137"
	},
	{
		"rt": 2450,
		"stimulus": "<span style=\"font-size:30px; font-family: monospace\">brincou</span>",
		"response": " ",
		"trial": "exp-sent",
		"word": "brincou",
		"trial_type": "html-keyboard-response",
		"trial_index": 180,
		"time_elapsed": 1126614,
		"internal_node_id": "0.0-3.0-1.138"
	},
	{
		"rt": 1555,
		"stimulus": "<span style=\"font-size:30px; font-family: monospace\">com</span>",
		"response": " ",
		"trial": "exp-sent",
		"word": "com",
		"trial_type": "html-keyboard-response",
		"trial_index": 181,
		"time_elapsed": 1128439,
		"internal_node_id": "0.0-3.0-1.139"
	},
	{
		"rt": 1550,
		"stimulus": "<span style=\"font-size:30px; font-family: monospace\">uma</span>",
		"response": " ",
		"trial": "exp-sent",
		"word": "uma",
		"trial_type": "html-keyboard-response",
		"trial_index": 182,
		"time_elapsed": 1130253,
		"internal_node_id": "0.0-3.0-1.140"
	},
	{
		"rt": 1954,
		"stimulus": "<span style=\"font-size:30px; font-family: monospace\">menina</span>",
		"response": " ",
		"trial": "exp-sent",
		"word": "menina",
		"trial_type": "html-keyboard-response",
		"trial_index": 183,
		"time_elapsed": 1132468,
		"internal_node_id": "0.0-3.0-1.141"
	},
	{
		"rt": 1431,
		"stimulus": "<span style=\"font-size:30px; font-family: monospace\">da</span>",
		"response": " ",
		"trial": "exp-sent",
		"word": "da",
		"trial_type": "html-keyboard-response",
		"trial_index": 184,
		"time_elapsed": 1134165,
		"internal_node_id": "0.0-3.0-1.142"
	},
	{
		"rt": 2291,
		"stimulus": "<span style=\"font-size:30px; font-family: monospace\">turma.</span>",
		"response": " ",
		"trial": "exp-sent",
		"word": "turma.",
		"trial_type": "html-keyboard-response",
		"trial_index": 185,
		"time_elapsed": 1136727,
		"internal_node_id": "0.0-3.0-1.143"
	},
	{
		"rt": null,
		"stimulus": "<span style= \"font-size:30px; font-family: monospace\">+</span>",
		"response": null,
		"trial_part": "fixation",
		"trial_type": "html-keyboard-response",
		"trial_index": 186,
		"time_elapsed": 1138004,
		"internal_node_id": "0.0-3.0-0.144-0.144"
	},
	{
		"rt": 1636,
		"stimulus": "<span style=\"font-size:30px; font-family: monospace\">Ele</span>",
		"response": " ",
		"trial": "exp-sent",
		"word": "Ele",
		"trial_type": "html-keyboard-response",
		"trial_index": 187,
		"time_elapsed": 1139910,
		"internal_node_id": "0.0-3.0-1.144"
	},
	{
		"rt": 4460,
		"stimulus": "<span style=\"font-size:30px; font-family: monospace\">esteve</span>",
		"response": " ",
		"trial": "exp-sent",
		"word": "esteve",
		"trial_type": "html-keyboard-response",
		"trial_index": 188,
		"time_elapsed": 1144634,
		"internal_node_id": "0.0-3.0-1.145"
	},
	{
		"rt": 1767,
		"stimulus": "<span style=\"font-size:30px; font-family: monospace\">no</span>",
		"response": " ",
		"trial": "exp-sent",
		"word": "no",
		"trial_type": "html-keyboard-response",
		"trial_index": 189,
		"time_elapsed": 1146671,
		"internal_node_id": "0.0-3.0-1.146"
	},
	{
		"rt": 3092,
		"stimulus": "<span style=\"font-size:30px; font-family: monospace\">escritório</span>",
		"response": " ",
		"trial": "exp-sent",
		"word": "escritório",
		"trial_type": "html-keyboard-response",
		"trial_index": 190,
		"time_elapsed": 1150068,
		"internal_node_id": "0.0-3.0-1.147"
	},
	{
		"rt": 2391,
		"stimulus": "<span style=\"font-size:30px; font-family: monospace\">o</span>",
		"response": " ",
		"trial": "exp-sent",
		"word": "o",
		"trial_type": "html-keyboard-response",
		"trial_index": 191,
		"time_elapsed": 1152715,
		"internal_node_id": "0.0-3.0-1.148"
	},
	{
		"rt": 1828,
		"stimulus": "<span style=\"font-size:30px; font-family: monospace\">dia</span>",
		"response": " ",
		"trial": "exp-sent",
		"word": "dia",
		"trial_type": "html-keyboard-response",
		"trial_index": 192,
		"time_elapsed": 1154813,
		"internal_node_id": "0.0-3.0-1.149"
	},
	{
		"rt": 4261,
		"stimulus": "<span style=\"font-size:30px; font-family: monospace\">inteiro.</span>",
		"response": " ",
		"trial": "comp",
		"word": "inteiro.",
		"trial_type": "html-keyboard-response",
		"trial_index": 193,
		"time_elapsed": 1159345,
		"internal_node_id": "0.0-3.0-1.150"
	},
	{
		"rt": 43167,
		"stimulus": "<span style=\"font-size:30px; font-family: monospace\">Ele esteve no parque o dia inteiro?</span>",
		"response": "n",
		"question": "Ele esteve no parque o dia inteiro?",
		"answer": "não",
		"trial": "comp",
		"trial_type": "html-keyboard-response",
		"trial_index": 194,
		"time_elapsed": 1202772,
		"internal_node_id": "0.0-3.0-2.150-0.150",
		"accuracy": false
	},
	{
		"rt": null,
		"stimulus": "<span style= \"font-size:30px; font-family: monospace\">+</span>",
		"response": null,
		"trial_part": "fixation",
		"trial_type": "html-keyboard-response",
		"trial_index": 195,
		"time_elapsed": 1204283,
		"internal_node_id": "0.0-3.0-0.151-0.151"
	},
	{
		"rt": 4515,
		"stimulus": "<span style=\"font-size:30px; font-family: monospace\">Minha</span>",
		"response": " ",
		"trial": "exp-sent",
		"word": "Minha",
		"trial_type": "html-keyboard-response",
		"trial_index": 196,
		"time_elapsed": 1209060,
		"internal_node_id": "0.0-3.0-1.151"
	},
	{
		"rt": 1881,
		"stimulus": "<span style=\"font-size:30px; font-family: monospace\">prima</span>",
		"response": " ",
		"trial": "exp-sent",
		"word": "prima",
		"trial_type": "html-keyboard-response",
		"trial_index": 197,
		"time_elapsed": 1211195,
		"internal_node_id": "0.0-3.0-1.152"
	},
	{
		"rt": 4075,
		"stimulus": "<span style=\"font-size:30px; font-family: monospace\">trocou</span>",
		"response": " ",
		"trial": "exp-sent",
		"word": "trocou",
		"trial_type": "html-keyboard-response",
		"trial_index": 198,
		"time_elapsed": 1215533,
		"internal_node_id": "0.0-3.0-1.153"
	},
	{
		"rt": 1645,
		"stimulus": "<span style=\"font-size:30px; font-family: monospace\">a</span>",
		"response": " ",
		"trial": "exp-sent",
		"word": "a",
		"trial_type": "html-keyboard-response",
		"trial_index": 199,
		"time_elapsed": 1217440,
		"internal_node_id": "0.0-3.0-1.154"
	},
	{
		"rt": 5618,
		"stimulus": "<span style=\"font-size:30px; font-family: monospace\">tela</span>",
		"response": " ",
		"trial": "exp-sent",
		"word": "tela",
		"trial_type": "html-keyboard-response",
		"trial_index": 200,
		"time_elapsed": 1223323,
		"internal_node_id": "0.0-3.0-1.155"
	},
	{
		"rt": 1380,
		"stimulus": "<span style=\"font-size:30px; font-family: monospace\">do</span>",
		"response": " ",
		"trial": "exp-sent",
		"word": "do",
		"trial_type": "html-keyboard-response",
		"trial_index": 201,
		"time_elapsed": 1224954,
		"internal_node_id": "0.0-3.0-1.156"
	},
	{
		"rt": 2209,
		"stimulus": "<span style=\"font-size:30px; font-family: monospace\">celular</span>",
		"response": " ",
		"trial": "exp-sent",
		"word": "celular",
		"trial_type": "html-keyboard-response",
		"trial_index": 202,
		"time_elapsed": 1227415,
		"internal_node_id": "0.0-3.0-1.157"
	},
	{
		"rt": 2021,
		"stimulus": "<span style=\"font-size:30px; font-family: monospace\">duas</span>",
		"response": " ",
		"trial": "exp-sent",
		"word": "duas",
		"trial_type": "html-keyboard-response",
		"trial_index": 203,
		"time_elapsed": 1229695,
		"internal_node_id": "0.0-3.0-1.158"
	},
	{
		"rt": 1699,
		"stimulus": "<span style=\"font-size:30px; font-family: monospace\">vezes.</span>",
		"response": " ",
		"trial": "exp-sent",
		"word": "vezes.",
		"trial_type": "html-keyboard-response",
		"trial_index": 204,
		"time_elapsed": 1231653,
		"internal_node_id": "0.0-3.0-1.159"
	},
	{
		"rt": null,
		"stimulus": "<span style= \"font-size:30px; font-family: monospace\">+</span>",
		"response": null,
		"trial_part": "fixation",
		"trial_type": "html-keyboard-response",
		"trial_index": 205,
		"time_elapsed": 1232923,
		"internal_node_id": "0.0-3.0-0.160-0.160"
	},
	{
		"rt": 1785,
		"stimulus": "<span style=\"font-size:30px; font-family: monospace\">Agora</span>",
		"response": " ",
		"trial": "exp-sent",
		"word": "Agora",
		"trial_type": "html-keyboard-response",
		"trial_index": 206,
		"time_elapsed": 1234970,
		"internal_node_id": "0.0-3.0-1.160"
	},
	{
		"rt": 2160,
		"stimulus": "<span style=\"font-size:30px; font-family: monospace\">a</span>",
		"response": " ",
		"trial": "exp-sent",
		"word": "a",
		"trial_type": "html-keyboard-response",
		"trial_index": 207,
		"time_elapsed": 1237384,
		"internal_node_id": "0.0-3.0-1.161"
	},
	{
		"rt": 2060,
		"stimulus": "<span style=\"font-size:30px; font-family: monospace\">minha</span>",
		"response": " ",
		"trial": "exp-sent",
		"word": "minha",
		"trial_type": "html-keyboard-response",
		"trial_index": 208,
		"time_elapsed": 1239704,
		"internal_node_id": "0.0-3.0-1.162"
	},
	{
		"rt": 3317,
		"stimulus": "<span style=\"font-size:30px; font-family: monospace\">única</span>",
		"response": " ",
		"trial": "exp-sent",
		"word": "única",
		"trial_type": "html-keyboard-response",
		"trial_index": 209,
		"time_elapsed": 1243291,
		"internal_node_id": "0.0-3.0-1.163"
	},
	{
		"rt": 3727,
		"stimulus": "<span style=\"font-size:30px; font-family: monospace\">preocupação</span>",
		"response": " ",
		"trial": "exp-sent",
		"word": "preocupação",
		"trial_type": "html-keyboard-response",
		"trial_index": 210,
		"time_elapsed": 1247281,
		"internal_node_id": "0.0-3.0-1.164"
	},
	{
		"rt": 1552,
		"stimulus": "<span style=\"font-size:30px; font-family: monospace\">é</span>",
		"response": " ",
		"trial": "exp-sent",
		"word": "é",
		"trial_type": "html-keyboard-response",
		"trial_index": 211,
		"time_elapsed": 1249085,
		"internal_node_id": "0.0-3.0-1.165"
	},
	{
		"rt": 1522,
		"stimulus": "<span style=\"font-size:30px; font-family: monospace\">um</span>",
		"response": " ",
		"trial": "exp-sent",
		"word": "um",
		"trial_type": "html-keyboard-response",
		"trial_index": 212,
		"time_elapsed": 1250876,
		"internal_node_id": "0.0-3.0-1.166"
	},
	{
		"rt": 4722,
		"stimulus": "<span style=\"font-size:30px; font-family: monospace\">descanso</span>",
		"response": " ",
		"trial": "exp-sent",
		"word": "descanso",
		"trial_type": "html-keyboard-response",
		"trial_index": 213,
		"time_elapsed": 1255867,
		"internal_node_id": "0.0-3.0-1.167"
	},
	{
		"rt": 2952,
		"stimulus": "<span style=\"font-size:30px; font-family: monospace\">tranquilo.</span>",
		"response": " ",
		"trial": "exp-sent",
		"word": "tranquilo.",
		"trial_type": "html-keyboard-response",
		"trial_index": 214,
		"time_elapsed": 1259087,
		"internal_node_id": "0.0-3.0-1.168"
	},
	{
		"rt": null,
		"stimulus": "<span style= \"font-size:30px; font-family: monospace\">+</span>",
		"response": null,
		"trial_part": "fixation",
		"trial_type": "html-keyboard-response",
		"trial_index": 215,
		"time_elapsed": 1260364,
		"internal_node_id": "0.0-3.0-0.169-0.169"
	},
	{
		"rt": 2455,
		"stimulus": "<span style=\"font-size:30px; font-family: monospace\">A</span>",
		"response": " ",
		"trial": "exp-sent",
		"word": "A",
		"trial_type": "html-keyboard-response",
		"trial_index": 216,
		"time_elapsed": 1263079,
		"internal_node_id": "0.0-3.0-1.169"
	},
	{
		"rt": 1950,
		"stimulus": "<span style=\"font-size:30px; font-family: monospace\">criança</span>",
		"response": " ",
		"trial": "exp-sent",
		"word": "criança",
		"trial_type": "html-keyboard-response",
		"trial_index": 217,
		"time_elapsed": 1265284,
		"internal_node_id": "0.0-3.0-1.170"
	},
	{
		"rt": 2289,
		"stimulus": "<span style=\"font-size:30px; font-family: monospace\">ganhou</span>",
		"response": " ",
		"trial": "exp-sent",
		"word": "ganhou",
		"trial_type": "html-keyboard-response",
		"trial_index": 218,
		"time_elapsed": 1267832,
		"internal_node_id": "0.0-3.0-1.171"
	},
	{
		"rt": 1312,
		"stimulus": "<span style=\"font-size:30px; font-family: monospace\">um</span>",
		"response": " ",
		"trial": "exp-sent",
		"word": "um",
		"trial_type": "html-keyboard-response",
		"trial_index": 219,
		"time_elapsed": 1269398,
		"internal_node_id": "0.0-3.0-1.172"
	},
	{
		"rt": 2525,
		"stimulus": "<span style=\"font-size:30px; font-family: monospace\">presente</span>",
		"response": " ",
		"trial": "exp-sent",
		"word": "presente",
		"trial_type": "html-keyboard-response",
		"trial_index": 220,
		"time_elapsed": 1272189,
		"internal_node_id": "0.0-3.0-1.173"
	},
	{
		"rt": 2825,
		"stimulus": "<span style=\"font-size:30px; font-family: monospace\">maravilhoso.</span>",
		"response": " ",
		"trial": "exp-sent",
		"word": "maravilhoso.",
		"trial_type": "html-keyboard-response",
		"trial_index": 221,
		"time_elapsed": 1275278,
		"internal_node_id": "0.0-3.0-1.174"
	},
	{
		"rt": null,
		"stimulus": "<span style= \"font-size:30px; font-family: monospace\">+</span>",
		"response": null,
		"trial_part": "fixation",
		"trial_type": "html-keyboard-response",
		"trial_index": 222,
		"time_elapsed": 1276554,
		"internal_node_id": "0.0-3.0-0.175-0.175"
	},
	{
		"rt": 1622,
		"stimulus": "<span style=\"font-size:30px; font-family: monospace\">Os</span>",
		"response": " ",
		"trial": "exp-sent",
		"word": "Os",
		"trial_type": "html-keyboard-response",
		"trial_index": 223,
		"time_elapsed": 1278435,
		"internal_node_id": "0.0-3.0-1.175"
	},
	{
		"rt": 9077,
		"stimulus": "<span style=\"font-size:30px; font-family: monospace\">bichos</span>",
		"response": " ",
		"trial": "exp-sent",
		"word": "bichos",
		"trial_type": "html-keyboard-response",
		"trial_index": 224,
		"time_elapsed": 1287771,
		"internal_node_id": "0.0-3.0-1.176"
	},
	{
		"rt": 1384,
		"stimulus": "<span style=\"font-size:30px; font-family: monospace\">têm</span>",
		"response": " ",
		"trial": "exp-sent",
		"word": "têm",
		"trial_type": "html-keyboard-response",
		"trial_index": 225,
		"time_elapsed": 1289407,
		"internal_node_id": "0.0-3.0-1.177"
	},
	{
		"rt": 1330,
		"stimulus": "<span style=\"font-size:30px; font-family: monospace\">um</span>",
		"response": " ",
		"trial": "exp-sent",
		"word": "um",
		"trial_type": "html-keyboard-response",
		"trial_index": 226,
		"time_elapsed": 1291005,
		"internal_node_id": "0.0-3.0-1.178"
	},
	{
		"rt": 8641,
		"stimulus": "<span style=\"font-size:30px; font-family: monospace\">instinto</span>",
		"response": " ",
		"trial": "exp-sent",
		"word": "instinto",
		"trial_type": "html-keyboard-response",
		"trial_index": 227,
		"time_elapsed": 1299906,
		"internal_node_id": "0.0-3.0-1.179"
	},
	{
		"rt": 1443,
		"stimulus": "<span style=\"font-size:30px; font-family: monospace\">de</span>",
		"response": " ",
		"trial": "exp-sent",
		"word": "de",
		"trial_type": "html-keyboard-response",
		"trial_index": 228,
		"time_elapsed": 1301617,
		"internal_node_id": "0.0-3.0-1.180"
	},
	{
		"rt": 4429,
		"stimulus": "<span style=\"font-size:30px; font-family: monospace\">sobrevivência</span>",
		"response": " ",
		"trial": "exp-sent",
		"word": "sobrevivência",
		"trial_type": "html-keyboard-response",
		"trial_index": 229,
		"time_elapsed": 1306303,
		"internal_node_id": "0.0-3.0-1.181"
	},
	{
		"rt": 2123,
		"stimulus": "<span style=\"font-size:30px; font-family: monospace\">forte.</span>",
		"response": " ",
		"trial": "exp-sent",
		"word": "forte.",
		"trial_type": "html-keyboard-response",
		"trial_index": 230,
		"time_elapsed": 1308697,
		"internal_node_id": "0.0-3.0-1.182"
	},
	{
		"rt": null,
		"stimulus": "<span style= \"font-size:30px; font-family: monospace\">+</span>",
		"response": null,
		"trial_part": "fixation",
		"trial_type": "html-keyboard-response",
		"trial_index": 231,
		"time_elapsed": 1309973,
		"internal_node_id": "0.0-3.0-0.183-0.183"
	},
	{
		"rt": 2927,
		"stimulus": "<span style=\"font-size:30px; font-family: monospace\">Aquele</span>",
		"response": " ",
		"trial": "exp-sent",
		"word": "Aquele",
		"trial_type": "html-keyboard-response",
		"trial_index": 232,
		"time_elapsed": 1313162,
		"internal_node_id": "0.0-3.0-1.183"
	},
	{
		"rt": 2340,
		"stimulus": "<span style=\"font-size:30px; font-family: monospace\">menino</span>",
		"response": " ",
		"trial": "exp-sent",
		"word": "menino",
		"trial_type": "html-keyboard-response",
		"trial_index": 233,
		"time_elapsed": 1315754,
		"internal_node_id": "0.0-3.0-1.184"
	},
	{
		"rt": 2142,
		"stimulus": "<span style=\"font-size:30px; font-family: monospace\">alto</span>",
		"response": " ",
		"trial": "exp-sent",
		"word": "alto",
		"trial_type": "html-keyboard-response",
		"trial_index": 234,
		"time_elapsed": 1318156,
		"internal_node_id": "0.0-3.0-1.185"
	},
	{
		"rt": 1514,
		"stimulus": "<span style=\"font-size:30px; font-family: monospace\">é</span>",
		"response": " ",
		"trial": "exp-sent",
		"word": "é",
		"trial_type": "html-keyboard-response",
		"trial_index": 235,
		"time_elapsed": 1319929,
		"internal_node_id": "0.0-3.0-1.186"
	},
	{
		"rt": 3204,
		"stimulus": "<span style=\"font-size:30px; font-family: monospace\">exibido</span>",
		"response": " ",
		"trial": "exp-sent",
		"word": "exibido",
		"trial_type": "html-keyboard-response",
		"trial_index": 236,
		"time_elapsed": 1323388,
		"internal_node_id": "0.0-3.0-1.187"
	},
	{
		"rt": 1837,
		"stimulus": "<span style=\"font-size:30px; font-family: monospace\">e</span>",
		"response": " ",
		"trial": "exp-sent",
		"word": "e",
		"trial_type": "html-keyboard-response",
		"trial_index": 237,
		"time_elapsed": 1325481,
		"internal_node_id": "0.0-3.0-1.188"
	},
	{
		"rt": 6280,
		"stimulus": "<span style=\"font-size:30px; font-family: monospace\">sovina.</span>",
		"response": " ",
		"trial": "comp",
		"word": "sovina.",
		"trial_type": "html-keyboard-response",
		"trial_index": 238,
		"time_elapsed": 1332014,
		"internal_node_id": "0.0-3.0-1.189"
	},
	{
		"rt": 12487,
		"stimulus": "<span style=\"font-size:30px; font-family: monospace\">Aquele menino é humilde?</span>",
		"response": "s",
		"question": "Aquele menino é humilde?",
		"answer": "não",
		"trial": "comp",
		"trial_type": "html-keyboard-response",
		"trial_index": 239,
		"time_elapsed": 1344762,
		"internal_node_id": "0.0-3.0-2.189-0.189",
		"accuracy": false
	},
	{
		"rt": null,
		"stimulus": "<span style= \"font-size:30px; font-family: monospace\">+</span>",
		"response": null,
		"trial_part": "fixation",
		"trial_type": "html-keyboard-response",
		"trial_index": 240,
		"time_elapsed": 1346274,
		"internal_node_id": "0.0-3.0-0.190-0.190"
	},
	{
		"rt": 2822,
		"stimulus": "<span style=\"font-size:30px; font-family: monospace\">A</span>",
		"response": " ",
		"trial": "exp-sent",
		"word": "A",
		"trial_type": "html-keyboard-response",
		"trial_index": 241,
		"time_elapsed": 1349367,
		"internal_node_id": "0.0-3.0-1.190"
	},
	{
		"rt": 2309,
		"stimulus": "<span style=\"font-size:30px; font-family: monospace\">senhora</span>",
		"response": " ",
		"trial": "exp-sent",
		"word": "senhora",
		"trial_type": "html-keyboard-response",
		"trial_index": 242,
		"time_elapsed": 1351942,
		"internal_node_id": "0.0-3.0-1.191"
	},
	{
		"rt": 3653,
		"stimulus": "<span style=\"font-size:30px; font-family: monospace\">cumprimentou</span>",
		"response": " ",
		"trial": "exp-sent",
		"word": "cumprimentou",
		"trial_type": "html-keyboard-response",
		"trial_index": 243,
		"time_elapsed": 1355856,
		"internal_node_id": "0.0-3.0-1.192"
	},
	{
		"rt": 1813,
		"stimulus": "<span style=\"font-size:30px; font-family: monospace\">o</span>",
		"response": " ",
		"trial": "exp-sent",
		"word": "o",
		"trial_type": "html-keyboard-response",
		"trial_index": 244,
		"time_elapsed": 1357928,
		"internal_node_id": "0.0-3.0-1.193"
	},
	{
		"rt": 3701,
		"stimulus": "<span style=\"font-size:30px; font-family: monospace\">operador</span>",
		"response": " ",
		"trial": "exp-sent",
		"word": "operador",
		"trial_type": "html-keyboard-response",
		"trial_index": 245,
		"time_elapsed": 1361895,
		"internal_node_id": "0.0-3.0-1.194"
	},
	{
		"rt": 1344,
		"stimulus": "<span style=\"font-size:30px; font-family: monospace\">de</span>",
		"response": " ",
		"trial": "exp-sent",
		"word": "de",
		"trial_type": "html-keyboard-response",
		"trial_index": 246,
		"time_elapsed": 1363508,
		"internal_node_id": "0.0-3.0-1.195"
	},
	{
		"rt": 1748,
		"stimulus": "<span style=\"font-size:30px; font-family: monospace\">caixa.</span>",
		"response": " ",
		"trial": "exp-sent",
		"word": "caixa.",
		"trial_type": "html-keyboard-response",
		"trial_index": 247,
		"time_elapsed": 1365512,
		"internal_node_id": "0.0-3.0-1.196"
	},
	{
		"rt": null,
		"stimulus": "<span style= \"font-size:30px; font-family: monospace\">+</span>",
		"response": null,
		"trial_part": "fixation",
		"trial_type": "html-keyboard-response",
		"trial_index": 248,
		"time_elapsed": 1366773,
		"internal_node_id": "0.0-3.0-0.197-0.197"
	},
	{
		"rt": 1385,
		"stimulus": "<span style=\"font-size:30px; font-family: monospace\">A</span>",
		"response": " ",
		"trial": "exp-sent",
		"word": "A",
		"trial_type": "html-keyboard-response",
		"trial_index": 249,
		"time_elapsed": 1368429,
		"internal_node_id": "0.0-3.0-1.197"
	},
	{
		"rt": 1508,
		"stimulus": "<span style=\"font-size:30px; font-family: monospace\">gente</span>",
		"response": " ",
		"trial": "exp-sent",
		"word": "gente",
		"trial_type": "html-keyboard-response",
		"trial_index": 250,
		"time_elapsed": 1370202,
		"internal_node_id": "0.0-3.0-1.198"
	},
	{
		"rt": 1828,
		"stimulus": "<span style=\"font-size:30px; font-family: monospace\">viu</span>",
		"response": " ",
		"trial": "exp-sent",
		"word": "viu",
		"trial_type": "html-keyboard-response",
		"trial_index": 251,
		"time_elapsed": 1372281,
		"internal_node_id": "0.0-3.0-1.199"
	},
	{
		"rt": 1597,
		"stimulus": "<span style=\"font-size:30px; font-family: monospace\">o</span>",
		"response": " ",
		"trial": "exp-sent",
		"word": "o",
		"trial_type": "html-keyboard-response",
		"trial_index": 252,
		"time_elapsed": 1374131,
		"internal_node_id": "0.0-3.0-1.200"
	},
	{
		"rt": 6895,
		"stimulus": "<span style=\"font-size:30px; font-family: monospace\">eclipse</span>",
		"response": " ",
		"trial": "exp-sent",
		"word": "eclipse",
		"trial_type": "html-keyboard-response",
		"trial_index": 253,
		"time_elapsed": 1381279,
		"internal_node_id": "0.0-3.0-1.201"
	},
	{
		"rt": 4350,
		"stimulus": "<span style=\"font-size:30px; font-family: monospace\">lunar</span>",
		"response": " ",
		"trial": "exp-sent",
		"word": "lunar",
		"trial_type": "html-keyboard-response",
		"trial_index": 254,
		"time_elapsed": 1385884,
		"internal_node_id": "0.0-3.0-1.202"
	},
	{
		"rt": 2139,
		"stimulus": "<span style=\"font-size:30px; font-family: monospace\">durante</span>",
		"response": " ",
		"trial": "exp-sent",
		"word": "durante",
		"trial_type": "html-keyboard-response",
		"trial_index": 255,
		"time_elapsed": 1388293,
		"internal_node_id": "0.0-3.0-1.203"
	},
	{
		"rt": 1352,
		"stimulus": "<span style=\"font-size:30px; font-family: monospace\">o</span>",
		"response": " ",
		"trial": "exp-sent",
		"word": "o",
		"trial_type": "html-keyboard-response",
		"trial_index": 256,
		"time_elapsed": 1389897,
		"internal_node_id": "0.0-3.0-1.204"
	},
	{
		"rt": 1625,
		"stimulus": "<span style=\"font-size:30px; font-family: monospace\">dia.</span>",
		"response": " ",
		"trial": "exp-sent",
		"word": "dia.",
		"trial_type": "html-keyboard-response",
		"trial_index": 257,
		"time_elapsed": 1391789,
		"internal_node_id": "0.0-3.0-1.205"
	},
	{
		"rt": null,
		"stimulus": "<span style= \"font-size:30px; font-family: monospace\">+</span>",
		"response": null,
		"trial_part": "fixation",
		"trial_type": "html-keyboard-response",
		"trial_index": 258,
		"time_elapsed": 1393063,
		"internal_node_id": "0.0-3.0-0.206-0.206"
	},
	{
		"rt": 1593,
		"stimulus": "<span style=\"font-size:30px; font-family: monospace\">A</span>",
		"response": " ",
		"trial": "exp-sent",
		"word": "A",
		"trial_type": "html-keyboard-response",
		"trial_index": 259,
		"time_elapsed": 1394926,
		"internal_node_id": "0.0-3.0-1.206"
	},
	{
		"rt": 3260,
		"stimulus": "<span style=\"font-size:30px; font-family: monospace\">mordida</span>",
		"response": " ",
		"trial": "exp-sent",
		"word": "mordida",
		"trial_type": "html-keyboard-response",
		"trial_index": 260,
		"time_elapsed": 1398454,
		"internal_node_id": "0.0-3.0-1.207"
	},
	{
		"rt": 1374,
		"stimulus": "<span style=\"font-size:30px; font-family: monospace\">do</span>",
		"response": " ",
		"trial": "exp-sent",
		"word": "do",
		"trial_type": "html-keyboard-response",
		"trial_index": 261,
		"time_elapsed": 1400087,
		"internal_node_id": "0.0-3.0-1.208"
	},
	{
		"rt": 3293,
		"stimulus": "<span style=\"font-size:30px; font-family: monospace\">cachorro</span>",
		"response": " ",
		"trial": "exp-sent",
		"word": "cachorro",
		"trial_type": "html-keyboard-response",
		"trial_index": 262,
		"time_elapsed": 1403637,
		"internal_node_id": "0.0-3.0-1.209"
	},
	{
		"rt": 4531,
		"stimulus": "<span style=\"font-size:30px; font-family: monospace\">voraz</span>",
		"response": " ",
		"trial": "exp-sent",
		"word": "voraz",
		"trial_type": "html-keyboard-response",
		"trial_index": 263,
		"time_elapsed": 1408426,
		"internal_node_id": "0.0-3.0-1.210"
	},
	{
		"rt": 2103,
		"stimulus": "<span style=\"font-size:30px; font-family: monospace\">causou</span>",
		"response": " ",
		"trial": "exp-sent",
		"word": "causou",
		"trial_type": "html-keyboard-response",
		"trial_index": 264,
		"time_elapsed": 1410798,
		"internal_node_id": "0.0-3.0-1.211"
	},
	{
		"rt": 1365,
		"stimulus": "<span style=\"font-size:30px; font-family: monospace\">uma</span>",
		"response": " ",
		"trial": "exp-sent",
		"word": "uma",
		"trial_type": "html-keyboard-response",
		"trial_index": 265,
		"time_elapsed": 1412418,
		"internal_node_id": "0.0-3.0-1.212"
	},
	{
		"rt": 3152,
		"stimulus": "<span style=\"font-size:30px; font-family: monospace\">cicatriz.</span>",
		"response": " ",
		"trial": "exp-sent",
		"word": "cicatriz.",
		"trial_type": "html-keyboard-response",
		"trial_index": 266,
		"time_elapsed": 1415827,
		"internal_node_id": "0.0-3.0-1.213"
	},
	{
		"rt": null,
		"stimulus": "<span style= \"font-size:30px; font-family: monospace\">+</span>",
		"response": null,
		"trial_part": "fixation",
		"trial_type": "html-keyboard-response",
		"trial_index": 267,
		"time_elapsed": 1417104,
		"internal_node_id": "0.0-3.0-0.214-0.214"
	},
	{
		"rt": 1738,
		"stimulus": "<span style=\"font-size:30px; font-family: monospace\">Elas</span>",
		"response": " ",
		"trial": "exp-sent",
		"word": "Elas",
		"trial_type": "html-keyboard-response",
		"trial_index": 268,
		"time_elapsed": 1419103,
		"internal_node_id": "0.0-3.0-1.214"
	},
	{
		"rt": 1631,
		"stimulus": "<span style=\"font-size:30px; font-family: monospace\">não</span>",
		"response": " ",
		"trial": "exp-sent",
		"word": "não",
		"trial_type": "html-keyboard-response",
		"trial_index": 269,
		"time_elapsed": 1420995,
		"internal_node_id": "0.0-3.0-1.215"
	},
	{
		"rt": 1984,
		"stimulus": "<span style=\"font-size:30px; font-family: monospace\">viram</span>",
		"response": " ",
		"trial": "exp-sent",
		"word": "viram",
		"trial_type": "html-keyboard-response",
		"trial_index": 270,
		"time_elapsed": 1423237,
		"internal_node_id": "0.0-3.0-1.216"
	},
	{
		"rt": 1822,
		"stimulus": "<span style=\"font-size:30px; font-family: monospace\">nenhuma</span>",
		"response": " ",
		"trial": "exp-sent",
		"word": "nenhuma",
		"trial_type": "html-keyboard-response",
		"trial_index": 271,
		"time_elapsed": 1425316,
		"internal_node_id": "0.0-3.0-1.217"
	},
	{
		"rt": 2788,
		"stimulus": "<span style=\"font-size:30px; font-family: monospace\">diferença</span>",
		"response": " ",
		"trial": "exp-sent",
		"word": "diferença",
		"trial_type": "html-keyboard-response",
		"trial_index": 272,
		"time_elapsed": 1428374,
		"internal_node_id": "0.0-3.0-1.218"
	},
	{
		"rt": 1562,
		"stimulus": "<span style=\"font-size:30px; font-family: monospace\">entre</span>",
		"response": " ",
		"trial": "exp-sent",
		"word": "entre",
		"trial_type": "html-keyboard-response",
		"trial_index": 273,
		"time_elapsed": 1430206,
		"internal_node_id": "0.0-3.0-1.219"
	},
	{
		"rt": 1222,
		"stimulus": "<span style=\"font-size:30px; font-family: monospace\">os</span>",
		"response": " ",
		"trial": "exp-sent",
		"word": "os",
		"trial_type": "html-keyboard-response",
		"trial_index": 274,
		"time_elapsed": 1431687,
		"internal_node_id": "0.0-3.0-1.220"
	},
	{
		"rt": 2162,
		"stimulus": "<span style=\"font-size:30px; font-family: monospace\">textos.</span>",
		"response": " ",
		"trial": "exp-sent",
		"word": "textos.",
		"trial_type": "html-keyboard-response",
		"trial_index": 275,
		"time_elapsed": 1434106,
		"internal_node_id": "0.0-3.0-1.221"
	},
	{
		"rt": null,
		"stimulus": "<span style= \"font-size:30px; font-family: monospace\">+</span>",
		"response": null,
		"trial_part": "fixation",
		"trial_type": "html-keyboard-response",
		"trial_index": 276,
		"time_elapsed": 1435394,
		"internal_node_id": "0.0-3.0-0.222-0.222"
	},
	{
		"rt": 2706,
		"stimulus": "<span style=\"font-size:30px; font-family: monospace\">Amanhã</span>",
		"response": " ",
		"trial": "exp-sent",
		"word": "Amanhã",
		"trial_type": "html-keyboard-response",
		"trial_index": 277,
		"time_elapsed": 1438370,
		"internal_node_id": "0.0-3.0-1.222"
	},
	{
		"rt": 1517,
		"stimulus": "<span style=\"font-size:30px; font-family: monospace\">vai</span>",
		"response": " ",
		"trial": "exp-sent",
		"word": "vai",
		"trial_type": "html-keyboard-response",
		"trial_index": 278,
		"time_elapsed": 1440142,
		"internal_node_id": "0.0-3.0-1.223"
	},
	{
		"rt": 1162,
		"stimulus": "<span style=\"font-size:30px; font-family: monospace\">ter</span>",
		"response": " ",
		"trial": "exp-sent",
		"word": "ter",
		"trial_type": "html-keyboard-response",
		"trial_index": 279,
		"time_elapsed": 1441566,
		"internal_node_id": "0.0-3.0-1.224"
	},
	{
		"rt": 1285,
		"stimulus": "<span style=\"font-size:30px; font-family: monospace\">um</span>",
		"response": " ",
		"trial": "exp-sent",
		"word": "um",
		"trial_type": "html-keyboard-response",
		"trial_index": 280,
		"time_elapsed": 1443109,
		"internal_node_id": "0.0-3.0-1.225"
	},
	{
		"rt": 4846,
		"stimulus": "<span style=\"font-size:30px; font-family: monospace\">bazar</span>",
		"response": " ",
		"trial": "exp-sent",
		"word": "bazar",
		"trial_type": "html-keyboard-response",
		"trial_index": 281,
		"time_elapsed": 1448210,
		"internal_node_id": "0.0-3.0-1.226"
	},
	{
		"rt": 1244,
		"stimulus": "<span style=\"font-size:30px; font-family: monospace\">no</span>",
		"response": " ",
		"trial": "exp-sent",
		"word": "no",
		"trial_type": "html-keyboard-response",
		"trial_index": 282,
		"time_elapsed": 1449719,
		"internal_node_id": "0.0-3.0-1.227"
	},
	{
		"rt": 2187,
		"stimulus": "<span style=\"font-size:30px; font-family: monospace\">bairro.</span>",
		"response": " ",
		"trial": "comp",
		"word": "bairro.",
		"trial_type": "html-keyboard-response",
		"trial_index": 283,
		"time_elapsed": 1452161,
		"internal_node_id": "0.0-3.0-1.228"
	},
	{
		"rt": 13347,
		"stimulus": "<span style=\"font-size:30px; font-family: monospace\">Amanhã vai acontecer um bazar no bairro?</span>",
		"response": "s",
		"question": "Amanhã vai acontecer um bazar no bairro?",
		"answer": "sim",
		"trial": "comp",
		"trial_type": "html-keyboard-response",
		"trial_index": 284,
		"time_elapsed": 1465761,
		"internal_node_id": "0.0-3.0-2.228-0.228",
		"accuracy": false
	},
	{
		"rt": null,
		"stimulus": "<span style= \"font-size:30px; font-family: monospace\">+</span>",
		"response": null,
		"trial_part": "fixation",
		"trial_type": "html-keyboard-response",
		"trial_index": 285,
		"time_elapsed": 1467284,
		"internal_node_id": "0.0-3.0-0.229-0.229"
	},
	{
		"rt": 6615,
		"stimulus": "<span style=\"font-size:30px; font-family: monospace\">Ursos</span>",
		"response": " ",
		"trial": "exp-sent",
		"word": "Ursos",
		"trial_type": "html-keyboard-response",
		"trial_index": 286,
		"time_elapsed": 1474159,
		"internal_node_id": "0.0-3.0-1.229"
	},
	{
		"rt": 1680,
		"stimulus": "<span style=\"font-size:30px; font-family: monospace\">têm</span>",
		"response": " ",
		"trial": "exp-sent",
		"word": "têm",
		"trial_type": "html-keyboard-response",
		"trial_index": 287,
		"time_elapsed": 1476094,
		"internal_node_id": "0.0-3.0-1.230"
	},
	{
		"rt": 1262,
		"stimulus": "<span style=\"font-size:30px; font-family: monospace\">uma</span>",
		"response": " ",
		"trial": "exp-sent",
		"word": "uma",
		"trial_type": "html-keyboard-response",
		"trial_index": 288,
		"time_elapsed": 1477617,
		"internal_node_id": "0.0-3.0-1.231"
	},
	{
		"rt": 2158,
		"stimulus": "<span style=\"font-size:30px; font-family: monospace\">patada</span>",
		"response": " ",
		"trial": "exp-sent",
		"word": "patada",
		"trial_type": "html-keyboard-response",
		"trial_index": 289,
		"time_elapsed": 1480032,
		"internal_node_id": "0.0-3.0-1.232"
	},
	{
		"rt": 5552,
		"stimulus": "<span style=\"font-size:30px; font-family: monospace\">brutal</span>",
		"response": " ",
		"trial": "exp-sent",
		"word": "brutal",
		"trial_type": "html-keyboard-response",
		"trial_index": 290,
		"time_elapsed": 1485838,
		"internal_node_id": "0.0-3.0-1.233"
	},
	{
		"rt": 2328,
		"stimulus": "<span style=\"font-size:30px; font-family: monospace\">e</span>",
		"response": " ",
		"trial": "exp-sent",
		"word": "e",
		"trial_type": "html-keyboard-response",
		"trial_index": 291,
		"time_elapsed": 1488432,
		"internal_node_id": "0.0-3.0-1.234"
	},
	{
		"rt": 5326,
		"stimulus": "<span style=\"font-size:30px; font-family: monospace\">poderosa.</span>",
		"response": " ",
		"trial": "exp-sent",
		"word": "poderosa.",
		"trial_type": "html-keyboard-response",
		"trial_index": 292,
		"time_elapsed": 1494011,
		"internal_node_id": "0.0-3.0-1.235"
	},
	{
		"rt": null,
		"stimulus": "<span style= \"font-size:30px; font-family: monospace\">+</span>",
		"response": null,
		"trial_part": "fixation",
		"trial_type": "html-keyboard-response",
		"trial_index": 293,
		"time_elapsed": 1495284,
		"internal_node_id": "0.0-3.0-0.236-0.236"
	},
	{
		"rt": 1462,
		"stimulus": "<span style=\"font-size:30px; font-family: monospace\">Eu</span>",
		"response": " ",
		"trial": "exp-sent",
		"word": "Eu",
		"trial_type": "html-keyboard-response",
		"trial_index": 294,
		"time_elapsed": 1497006,
		"internal_node_id": "0.0-3.0-1.236"
	},
	{
		"rt": 1680,
		"stimulus": "<span style=\"font-size:30px; font-family: monospace\">fiz</span>",
		"response": " ",
		"trial": "exp-sent",
		"word": "fiz",
		"trial_type": "html-keyboard-response",
		"trial_index": 295,
		"time_elapsed": 1498954,
		"internal_node_id": "0.0-3.0-1.237"
	},
	{
		"rt": 2124,
		"stimulus": "<span style=\"font-size:30px; font-family: monospace\">aulas</span>",
		"response": " ",
		"trial": "exp-sent",
		"word": "aulas",
		"trial_type": "html-keyboard-response",
		"trial_index": 296,
		"time_elapsed": 1501331,
		"internal_node_id": "0.0-3.0-1.238"
	},
	{
		"rt": 1371,
		"stimulus": "<span style=\"font-size:30px; font-family: monospace\">de</span>",
		"response": " ",
		"trial": "exp-sent",
		"word": "de",
		"trial_type": "html-keyboard-response",
		"trial_index": 297,
		"time_elapsed": 1502965,
		"internal_node_id": "0.0-3.0-1.239"
	},
	{
		"rt": 2987,
		"stimulus": "<span style=\"font-size:30px; font-family: monospace\">espanhol</span>",
		"response": " ",
		"trial": "exp-sent",
		"word": "espanhol",
		"trial_type": "html-keyboard-response",
		"trial_index": 298,
		"time_elapsed": 1506222,
		"internal_node_id": "0.0-3.0-1.240"
	},
	{
		"rt": 1682,
		"stimulus": "<span style=\"font-size:30px; font-family: monospace\">nesta</span>",
		"response": " ",
		"trial": "exp-sent",
		"word": "nesta",
		"trial_type": "html-keyboard-response",
		"trial_index": 299,
		"time_elapsed": 1508167,
		"internal_node_id": "0.0-3.0-1.241"
	},
	{
		"rt": 2040,
		"stimulus": "<span style=\"font-size:30px; font-family: monospace\">cidade.</span>",
		"response": " ",
		"trial": "exp-sent",
		"word": "cidade.",
		"trial_type": "html-keyboard-response",
		"trial_index": 300,
		"time_elapsed": 1510475,
		"internal_node_id": "0.0-3.0-1.242"
	},
	{
		"rt": null,
		"stimulus": "<span style= \"font-size:30px; font-family: monospace\">+</span>",
		"response": null,
		"trial_part": "fixation",
		"trial_type": "html-keyboard-response",
		"trial_index": 301,
		"time_elapsed": 1511754,
		"internal_node_id": "0.0-3.0-0.243-0.243"
	},
	{
		"rt": 1342,
		"stimulus": "<span style=\"font-size:30px; font-family: monospace\">Ele</span>",
		"response": " ",
		"trial": "exp-sent",
		"word": "Ele",
		"trial_type": "html-keyboard-response",
		"trial_index": 302,
		"time_elapsed": 1513348,
		"internal_node_id": "0.0-3.0-1.243"
	},
	{
		"rt": 1980,
		"stimulus": "<span style=\"font-size:30px; font-family: monospace\">comprou</span>",
		"response": " ",
		"trial": "exp-sent",
		"word": "comprou",
		"trial_type": "html-keyboard-response",
		"trial_index": 303,
		"time_elapsed": 1515584,
		"internal_node_id": "0.0-3.0-1.244"
	},
	{
		"rt": 2522,
		"stimulus": "<span style=\"font-size:30px; font-family: monospace\">mais</span>",
		"response": " ",
		"trial": "exp-sent",
		"word": "mais",
		"trial_type": "html-keyboard-response",
		"trial_index": 304,
		"time_elapsed": 1518376,
		"internal_node_id": "0.0-3.0-1.245"
	},
	{
		"rt": 1269,
		"stimulus": "<span style=\"font-size:30px; font-family: monospace\">uma</span>",
		"response": " ",
		"trial": "exp-sent",
		"word": "uma",
		"trial_type": "html-keyboard-response",
		"trial_index": 305,
		"time_elapsed": 1519913,
		"internal_node_id": "0.0-3.0-1.246"
	},
	{
		"rt": 4133,
		"stimulus": "<span style=\"font-size:30px; font-family: monospace\">esponja</span>",
		"response": " ",
		"trial": "exp-sent",
		"word": "esponja",
		"trial_type": "html-keyboard-response",
		"trial_index": 306,
		"time_elapsed": 1524304,
		"internal_node_id": "0.0-3.0-1.247"
	},
	{
		"rt": 1936,
		"stimulus": "<span style=\"font-size:30px; font-family: monospace\">para</span>",
		"response": " ",
		"trial": "exp-sent",
		"word": "para",
		"trial_type": "html-keyboard-response",
		"trial_index": 307,
		"time_elapsed": 1526492,
		"internal_node_id": "0.0-3.0-1.248"
	},
	{
		"rt": 1695,
		"stimulus": "<span style=\"font-size:30px; font-family: monospace\">a</span>",
		"response": " ",
		"trial": "exp-sent",
		"word": "a",
		"trial_type": "html-keyboard-response",
		"trial_index": 308,
		"time_elapsed": 1528449,
		"internal_node_id": "0.0-3.0-1.249"
	},
	{
		"rt": 2726,
		"stimulus": "<span style=\"font-size:30px; font-family: monospace\">cozinha.</span>",
		"response": " ",
		"trial": "exp-sent",
		"word": "cozinha.",
		"trial_type": "html-keyboard-response",
		"trial_index": 309,
		"time_elapsed": 1531441,
		"internal_node_id": "0.0-3.0-1.250"
	},
	{
		"rt": null,
		"stimulus": "<span style= \"font-size:30px; font-family: monospace\">+</span>",
		"response": null,
		"trial_part": "fixation",
		"trial_type": "html-keyboard-response",
		"trial_index": 310,
		"time_elapsed": 1532714,
		"internal_node_id": "0.0-3.0-0.251-0.251"
	},
	{
		"rt": 1352,
		"stimulus": "<span style=\"font-size:30px; font-family: monospace\">Ele</span>",
		"response": " ",
		"trial": "exp-sent",
		"word": "Ele",
		"trial_type": "html-keyboard-response",
		"trial_index": 311,
		"time_elapsed": 1534337,
		"internal_node_id": "0.0-3.0-1.251"
	},
	{
		"rt": 1437,
		"stimulus": "<span style=\"font-size:30px; font-family: monospace\">teve</span>",
		"response": " ",
		"trial": "exp-sent",
		"word": "teve",
		"trial_type": "html-keyboard-response",
		"trial_index": 312,
		"time_elapsed": 1536042,
		"internal_node_id": "0.0-3.0-1.252"
	},
	{
		"rt": 1319,
		"stimulus": "<span style=\"font-size:30px; font-family: monospace\">um</span>",
		"response": " ",
		"trial": "exp-sent",
		"word": "um",
		"trial_type": "html-keyboard-response",
		"trial_index": 313,
		"time_elapsed": 1537624,
		"internal_node_id": "0.0-3.0-1.253"
	},
	{
		"rt": 1864,
		"stimulus": "<span style=\"font-size:30px; font-family: monospace\">sono</span>",
		"response": " ",
		"trial": "exp-sent",
		"word": "sono",
		"trial_type": "html-keyboard-response",
		"trial_index": 314,
		"time_elapsed": 1539749,
		"internal_node_id": "0.0-3.0-1.254"
	},
	{
		"rt": 26249,
		"stimulus": "<span style=\"font-size:30px; font-family: monospace\">bizarro</span>",
		"response": " ",
		"trial": "exp-sent",
		"word": "bizarro",
		"trial_type": "html-keyboard-response",
		"trial_index": 315,
		"time_elapsed": 1566264,
		"internal_node_id": "0.0-3.0-1.255"
	},
	{
		"rt": 2754,
		"stimulus": "<span style=\"font-size:30px; font-family: monospace\">sem</span>",
		"response": " ",
		"trial": "exp-sent",
		"word": "sem",
		"trial_type": "html-keyboard-response",
		"trial_index": 316,
		"time_elapsed": 1569278,
		"internal_node_id": "0.0-3.0-1.256"
	},
	{
		"rt": 2335,
		"stimulus": "<span style=\"font-size:30px; font-family: monospace\">nenhum</span>",
		"response": " ",
		"trial": "exp-sent",
		"word": "nenhum",
		"trial_type": "html-keyboard-response",
		"trial_index": 317,
		"time_elapsed": 1571868,
		"internal_node_id": "0.0-3.0-1.257"
	},
	{
		"rt": 2286,
		"stimulus": "<span style=\"font-size:30px; font-family: monospace\">motivo.</span>",
		"response": " ",
		"trial": "exp-sent",
		"word": "motivo.",
		"trial_type": "html-keyboard-response",
		"trial_index": 318,
		"time_elapsed": 1574419,
		"internal_node_id": "0.0-3.0-1.258"
	},
	{
		"rt": null,
		"stimulus": "<span style= \"font-size:30px; font-family: monospace\">+</span>",
		"response": null,
		"trial_part": "fixation",
		"trial_type": "html-keyboard-response",
		"trial_index": 319,
		"time_elapsed": 1575693,
		"internal_node_id": "0.0-3.0-0.259-0.259"
	},
	{
		"rt": 2080,
		"stimulus": "<span style=\"font-size:30px; font-family: monospace\">A</span>",
		"response": " ",
		"trial": "exp-sent",
		"word": "A",
		"trial_type": "html-keyboard-response",
		"trial_index": 320,
		"time_elapsed": 1578034,
		"internal_node_id": "0.0-3.0-1.259"
	},
	{
		"rt": 7702,
		"stimulus": "<span style=\"font-size:30px; font-family: monospace\">moça</span>",
		"response": " ",
		"trial": "exp-sent",
		"word": "moça",
		"trial_type": "html-keyboard-response",
		"trial_index": 321,
		"time_elapsed": 1586006,
		"internal_node_id": "0.0-3.0-1.260"
	},
	{
		"rt": 2161,
		"stimulus": "<span style=\"font-size:30px; font-family: monospace\">comprou</span>",
		"response": " ",
		"trial": "exp-sent",
		"word": "comprou",
		"trial_type": "html-keyboard-response",
		"trial_index": 322,
		"time_elapsed": 1588436,
		"internal_node_id": "0.0-3.0-1.261"
	},
	{
		"rt": 1246,
		"stimulus": "<span style=\"font-size:30px; font-family: monospace\">um</span>",
		"response": " ",
		"trial": "exp-sent",
		"word": "um",
		"trial_type": "html-keyboard-response",
		"trial_index": 323,
		"time_elapsed": 1589951,
		"internal_node_id": "0.0-3.0-1.262"
	},
	{
		"rt": 3295,
		"stimulus": "<span style=\"font-size:30px; font-family: monospace\">diamante</span>",
		"response": " ",
		"trial": "exp-sent",
		"word": "diamante",
		"trial_type": "html-keyboard-response",
		"trial_index": 324,
		"time_elapsed": 1593499,
		"internal_node_id": "0.0-3.0-1.263"
	},
	{
		"rt": 1857,
		"stimulus": "<span style=\"font-size:30px; font-family: monospace\">para</span>",
		"response": " ",
		"trial": "exp-sent",
		"word": "para",
		"trial_type": "html-keyboard-response",
		"trial_index": 325,
		"time_elapsed": 1595611,
		"internal_node_id": "0.0-3.0-1.264"
	},
	{
		"rt": 1433,
		"stimulus": "<span style=\"font-size:30px; font-family: monospace\">sua</span>",
		"response": " ",
		"trial": "exp-sent",
		"word": "sua",
		"trial_type": "html-keyboard-response",
		"trial_index": 326,
		"time_elapsed": 1597307,
		"internal_node_id": "0.0-3.0-1.265"
	},
	{
		"rt": 1763,
		"stimulus": "<span style=\"font-size:30px; font-family: monospace\">prima.</span>",
		"response": " ",
		"trial": "comp",
		"word": "prima.",
		"trial_type": "html-keyboard-response",
		"trial_index": 327,
		"time_elapsed": 1599329,
		"internal_node_id": "0.0-3.0-1.266"
	},
	{
		"rt": 23614,
		"stimulus": "<span style=\"font-size:30px; font-family: monospace\">A moça comprou um diamante?</span>",
		"response": "s",
		"question": "A moça comprou um diamante?",
		"answer": "sim",
		"trial": "comp",
		"trial_type": "html-keyboard-response",
		"trial_index": 328,
		"time_elapsed": 1623198,
		"internal_node_id": "0.0-3.0-2.266-0.266",
		"accuracy": false
	},
	{
		"rt": null,
		"stimulus": "<span style= \"font-size:30px; font-family: monospace\">+</span>",
		"response": null,
		"trial_part": "fixation",
		"trial_type": "html-keyboard-response",
		"trial_index": 329,
		"time_elapsed": 1624724,
		"internal_node_id": "0.0-3.0-0.267-0.267"
	},
	{
		"rt": 9373,
		"stimulus": "<span style=\"font-size:30px; font-family: monospace\">Ganhamos</span>",
		"response": " ",
		"trial": "exp-sent",
		"word": "Ganhamos",
		"trial_type": "html-keyboard-response",
		"trial_index": 330,
		"time_elapsed": 1634367,
		"internal_node_id": "0.0-3.0-1.267"
	},
	{
		"rt": 2329,
		"stimulus": "<span style=\"font-size:30px; font-family: monospace\">passagem</span>",
		"response": " ",
		"trial": "exp-sent",
		"word": "passagem",
		"trial_type": "html-keyboard-response",
		"trial_index": 331,
		"time_elapsed": 1636963,
		"internal_node_id": "0.0-3.0-1.268"
	},
	{
		"rt": 1485,
		"stimulus": "<span style=\"font-size:30px; font-family: monospace\">para</span>",
		"response": " ",
		"trial": "exp-sent",
		"word": "para",
		"trial_type": "html-keyboard-response",
		"trial_index": 332,
		"time_elapsed": 1638709,
		"internal_node_id": "0.0-3.0-1.269"
	},
	{
		"rt": 1236,
		"stimulus": "<span style=\"font-size:30px; font-family: monospace\">uma</span>",
		"response": " ",
		"trial": "exp-sent",
		"word": "uma",
		"trial_type": "html-keyboard-response",
		"trial_index": 333,
		"time_elapsed": 1640200,
		"internal_node_id": "0.0-3.0-1.270"
	},
	{
		"rt": 1889,
		"stimulus": "<span style=\"font-size:30px; font-family: monospace\">viagem</span>",
		"response": " ",
		"trial": "exp-sent",
		"word": "viagem",
		"trial_type": "html-keyboard-response",
		"trial_index": 334,
		"time_elapsed": 1642343,
		"internal_node_id": "0.0-3.0-1.271"
	},
	{
		"rt": 1087,
		"stimulus": "<span style=\"font-size:30px; font-family: monospace\">de</span>",
		"response": " ",
		"trial": "exp-sent",
		"word": "de",
		"trial_type": "html-keyboard-response",
		"trial_index": 335,
		"time_elapsed": 1643692,
		"internal_node_id": "0.0-3.0-1.272"
	},
	{
		"rt": 2585,
		"stimulus": "<span style=\"font-size:30px; font-family: monospace\">férias.</span>",
		"response": " ",
		"trial": "exp-sent",
		"word": "férias.",
		"trial_type": "html-keyboard-response",
		"trial_index": 336,
		"time_elapsed": 1646540,
		"internal_node_id": "0.0-3.0-1.273"
	},
	{
		"rt": null,
		"stimulus": "<span style= \"font-size:30px; font-family: monospace\">+</span>",
		"response": null,
		"trial_part": "fixation",
		"trial_type": "html-keyboard-response",
		"trial_index": 337,
		"time_elapsed": 1647814,
		"internal_node_id": "0.0-3.0-0.274-0.274"
	},
	{
		"rt": 4496,
		"stimulus": "<span style=\"font-size:30px; font-family: monospace\">Caiu</span>",
		"response": " ",
		"trial": "exp-sent",
		"word": "Caiu",
		"trial_type": "html-keyboard-response",
		"trial_index": 338,
		"time_elapsed": 1652578,
