"view_history","rt","trial_type","trial_index","time_elapsed","internal_node_id","stimulus","response","class","status","answer","correct","trial","letters"
"[{""page_index"":0,""viewing_time"":49264}]","49264","instructions","0","49268","0.0-0.0","","","","","","","",""
"","null","html-keyboard-response","1","49884","0.0-1.0-0.0","+","null","","","","","",""
"","13661","html-keyboard-response","2","63549","0.0-1.0-1.0","oliva","n","null","cog","word","S","prac","null"
"","null","html-keyboard-response","3","64064","0.0-1.0-0.1","+","null","","","","","",""
"","12475","html-keyboard-response","4","76542","0.0-1.0-1.1","crante","s","null","noncog","pseudo","N","prac","null"
"","null","html-keyboard-response","5","77044","0.0-1.0-0.2","+","null","","","","","",""
"","8177","html-keyboard-response","6","85225","0.0-1.0-1.2","daja","s","null","noncog","pseudo","N","prac","null"
"","null","html-keyboard-response","7","85745","0.0-1.0-0.3","+","null","","","","","",""
"","14791","html-keyboard-response","8","100540","0.0-1.0-1.3","chassi","s","null","cog","word","S","prac","null"
"","null","html-keyboard-response","9","101044","0.0-1.0-0.4","+","null","","","","","",""
"","12937","html-keyboard-response","10","113985","0.0-1.0-1.4","calmaria","s","null","noncog","word","S","prac","null"
"","null","html-keyboard-response","11","114500","0.0-1.0-0.5","+","null","","","","","",""
"","5149","html-keyboard-response","12","119650","0.0-1.0-1.5","órgão","s","null","noncog","word","S","prac","null"
"","null","html-keyboard-response","13","120164","0.0-1.0-0.6","+","null","","","","","",""
"","6531","html-keyboard-response","14","126695","0.0-1.0-1.6","plibar","n","null","noncog","pseudo","N","prac","null"
"[{""page_index"":0,""viewing_time"":32561}]","32561","instructions","15","159257","0.0-2.0","","","","","","","",""
"","null","html-keyboard-response","16","159875","0.0-3.0-0.0","+","null","","","","","",""
"","5125","html-keyboard-response","17","165000","0.0-3.0-1.0","tronca","n","null","noncog","pseudo","N","exp","null"
"","null","html-keyboard-response","18","165504","0.0-3.0-0.1","+","null","","","","","",""
"","5413","html-keyboard-response","19","170918","0.0-3.0-1.1","árovre","s","null","noncog","pseudo","N","exp","null"
"","null","html-keyboard-response","20","171434","0.0-3.0-0.2","+","null","","","","","",""
"","6115","html-keyboard-response","21","177551","0.0-3.0-1.2","lagoa","s","n","cog","word","S","exp","5"
"","null","html-keyboard-response","22","178055","0.0-3.0-0.3","+","null","","","","","",""
"","3605","html-keyboard-response","23","181661","0.0-3.0-1.3","pitada","s","n","noncog","word","S","exp","6"
"","null","html-keyboard-response","24","182165","0.0-3.0-0.4","+","null","","","","","",""
"","4270","html-keyboard-response","25","186435","0.0-3.0-1.4","manfa","n","null","noncog","pseudo","N","exp","null"
"","null","html-keyboard-response","26","186954","0.0-3.0-0.5","+","null","","","","","",""
"","5329","html-keyboard-response","27","192286","0.0-3.0-1.5","atitro","s","null","noncog","pseudo","N","exp","null"
"","null","html-keyboard-response","28","192804","0.0-3.0-0.6","+","null","","","","","",""
"","3505","html-keyboard-response","29","196311","0.0-3.0-1.6","drama","s","n","cog","word","S","exp","5"
"","null","html-keyboard-response","30","196814","0.0-3.0-0.7","+","null","","","","","",""
"","3000","html-keyboard-response","31","199815","0.0-3.0-1.7","oper","s","null","noncog","pseudo","N","exp","null"
"","null","html-keyboard-response","32","200325","0.0-3.0-0.8","+","null","","","","","",""
"","5599","html-keyboard-response","33","205926","0.0-3.0-1.8","esprotiar","n","null","noncog","pseudo","N","exp","null"
"","null","html-keyboard-response","34","206440","0.0-3.0-0.9","+","null","","","","","",""
"","2729","html-keyboard-response","35","209171","0.0-3.0-1.9","ocinto","s","null","noncog","pseudo","N","exp","null"
"","null","html-keyboard-response","36","209684","0.0-3.0-0.10","+","null","","","","","",""
"","3182","html-keyboard-response","37","212867","0.0-3.0-1.10","afonher","s","null","noncog","pseudo","N","exp","null"
"","null","html-keyboard-response","38","213383","0.0-3.0-0.11","+","null","","","","","",""
"","1836","html-keyboard-response","39","215221","0.0-3.0-1.11","tela","s","n","noncog","word","S","exp","4"
"","null","html-keyboard-response","40","215734","0.0-3.0-0.12","+","null","","","","","",""
"","1973","html-keyboard-response","41","217707","0.0-3.0-1.12","aitrou","s","null","noncog","pseudo","N","exp","null"
"","null","html-keyboard-response","42","218224","0.0-3.0-0.13","+","null","","","","","",""
"","6982","html-keyboard-response","43","225207","0.0-3.0-1.13","tartos","s","null","noncog","pseudo","N","exp","null"
"","null","html-keyboard-response","44","225724","0.0-3.0-0.14","+","null","","","","","",""
"","4518","html-keyboard-response","45","230244","0.0-3.0-1.14","frotes","n","null","noncog","pseudo","N","exp","null"
"","null","html-keyboard-response","46","230763","0.0-3.0-0.15","+","null","","","","","",""
"","3859","html-keyboard-response","47","234624","0.0-3.0-1.15","oricia","n","null","noncog","pseudo","N","exp","null"
"","null","html-keyboard-response","48","235139","0.0-3.0-0.16","+","null","","","","","",""
"","3918","html-keyboard-response","49","239057","0.0-3.0-1.16","gordo","s","a","noncog","word","S","exp","5"
"","null","html-keyboard-response","50","239564","0.0-3.0-0.17","+","null","","","","","",""
"","3247","html-keyboard-response","51","242812","0.0-3.0-1.17","livro","s","n","cog","word","S","exp","5"
"","null","html-keyboard-response","52","243314","0.0-3.0-0.18","+","null","","","","","",""
"","5010","html-keyboard-response","53","248326","0.0-3.0-1.18","hipócrita","s","a","noncog","word","S","exp","9"
"","null","html-keyboard-response","54","248844","0.0-3.0-0.19","+","null","","","","","",""
"","4834","html-keyboard-response","55","253678","0.0-3.0-1.19","sustentar","s","v","noncog","word","S","exp","9"
"","null","html-keyboard-response","56","254194","0.0-3.0-0.20","+","null","","","","","",""
"","4096","html-keyboard-response","57","258291","0.0-3.0-1.20","pantufa","s","n","cog","word","S","exp","7"
"","null","html-keyboard-response","58","258794","0.0-3.0-0.21","+","null","","","","","",""
"","3290","html-keyboard-response","59","262085","0.0-3.0-1.21","independente","s","a","noncog","word","S","exp","12"
"","null","html-keyboard-response","60","262604","0.0-3.0-0.22","+","null","","","","","",""
"","3184","html-keyboard-response","61","265789","0.0-3.0-1.22","berquesa","s","null","noncog","pseudo","N","exp","null"
"","null","html-keyboard-response","62","266305","0.0-3.0-0.23","+","null","","","","","",""
"","3069","html-keyboard-response","63","269375","0.0-3.0-1.23","esfoce","s","null","noncog","pseudo","N","exp","null"
"","null","html-keyboard-response","64","269894","0.0-3.0-0.24","+","null","","","","","",""
"","1985","html-keyboard-response","65","271880","0.0-3.0-1.24","destino","s","n","cog","word","S","exp","7"
"","null","html-keyboard-response","66","272384","0.0-3.0-0.25","+","null","","","","","",""
"","4304","html-keyboard-response","67","276689","0.0-3.0-1.25","nevela","s","null","noncog","pseudo","N","exp","null"
"","null","html-keyboard-response","68","277204","0.0-3.0-0.26","+","null","","","","","",""
"","6370","html-keyboard-response","69","283575","0.0-3.0-1.26","quenzina","s","null","noncog","pseudo","N","exp","null"
"","null","html-keyboard-response","70","284084","0.0-3.0-0.27","+","null","","","","","",""
"","3930","html-keyboard-response","71","288015","0.0-3.0-1.27","oecano","s","null","noncog","pseudo","N","exp","null"
"","null","html-keyboard-response","72","288524","0.0-3.0-0.28","+","null","","","","","",""
"","2659","html-keyboard-response","73","291185","0.0-3.0-1.28","chorão","s","a","noncog","word","S","exp","6"
"","null","html-keyboard-response","74","291704","0.0-3.0-0.29","+","null","","","","","",""
"","4683","html-keyboard-response","75","296388","0.0-3.0-1.29","jastor","n","null","noncog","pseudo","N","exp","null"
"","null","html-keyboard-response","76","296894","0.0-3.0-0.30","+","null","","","","","",""
"","2124","html-keyboard-response","77","299020","0.0-3.0-1.30","especial","s","a","cog","word","S","exp","8"
"","null","html-keyboard-response","78","299525","0.0-3.0-0.31","+","null","","","","","",""
"","2413","html-keyboard-response","79","301939","0.0-3.0-1.31","cravo","s","n","noncog","word","S","exp","5"
"","null","html-keyboard-response","80","302454","0.0-3.0-0.32","+","null","","","","","",""
"","1562","html-keyboard-response","81","304018","0.0-3.0-1.32","telefone","s","n","cog","word","S","exp","8"
"","null","html-keyboard-response","82","304534","0.0-3.0-0.33","+","null","","","","","",""
"","1803","html-keyboard-response","83","306338","0.0-3.0-1.33","alpica","s","null","noncog","pseudo","N","exp","null"
"","null","html-keyboard-response","84","306854","0.0-3.0-0.34","+","null","","","","","",""
"","2202","html-keyboard-response","85","309057","0.0-3.0-1.34","hébies","s","null","noncog","pseudo","N","exp","null"
"","null","html-keyboard-response","86","309564","0.0-3.0-0.35","+","null","","","","","",""
"","4912","html-keyboard-response","87","314477","0.0-3.0-1.35","cascata","n","n","noncog","word","S","exp","7"
"","null","html-keyboard-response","88","314983","0.0-3.0-0.36","+","null","","","","","",""
"","1322","html-keyboard-response","89","316308","0.0-3.0-1.36","tio","s","n","noncog","word","S","exp","3"
"","null","html-keyboard-response","90","316824","0.0-3.0-0.37","+","null","","","","","",""
"","1645","html-keyboard-response","91","318470","0.0-3.0-1.37","esperar","s","v","cog","word","S","exp","7"
"","null","html-keyboard-response","92","318975","0.0-3.0-0.38","+","null","","","","","",""
"","2478","html-keyboard-response","93","321453","0.0-3.0-1.38","enxarto","s","null","noncog","pseudo","N","exp","null"
"","null","html-keyboard-response","94","321954","0.0-3.0-0.39","+","null","","","","","",""
"","5553","html-keyboard-response","95","327506","0.0-3.0-1.39","planalto","n","n","cog","word","S","exp","8"
"","null","html-keyboard-response","96","328015","0.0-3.0-0.40","+","null","","","","","",""
"","1322","html-keyboard-response","97","329337","0.0-3.0-1.40","sanque","s","null","noncog","pseudo","N","exp","null"
"","null","html-keyboard-response","98","329854","0.0-3.0-0.41","+","null","","","","","",""
"","1175","html-keyboard-response","99","331031","0.0-3.0-1.41","tênis","s","n","cog","word","S","exp","5"
"","null","html-keyboard-response","100","331534","0.0-3.0-0.42","+","null","","","","","",""
"","2399","html-keyboard-response","101","333935","0.0-3.0-1.42","burtos","s","null","noncog","pseudo","N","exp","null"
"","null","html-keyboard-response","102","334444","0.0-3.0-0.43","+","null","","","","","",""
"","2488","html-keyboard-response","103","336933","0.0-3.0-1.43","dipata","s","null","noncog","pseudo","N","exp","null"
"","null","html-keyboard-response","104","337434","0.0-3.0-0.44","+","null","","","","","",""
"","5151","html-keyboard-response","105","342587","0.0-3.0-1.44","incomodar","s","v","noncog","word","S","exp","9"
"","null","html-keyboard-response","106","343104","0.0-3.0-0.45","+","null","","","","","",""
"","2761","html-keyboard-response","107","345866","0.0-3.0-1.45","mania","s","n","cog","word","S","exp","5"
"","null","html-keyboard-response","108","346384","0.0-3.0-0.46","+","null","","","","","",""
"","1457","html-keyboard-response","109","347842","0.0-3.0-1.46","cerca","s","n","noncog","word","S","exp","5"
"","null","html-keyboard-response","110","348354","0.0-3.0-0.47","+","null","","","","","",""
"","2370","html-keyboard-response","111","350725","0.0-3.0-1.47","motros","s","null","noncog","pseudo","N","exp","null"
"","null","html-keyboard-response","112","351234","0.0-3.0-0.48","+","null","","","","","",""
"","3042","html-keyboard-response","113","354277","0.0-3.0-1.48","traduzir","s","v","cog","word","S","exp","8"
"","null","html-keyboard-response","114","354784","0.0-3.0-0.49","+","null","","","","","",""
"","2052","html-keyboard-response","115","356837","0.0-3.0-1.49","pedaço","s","n","noncog","word","S","exp","6"
"","null","html-keyboard-response","116","357344","0.0-3.0-0.50","+","null","","","","","",""
"","5585","html-keyboard-response","117","362930","0.0-3.0-1.50","vervas","n","null","noncog","pseudo","N","exp","null"
"","null","html-keyboard-response","118","363434","0.0-3.0-0.51","+","null","","","","","",""
"","5464","html-keyboard-response","119","368900","0.0-3.0-1.51","morija","n","null","noncog","pseudo","N","exp","null"
"","null","html-keyboard-response","120","369404","0.0-3.0-0.52","+","null","","","","","",""
"","5785","html-keyboard-response","121","375190","0.0-3.0-1.52","parceter","n","null","noncog","pseudo","N","exp","null"
"","null","html-keyboard-response","122","375704","0.0-3.0-0.53","+","null","","","","","",""
"","2267","html-keyboard-response","123","377973","0.0-3.0-1.53","nacional","s","a","cog","word","S","exp","8"
"","null","html-keyboard-response","124","378494","0.0-3.0-0.54","+","null","","","","","",""
"","8354","html-keyboard-response","125","386849","0.0-3.0-1.54","ejerro","s","null","noncog","pseudo","N","exp","null"
"","null","html-keyboard-response","126","387364","0.0-3.0-0.55","+","null","","","","","",""
"","6328","html-keyboard-response","127","393694","0.0-3.0-1.55","bambu","s","n","cog","word","S","exp","5"
"","null","html-keyboard-response","128","394213","0.0-3.0-0.56","+","null","","","","","",""
"","4697","html-keyboard-response","129","398912","0.0-3.0-1.56","avenas","s","null","noncog","pseudo","N","exp","null"
"","null","html-keyboard-response","130","399424","0.0-3.0-0.57","+","null","","","","","",""
"","6191","html-keyboard-response","131","405617","0.0-3.0-1.57","delirar","n","v","noncog","word","S","exp","7"
"","null","html-keyboard-response","132","406134","0.0-3.0-0.58","+","null","","","","","",""
"","1537","html-keyboard-response","133","407673","0.0-3.0-1.58","viver","s","v","cog","word","S","exp","5"
"","null","html-keyboard-response","134","408185","0.0-3.0-0.59","+","null","","","","","",""
"","2923","html-keyboard-response","135","411109","0.0-3.0-1.59","atapdar","s","null","noncog","pseudo","N","exp","null"
"","null","html-keyboard-response","136","411625","0.0-3.0-0.60","+","null","","","","","",""
"","6064","html-keyboard-response","137","417688","0.0-3.0-1.60","braras","n","null","noncog","pseudo","N","exp","null"
"","null","html-keyboard-response","138","418193","0.0-3.0-0.61","+","null","","","","","",""
"","2075","html-keyboard-response","139","420270","0.0-3.0-1.61","rédesa","s","null","noncog","pseudo","N","exp","null"
"","null","html-keyboard-response","140","420785","0.0-3.0-0.62","+","null","","","","","",""
"","2006","html-keyboard-response","141","422792","0.0-3.0-1.62","adoçar","s","v","noncog","word","S","exp","6"
"","null","html-keyboard-response","142","423294","0.0-3.0-0.63","+","null","","","","","",""
"","4571","html-keyboard-response","143","427867","0.0-3.0-1.63","escumo","n","null","noncog","pseudo","N","exp","null"
"","null","html-keyboard-response","144","428374","0.0-3.0-0.64","+","null","","","","","",""
"","5929","html-keyboard-response","145","434304","0.0-3.0-1.64","disbrituir","n","null","noncog","pseudo","N","exp","null"
"","null","html-keyboard-response","146","434814","0.0-3.0-0.65","+","null","","","","","",""
"","6393","html-keyboard-response","147","441208","0.0-3.0-1.65","ronronar","s","v","cog","word","S","exp","8"
"","null","html-keyboard-response","148","441724","0.0-3.0-0.66","+","null","","","","","",""
"","8021","html-keyboard-response","149","449745","0.0-3.0-1.66","mabras","n","null","noncog","pseudo","N","exp","null"
"","null","html-keyboard-response","150","450265","0.0-3.0-0.67","+","null","","","","","",""
"","3147","html-keyboard-response","151","453413","0.0-3.0-1.67","multiplicar","s","v","cog","word","S","exp","11"
"","null","html-keyboard-response","152","453915","0.0-3.0-0.68","+","null","","","","","",""
"","2122","html-keyboard-response","153","456037","0.0-3.0-1.68","revear","s","null","noncog","pseudo","N","exp","null"
"","null","html-keyboard-response","154","456555","0.0-3.0-0.69","+","null","","","","","",""
"","8105","html-keyboard-response","155","464661","0.0-3.0-1.69","âgnulo","s","null","noncog","pseudo","N","exp","null"
"","null","html-keyboard-response","156","465164","0.0-3.0-0.70","+","null","","","","","",""
"","2298","html-keyboard-response","157","467464","0.0-3.0-1.70","resmungar","s","v","noncog","word","S","exp","9"
"","null","html-keyboard-response","158","467965","0.0-3.0-0.71","+","null","","","","","",""
"","3965","html-keyboard-response","159","471932","0.0-3.0-1.71","protas","s","null","noncog","pseudo","N","exp","null"
"","null","html-keyboard-response","160","472444","0.0-3.0-0.72","+","null","","","","","",""
"","3036","html-keyboard-response","161","475481","0.0-3.0-1.72","gertas","n","null","noncog","pseudo","N","exp","null"
"","null","html-keyboard-response","162","475984","0.0-3.0-0.73","+","null","","","","","",""
"","5721","html-keyboard-response","163","481708","0.0-3.0-1.73","mua","n","null","noncog","pseudo","N","exp","null"
"","null","html-keyboard-response","164","482224","0.0-3.0-0.74","+","null","","","","","",""
"","3951","html-keyboard-response","165","486177","0.0-3.0-1.74","perbas","s","null","noncog","pseudo","N","exp","null"
"","null","html-keyboard-response","166","486695","0.0-3.0-0.75","+","null","","","","","",""
"","1918","html-keyboard-response","167","488613","0.0-3.0-1.75","cristal","s","n","cog","word","S","exp","7"
"","null","html-keyboard-response","168","489124","0.0-3.0-0.76","+","null","","","","","",""
"","1450","html-keyboard-response","169","490574","0.0-3.0-1.76","ótimo","s","a","noncog","word","S","exp","5"
"","null","html-keyboard-response","170","491094","0.0-3.0-0.77","+","null","","","","","",""
"","3493","html-keyboard-response","171","494589","0.0-3.0-1.77","manais","s","null","noncog","pseudo","N","exp","null"
"","null","html-keyboard-response","172","495104","0.0-3.0-0.78","+","null","","","","","",""
"","1878","html-keyboard-response","173","496983","0.0-3.0-1.78","apontar","s","v","noncog","word","S","exp","7"
"","null","html-keyboard-response","174","497504","0.0-3.0-0.79","+","null","","","","","",""
"","5356","html-keyboard-response","175","502862","0.0-3.0-1.79","motre","s","null","noncog","pseudo","N","exp","null"
"","null","html-keyboard-response","176","503364","0.0-3.0-0.80","+","null","","","","","",""
"","3284","html-keyboard-response","177","506650","0.0-3.0-1.80","verdade","s","n","cog","word","S","exp","7"
"","null","html-keyboard-response","178","507154","0.0-3.0-0.81","+","null","","","","","",""
"","6457","html-keyboard-response","179","513611","0.0-3.0-1.81","ofreta","n","null","noncog","pseudo","N","exp","null"
"","null","html-keyboard-response","180","514118","0.0-3.0-0.82","+","null","","","","","",""
"","1733","html-keyboard-response","181","515852","0.0-3.0-1.82","reduzir","s","v","cog","word","S","exp","7"
"","null","html-keyboard-response","182","516364","0.0-3.0-0.83","+","null","","","","","",""
"","1926","html-keyboard-response","183","518291","0.0-3.0-1.83","trabalhar","s","v","noncog","word","S","exp","9"
"","null","html-keyboard-response","184","518794","0.0-3.0-0.84","+","null","","","","","",""
"","6848","html-keyboard-response","185","525643","0.0-3.0-1.84","aletiê","n","null","noncog","pseudo","N","exp","null"
"","null","html-keyboard-response","186","526154","0.0-3.0-0.85","+","null","","","","","",""
"","4201","html-keyboard-response","187","530357","0.0-3.0-1.85","salpicado","n","a","noncog","word","S","exp","9"
"","null","html-keyboard-response","188","530865","0.0-3.0-0.86","+","null","","","","","",""
"","4709","html-keyboard-response","189","535575","0.0-3.0-1.86","risbos","s","null","noncog","pseudo","N","exp","null"
"","null","html-keyboard-response","190","536084","0.0-3.0-0.87","+","null","","","","","",""
"","2715","html-keyboard-response","191","538799","0.0-3.0-1.87","cápsula","s","n","noncog","word","S","exp","7"
"","null","html-keyboard-response","192","539314","0.0-3.0-0.88","+","null","","","","","",""
"","3341","html-keyboard-response","193","542656","0.0-3.0-1.88","temperar","s","v","noncog","word","S","exp","8"
"","null","html-keyboard-response","194","543174","0.0-3.0-0.89","+","null","","","","","",""
"","1692","html-keyboard-response","195","544869","0.0-3.0-1.89","aperor","s","null","noncog","pseudo","N","exp","null"
"","null","html-keyboard-response","196","545384","0.0-3.0-0.90","+","null","","","","","",""
"","1758","html-keyboard-response","197","547142","0.0-3.0-1.90","revista","s","n","cog","word","S","exp","7"
"","null","html-keyboard-response","198","547645","0.0-3.0-0.91","+","null","","","","","",""
"","2498","html-keyboard-response","199","550143","0.0-3.0-1.91","alfabeto","s","n","cog","word","S","exp","8"
"","null","html-keyboard-response","200","550664","0.0-3.0-0.92","+","null","","","","","",""
"","1462","html-keyboard-response","201","552128","0.0-3.0-1.92","casuas","s","null","noncog","pseudo","N","exp","null"
"","null","html-keyboard-response","202","552645","0.0-3.0-0.93","+","null","","","","","",""
"","1461","html-keyboard-response","203","554107","0.0-3.0-1.93","espaço","s","n","cog","word","S","exp","6"
"","null","html-keyboard-response","204","554624","0.0-3.0-0.94","+","null","","","","","",""
"","6237","html-keyboard-response","205","560863","0.0-3.0-1.94","faínas","n","null","noncog","pseudo","N","exp","null"
"","null","html-keyboard-response","206","561384","0.0-3.0-0.95","+","null","","","","","",""
"","2582","html-keyboard-response","207","563968","0.0-3.0-1.95","espionar","s","v","cog","word","S","exp","8"
"","null","html-keyboard-response","208","564484","0.0-3.0-0.96","+","null","","","","","",""
"","4872","html-keyboard-response","209","569357","0.0-3.0-1.96","rovaz","n","null","noncog","pseudo","N","exp","null"
"","null","html-keyboard-response","210","569864","0.0-3.0-0.97","+","null","","","","","",""
"","1707","html-keyboard-response","211","571572","0.0-3.0-1.97","mudança","s","n","noncog","word","S","exp","7"
"","null","html-keyboard-response","212","572084","0.0-3.0-0.98","+","null","","","","","",""
"","5686","html-keyboard-response","213","577772","0.0-3.0-1.98","lorfaz","s","null","noncog","pseudo","N","exp","null"
"","null","html-keyboard-response","214","578284","0.0-3.0-0.99","+","null","","","","","",""
"","2355","html-keyboard-response","215","580641","0.0-3.0-1.99","preferir","s","v","cog","word","S","exp","8"
"","null","html-keyboard-response","216","581144","0.0-3.0-0.100","+","null","","","","","",""
"","1935","html-keyboard-response","217","583079","0.0-3.0-1.100","prever","s","v","cog","word","S","exp","6"
"","null","html-keyboard-response","218","583594","0.0-3.0-0.101","+","null","","","","","",""
"","1425","html-keyboard-response","219","585021","0.0-3.0-1.101","nome","s","n","cog","word","S","exp","4"
"","null","html-keyboard-response","220","585534","0.0-3.0-0.102","+","null","","","","","",""
"","2801","html-keyboard-response","221","588337","0.0-3.0-1.102","detative","s","null","noncog","pseudo","N","exp","null"
"","null","html-keyboard-response","222","588854","0.0-3.0-0.103","+","null","","","","","",""
"","7161","html-keyboard-response","223","596015","0.0-3.0-1.103","euorpa","s","null","noncog","pseudo","N","exp","null"
"","null","html-keyboard-response","224","596524","0.0-3.0-0.104","+","null","","","","","",""
"","3012","html-keyboard-response","225","599538","0.0-3.0-1.104","senareta","n","null","noncog","pseudo","N","exp","null"
"","null","html-keyboard-response","226","600054","0.0-3.0-0.105","+","null","","","","","",""
"","1703","html-keyboard-response","227","601759","0.0-3.0-1.105","brincar","s","v","noncog","word","S","exp","7"
"","null","html-keyboard-response","228","602264","0.0-3.0-0.106","+","null","","","","","",""
"","2147","html-keyboard-response","229","604411","0.0-3.0-1.106","instruído","s","a","noncog","word","S","exp","9"
"","null","html-keyboard-response","230","604918","0.0-3.0-0.107","+","null","","","","","",""
"","3954","html-keyboard-response","231","608874","0.0-3.0-1.107","pimada","n","null","noncog","pseudo","N","exp","null"
"","null","html-keyboard-response","232","609384","0.0-3.0-0.108","+","null","","","","","",""
"","3261","html-keyboard-response","233","612647","0.0-3.0-1.108","bagunceira","s","a","noncog","word","S","exp","10"
"","null","html-keyboard-response","234","613155","0.0-3.0-0.109","+","null","","","","","",""
"","8699","html-keyboard-response","235","621855","0.0-3.0-1.109","crolatário","n","null","noncog","pseudo","N","exp","null"
"","null","html-keyboard-response","236","622364","0.0-3.0-0.110","+","null","","","","","",""
"","1609","html-keyboard-response","237","623973","0.0-3.0-1.110","tinta","s","n","cog","word","S","exp","5"
"","null","html-keyboard-response","238","624474","0.0-3.0-0.111","+","null","","","","","",""
"","2913","html-keyboard-response","239","627388","0.0-3.0-1.111","distraído","s","a","cog","word","S","exp","9"
"","null","html-keyboard-response","240","627905","0.0-3.0-0.112","+","null","","","","","",""
"","4895","html-keyboard-response","241","632799","0.0-3.0-1.112","lagras","n","null","noncog","pseudo","N","exp","null"
"","null","html-keyboard-response","242","633315","0.0-3.0-0.113","+","null","","","","","",""
"","2246","html-keyboard-response","243","635561","0.0-3.0-1.113","medalha","s","n","cog","word","S","exp","7"
"","null","html-keyboard-response","244","636064","0.0-3.0-0.114","+","null","","","","","",""
"","2357","html-keyboard-response","245","638423","0.0-3.0-1.114","melão","s","n","cog","word","S","exp","5"
"","null","html-keyboard-response","246","638925","0.0-3.0-0.115","+","null","","","","","",""
"","5087","html-keyboard-response","247","644012","0.0-3.0-1.115","glória","s","n","cog","word","S","exp","6"
"","null","html-keyboard-response","248","644514","0.0-3.0-0.116","+","null","","","","","",""
"","2815","html-keyboard-response","249","647330","0.0-3.0-1.116","pega-pega","s","n","noncog","word","S","exp","8"
"","null","html-keyboard-response","250","647844","0.0-3.0-0.117","+","null","","","","","",""
"","926","html-keyboard-response","251","648772","0.0-3.0-1.117","país","s","n","noncog","word","S","exp","4"
"","null","html-keyboard-response","252","649284","0.0-3.0-0.118","+","null","","","","","",""
"","2701","html-keyboard-response","253","651986","0.0-3.0-1.118","abieso","s","null","noncog","pseudo","N","exp","null"
"","null","html-keyboard-response","254","652494","0.0-3.0-0.119","+","null","","","","","",""
"","2158","html-keyboard-response","255","654654","0.0-3.0-1.119","gilha","s","null","noncog","pseudo","N","exp","null"
"","null","html-keyboard-response","256","655165","0.0-3.0-0.120","+","null","","","","","",""
"","3719","html-keyboard-response","257","658885","0.0-3.0-1.120","agravar","s","v","cog","word","S","exp","7"
"","null","html-keyboard-response","258","659404","0.0-3.0-0.121","+","null","","","","","",""
"","2419","html-keyboard-response","259","661824","0.0-3.0-1.121","agressivo","s","a","cog","word","S","exp","9"
"","null","html-keyboard-response","260","662334","0.0-3.0-0.122","+","null","","","","","",""
"","1553","html-keyboard-response","261","663888","0.0-3.0-1.122","trenos","s","null","noncog","pseudo","N","exp","null"
"","null","html-keyboard-response","262","664392","0.0-3.0-0.123","+","null","","","","","",""
"","2174","html-keyboard-response","263","666567","0.0-3.0-1.123","promessa","s","n","noncog","word","S","exp","8"
"","null","html-keyboard-response","264","667075","0.0-3.0-0.124","+","null","","","","","",""
"","4419","html-keyboard-response","265","671494","0.0-3.0-1.124","usfiga","s","null","noncog","pseudo","N","exp","null"
"","null","html-keyboard-response","266","672004","0.0-3.0-0.125","+","null","","","","","",""
"","2031","html-keyboard-response","267","674038","0.0-3.0-1.125","ensuas","s","null","noncog","pseudo","N","exp","null"
"","null","html-keyboard-response","268","674554","0.0-3.0-0.126","+","null","","","","","",""
"","3414","html-keyboard-response","269","677969","0.0-3.0-1.126","terdia","s","null","noncog","pseudo","N","exp","null"
"","null","html-keyboard-response","270","678485","0.0-3.0-0.127","+","null","","","","","",""
"","4084","html-keyboard-response","271","682569","0.0-3.0-1.127","dacada","s","null","noncog","pseudo","N","exp","null"
"","null","html-keyboard-response","272","683075","0.0-3.0-0.128","+","null","","","","","",""
"","2134","html-keyboard-response","273","685209","0.0-3.0-1.128","cinema","s","n","cog","word","S","exp","6"
"","null","html-keyboard-response","274","685714","0.0-3.0-0.129","+","null","","","","","",""
"","7742","html-keyboard-response","275","693458","0.0-3.0-1.129","irratinte","s","null","noncog","pseudo","N","exp","null"
"","null","html-keyboard-response","276","693964","0.0-3.0-0.130","+","null","","","","","",""
"","4593","html-keyboard-response","277","698558","0.0-3.0-1.130","cenada","s","null","noncog","pseudo","N","exp","null"
"","null","html-keyboard-response","278","699074","0.0-3.0-0.131","+","null","","","","","",""
"","3131","html-keyboard-response","279","702206","0.0-3.0-1.131","animado","s","a","noncog","word","S","exp","7"
"","null","html-keyboard-response","280","702724","0.0-3.0-0.132","+","null","","","","","",""
"","7033","html-keyboard-response","281","709758","0.0-3.0-1.132","undivídio","s","null","noncog","pseudo","N","exp","null"
"","null","html-keyboard-response","282","710264","0.0-3.0-0.133","+","null","","","","","",""
"","2507","html-keyboard-response","283","712773","0.0-3.0-1.133","carona","s","n","noncog","word","S","exp","6"
"","null","html-keyboard-response","284","713275","0.0-3.0-0.134","+","null","","","","","",""
"","1607","html-keyboard-response","285","714883","0.0-3.0-1.134","jantar","s","v","noncog","word","S","exp","6"
"","null","html-keyboard-response","286","715394","0.0-3.0-0.135","+","null","","","","","",""
"","6397","html-keyboard-response","287","721792","0.0-3.0-1.135","beima","n","null","noncog","pseudo","N","exp","null"
"","null","html-keyboard-response","288","722294","0.0-3.0-0.136","+","null","","","","","",""
"","2569","html-keyboard-response","289","724865","0.0-3.0-1.136","comércio","s","n","noncog","word","S","exp","8"
"","null","html-keyboard-response","290","725384","0.0-3.0-0.137","+","null","","","","","",""
"","3487","html-keyboard-response","291","728873","0.0-3.0-1.137","pritas","s","null","noncog","pseudo","N","exp","null"
"","null","html-keyboard-response","292","729374","0.0-3.0-0.138","+","null","","","","","",""
"","6342","html-keyboard-response","293","735718","0.0-3.0-1.138","franda","n","null","noncog","pseudo","N","exp","null"
"","null","html-keyboard-response","294","736234","0.0-3.0-0.139","+","null","","","","","",""
"","1876","html-keyboard-response","295","738112","0.0-3.0-1.139","fogão","s","n","noncog","word","S","exp","5"
"","null","html-keyboard-response","296","738625","0.0-3.0-0.140","+","null","","","","","",""
"","1660","html-keyboard-response","297","740287","0.0-3.0-1.140","nervoso","s","a","noncog","word","S","exp","7"
"","null","html-keyboard-response","298","740794","0.0-3.0-0.141","+","null","","","","","",""
"","8640","html-keyboard-response","299","749436","0.0-3.0-1.141","candifência","s","null","noncog","pseudo","N","exp","null"
"","null","html-keyboard-response","300","749944","0.0-3.0-0.142","+","null","","","","","",""
"","5682","html-keyboard-response","301","755628","0.0-3.0-1.142","fusbão","n","null","noncog","pseudo","N","exp","null"
"","null","html-keyboard-response","302","756134","0.0-3.0-0.143","+","null","","","","","",""
"","2890","html-keyboard-response","303","759025","0.0-3.0-1.143","gruja","n","null","noncog","pseudo","N","exp","null"
"","null","html-keyboard-response","304","759535","0.0-3.0-0.144","+","null","","","","","",""
"","2699","html-keyboard-response","305","762233","0.0-3.0-1.144","trair","s","v","cog","word","S","exp","5"
"","null","html-keyboard-response","306","762745","0.0-3.0-0.145","+","null","","","","","",""
"","3815","html-keyboard-response","307","766561","0.0-3.0-1.145","areia","s","n","noncog","word","S","exp","5"
"","null","html-keyboard-response","308","767074","0.0-3.0-0.146","+","null","","","","","",""
"","3422","html-keyboard-response","309","770497","0.0-3.0-1.146","fasdas","n","null","noncog","pseudo","N","exp","null"
"","null","html-keyboard-response","310","771005","0.0-3.0-0.147","+","null","","","","","",""
"","4689","html-keyboard-response","311","775696","0.0-3.0-1.147","uchães","n","null","noncog","pseudo","N","exp","null"
"","null","html-keyboard-response","312","776205","0.0-3.0-0.148","+","null","","","","","",""
"","4290","html-keyboard-response","313","780500","0.0-3.0-1.148","dobradiça","s","n","noncog","word","S","exp","9"
"","null","html-keyboard-response","314","781004","0.0-3.0-0.149","+","null","","","","","",""
"","5882","html-keyboard-response","315","786889","0.0-3.0-1.149","verceja","n","null","noncog","pseudo","N","exp","null"
"","null","html-keyboard-response","316","787394","0.0-3.0-0.150","+","null","","","","","",""
"","2220","html-keyboard-response","317","789618","0.0-3.0-1.150","pulmão","s","n","noncog","word","S","exp","6"
"","null","html-keyboard-response","318","790135","0.0-3.0-0.151","+","null","","","","","",""
"","1850","html-keyboard-response","319","791987","0.0-3.0-1.151","convidado","s","n","noncog","word","S","exp","9"
"","null","html-keyboard-response","320","792505","0.0-3.0-0.152","+","null","","","","","",""
"","1654","html-keyboard-response","321","794161","0.0-3.0-1.152","anjo","s","n","cog","word","S","exp","4"
"","null","html-keyboard-response","322","794664","0.0-3.0-0.153","+","null","","","","","",""
"","2362","html-keyboard-response","323","797028","0.0-3.0-1.153","morno","s","a","noncog","word","S","exp","5"
"","null","html-keyboard-response","324","797534","0.0-3.0-0.154","+","null","","","","","",""
"","1888","html-keyboard-response","325","799424","0.0-3.0-1.154","chato","s","n","noncog","word","S","exp","5"
"","null","html-keyboard-response","326","799929","0.0-3.0-0.155","+","null","","","","","",""
"","1155","html-keyboard-response","327","801086","0.0-3.0-1.155","fino","s","a","cog","word","S","exp","4"
"","null","html-keyboard-response","328","801594","0.0-3.0-0.156","+","null","","","","","",""
"","1038","html-keyboard-response","329","802634","0.0-3.0-1.156","filme","s","n","cog","word","S","exp","5"
"","null","html-keyboard-response","330","803144","0.0-3.0-0.157","+","null","","","","","",""
"","1680","html-keyboard-response","331","804826","0.0-3.0-1.157","farcas","s","null","noncog","pseudo","N","exp","null"
"","null","html-keyboard-response","332","805334","0.0-3.0-0.158","+","null","","","","","",""
"","1568","html-keyboard-response","333","806904","0.0-3.0-1.158","sábio","s","n","noncog","word","S","exp","5"
"","null","html-keyboard-response","334","807425","0.0-3.0-0.159","+","null","","","","","",""
"","1367","html-keyboard-response","335","808792","0.0-3.0-1.159","verde","s","a","noncog","word","S","exp","5"
"","null","html-keyboard-response","336","809304","0.0-3.0-0.160","+","null","","","","","",""
"","2318","html-keyboard-response","337","811623","0.0-3.0-1.160","aparme","s","null","noncog","pseudo","N","exp","null"
"","null","html-keyboard-response","338","812134","0.0-3.0-0.161","+","null","","","","","",""
"","2243","html-keyboard-response","339","814377","0.0-3.0-1.161","aivões","s","null","noncog","pseudo","N","exp","null"
"","null","html-keyboard-response","340","814891","0.0-3.0-0.162","+","null","","","","","",""
"","3488","html-keyboard-response","341","818381","0.0-3.0-1.162","carregar","s","v","noncog","word","S","exp","8"
"","null","html-keyboard-response","342","818895","0.0-3.0-0.163","+","null","","","","","",""
"","6797","html-keyboard-response","343","825692","0.0-3.0-1.163","podilo","s","null","noncog","pseudo","N","exp","null"
"","null","html-keyboard-response","344","826204","0.0-3.0-0.164","+","null","","","","","",""
"","2011","html-keyboard-response","345","828217","0.0-3.0-1.164","crutas","s","null","noncog","pseudo","N","exp","null"
"","null","html-keyboard-response","346","828734","0.0-3.0-0.165","+","null","","","","","",""
"","3657","html-keyboard-response","347","832394","0.0-3.0-1.165","usnado","n","null","noncog","pseudo","N","exp","null"
"","null","html-keyboard-response","348","832894","0.0-3.0-0.166","+","null","","","","","",""
"","2282","html-keyboard-response","349","835178","0.0-3.0-1.166","enedro","n","null","noncog","pseudo","N","exp","null"
"","null","html-keyboard-response","350","835684","0.0-3.0-0.167","+","null","","","","","",""
"","4358","html-keyboard-response","351","840044","0.0-3.0-1.167","barco","s","n","cog","word","S","exp","5"
"","null","html-keyboard-response","352","840565","0.0-3.0-0.168","+","null","","","","","",""
"","3097","html-keyboard-response","353","843667","0.0-3.0-1.168","sintonizar","s","v","noncog","word","S","exp","10"
"","null","html-keyboard-response","354","844184","0.0-3.0-0.169","+","null","","","","","",""
"","1863","html-keyboard-response","355","846049","0.0-3.0-1.169","promeção","s","null","noncog","pseudo","N","exp","null"
"","null","html-keyboard-response","356","846554","0.0-3.0-0.170","+","null","","","","","",""
"","5215","html-keyboard-response","357","851772","0.0-3.0-1.170","delomir","n","null","noncog","pseudo","N","exp","null"
"","null","html-keyboard-response","358","852285","0.0-3.0-0.171","+","null","","","","","",""
"","5211","html-keyboard-response","359","857497","0.0-3.0-1.171","dencosto","s","null","noncog","pseudo","N","exp","null"
"","null","html-keyboard-response","360","858014","0.0-3.0-0.172","+","null","","","","","",""
"","4000","html-keyboard-response","361","862018","0.0-3.0-1.172","afual","n","null","noncog","pseudo","N","exp","null"
"","null","html-keyboard-response","362","862525","0.0-3.0-0.173","+","null","","","","","",""
"","2727","html-keyboard-response","363","865254","0.0-3.0-1.173","ilhure","s","null","noncog","pseudo","N","exp","null"
"","null","html-keyboard-response","364","865765","0.0-3.0-0.174","+","null","","","","","",""
"","1514","html-keyboard-response","365","867282","0.0-3.0-1.174","perdão","s","n","noncog","word","S","exp","6"
"","null","html-keyboard-response","366","867795","0.0-3.0-0.175","+","null","","","","","",""
"","2723","html-keyboard-response","367","870519","0.0-3.0-1.175","boreta","s","null","noncog","pseudo","N","exp","null"
"","null","html-keyboard-response","368","871024","0.0-3.0-0.176","+","null","","","","","",""
"","1602","html-keyboard-response","369","872627","0.0-3.0-1.176","telafonir","s","null","noncog","pseudo","N","exp","null"
"","null","html-keyboard-response","370","873144","0.0-3.0-0.177","+","null","","","","","",""
"","1616","html-keyboard-response","371","874762","0.0-3.0-1.177","selir","s","null","noncog","pseudo","N","exp","null"
"","null","html-keyboard-response","372","875274","0.0-3.0-0.178","+","null","","","","","",""
"","1895","html-keyboard-response","373","877171","0.0-3.0-1.178","prenas","s","null","noncog","pseudo","N","exp","null"
"","null","html-keyboard-response","374","877674","0.0-3.0-0.179","+","null","","","","","",""
"","1185","html-keyboard-response","375","878860","0.0-3.0-1.179","bracos","s","null","noncog","pseudo","N","exp","null"
"","null","html-keyboard-response","376","879374","0.0-3.0-0.180","+","null","","","","","",""
"","1780","html-keyboard-response","377","881155","0.0-3.0-1.180","atrasar","s","v","noncog","word","S","exp","7"
"","null","html-keyboard-response","378","881664","0.0-3.0-0.181","+","null","","","","","",""
"","5386","html-keyboard-response","379","887051","0.0-3.0-1.181","pneucania","s","null","noncog","pseudo","N","exp","null"
"","null","html-keyboard-response","380","887554","0.0-3.0-0.182","+","null","","","","","",""
"","2009","html-keyboard-response","381","889565","0.0-3.0-1.182","arranjar","s","v","cog","word","S","exp","8"
"","null","html-keyboard-response","382","890084","0.0-3.0-0.183","+","null","","","","","",""
"","1573","html-keyboard-response","383","891659","0.0-3.0-1.183","grave","s","a","cog","word","S","exp","5"
"","null","html-keyboard-response","384","892175","0.0-3.0-0.184","+","null","","","","","",""
"","1928","html-keyboard-response","385","894105","0.0-3.0-1.184","imitar","s","v","cog","word","S","exp","6"
"","null","html-keyboard-response","386","894615","0.0-3.0-0.185","+","null","","","","","",""
"","2021","html-keyboard-response","387","896637","0.0-3.0-1.185","socorro","s","n","noncog","word","S","exp","7"
"","null","html-keyboard-response","388","897144","0.0-3.0-0.186","+","null","","","","","",""
"","2515","html-keyboard-response","389","899661","0.0-3.0-1.186","hedoru","n","null","noncog","pseudo","N","exp","null"
"","null","html-keyboard-response","390","900165","0.0-3.0-0.187","+","null","","","","","",""
"","2141","html-keyboard-response","391","902308","0.0-3.0-1.187","tatear","s","v","cog","word","S","exp","6"
"","null","html-keyboard-response","392","902814","0.0-3.0-0.188","+","null","","","","","",""
"","3795","html-keyboard-response","393","906610","0.0-3.0-1.188","aemaça","n","null","noncog","pseudo","N","exp","null"
"","null","html-keyboard-response","394","907115","0.0-3.0-0.189","+","null","","","","","",""
"","1232","html-keyboard-response","395","908347","0.0-3.0-1.189","dia","s","n","noncog","word","S","exp","3"
"","null","html-keyboard-response","396","908854","0.0-3.0-0.190","+","null","","","","","",""
"","2308","html-keyboard-response","397","911164","0.0-3.0-1.190","nivelado","s","a","cog","word","S","exp","8"
"","null","html-keyboard-response","398","911684","0.0-3.0-0.191","+","null","","","","","",""
"","3562","html-keyboard-response","399","915247","0.0-3.0-1.191","suipestar","s","null","noncog","pseudo","N","exp","null"
"","null","html-keyboard-response","400","915755","0.0-3.0-0.192","+","null","","","","","",""
"","2182","html-keyboard-response","401","917938","0.0-3.0-1.192","taberia","s","null","noncog","pseudo","N","exp","null"
"","null","html-keyboard-response","402","918445","0.0-3.0-0.193","+","null","","","","","",""
"","1340","html-keyboard-response","403","919786","0.0-3.0-1.193","azul","s","n","noncog","word","S","exp","4"
"","null","html-keyboard-response","404","920304","0.0-3.0-0.194","+","null","","","","","",""
"","3208","html-keyboard-response","405","923513","0.0-3.0-1.194","orupas","s","null","noncog","pseudo","N","exp","null"
"","null","html-keyboard-response","406","924014","0.0-3.0-0.195","+","null","","","","","",""
"","1976","html-keyboard-response","407","925992","0.0-3.0-1.195","enxerido","s","a","noncog","word","S","exp","8"
"","null","html-keyboard-response","408","926505","0.0-3.0-0.196","+","null","","","","","",""
"","1752","html-keyboard-response","409","928257","0.0-3.0-1.196","espinho","s","n","noncog","word","S","exp","7"
"","null","html-keyboard-response","410","928765","0.0-3.0-0.197","+","null","","","","","",""
"","1493","html-keyboard-response","411","930260","0.0-3.0-1.197","tímido","s","a","cog","word","S","exp","6"
"","null","html-keyboard-response","412","930774","0.0-3.0-0.198","+","null","","","","","",""
"","4040","html-keyboard-response","413","934815","0.0-3.0-1.198","conjerto","s","null","noncog","pseudo","N","exp","null"
"","null","html-keyboard-response","414","935334","0.0-3.0-0.199","+","null","","","","","",""
"","5675","html-keyboard-response","415","941010","0.0-3.0-1.199","vitrive","s","null","noncog","pseudo","N","exp","null"
"","null","html-keyboard-response","416","941514","0.0-3.0-0.200","+","null","","","","","",""
"","2455","html-keyboard-response","417","943971","0.0-3.0-1.200","papai","s","n","cog","word","S","exp","5"
"","null","html-keyboard-response","418","944485","0.0-3.0-0.201","+","null","","","","","",""
"","2722","html-keyboard-response","419","947208","0.0-3.0-1.201","bancada","s","n","noncog","word","S","exp","7"
"","null","html-keyboard-response","420","947724","0.0-3.0-0.202","+","null","","","","","",""
"","3212","html-keyboard-response","421","950938","0.0-3.0-1.202","liberal","s","a","cog","word","S","exp","7"
"","null","html-keyboard-response","422","951445","0.0-3.0-0.203","+","null","","","","","",""
"","2959","html-keyboard-response","423","954404","0.0-3.0-1.203","loaco","s","null","noncog","pseudo","N","exp","null"
"","null","html-keyboard-response","424","954914","0.0-3.0-0.204","+","null","","","","","",""
"","1028","html-keyboard-response","425","955944","0.0-3.0-1.204","mal","s","a","cog","word","S","exp","3"
"","null","html-keyboard-response","426","956454","0.0-3.0-0.205","+","null","","","","","",""
"","1891","html-keyboard-response","427","958346","0.0-3.0-1.205","grátis","s","a","cog","word","S","exp","6"
"","null","html-keyboard-response","428","958852","0.0-3.0-0.206","+","null","","","","","",""
"","1527","html-keyboard-response","429","960379","0.0-3.0-1.206","carro","s","n","noncog","word","S","exp","5"
"","null","html-keyboard-response","430","960884","0.0-3.0-0.207","+","null","","","","","",""
"","2334","html-keyboard-response","431","963219","0.0-3.0-1.207","macras","s","null","noncog","pseudo","N","exp","null"
"","null","html-keyboard-response","432","963724","0.0-3.0-0.208","+","null","","","","","",""
"","2811","html-keyboard-response","433","966537","0.0-3.0-1.208","pangos","s","null","noncog","pseudo","N","exp","null"
"","null","html-keyboard-response","434","967045","0.0-3.0-0.209","+","null","","","","","",""
"","2426","html-keyboard-response","435","969470","0.0-3.0-1.209","matinal","s","a","cog","word","S","exp","7"
"","null","html-keyboard-response","436","969984","0.0-3.0-0.210","+","null","","","","","",""
"","2678","html-keyboard-response","437","972664","0.0-3.0-1.210","refletir","s","v","cog","word","S","exp","8"
"","null","html-keyboard-response","438","973175","0.0-3.0-0.211","+","null","","","","","",""
"","1576","html-keyboard-response","439","974751","0.0-3.0-1.211","fratos","s","null","noncog","pseudo","N","exp","null"
"","null","html-keyboard-response","440","975264","0.0-3.0-0.212","+","null","","","","","",""
"","3125","html-keyboard-response","441","978391","0.0-3.0-1.212","açúcar","s","n","noncog","word","S","exp","6"
"","null","html-keyboard-response","442","978894","0.0-3.0-0.213","+","null","","","","","",""
"","2289","html-keyboard-response","443","981185","0.0-3.0-1.213","ênclio","s","null","noncog","pseudo","N","exp","null"
"","null","html-keyboard-response","444","981703","0.0-3.0-0.214","+","null","","","","","",""
"","7002","html-keyboard-response","445","988707","0.0-3.0-1.214","garastia","n","null","noncog","pseudo","N","exp","null"
"","null","html-keyboard-response","446","989214","0.0-3.0-0.215","+","null","","","","","",""
"","6923","html-keyboard-response","447","996140","0.0-3.0-1.215","extravagante","n","a","cog","word","S","exp","12"
"","null","html-keyboard-response","448","996655","0.0-3.0-0.216","+","null","","","","","",""
"","1620","html-keyboard-response","449","998276","0.0-3.0-1.216","costra","s","null","noncog","pseudo","N","exp","null"
"","null","html-keyboard-response","450","998785","0.0-3.0-0.217","+","null","","","","","",""
"","6598","html-keyboard-response","451","1005386","0.0-3.0-1.217","cirado","n","null","noncog","pseudo","N","exp","null"
"","null","html-keyboard-response","452","1005894","0.0-3.0-0.218","+","null","","","","","",""
"","1491","html-keyboard-response","453","1007386","0.0-3.0-1.218","fofo","s","a","noncog","word","S","exp","4"
"","null","html-keyboard-response","454","1007895","0.0-3.0-0.219","+","null","","","","","",""
"","2341","html-keyboard-response","455","1010237","0.0-3.0-1.219","prantal","s","null","noncog","pseudo","N","exp","null"
"","null","html-keyboard-response","456","1010744","0.0-3.0-0.220","+","null","","","","","",""
"","2430","html-keyboard-response","457","1013175","0.0-3.0-1.220","raspar","s","v","noncog","word","S","exp","6"
"","null","html-keyboard-response","458","1013694","0.0-3.0-0.221","+","null","","","","","",""
"","2616","html-keyboard-response","459","1016311","0.0-3.0-1.221","uçar","s","null","noncog","pseudo","N","exp","null"
"","null","html-keyboard-response","460","1016824","0.0-3.0-0.222","+","null","","","","","",""
"","6485","html-keyboard-response","461","1023309","0.0-3.0-1.222","ideisa","s","null","noncog","pseudo","N","exp","null"
"","null","html-keyboard-response","462","1023824","0.0-3.0-0.223","+","null","","","","","",""
"","1696","html-keyboard-response","463","1025522","0.0-3.0-1.223","civil","s","a","cog","word","S","exp","5"
"","null","html-keyboard-response","464","1026025","0.0-3.0-0.224","+","null","","","","","",""
"","1228","html-keyboard-response","465","1027254","0.0-3.0-1.224","deselegante","n","a","noncog","word","S","exp","11"
"","null","html-keyboard-response","466","1027764","0.0-3.0-0.225","+","null","","","","","",""
"","6367","html-keyboard-response","467","1034132","0.0-3.0-1.225","memória","s","n","cog","word","S","exp","7"
"","null","html-keyboard-response","468","1034645","0.0-3.0-0.226","+","null","","","","","",""
"","1463","html-keyboard-response","469","1036110","0.0-3.0-1.226","morar","s","v","noncog","word","S","exp","5"
"","null","html-keyboard-response","470","1036618","0.0-3.0-0.227","+","null","","","","","",""
"","3751","html-keyboard-response","471","1040370","0.0-3.0-1.227","bandido","s","n","cog","word","S","exp","7"
"","null","html-keyboard-response","472","1040885","0.0-3.0-0.228","+","null","","","","","",""
"","3141","html-keyboard-response","473","1044027","0.0-3.0-1.228","propaganda","s","n","cog","word","S","exp","10"
"","null","html-keyboard-response","474","1044535","0.0-3.0-0.229","+","null","","","","","",""
"","5491","html-keyboard-response","475","1050028","0.0-3.0-1.229","grótis","n","null","noncog","pseudo","N","exp","null"
"","null","html-keyboard-response","476","1050540","0.0-3.0-0.230","+","null","","","","","",""
"","3286","html-keyboard-response","477","1053827","0.0-3.0-1.230","lapestra","s","null","noncog","pseudo","N","exp","null"
"","null","html-keyboard-response","478","1054333","0.0-3.0-0.231","+","null","","","","","",""
"","2681","html-keyboard-response","479","1057015","0.0-3.0-1.231","montanha","s","n","cog","word","S","exp","8"
"","null","html-keyboard-response","480","1057521","0.0-3.0-0.232","+","null","","","","","",""
"","3185","html-keyboard-response","481","1060707","0.0-3.0-1.232","filosofia","s","n","cog","word","S","exp","9"
"","null","html-keyboard-response","482","1061218","0.0-3.0-0.233","+","null","","","","","",""
"","1940","html-keyboard-response","483","1063159","0.0-3.0-1.233","francês","s","a","cog","word","S","exp","7"
"","null","html-keyboard-response","484","1063674","0.0-3.0-0.234","+","null","","","","","",""
"","6321","html-keyboard-response","485","1069996","0.0-3.0-1.234","plinta","s","null","noncog","pseudo","N","exp","null"
"","null","html-keyboard-response","486","1070504","0.0-3.0-0.235","+","null","","","","","",""
"","8834","html-keyboard-response","487","1079340","0.0-3.0-1.235","bibarconato","n","null","noncog","pseudo","N","exp","null"
"","null","html-keyboard-response","488","1079851","0.0-3.0-0.236","+","null","","","","","",""
"","5552","html-keyboard-response","489","1085405","0.0-3.0-1.236","dilheira","n","null","noncog","pseudo","N","exp","null"
"","null","html-keyboard-response","490","1085911","0.0-3.0-0.237","+","null","","","","","",""
"","4712","html-keyboard-response","491","1090624","0.0-3.0-1.237","encelhor","s","null","noncog","pseudo","N","exp","null"
"","null","html-keyboard-response","492","1091134","0.0-3.0-0.238","+","null","","","","","",""
"","1615","html-keyboard-response","493","1092750","0.0-3.0-1.238","liso","s","n","noncog","word","S","exp","4"
"","null","html-keyboard-response","494","1093261","0.0-3.0-0.239","+","null","","","","","",""
"","1519","html-keyboard-response","495","1094781","0.0-3.0-1.239","bachir","s","null","noncog","pseudo","N","exp","null"
