[
	{
		"view_history": [
			{
				"page_index": 0,
				"viewing_time": 1794
			}
		],
		"rt": 1795,
		"trial_type": "instructions",
		"trial_index": 0,
		"time_elapsed": 1799,
		"internal_node_id": "0.0-0.0"
	},
	{
		"rt": 187393,
		"response": {
			"reading_habits_printed_magazines": "Raramente",
			"reading_habits_printed_newspapers": "Raramente",
			"reading_habits_books": "Uma vez por semana",
			"reading_habits_printed_socialmedias": "Nunca"
		},
		"question_order": [
			0,
			1,
			2,
			3
		],
		"trial_type": "survey-multi-choice",
		"trial_index": 1,
		"time_elapsed": 189311,
		"internal_node_id": "0.0-1.0"
	},
	{
		"rt": 130025,
		"response": {
			"reading_habits_virtual_magazines": "Todos os dias",
			"reading_habits_virtual_newspapers": "Uma vez por semana",
			"reading_habits_books": "Todos os dias",
			"reading_habits_virtual_socialmedias": "Nunca"
		},
		"question_order": [
			0,
			1,
			2,
			3
		],
		"trial_type": "survey-multi-choice",
		"trial_index": 2,
		"time_elapsed": 319455,
		"internal_node_id": "0.0-2.0"
	},
	{
		"rt": 115219,
		"response": {
			"reading_habits_other_which": "livro didático",
			"reading_habits_other_frequency": "uma vez por semana"
		},
		"trial_type": "survey-text",
		"trial_index": 3,
		"time_elapsed": 434797,
		"internal_node_id": "0.0-3.0"
	}
]