"view_history","rt","trial_type","trial_index","time_elapsed","internal_node_id","stimulus","response","portuguese","kreyol"
"[{""page_index"":0,""viewing_time"":6126}]","6127","instructions","0","6131","0.0-0.0","","","",""
"","null","html-keyboard-response","1","6768","0.0-1.0-0.0","+","null","",""
"","8872","audio-keyboard-response","2","16004","0.0-1.0-1.0","../audio/teste-vocab--29.mp3","s","rasgar","chire"
"","null","html-keyboard-response","3","16517","0.0-1.0-0.1","+","null","",""
"","3509","audio-keyboard-response","4","20138","0.0-1.0-1.1","../audio/teste-vocab--19.mp3","s","hora","è"
"","null","html-keyboard-response","5","20651","0.0-1.0-0.2","+","null","",""
"","2520","audio-keyboard-response","6","23286","0.0-1.0-1.2","../audio/teste-vocab--01.mp3","s","boneca","pope"
"","null","html-keyboard-response","7","23800","0.0-1.0-0.3","+","null","",""
"","6971","audio-keyboard-response","8","30892","0.0-1.0-1.3","../audio/teste-vocab--96.mp3","s","árido","sechrès"
"","null","html-keyboard-response","9","31405","0.0-1.0-0.4","+","null","",""
"","2699","audio-keyboard-response","10","34214","0.0-1.0-1.4","../audio/teste-vocab--16.mp3","s","pescoço","kou"
"","null","html-keyboard-response","11","34720","0.0-1.0-0.5","+","null","",""
"","4971","audio-keyboard-response","12","39829","0.0-1.0-1.5","../audio/teste-vocab--79.mp3","n","moldura"," chanbranl"
"","null","html-keyboard-response","13","40340","0.0-1.0-0.6","+","null","",""
"","4600","audio-keyboard-response","14","45084","0.0-1.0-1.6","../audio/teste-vocab--109.mp3","n","anfíbio","anfibyen"
"","null","html-keyboard-response","15","45591","0.0-1.0-0.7","+","null","",""
"","2808","audio-keyboard-response","16","48540","0.0-1.0-1.7","../audio/teste-vocab--49.mp3","s","humano","moun"
"","null","html-keyboard-response","17","49043","0.0-1.0-0.8","+","null","",""
"","2739","audio-keyboard-response","18","51912","0.0-1.0-1.8","../audio/teste-vocab--92.mp3","s","esférico","won"
"","null","html-keyboard-response","19","52430","0.0-1.0-0.9","+","null","",""
"","3011","audio-keyboard-response","20","55568","0.0-1.0-1.9","../audio/teste-vocab--23.mp3","s","acariciar","karese"
"","null","html-keyboard-response","21","56076","0.0-1.0-0.10","+","null","",""
"","2960","audio-keyboard-response","22","59427","0.0-1.0-1.10","../audio/teste-vocab--93.mp3","s","felino","leopa"
"","null","html-keyboard-response","23","59930","0.0-1.0-0.11","+","null","",""
"","2720","audio-keyboard-response","24","62756","0.0-1.0-1.11","../audio/teste-vocab--31.mp3","s","vazio","vid"
"","null","html-keyboard-response","25","63260","0.0-1.0-0.12","+","null","",""
"","2429","audio-keyboard-response","26","65817","0.0-1.0-1.12","../audio/teste-vocab--84.mp3","s","confiar","konfye"
"","null","html-keyboard-response","27","66320","0.0-1.0-0.13","+","null","",""
"","2840","audio-keyboard-response","28","69267","0.0-1.0-1.13","../audio/teste-vocab--43.mp3","s","mecânico","mekanisyen"
"","null","html-keyboard-response","29","69772","0.0-1.0-0.14","+","null","",""
"","2131","audio-keyboard-response","30","72013","0.0-1.0-1.14","../audio/teste-vocab--59.mp3","s","par","pè"
"","null","html-keyboard-response","31","72531","0.0-1.0-0.15","+","null","",""
"","2421","audio-keyboard-response","32","75082","0.0-1.0-1.15","../audio/teste-vocab--85.mp3","s","trio","trio"
"","null","html-keyboard-response","33","75596","0.0-1.0-0.16","+","null","",""
"","3680","audio-keyboard-response","34","79434","0.0-1.0-1.16","../audio/teste-vocab--112.mp3","s","aparição","aparisyon"
"","null","html-keyboard-response","35","79951","0.0-1.0-0.17","+","null","",""
"","2411","audio-keyboard-response","36","82481","0.0-1.0-1.17","../audio/teste-vocab--36.mp3","s","grupo","gwoup"
"","null","html-keyboard-response","37","83001","0.0-1.0-0.18","+","null","",""
"","2328","audio-keyboard-response","38","85463","0.0-1.0-1.18","../audio/teste-vocab--106.mp3","s","lubrificar","grese"
"","null","html-keyboard-response","39","85981","0.0-1.0-0.19","+","null","",""
"","2480","audio-keyboard-response","40","88585","0.0-1.0-1.19","../audio/teste-vocab--88.mp3","s","portátil","pòtab"
"","null","html-keyboard-response","41","89101","0.0-1.0-0.20","+","null","",""
"","2232","audio-keyboard-response","42","91451","0.0-1.0-1.20","../audio/teste-vocab--86.mp3","s","pensar","panse"
"","null","html-keyboard-response","43","91960","0.0-1.0-0.21","+","null","",""
"","2888","audio-keyboard-response","44","94936","0.0-1.0-1.21","../audio/teste-vocab--128.mp3","s","incisivo","ensisiv"
"","null","html-keyboard-response","45","95448","0.0-1.0-0.22","+","null","",""
"","2731","audio-keyboard-response","46","98309","0.0-1.0-1.22","../audio/teste-vocab--99.mp3","s","arqueólogo","akeyológ"
"","null","html-keyboard-response","47","98810","0.0-1.0-0.23","+","null","",""
"","2069","audio-keyboard-response","48","100986","0.0-1.0-1.23","../audio/teste-vocab--14.mp3","s","ler","li"
"","null","html-keyboard-response","49","101501","0.0-1.0-0.24","+","null","",""
"","2821","audio-keyboard-response","50","104447","0.0-1.0-1.24","../audio/teste-vocab--100.mp3","s","consumir","konsome"
"","null","html-keyboard-response","51","104961","0.0-1.0-0.25","+","null","",""
"","2672","audio-keyboard-response","52","107770","0.0-1.0-1.25","../audio/teste-vocab--76.mp3","s","arquivar","achive"
"","null","html-keyboard-response","53","108280","0.0-1.0-0.26","+","null","",""
"","2648","audio-keyboard-response","54","111063","0.0-1.0-1.26","../audio/teste-vocab--32.mp3","s","descascar","dekale"
"","null","html-keyboard-response","55","111566","0.0-1.0-0.27","+","null","",""
"","2480","audio-keyboard-response","56","114238","0.0-1.0-1.27","../audio/teste-vocab--28.mp3","s","águia","èg"
"","null","html-keyboard-response","57","114751","0.0-1.0-0.28","+","null","",""
"","2771","audio-keyboard-response","58","117716","0.0-1.0-1.28","../audio/teste-vocab--122.mp3","s","transeunte","pasajè"
"","null","html-keyboard-response","59","118221","0.0-1.0-0.29","+","null","",""
"","2432","audio-keyboard-response","60","120765","0.0-1.0-1.29","../audio/teste-vocab--06.mp3","s","barco","bato"
"","null","html-keyboard-response","61","121280","0.0-1.0-0.30","+","null","",""
"","2280","audio-keyboard-response","62","123688","0.0-1.0-1.30","../audio/teste-vocab--04.mp3","s","roda","wonn"
"","null","html-keyboard-response","63","124197","0.0-1.0-0.31","+","null","",""
"","2829","audio-keyboard-response","64","127161","0.0-1.0-1.31","../audio/teste-vocab--75.mp3","s","carpinteiro","chapantye"
"","null","html-keyboard-response","65","127675","0.0-1.0-0.32","+","null","",""
"","2371","audio-keyboard-response","66","130114","0.0-1.0-1.32","../audio/teste-vocab--22.mp3","s","quebrado","kraze"
"","null","html-keyboard-response","67","130621","0.0-1.0-0.33","+","null","",""
"","6011","audio-keyboard-response","68","136756","0.0-1.0-1.33","../audio/teste-vocab--90.mp3","n","carniça","kanivò"
"","null","html-keyboard-response","69","137262","0.0-1.0-0.34","+","null","",""
"","2571","audio-keyboard-response","70","139961","0.0-1.0-1.34","../audio/teste-vocab--114.mp3","s","fragmentar","dechire"
"","null","html-keyboard-response","71","140471","0.0-1.0-0.35","+","null","",""
"","2509","audio-keyboard-response","72","143110","0.0-1.0-1.35","../audio/teste-vocab--125.mp3","s","lamaçal","labou"
"","null","html-keyboard-response","73","143616","0.0-1.0-0.36","+","null","",""
"","2339","audio-keyboard-response","74","146070","0.0-1.0-1.36","../audio/teste-vocab--123.mp3","s","emissão","emisyon"
"","null","html-keyboard-response","75","146579","0.0-1.0-0.37","+","null","",""
"","2629","audio-keyboard-response","76","149336","0.0-1.0-1.37","../audio/teste-vocab--56.mp3","s","agricultura","agrikilti"
"","null","html-keyboard-response","77","149851","0.0-1.0-0.38","+","null","",""
"","2440","audio-keyboard-response","78","152419","0.0-1.0-1.38","../audio/teste-vocab--42.mp3","s","isolamento","izòlman"
"","null","html-keyboard-response","79","152931","0.0-1.0-0.39","+","null","",""
"","2509","audio-keyboard-response","80","155584","0.0-1.0-1.39","../audio/teste-vocab--20.mp3","s","medir","mezire"
"","null","html-keyboard-response","81","156094","0.0-1.0-0.40","+","null","",""
"","2280","audio-keyboard-response","82","158462","0.0-1.0-1.40","../audio/teste-vocab--50.mp3","s","artista","atis"
"","null","html-keyboard-response","83","158970","0.0-1.0-0.41","+","null","",""
"","2272","audio-keyboard-response","84","161371","0.0-1.0-1.41","../audio/teste-vocab--64.mp3","s","colher","kiyè"
"","null","html-keyboard-response","85","161881","0.0-1.0-0.42","+","null","",""
"","2240","audio-keyboard-response","86","164248","0.0-1.0-1.42","../audio/teste-vocab--02.mp3","s","homem","gason"
"","null","html-keyboard-response","87","164764","0.0-1.0-0.43","+","null","",""
"","2139","audio-keyboard-response","88","167030","0.0-1.0-1.43","../audio/teste-vocab--41.mp3","s","médico","doktè,"
"","null","html-keyboard-response","89","167540","0.0-1.0-0.44","+","null","",""
"","2419","audio-keyboard-response","90","170093","0.0-1.0-1.44","../audio/teste-vocab--24.mp3","s","acidente","aksidan"
"","null","html-keyboard-response","91","170596","0.0-1.0-0.45","+","null","",""
"","2728","audio-keyboard-response","92","173461","0.0-1.0-1.45","../audio/teste-vocab--63.mp3","s","transparente","transparan"
"","null","html-keyboard-response","93","173980","0.0-1.0-0.46","+","null","",""
"","2589","audio-keyboard-response","94","176699","0.0-1.0-1.46","../audio/teste-vocab--124.mp3","s","obelisco","obelisk"
"","null","html-keyboard-response","95","177203","0.0-1.0-0.47","+","null","",""
"","2712","audio-keyboard-response","96","180053","0.0-1.0-1.47","../audio/teste-vocab--127.mp3","s","côncavo","konkav"
"","null","html-keyboard-response","97","180560","0.0-1.0-0.48","+","null","",""
"","2448","audio-keyboard-response","98","183137","0.0-1.0-1.48","../audio/teste-vocab--12.mp3","s","jaula","kaj"
"","null","html-keyboard-response","99","183640","0.0-1.0-0.49","+","null","",""
"","2749","audio-keyboard-response","100","186522","0.0-1.0-1.49","../audio/teste-vocab--09.mp3","s","vela","bouji"
"","null","html-keyboard-response","101","187041","0.0-1.0-0.50","+","null","",""
"","2691","audio-keyboard-response","102","189854","0.0-1.0-1.50","../audio/teste-vocab--95.mp3","s","submergir","plonje"
"","null","html-keyboard-response","103","190360","0.0-1.0-0.51","+","null","",""
"","2869","audio-keyboard-response","104","193360","0.0-1.0-1.51","../audio/teste-vocab--52.mp3","s","construção","konstriksyon"
"","null","html-keyboard-response","105","193862","0.0-1.0-0.52","+","null","",""
"","2371","audio-keyboard-response","106","196351","0.0-1.0-1.52","../audio/teste-vocab--48.mp3","s","joia","bijou"
"","null","html-keyboard-response","107","196871","0.0-1.0-0.53","+","null","",""
"","2328","audio-keyboard-response","108","199336","0.0-1.0-1.53","../audio/teste-vocab--130.mp3","s","gentil","dou"
"","null","html-keyboard-response","109","199841","0.0-1.0-0.54","+","null","",""
"","2680","audio-keyboard-response","110","202678","0.0-1.0-1.54","../audio/teste-vocab--98.mp3","s","instruir","enstwi"
"","null","html-keyboard-response","111","203192","0.0-1.0-0.55","+","null","",""
"","4741","audio-keyboard-response","112","208079","0.0-1.0-1.55","../audio/teste-vocab--70.mp3","n","funil","antónwa"
"","null","html-keyboard-response","113","208583","0.0-1.0-0.56","+","null","",""
"","2992","audio-keyboard-response","114","211772","0.0-1.0-1.56","../audio/teste-vocab--81.mp3","s","judicial","jidisyè"
"","null","html-keyboard-response","115","212290","0.0-1.0-0.57","+","null","",""
"","3029","audio-keyboard-response","116","215437","0.0-1.0-1.57","../audio/teste-vocab--71.mp3","n","caule","tij"
"","null","html-keyboard-response","117","215941","0.0-1.0-0.58","+","null","",""
"","2760","audio-keyboard-response","118","218801","0.0-1.0-1.58","../audio/teste-vocab--37.mp3","s","músico","mizisyen"
"","null","html-keyboard-response","119","219321","0.0-1.0-0.59","+","null","",""
"","2589","audio-keyboard-response","120","222034","0.0-1.0-1.59","../audio/teste-vocab--105.mp3","s","cítrico","sitrik"
"","null","html-keyboard-response","121","222535","0.0-1.0-0.60","+","null","",""
"","3032","audio-keyboard-response","122","225684","0.0-1.0-1.60","../audio/teste-vocab--94.mp3","s","paralelo","paralèl"
"","null","html-keyboard-response","123","226200","0.0-1.0-0.61","+","null","",""
"","3251","audio-keyboard-response","124","229591","0.0-1.0-1.61","../audio/teste-vocab--65.mp3","s","discussão","diskisyon"
"","null","html-keyboard-response","125","230097","0.0-1.0-0.62","+","null","",""
"","2651","audio-keyboard-response","126","232876","0.0-1.0-1.62","../audio/teste-vocab--113.mp3","s","ascender","limen"
"","null","html-keyboard-response","127","233384","0.0-1.0-0.63","+","null","",""
"","2789","audio-keyboard-response","128","236294","0.0-1.0-1.63","../audio/teste-vocab--46.mp3","s","ombro","zepòl"
"","null","html-keyboard-response","129","236801","0.0-1.0-0.64","+","null","",""
"","2549","audio-keyboard-response","130","239476","0.0-1.0-1.64","../audio/teste-vocab--119.mp3","s","numeroso","anpil"
"","null","html-keyboard-response","131","239982","0.0-1.0-0.65","+","null","",""
"","5189","audio-keyboard-response","132","245311","0.0-1.0-1.65","../audio/teste-vocab--74.mp3","n","desilusão","dezilizyon"
"","null","html-keyboard-response","133","245816","0.0-1.0-0.66","+","null","",""
"","3560","audio-keyboard-response","134","249505","0.0-1.0-1.66","../audio/teste-vocab--25.mp3","s","canguru","kanguwou"
"","null","html-keyboard-response","135","250005","0.0-1.0-0.67","+","null","",""
"","2811","audio-keyboard-response","136","252953","0.0-1.0-1.67","../audio/teste-vocab--110.mp3","s","prodígio","pwodij"
"","null","html-keyboard-response","137","253456","0.0-1.0-0.68","+","null","",""
"","2421","audio-keyboard-response","138","255995","0.0-1.0-1.68","../audio/teste-vocab--55.mp3","s","bosque","forè"
"","null","html-keyboard-response","139","256510","0.0-1.0-0.69","+","null","",""
"","2560","audio-keyboard-response","140","259195","0.0-1.0-1.69","../audio/teste-vocab--21.mp3","s","baleia","balèn"
"","null","html-keyboard-response","141","259712","0.0-1.0-0.70","+","null","",""
"","2600","audio-keyboard-response","142","262445","0.0-1.0-1.70","../audio/teste-vocab--69.mp3","s","pingar","degoute"
"","null","html-keyboard-response","143","262953","0.0-1.0-0.71","+","null","",""
"","2200","audio-keyboard-response","144","265299","0.0-1.0-1.71","../audio/teste-vocab--87.mp3","s","ave","zwazo"
"","null","html-keyboard-response","145","265809","0.0-1.0-0.72","+","null","",""
"","2312","audio-keyboard-response","146","268246","0.0-1.0-1.72","../audio/teste-vocab--121.mp3","s","atônito","sezi"
"","null","html-keyboard-response","147","268750","0.0-1.0-0.73","+","null","",""
"","2149","audio-keyboard-response","148","271020","0.0-1.0-1.73","../audio/teste-vocab--73.mp3","s","ângulo","ang"
"","null","html-keyboard-response","149","271536","0.0-1.0-0.74","+","null","",""
"","2280","audio-keyboard-response","150","273942","0.0-1.0-1.74","../audio/teste-vocab--17.mp3","s","móvel","mobil"
"","null","html-keyboard-response","151","274450","0.0-1.0-0.75","+","null","",""
"","3000","audio-keyboard-response","152","277598","0.0-1.0-1.75","../audio/teste-vocab--66.mp3","s","cooperação","koperasyon"
"","null","html-keyboard-response","153","278101","0.0-1.0-0.76","+","null","",""
"","2589","audio-keyboard-response","154","280817","0.0-1.0-1.76","../audio/teste-vocab--83.mp3","s","morsa","mòs"
"","null","html-keyboard-response","155","281326","0.0-1.0-0.77","+","null","",""
"","2131","audio-keyboard-response","156","283564","0.0-1.0-1.77","../audio/teste-vocab--117.mp3","s","córnea","kòn"
"","null","html-keyboard-response","157","284079","0.0-1.0-0.78","+","null","",""
"","3720","audio-keyboard-response","158","287990","0.0-1.0-1.78","../audio/teste-vocab--118.mp3","s","paralelogramo","paralelogram"
"","null","html-keyboard-response","159","288508","0.0-1.0-0.79","+","null","",""
"","3341","audio-keyboard-response","160","292009","0.0-1.0-1.79","../audio/teste-vocab--103.mp3","s","utensílio","istansil"
"","null","html-keyboard-response","161","292511","0.0-1.0-0.80","+","null","",""
"","2621","audio-keyboard-response","162","295235","0.0-1.0-1.80","../audio/teste-vocab--40.mp3","s","bebida","bwason"
"","null","html-keyboard-response","163","295740","0.0-1.0-0.81","+","null","",""
"","2451","audio-keyboard-response","164","298568","0.0-1.0-1.81","../audio/teste-vocab--26.mp3","s","cotovelo","koud"
"","null","html-keyboard-response","165","299080","0.0-1.0-0.82","+","null","",""
"","2752","audio-keyboard-response","166","301930","0.0-1.0-1.82","../audio/teste-vocab--107.mp3","s","elo","emay"
"","null","html-keyboard-response","167","302444","0.0-1.0-0.83","+","null","",""
"","2971","audio-keyboard-response","168","305547","0.0-1.0-1.83","../audio/teste-vocab--91.mp3","s","bússola","bousòl"
"","null","html-keyboard-response","169","306051","0.0-1.0-0.84","+","null","",""
"","2741","audio-keyboard-response","170","308925","0.0-1.0-1.84","../audio/teste-vocab--38.mp3","s","cerimônia","seremoni"
"","null","html-keyboard-response","171","309430","0.0-1.0-0.85","+","null","",""
"","2840","audio-keyboard-response","172","312447","0.0-1.0-1.85","../audio/teste-vocab--102.mp3","s","arrogante","arogan"
"","null","html-keyboard-response","173","312950","0.0-1.0-0.86","+","null","",""
"","2451","audio-keyboard-response","174","315544","0.0-1.0-1.86","../audio/teste-vocab--35.mp3","s","líquido","likid"
"","null","html-keyboard-response","175","316059","0.0-1.0-0.87","+","null","",""
"","2771","audio-keyboard-response","176","318995","0.0-1.0-1.87","../audio/teste-vocab--61.mp3","s","iluminação","iliminasyon"
"","null","html-keyboard-response","177","319500","0.0-1.0-0.88","+","null","",""
"","2821","audio-keyboard-response","178","322440","0.0-1.0-1.88","../audio/teste-vocab--82.mp3","s","roer","ronje"
"","null","html-keyboard-response","179","322946","0.0-1.0-0.89","+","null","",""
"","2451","audio-keyboard-response","180","325528","0.0-1.0-1.89","../audio/teste-vocab--53.mp3","s","orientar","oryante"
"","null","html-keyboard-response","181","326036","0.0-1.0-0.90","+","null","",""
"","2149","audio-keyboard-response","182","328307","0.0-1.0-1.90","../audio/teste-vocab--47.mp3","s","envelope","anvlope"
"","null","html-keyboard-response","183","328812","0.0-1.0-0.91","+","null","",""
"","2019","audio-keyboard-response","184","330945","0.0-1.0-1.91","../audio/teste-vocab--104.mp3","s","ira","pwal"
"","null","html-keyboard-response","185","331461","0.0-1.0-0.92","+","null","",""
"","1941","audio-keyboard-response","186","333520","0.0-1.0-1.92","../audio/teste-vocab--108.mp3","s","moradia","kay"
"","null","html-keyboard-response","187","334030","0.0-1.0-0.93","+","null","",""
"","2491","audio-keyboard-response","188","336631","0.0-1.0-1.93","../audio/teste-vocab--120.mp3","s","induzir","pwovoke"
"","null","html-keyboard-response","189","337140","0.0-1.0-0.94","+","null","",""
"","2381","audio-keyboard-response","190","339647","0.0-1.0-1.94","../audio/teste-vocab--51.mp3","s","recolher","kolekte"
"","null","html-keyboard-response","191","340160","0.0-1.0-0.95","+","null","",""
"","2299","audio-keyboard-response","192","342584","0.0-1.0-1.95","../audio/teste-vocab--54.mp3","s","arbusto","raje"
"","null","html-keyboard-response","193","343090","0.0-1.0-0.96","+","null","",""
"","2381","audio-keyboard-response","194","345602","0.0-1.0-1.96","../audio/teste-vocab--68.mp3","s","surpreendido","sezi"
"","null","html-keyboard-response","195","346120","0.0-1.0-0.97","+","null","",""
"","2069","audio-keyboard-response","196","348310","0.0-1.0-1.97","../audio/teste-vocab--30.mp3","s","pintor","pent"
"","null","html-keyboard-response","197","348830","0.0-1.0-0.98","+","null","",""
"","2571","audio-keyboard-response","198","351527","0.0-1.0-1.98","../audio/teste-vocab--13.mp3","s","ambulância","anbilans"
"","null","html-keyboard-response","199","352031","0.0-1.0-0.99","+","null","",""
"","2240","audio-keyboard-response","200","354461","0.0-1.0-1.99","../audio/teste-vocab--27.mp3","s","rio","rivyè"
"","null","html-keyboard-response","201","354981","0.0-1.0-0.100","+","null","",""
"","2131","audio-keyboard-response","202","357232","0.0-1.0-1.100","../audio/teste-vocab--07.mp3","s","abajur","lanp"
"","null","html-keyboard-response","203","357747","0.0-1.0-0.101","+","null","",""
"","2659","audio-keyboard-response","204","360533","0.0-1.0-1.101","../audio/teste-vocab--89.mp3","s","classificar","klasifika"
"","null","html-keyboard-response","205","361050","0.0-1.0-0.102","+","null","",""
"","2240","audio-keyboard-response","206","363410","0.0-1.0-1.102","../audio/teste-vocab--08.mp3","s","vaca","vach"
"","null","html-keyboard-response","207","363915","0.0-1.0-0.103","+","null","",""
"","2629","audio-keyboard-response","208","366681","0.0-1.0-1.103","../audio/teste-vocab--05.mp3","s","limpar","netwaye"
"","null","html-keyboard-response","209","367196","0.0-1.0-0.104","+","null","",""
"","2389","audio-keyboard-response","210","369714","0.0-1.0-1.104","../audio/teste-vocab--45.mp3","s","dentista","dantis"
"","null","html-keyboard-response","211","370216","0.0-1.0-0.105","+","null","",""
"","2360","audio-keyboard-response","212","372694","0.0-1.0-1.105","../audio/teste-vocab--11.mp3","s","joelho","jenou"
"","null","html-keyboard-response","213","373211","0.0-1.0-0.106","+","null","",""
"","2128","audio-keyboard-response","214","375454","0.0-1.0-1.106","../audio/teste-vocab--67.mp3","s","corrimão","ranp"
"","null","html-keyboard-response","215","375960","0.0-1.0-0.107","+","null","",""
"","2339","audio-keyboard-response","216","378430","0.0-1.0-1.107","../audio/teste-vocab--39.mp3","s","cobra","koulèv"
"","null","html-keyboard-response","217","378935","0.0-1.0-0.108","+","null","",""
"","2360","audio-keyboard-response","218","381410","0.0-1.0-1.108","../audio/teste-vocab--57.mp3","s","raiz","rasin"
"","null","html-keyboard-response","219","381912","0.0-1.0-0.109","+","null","",""
"","2499","audio-keyboard-response","220","384537","0.0-1.0-1.109","../audio/teste-vocab--129.mp3","s","elipse","elips"
"","null","html-keyboard-response","221","385050","0.0-1.0-0.110","+","null","",""
"","2949","audio-keyboard-response","222","388139","0.0-1.0-1.110","../audio/teste-vocab--115.mp3","s","perpendicular","pèpandikilè"
"","null","html-keyboard-response","223","388646","0.0-1.0-0.111","+","null","",""
"","2208","audio-keyboard-response","224","390973","0.0-1.0-1.111","../audio/teste-vocab--126.mp3","s","ambulante","promennen"
"","null","html-keyboard-response","225","391491","0.0-1.0-0.112","+","null","",""
"","2611","audio-keyboard-response","226","394232","0.0-1.0-1.112","../audio/teste-vocab--116.mp3","s","vestuário","vestyè"
"","null","html-keyboard-response","227","394741","0.0-1.0-0.113","+","null","",""
"","2781","audio-keyboard-response","228","397648","0.0-1.0-1.113","../audio/teste-vocab--44.mp3","s","premiar","rekonpanse"
"","null","html-keyboard-response","229","398161","0.0-1.0-0.114","+","null","",""
"","1800","audio-keyboard-response","230","400068","0.0-1.0-1.114","../audio/teste-vocab--10.mp3","s","corneta","kòn"
"","null","html-keyboard-response","231","400570","0.0-1.0-0.115","+","null","",""
"","2219","audio-keyboard-response","232","402905","0.0-1.0-1.115","../audio/teste-vocab--03.mp3","s","balançar","balanse"
"","null","html-keyboard-response","233","403420","0.0-1.0-0.116","+","null","",""
"","2440","audio-keyboard-response","234","405981","0.0-1.0-1.116","../audio/teste-vocab--60.mp3","s","secretaria","sekretè"
"","null","html-keyboard-response","235","406491","0.0-1.0-0.117","+","null","",""
"","2019","audio-keyboard-response","236","408626","0.0-1.0-1.117","../audio/teste-vocab--15.mp3","s","flecha","flèch"
"","null","html-keyboard-response","237","409141","0.0-1.0-0.118","+","null","",""
"","2349","audio-keyboard-response","238","411599","0.0-1.0-1.118","../audio/teste-vocab--34.mp3","s","tronco","twon"
"","null","html-keyboard-response","239","412111","0.0-1.0-0.119","+","null","",""
"","2640","audio-keyboard-response","240","414889","0.0-1.0-1.119","../audio/teste-vocab--58.mp3","s","nutritivo","nourisan"
"","null","html-keyboard-response","241","415406","0.0-1.0-0.120","+","null","",""
"","2829","audio-keyboard-response","242","418416","0.0-1.0-1.120","../audio/teste-vocab--101.mp3","s","incandescente","enkandesan"
"","null","html-keyboard-response","243","418930","0.0-1.0-0.121","+","null","",""
"","2451","audio-keyboard-response","244","421504","0.0-1.0-1.121","../audio/teste-vocab--97.mp3","s","frágil","frajil"
"","null","html-keyboard-response","245","422009","0.0-1.0-0.122","+","null","",""
"","2339","audio-keyboard-response","246","424468","0.0-1.0-1.122","../audio/teste-vocab--62.mp3","s","carretel","bobin"
"","null","html-keyboard-response","247","424970","0.0-1.0-0.123","+","null","",""
"","2320","audio-keyboard-response","248","427423","0.0-1.0-1.123","../audio/teste-vocab--18.mp3","s","abelha","myèl"
"","null","html-keyboard-response","249","427941","0.0-1.0-0.124","+","null","",""
"","2840","audio-keyboard-response","250","430906","0.0-1.0-1.124","../audio/teste-vocab--72.mp3","s","ilha","zile"
"","null","html-keyboard-response","251","431412","0.0-1.0-0.125","+","null","",""
"","2181","audio-keyboard-response","252","433717","0.0-1.0-1.125","../audio/teste-vocab--77.mp3","s","comércio","komès"
"","null","html-keyboard-response","253","434232","0.0-1.0-0.126","+","null","",""
"","3219","audio-keyboard-response","254","437583","0.0-1.0-1.126","../audio/teste-vocab--78.mp3","s","quarteto","qwatèt"
"","null","html-keyboard-response","255","438085","0.0-1.0-0.127","+","null","",""
"","3760","audio-keyboard-response","256","441974","0.0-1.0-1.127","../audio/teste-vocab--111.mp3","s","jubilosa","rejwisans"
"","null","html-keyboard-response","257","442486","0.0-1.0-0.128","+","null","",""
"","2440","audio-keyboard-response","258","445054","0.0-1.0-1.128","../audio/teste-vocab--33.mp3","s","uniforme","inifòm"
"","null","html-keyboard-response","259","445570","0.0-1.0-0.129","+","null","",""
"","2531","audio-keyboard-response","260","448224","0.0-1.0-1.129","../audio/teste-vocab--80.mp3","s","binóculo","longvi"
