"view_history","rt","trial_type","trial_index","time_elapsed","internal_node_id","stimulus","response","trial_part","trial","word","question","answer","accuracy"
"[{""page_index"":0,""viewing_time"":81230},{""page_index"":1,""viewing_time"":10139}]","91370","instructions","0","91375","0.0-0.0","","","","","","","",""
"","null","html-keyboard-response","1","92494","0.0-1.0-0.0-0.0","<span style= ""font-size:30px; font-family: monospace"">+</span>","null","fixation","","","","",""
"","6933","html-keyboard-response","2","99698","0.0-1.0-1.0","<span style=""font-size:30px; font-family: monospace"">O</span>"," ","","prac-sent","O","","",""
"","24364","html-keyboard-response","3","124319","0.0-1.0-1.1","<span style=""font-size:30px; font-family: monospace"">dia</span>"," ","","prac-sent","dia","","",""
"","11711","html-keyboard-response","4","136296","0.0-1.0-1.2","<span style=""font-size:30px; font-family: monospace"">estará</span>"," ","","prac-sent","estará","","",""
"","6477","html-keyboard-response","5","143031","0.0-1.0-1.3","<span style=""font-size:30px; font-family: monospace"">cheio</span>"," ","","prac-sent","cheio","","",""
"","6294","html-keyboard-response","6","149579","0.0-1.0-1.4","<span style=""font-size:30px; font-family: monospace"">de</span>"," ","","prac-sent","de","","",""
"","6072","html-keyboard-response","7","155916","0.0-1.0-1.5","<span style=""font-size:30px; font-family: monospace"">nuvens</span>"," ","","prac-sent","nuvens","","",""
"","9929","html-keyboard-response","8","166114","0.0-1.0-1.6","<span style=""font-size:30px; font-family: monospace"">hoje.</span>"," ","","prac-sent","hoje.","","",""
"","null","html-keyboard-response","9","167394","0.0-1.0-0.7-0.7","<span style= ""font-size:30px; font-family: monospace"">+</span>","null","fixation","","","","",""
"","6446","html-keyboard-response","10","174093","0.0-1.0-1.7","<span style=""font-size:30px; font-family: monospace"">A</span>"," ","","prac-sent","A","","",""
"","11997","html-keyboard-response","11","186363","0.0-1.0-1.8","<span style=""font-size:30px; font-family: monospace"">caneca</span>"," ","","prac-sent","caneca","","",""
"","7368","html-keyboard-response","12","193993","0.0-1.0-1.9","<span style=""font-size:30px; font-family: monospace"">colorida</span>"," ","","prac-sent","colorida","","",""
"","6318","html-keyboard-response","13","200572","0.0-1.0-1.10","<span style=""font-size:30px; font-family: monospace"">caiu</span>"," ","","prac-sent","caiu","","",""
"","4899","html-keyboard-response","14","205723","0.0-1.0-1.11","<span style=""font-size:30px; font-family: monospace"">da</span>"," ","","prac-sent","da","","",""
"","5589","html-keyboard-response","15","211574","0.0-1.0-1.12","<span style=""font-size:30px; font-family: monospace"">mesa</span>"," ","","prac-sent","mesa","","",""
"","3104","html-keyboard-response","16","214930","0.0-1.0-1.13","<span style=""font-size:30px; font-family: monospace"">de</span>"," ","","prac-sent","de","","",""
"","10925","html-keyboard-response","17","226118","0.0-1.0-1.14","<span style=""font-size:30px; font-family: monospace"">jantar.</span>"," ","","prac-comp","jantar.","","",""
"","92817","html-keyboard-response","18","319192","0.0-1.0-2.14-0.14","<span style=""font-size:30px; font-family: monospace"">A caneca permaneceu na mesa?</span>","n","","prac-comp","","A caneca permaneceu na mesa?","não","false"
"[{""page_index"":0,""viewing_time"":72152}]","72152","instructions","19","391847","0.0-2.0","","","","","","","",""
"","null","html-keyboard-response","20","392964","0.0-3.0-0.0-0.0","<span style= ""font-size:30px; font-family: monospace"">+</span>","null","fixation","","","","",""
"","5830","html-keyboard-response","21","399063","0.0-3.0-1.0","<span style=""font-size:30px; font-family: monospace"">O</span>"," ","","exp-sent","O","","",""
"","5903","html-keyboard-response","22","405228","0.0-3.0-1.1","<span style=""font-size:30px; font-family: monospace"">texto</span>"," ","","exp-sent","texto","","",""
"","6043","html-keyboard-response","23","411537","0.0-3.0-1.2","<span style=""font-size:30px; font-family: monospace"">trazia</span>"," ","","exp-sent","trazia","","",""
"","3465","html-keyboard-response","24","415259","0.0-3.0-1.3","<span style=""font-size:30px; font-family: monospace"">um</span>"," ","","exp-sent","um","","",""
"","14996","html-keyboard-response","25","430510","0.0-3.0-1.4","<span style=""font-size:30px; font-family: monospace"">argumento</span>"," ","","exp-sent","argumento","","",""
"","8781","html-keyboard-response","26","439545","0.0-3.0-1.5","<span style=""font-size:30px; font-family: monospace"">central</span>"," ","","exp-sent","central","","",""
"","4741","html-keyboard-response","27","444556","0.0-3.0-1.6","<span style=""font-size:30px; font-family: monospace"">para</span>"," ","","exp-sent","para","","",""
"","10204","html-keyboard-response","28","455029","0.0-3.0-1.7","<span style=""font-size:30px; font-family: monospace"">a</span>"," ","","exp-sent","a","","",""
"","7928","html-keyboard-response","29","463211","0.0-3.0-1.8","<span style=""font-size:30px; font-family: monospace"">conversa.</span>"," ","","exp-sent","conversa.","","",""
"","null","html-keyboard-response","30","464493","0.0-3.0-0.9-0.9","<span style= ""font-size:30px; font-family: monospace"">+</span>","null","fixation","","","","",""
"","15020","html-keyboard-response","31","479774","0.0-3.0-1.9","<span style=""font-size:30px; font-family: monospace"">Ontem</span>"," ","","exp-sent","Ontem","","",""
"","4229","html-keyboard-response","32","484273","0.0-3.0-1.10","<span style=""font-size:30px; font-family: monospace"">a</span>"," ","","exp-sent","a","","",""
"","6324","html-keyboard-response","33","490869","0.0-3.0-1.11","<span style=""font-size:30px; font-family: monospace"">temperatura</span>"," ","","exp-sent","temperatura","","",""
"","4082","html-keyboard-response","34","495204","0.0-3.0-1.12","<span style=""font-size:30px; font-family: monospace"">estava</span>"," ","","exp-sent","estava","","",""
"","5173","html-keyboard-response","35","500647","0.0-3.0-1.13","<span style=""font-size:30px; font-family: monospace"">amena</span>"," ","","exp-sent","amena","","",""
"","2794","html-keyboard-response","36","503698","0.0-3.0-1.14","<span style=""font-size:30px; font-family: monospace"">durante</span>"," ","","exp-sent","durante","","",""
"","2578","html-keyboard-response","37","506542","0.0-3.0-1.15","<span style=""font-size:30px; font-family: monospace"">o</span>"," ","","exp-sent","o","","",""
"","4502","html-keyboard-response","38","511306","0.0-3.0-1.16","<span style=""font-size:30px; font-family: monospace"">dia.</span>"," ","","exp-sent","dia.","","",""
"","null","html-keyboard-response","39","512593","0.0-3.0-0.17-0.17","<span style= ""font-size:30px; font-family: monospace"">+</span>","null","fixation","","","","",""
"","5819","html-keyboard-response","40","518684","0.0-3.0-1.17","<span style=""font-size:30px; font-family: monospace"">Havia</span>"," ","","exp-sent","Havia","","",""
"","2432","html-keyboard-response","41","521385","0.0-3.0-1.18","<span style=""font-size:30px; font-family: monospace"">um</span>"," ","","exp-sent","um","","",""
"","6520","html-keyboard-response","42","528173","0.0-3.0-1.19","<span style=""font-size:30px; font-family: monospace"">machucado</span>"," ","","exp-sent","machucado","","",""
"","2009","html-keyboard-response","43","530444","0.0-3.0-1.20","<span style=""font-size:30px; font-family: monospace"">no</span>"," ","","exp-sent","no","","",""
"","4643","html-keyboard-response","44","535347","0.0-3.0-1.21","<span style=""font-size:30px; font-family: monospace"">dedo</span>"," ","","exp-sent","dedo","","",""
"","1905","html-keyboard-response","45","537519","0.0-3.0-1.22","<span style=""font-size:30px; font-family: monospace"">da</span>"," ","","exp-sent","da","","",""
"","2981","html-keyboard-response","46","540765","0.0-3.0-1.23","<span style=""font-size:30px; font-family: monospace"">criança.</span>"," ","","exp-sent","criança.","","",""
"","null","html-keyboard-response","47","542049","0.0-3.0-0.24-0.24","<span style= ""font-size:30px; font-family: monospace"">+</span>","null","fixation","","","","",""
"","5491","html-keyboard-response","48","547805","0.0-3.0-1.24","<span style=""font-size:30px; font-family: monospace"">A</span>"," ","","exp-sent","A","","",""
"","4444","html-keyboard-response","49","552507","0.0-3.0-1.25","<span style=""font-size:30px; font-family: monospace"">borboleta</span>"," ","","exp-sent","borboleta","","",""
"","3622","html-keyboard-response","50","556386","0.0-3.0-1.26","<span style=""font-size:30px; font-family: monospace"">pousou</span>"," ","","exp-sent","pousou","","",""
"","1929","html-keyboard-response","51","558573","0.0-3.0-1.27","<span style=""font-size:30px; font-family: monospace"">no</span>"," ","","exp-sent","no","","",""
"","2966","html-keyboard-response","52","561810","0.0-3.0-1.28","<span style=""font-size:30px; font-family: monospace"">ombro</span>"," ","","exp-sent","ombro","","",""
"","3775","html-keyboard-response","53","565849","0.0-3.0-1.29","<span style=""font-size:30px; font-family: monospace"">daquela</span>"," ","","exp-sent","daquela","","",""
"","3382","html-keyboard-response","54","569485","0.0-3.0-1.30","<span style=""font-size:30px; font-family: monospace"">moça.</span>"," ","","exp-sent","moça.","","",""
"","null","html-keyboard-response","55","570763","0.0-3.0-0.31-0.31","<span style= ""font-size:30px; font-family: monospace"">+</span>","null","fixation","","","","",""
"","2964","html-keyboard-response","56","573998","0.0-3.0-1.31","<span style=""font-size:30px; font-family: monospace"">Eu</span>"," ","","exp-sent","Eu","","",""
"","2098","html-keyboard-response","57","576352","0.0-3.0-1.32","<span style=""font-size:30px; font-family: monospace"">quero</span>"," ","","exp-sent","quero","","",""
"","1815","html-keyboard-response","58","578419","0.0-3.0-1.33","<span style=""font-size:30px; font-family: monospace"">um</span>"," ","","exp-sent","um","","",""
"","7646","html-keyboard-response","59","586330","0.0-3.0-1.34","<span style=""font-size:30px; font-family: monospace"">namorado</span>"," ","","exp-sent","namorado","","",""
"","23237","html-keyboard-response","60","609822","0.0-3.0-1.35","<span style=""font-size:30px; font-family: monospace"">honesto</span>"," ","","exp-sent","honesto","","",""
"","2925","html-keyboard-response","61","613009","0.0-3.0-1.36","<span style=""font-size:30px; font-family: monospace"">e</span>"," ","","exp-sent","e","","",""
"","6037","html-keyboard-response","62","619303","0.0-3.0-1.37","<span style=""font-size:30px; font-family: monospace"">compreensivo.</span>"," ","","comp","compreensivo.","","",""
"","25103","html-keyboard-response","63","644666","0.0-3.0-2.37-0.37","<span style=""font-size:30px; font-family: monospace"">Eu quero um namorado honesto?</span>","s","","comp","","Eu quero um namorado honesto?","sim","false"
"","null","html-keyboard-response","64","646183","0.0-3.0-0.38-0.38","<span style= ""font-size:30px; font-family: monospace"">+</span>","null","fixation","","","","",""
"","6842","html-keyboard-response","65","653295","0.0-3.0-1.38","<span style=""font-size:30px; font-family: monospace"">No</span>"," ","","exp-sent","No","","",""
"","4468","html-keyboard-response","66","658022","0.0-3.0-1.39","<span style=""font-size:30px; font-family: monospace"">passado</span>"," ","","exp-sent","passado","","",""
"","3408","html-keyboard-response","67","661683","0.0-3.0-1.40","<span style=""font-size:30px; font-family: monospace"">houve</span>"," ","","exp-sent","houve","","",""
"","1543","html-keyboard-response","68","663487","0.0-3.0-1.41","<span style=""font-size:30px; font-family: monospace"">uma</span>"," ","","exp-sent","uma","","",""
"","3377","html-keyboard-response","69","667122","0.0-3.0-1.42","<span style=""font-size:30px; font-family: monospace"">rebelião</span>"," ","","exp-sent","rebelião","","",""
"","2134","html-keyboard-response","70","669508","0.0-3.0-1.43","<span style=""font-size:30px; font-family: monospace"">nesta</span>"," ","","exp-sent","nesta","","",""
"","1880","html-keyboard-response","71","671655","0.0-3.0-1.44","<span style=""font-size:30px; font-family: monospace"">cidade.</span>"," ","","exp-sent","cidade.","","",""
"","null","html-keyboard-response","72","672944","0.0-3.0-0.45-0.45","<span style= ""font-size:30px; font-family: monospace"">+</span>","null","fixation","","","","",""
"","1866","html-keyboard-response","73","675070","0.0-3.0-1.45","<span style=""font-size:30px; font-family: monospace"">Ele</span>"," ","","exp-sent","Ele","","",""
"","5154","html-keyboard-response","74","680488","0.0-3.0-1.46","<span style=""font-size:30px; font-family: monospace"">fundou</span>"," ","","exp-sent","fundou","","",""
"","1555","html-keyboard-response","75","682309","0.0-3.0-1.47","<span style=""font-size:30px; font-family: monospace"">uma</span>"," ","","exp-sent","uma","","",""
"","2557","html-keyboard-response","76","685130","0.0-3.0-1.48","<span style=""font-size:30px; font-family: monospace"">empresa</span>"," ","","exp-sent","empresa","","",""
"","2829","html-keyboard-response","77","688214","0.0-3.0-1.49","<span style=""font-size:30px; font-family: monospace"">privada</span>"," ","","exp-sent","privada","","",""
"","1932","html-keyboard-response","78","690416","0.0-3.0-1.50","<span style=""font-size:30px; font-family: monospace"">sem</span>"," ","","exp-sent","sem","","",""
"","2283","html-keyboard-response","79","692959","0.0-3.0-1.51","<span style=""font-size:30px; font-family: monospace"">ajuda.</span>"," ","","exp-sent","ajuda.","","",""
"","null","html-keyboard-response","80","694224","0.0-3.0-0.52-0.52","<span style= ""font-size:30px; font-family: monospace"">+</span>","null","fixation","","","","",""
"","1973","html-keyboard-response","81","696450","0.0-3.0-1.52","<span style=""font-size:30px; font-family: monospace"">As</span>"," ","","exp-sent","As","","",""
"","6008","html-keyboard-response","82","702723","0.0-3.0-1.53","<span style=""font-size:30px; font-family: monospace"">meninas</span>"," ","","exp-sent","meninas","","",""
"","2919","html-keyboard-response","83","705904","0.0-3.0-1.54","<span style=""font-size:30px; font-family: monospace"">encontraram</span>"," ","","exp-sent","encontraram","","",""
"","1625","html-keyboard-response","84","707790","0.0-3.0-1.55","<span style=""font-size:30px; font-family: monospace"">um</span>"," ","","exp-sent","um","","",""
"","4779","html-keyboard-response","85","712823","0.0-3.0-1.56","<span style=""font-size:30px; font-family: monospace"">rato</span>"," ","","exp-sent","rato","","",""
"","1810","html-keyboard-response","86","714884","0.0-3.0-1.57","<span style=""font-size:30px; font-family: monospace"">dentro</span>"," ","","exp-sent","dentro","","",""
"","1292","html-keyboard-response","87","716445","0.0-3.0-1.58","<span style=""font-size:30px; font-family: monospace"">de</span>"," ","","exp-sent","de","","",""
"","1934","html-keyboard-response","88","718637","0.0-3.0-1.59","<span style=""font-size:30px; font-family: monospace"">casa.</span>"," ","","exp-sent","casa.","","",""
"","null","html-keyboard-response","89","719913","0.0-3.0-0.60-0.60","<span style= ""font-size:30px; font-family: monospace"">+</span>","null","fixation","","","","",""
"","4304","html-keyboard-response","90","724478","0.0-3.0-1.60","<span style=""font-size:30px; font-family: monospace"">O</span>"," ","","exp-sent","O","","",""
"","1919","html-keyboard-response","91","726663","0.0-3.0-1.61","<span style=""font-size:30px; font-family: monospace"">texto</span>"," ","","exp-sent","texto","","",""
"","1872","html-keyboard-response","92","728786","0.0-3.0-1.62","<span style=""font-size:30px; font-family: monospace"">tinha</span>"," ","","exp-sent","tinha","","",""
"","3144","html-keyboard-response","93","732189","0.0-3.0-1.63","<span style=""font-size:30px; font-family: monospace"">ideias</span>"," ","","exp-sent","ideias","","",""
"","2728","html-keyboard-response","94","735172","0.0-3.0-1.64","<span style=""font-size:30px; font-family: monospace"">vagas</span>"," ","","exp-sent","vagas","","",""
"","1903","html-keyboard-response","95","737337","0.0-3.0-1.65","<span style=""font-size:30px; font-family: monospace"">e</span>"," ","","exp-sent","e","","",""
"","5884","html-keyboard-response","96","743478","0.0-3.0-1.66","<span style=""font-size:30px; font-family: monospace"">confusas.</span>"," ","","exp-sent","confusas.","","",""
"","null","html-keyboard-response","97","744753","0.0-3.0-0.67-0.67","<span style= ""font-size:30px; font-family: monospace"">+</span>","null","fixation","","","","",""
"","1437","html-keyboard-response","98","746462","0.0-3.0-1.67","<span style=""font-size:30px; font-family: monospace"">As</span>"," ","","exp-sent","As","","",""
"","2111","html-keyboard-response","99","748837","0.0-3.0-1.68","<span style=""font-size:30px; font-family: monospace"">crianças</span>"," ","","exp-sent","crianças","","",""
"","2462","html-keyboard-response","100","751558","0.0-3.0-1.69","<span style=""font-size:30px; font-family: monospace"">viram</span>"," ","","exp-sent","viram","","",""
"","1874","html-keyboard-response","101","753698","0.0-3.0-1.70","<span style=""font-size:30px; font-family: monospace"">a</span>"," ","","exp-sent","a","","",""
"","7993","html-keyboard-response","102","761947","0.0-3.0-1.71","<span style=""font-size:30px; font-family: monospace"">acrobata</span>"," ","","exp-sent","acrobata","","",""
"","5058","html-keyboard-response","103","767261","0.0-3.0-1.72","<span style=""font-size:30px; font-family: monospace"">talentosa</span>"," ","","exp-sent","talentosa","","",""
"","1389","html-keyboard-response","104","768903","0.0-3.0-1.73","<span style=""font-size:30px; font-family: monospace"">no</span>"," ","","exp-sent","no","","",""
"","3351","html-keyboard-response","105","772527","0.0-3.0-1.74","<span style=""font-size:30px; font-family: monospace"">circo.</span>"," ","","comp","circo.","","",""
"","66557","html-keyboard-response","106","839340","0.0-3.0-2.74-0.74","<span style=""font-size:30px; font-family: monospace"">As crianças viram o palhaço no circo?</span>","s","","comp","","As crianças viram o palhaço no circo?","não","false"
"","null","html-keyboard-response","107","840864","0.0-3.0-0.75-0.75","<span style= ""font-size:30px; font-family: monospace"">+</span>","null","fixation","","","","",""
"","4911","html-keyboard-response","108","846035","0.0-3.0-1.75","<span style=""font-size:30px; font-family: monospace"">Barulho</span>"," ","","exp-sent","Barulho","","",""
"","1605","html-keyboard-response","109","847908","0.0-3.0-1.76","<span style=""font-size:30px; font-family: monospace"">de</span>"," ","","exp-sent","de","","",""
"","2649","html-keyboard-response","110","850813","0.0-3.0-1.77","<span style=""font-size:30px; font-family: monospace"">carros</span>"," ","","exp-sent","carros","","",""
"","1535","html-keyboard-response","111","852621","0.0-3.0-1.78","<span style=""font-size:30px; font-family: monospace"">é</span>"," ","","exp-sent","é","","",""
"","7003","html-keyboard-response","112","859877","0.0-3.0-1.79","<span style=""font-size:30px; font-family: monospace"">irritante</span>"," ","","exp-sent","irritante","","",""
"","1630","html-keyboard-response","113","861774","0.0-3.0-1.80","<span style=""font-size:30px; font-family: monospace"">para</span>"," ","","exp-sent","para","","",""
"","1396","html-keyboard-response","114","863440","0.0-3.0-1.81","<span style=""font-size:30px; font-family: monospace"">a</span>"," ","","exp-sent","a","","",""
"","2159","html-keyboard-response","115","865852","0.0-3.0-1.82","<span style=""font-size:30px; font-family: monospace"">moça.</span>"," ","","exp-sent","moça.","","",""
"","null","html-keyboard-response","116","867123","0.0-3.0-0.83-0.83","<span style= ""font-size:30px; font-family: monospace"">+</span>","null","fixation","","","","",""
"","1695","html-keyboard-response","117","869078","0.0-3.0-1.83","<span style=""font-size:30px; font-family: monospace"">A</span>"," ","","exp-sent","A","","",""
"","2605","html-keyboard-response","118","871934","0.0-3.0-1.84","<span style=""font-size:30px; font-family: monospace"">loja</span>"," ","","exp-sent","loja","","",""
"","2104","html-keyboard-response","119","874309","0.0-3.0-1.85","<span style=""font-size:30px; font-family: monospace"">também</span>"," ","","exp-sent","também","","",""
"","1811","html-keyboard-response","120","876375","0.0-3.0-1.86","<span style=""font-size:30px; font-family: monospace"">vende</span>"," ","","exp-sent","vende","","",""
"","7113","html-keyboard-response","121","883757","0.0-3.0-1.87","<span style=""font-size:30px; font-family: monospace"">taça</span>"," ","","exp-sent","taça","","",""
"","1466","html-keyboard-response","122","885484","0.0-3.0-1.88","<span style=""font-size:30px; font-family: monospace"">de</span>"," ","","exp-sent","de","","",""
"","9883","html-keyboard-response","123","895627","0.0-3.0-1.89","<span style=""font-size:30px; font-family: monospace"">vinho</span>"," ","","exp-sent","vinho","","",""
"","1662","html-keyboard-response","124","897546","0.0-3.0-1.90","<span style=""font-size:30px; font-family: monospace"">e</span>"," ","","exp-sent","e","","",""
"","9555","html-keyboard-response","125","907356","0.0-3.0-1.91","<span style=""font-size:30px; font-family: monospace"">espumante.</span>"," ","","exp-sent","espumante.","","",""
"","null","html-keyboard-response","126","908633","0.0-3.0-0.92-0.92","<span style= ""font-size:30px; font-family: monospace"">+</span>","null","fixation","","","","",""
"","1697","html-keyboard-response","127","910593","0.0-3.0-1.92","<span style=""font-size:30px; font-family: monospace"">A</span>"," ","","exp-sent","A","","",""
"","5034","html-keyboard-response","128","915889","0.0-3.0-1.93","<span style=""font-size:30px; font-family: monospace"">bruxa</span>"," ","","exp-sent","bruxa","","",""
"","2398","html-keyboard-response","129","918542","0.0-3.0-1.94","<span style=""font-size:30px; font-family: monospace"">tinha</span>"," ","","exp-sent","tinha","","",""
"","1574","html-keyboard-response","130","920367","0.0-3.0-1.95","<span style=""font-size:30px; font-family: monospace"">uma</span>"," ","","exp-sent","uma","","",""
"","8666","html-keyboard-response","131","929290","0.0-3.0-1.96","<span style=""font-size:30px; font-family: monospace"">vassoura</span>"," ","","exp-sent","vassoura","","",""
"","1504","html-keyboard-response","132","931048","0.0-3.0-1.97","<span style=""font-size:30px; font-family: monospace"">e</span>"," ","","exp-sent","e","","",""
"","1655","html-keyboard-response","133","932959","0.0-3.0-1.98","<span style=""font-size:30px; font-family: monospace"">um</span>"," ","","exp-sent","um","","",""
"","3670","html-keyboard-response","134","936884","0.0-3.0-1.99","<span style=""font-size:30px; font-family: monospace"">gato.</span>"," ","","exp-sent","gato.","","",""
"","null","html-keyboard-response","135","938173","0.0-3.0-0.100-0.100","<span style= ""font-size:30px; font-family: monospace"">+</span>","null","fixation","","","","",""
"","1693","html-keyboard-response","136","940126","0.0-3.0-1.100","<span style=""font-size:30px; font-family: monospace"">Eu</span>"," ","","exp-sent","Eu","","",""
"","1457","html-keyboard-response","137","941841","0.0-3.0-1.101","<span style=""font-size:30px; font-family: monospace"">me</span>"," ","","exp-sent","me","","",""
"","2316","html-keyboard-response","138","944421","0.0-3.0-1.102","<span style=""font-size:30px; font-family: monospace"">divirto</span>"," ","","exp-sent","divirto","","",""
"","1780","html-keyboard-response","139","946465","0.0-3.0-1.103","<span style=""font-size:30px; font-family: monospace"">em</span>"," ","","exp-sent","em","","",""
"","2063","html-keyboard-response","140","948797","0.0-3.0-1.104","<span style=""font-size:30px; font-family: monospace"">festas</span>"," ","","exp-sent","festas","","",""
"","1421","html-keyboard-response","141","950485","0.0-3.0-1.105","<span style=""font-size:30px; font-family: monospace"">de</span>"," ","","exp-sent","de","","",""
"","2242","html-keyboard-response","142","952997","0.0-3.0-1.106","<span style=""font-size:30px; font-family: monospace"">criança.</span>"," ","","exp-sent","criança.","","",""
"","null","html-keyboard-response","143","954274","0.0-3.0-0.107-0.107","<span style= ""font-size:30px; font-family: monospace"">+</span>","null","fixation","","","","",""
"","1830","html-keyboard-response","144","956374","0.0-3.0-1.107","<span style=""font-size:30px; font-family: monospace"">A</span>"," ","","exp-sent","A","","",""
"","2161","html-keyboard-response","145","958805","0.0-3.0-1.108","<span style=""font-size:30px; font-family: monospace"">janela</span>"," ","","exp-sent","janela","","",""
"","3702","html-keyboard-response","146","962776","0.0-3.0-1.109","<span style=""font-size:30px; font-family: monospace"">alta</span>"," ","","exp-sent","alta","","",""
"","1919","html-keyboard-response","147","964963","0.0-3.0-1.110","<span style=""font-size:30px; font-family: monospace"">estava</span>"," ","","exp-sent","estava","","",""
"","2322","html-keyboard-response","148","967557","0.0-3.0-1.111","<span style=""font-size:30px; font-family: monospace"">quebrada</span>"," ","","exp-sent","quebrada","","",""
"","1779","html-keyboard-response","149","969603","0.0-3.0-1.112","<span style=""font-size:30px; font-family: monospace"">desde</span>"," ","","exp-sent","desde","","",""
"","2125","html-keyboard-response","150","971979","0.0-3.0-1.113","<span style=""font-size:30px; font-family: monospace"">ontem.</span>"," ","","comp","ontem.","","",""
"","83795","html-keyboard-response","151","1056029","0.0-3.0-2.113-0.113","<span style=""font-size:30px; font-family: monospace"">A janela alta estava quebrada?</span>","n","","comp","","A janela alta estava quebrada?","sim","false"
"","null","html-keyboard-response","152","1057544","0.0-3.0-0.114-0.114","<span style= ""font-size:30px; font-family: monospace"">+</span>","null","fixation","","","","",""
"","2386","html-keyboard-response","153","1060190","0.0-3.0-1.114","<span style=""font-size:30px; font-family: monospace"">Ele</span>"," ","","exp-sent","Ele","","",""
"","2020","html-keyboard-response","154","1062465","0.0-3.0-1.115","<span style=""font-size:30px; font-family: monospace"">é</span>"," ","","exp-sent","é","","",""
"","1503","html-keyboard-response","155","1064237","0.0-3.0-1.116","<span style=""font-size:30px; font-family: monospace"">um</span>"," ","","exp-sent","um","","",""
"","1656","html-keyboard-response","156","1066150","0.0-3.0-1.117","<span style=""font-size:30px; font-family: monospace"">pai</span>"," ","","exp-sent","pai","","",""
"","6466","html-keyboard-response","157","1072880","0.0-3.0-1.118","<span style=""font-size:30px; font-family: monospace"">ausente</span>"," ","","exp-sent","ausente","","",""
"","2461","html-keyboard-response","158","1075605","0.0-3.0-1.119","<span style=""font-size:30px; font-family: monospace"">e</span>"," ","","exp-sent","e","","",""
"","1827","html-keyboard-response","159","1077701","0.0-3.0-1.120","<span style=""font-size:30px; font-family: monospace"">muito</span>"," ","","exp-sent","muito","","",""
"","4046","html-keyboard-response","160","1082001","0.0-3.0-1.121","<span style=""font-size:30px; font-family: monospace"">fofoqueiro.</span>"," ","","exp-sent","fofoqueiro.","","",""
"","null","html-keyboard-response","161","1083264","0.0-3.0-0.122-0.122","<span style= ""font-size:30px; font-family: monospace"">+</span>","null","fixation","","","","",""
"","2557","html-keyboard-response","162","1086082","0.0-3.0-1.122","<span style=""font-size:30px; font-family: monospace"">O</span>"," ","","exp-sent","O","","",""
"","1777","html-keyboard-response","163","1088112","0.0-3.0-1.123","<span style=""font-size:30px; font-family: monospace"">filho</span>"," ","","exp-sent","filho","","",""
"","4931","html-keyboard-response","164","1093296","0.0-3.0-1.124","<span style=""font-size:30px; font-family: monospace"">lavou</span>"," ","","exp-sent","lavou","","",""
"","1138","html-keyboard-response","165","1094704","0.0-3.0-1.125","<span style=""font-size:30px; font-family: monospace"">a</span>"," ","","exp-sent","a","","",""
"","1774","html-keyboard-response","166","1096728","0.0-3.0-1.126","<span style=""font-size:30px; font-family: monospace"">roupa</span>"," ","","exp-sent","roupa","","",""
"","1520","html-keyboard-response","167","1098514","0.0-3.0-1.127","<span style=""font-size:30px; font-family: monospace"">sem</span>"," ","","exp-sent","sem","","",""
"","2831","html-keyboard-response","168","1101616","0.0-3.0-1.128","<span style=""font-size:30px; font-family: monospace"">nenhuma</span>"," ","","exp-sent","nenhuma","","",""
"","2304","html-keyboard-response","169","1104178","0.0-3.0-1.129","<span style=""font-size:30px; font-family: monospace"">ajuda.</span>"," ","","exp-sent","ajuda.","","",""
"","null","html-keyboard-response","170","1105453","0.0-3.0-0.130-0.130","<span style= ""font-size:30px; font-family: monospace"">+</span>","null","fixation","","","","",""
"","1947","html-keyboard-response","171","1107662","0.0-3.0-1.130","<span style=""font-size:30px; font-family: monospace"">O</span>"," ","","exp-sent","O","","",""
"","1893","html-keyboard-response","172","1109817","0.0-3.0-1.131","<span style=""font-size:30px; font-family: monospace"">menino</span>"," ","","exp-sent","menino","","",""
"","1936","html-keyboard-response","173","1112009","0.0-3.0-1.132","<span style=""font-size:30px; font-family: monospace"">quebrou</span>"," ","","exp-sent","quebrou","","",""
"","1469","html-keyboard-response","174","1113744","0.0-3.0-1.133","<span style=""font-size:30px; font-family: monospace"">a</span>"," ","","exp-sent","a","","",""
"","2554","html-keyboard-response","175","1116558","0.0-3.0-1.134","<span style=""font-size:30px; font-family: monospace"">perna</span>"," ","","exp-sent","perna","","",""
"","1287","html-keyboard-response","176","1118112","0.0-3.0-1.135","<span style=""font-size:30px; font-family: monospace"">nos</span>"," ","","exp-sent","nos","","",""
"","2520","html-keyboard-response","177","1120883","0.0-3.0-1.136","<span style=""font-size:30px; font-family: monospace"">esportes.</span>"," ","","exp-sent","esportes.","","",""
"","null","html-keyboard-response","178","1122134","0.0-3.0-0.137-0.137","<span style= ""font-size:30px; font-family: monospace"">+</span>","null","fixation","","","","",""
"","1505","html-keyboard-response","179","1123907","0.0-3.0-1.137","<span style=""font-size:30px; font-family: monospace"">Ela</span>"," ","","exp-sent","Ela","","",""
"","2450","html-keyboard-response","180","1126614","0.0-3.0-1.138","<span style=""font-size:30px; font-family: monospace"">brincou</span>"," ","","exp-sent","brincou","","",""
"","1555","html-keyboard-response","181","1128439","0.0-3.0-1.139","<span style=""font-size:30px; font-family: monospace"">com</span>"," ","","exp-sent","com","","",""
"","1550","html-keyboard-response","182","1130253","0.0-3.0-1.140","<span style=""font-size:30px; font-family: monospace"">uma</span>"," ","","exp-sent","uma","","",""
"","1954","html-keyboard-response","183","1132468","0.0-3.0-1.141","<span style=""font-size:30px; font-family: monospace"">menina</span>"," ","","exp-sent","menina","","",""
"","1431","html-keyboard-response","184","1134165","0.0-3.0-1.142","<span style=""font-size:30px; font-family: monospace"">da</span>"," ","","exp-sent","da","","",""
"","2291","html-keyboard-response","185","1136727","0.0-3.0-1.143","<span style=""font-size:30px; font-family: monospace"">turma.</span>"," ","","exp-sent","turma.","","",""
"","null","html-keyboard-response","186","1138004","0.0-3.0-0.144-0.144","<span style= ""font-size:30px; font-family: monospace"">+</span>","null","fixation","","","","",""
"","1636","html-keyboard-response","187","1139910","0.0-3.0-1.144","<span style=""font-size:30px; font-family: monospace"">Ele</span>"," ","","exp-sent","Ele","","",""
"","4460","html-keyboard-response","188","1144634","0.0-3.0-1.145","<span style=""font-size:30px; font-family: monospace"">esteve</span>"," ","","exp-sent","esteve","","",""
"","1767","html-keyboard-response","189","1146671","0.0-3.0-1.146","<span style=""font-size:30px; font-family: monospace"">no</span>"," ","","exp-sent","no","","",""
"","3092","html-keyboard-response","190","1150068","0.0-3.0-1.147","<span style=""font-size:30px; font-family: monospace"">escritório</span>"," ","","exp-sent","escritório","","",""
"","2391","html-keyboard-response","191","1152715","0.0-3.0-1.148","<span style=""font-size:30px; font-family: monospace"">o</span>"," ","","exp-sent","o","","",""
"","1828","html-keyboard-response","192","1154813","0.0-3.0-1.149","<span style=""font-size:30px; font-family: monospace"">dia</span>"," ","","exp-sent","dia","","",""
"","4261","html-keyboard-response","193","1159345","0.0-3.0-1.150","<span style=""font-size:30px; font-family: monospace"">inteiro.</span>"," ","","comp","inteiro.","","",""
"","43167","html-keyboard-response","194","1202772","0.0-3.0-2.150-0.150","<span style=""font-size:30px; font-family: monospace"">Ele esteve no parque o dia inteiro?</span>","n","","comp","","Ele esteve no parque o dia inteiro?","não","false"
"","null","html-keyboard-response","195","1204283","0.0-3.0-0.151-0.151","<span style= ""font-size:30px; font-family: monospace"">+</span>","null","fixation","","","","",""
"","4515","html-keyboard-response","196","1209060","0.0-3.0-1.151","<span style=""font-size:30px; font-family: monospace"">Minha</span>"," ","","exp-sent","Minha","","",""
"","1881","html-keyboard-response","197","1211195","0.0-3.0-1.152","<span style=""font-size:30px; font-family: monospace"">prima</span>"," ","","exp-sent","prima","","",""
"","4075","html-keyboard-response","198","1215533","0.0-3.0-1.153","<span style=""font-size:30px; font-family: monospace"">trocou</span>"," ","","exp-sent","trocou","","",""
"","1645","html-keyboard-response","199","1217440","0.0-3.0-1.154","<span style=""font-size:30px; font-family: monospace"">a</span>"," ","","exp-sent","a","","",""
"","5618","html-keyboard-response","200","1223323","0.0-3.0-1.155","<span style=""font-size:30px; font-family: monospace"">tela</span>"," ","","exp-sent","tela","","",""
"","1380","html-keyboard-response","201","1224954","0.0-3.0-1.156","<span style=""font-size:30px; font-family: monospace"">do</span>"," ","","exp-sent","do","","",""
"","2209","html-keyboard-response","202","1227415","0.0-3.0-1.157","<span style=""font-size:30px; font-family: monospace"">celular</span>"," ","","exp-sent","celular","","",""
"","2021","html-keyboard-response","203","1229695","0.0-3.0-1.158","<span style=""font-size:30px; font-family: monospace"">duas</span>"," ","","exp-sent","duas","","",""
"","1699","html-keyboard-response","204","1231653","0.0-3.0-1.159","<span style=""font-size:30px; font-family: monospace"">vezes.</span>"," ","","exp-sent","vezes.","","",""
"","null","html-keyboard-response","205","1232923","0.0-3.0-0.160-0.160","<span style= ""font-size:30px; font-family: monospace"">+</span>","null","fixation","","","","",""
"","1785","html-keyboard-response","206","1234970","0.0-3.0-1.160","<span style=""font-size:30px; font-family: monospace"">Agora</span>"," ","","exp-sent","Agora","","",""
"","2160","html-keyboard-response","207","1237384","0.0-3.0-1.161","<span style=""font-size:30px; font-family: monospace"">a</span>"," ","","exp-sent","a","","",""
"","2060","html-keyboard-response","208","1239704","0.0-3.0-1.162","<span style=""font-size:30px; font-family: monospace"">minha</span>"," ","","exp-sent","minha","","",""
"","3317","html-keyboard-response","209","1243291","0.0-3.0-1.163","<span style=""font-size:30px; font-family: monospace"">única</span>"," ","","exp-sent","única","","",""
"","3727","html-keyboard-response","210","1247281","0.0-3.0-1.164","<span style=""font-size:30px; font-family: monospace"">preocupação</span>"," ","","exp-sent","preocupação","","",""
"","1552","html-keyboard-response","211","1249085","0.0-3.0-1.165","<span style=""font-size:30px; font-family: monospace"">é</span>"," ","","exp-sent","é","","",""
"","1522","html-keyboard-response","212","1250876","0.0-3.0-1.166","<span style=""font-size:30px; font-family: monospace"">um</span>"," ","","exp-sent","um","","",""
"","4722","html-keyboard-response","213","1255867","0.0-3.0-1.167","<span style=""font-size:30px; font-family: monospace"">descanso</span>"," ","","exp-sent","descanso","","",""
"","2952","html-keyboard-response","214","1259087","0.0-3.0-1.168","<span style=""font-size:30px; font-family: monospace"">tranquilo.</span>"," ","","exp-sent","tranquilo.","","",""
"","null","html-keyboard-response","215","1260364","0.0-3.0-0.169-0.169","<span style= ""font-size:30px; font-family: monospace"">+</span>","null","fixation","","","","",""
"","2455","html-keyboard-response","216","1263079","0.0-3.0-1.169","<span style=""font-size:30px; font-family: monospace"">A</span>"," ","","exp-sent","A","","",""
"","1950","html-keyboard-response","217","1265284","0.0-3.0-1.170","<span style=""font-size:30px; font-family: monospace"">criança</span>"," ","","exp-sent","criança","","",""
"","2289","html-keyboard-response","218","1267832","0.0-3.0-1.171","<span style=""font-size:30px; font-family: monospace"">ganhou</span>"," ","","exp-sent","ganhou","","",""
"","1312","html-keyboard-response","219","1269398","0.0-3.0-1.172","<span style=""font-size:30px; font-family: monospace"">um</span>"," ","","exp-sent","um","","",""
"","2525","html-keyboard-response","220","1272189","0.0-3.0-1.173","<span style=""font-size:30px; font-family: monospace"">presente</span>"," ","","exp-sent","presente","","",""
"","2825","html-keyboard-response","221","1275278","0.0-3.0-1.174","<span style=""font-size:30px; font-family: monospace"">maravilhoso.</span>"," ","","exp-sent","maravilhoso.","","",""
"","null","html-keyboard-response","222","1276554","0.0-3.0-0.175-0.175","<span style= ""font-size:30px; font-family: monospace"">+</span>","null","fixation","","","","",""
"","1622","html-keyboard-response","223","1278435","0.0-3.0-1.175","<span style=""font-size:30px; font-family: monospace"">Os</span>"," ","","exp-sent","Os","","",""
"","9077","html-keyboard-response","224","1287771","0.0-3.0-1.176","<span style=""font-size:30px; font-family: monospace"">bichos</span>"," ","","exp-sent","bichos","","",""
"","1384","html-keyboard-response","225","1289407","0.0-3.0-1.177","<span style=""font-size:30px; font-family: monospace"">têm</span>"," ","","exp-sent","têm","","",""
"","1330","html-keyboard-response","226","1291005","0.0-3.0-1.178","<span style=""font-size:30px; font-family: monospace"">um</span>"," ","","exp-sent","um","","",""
"","8641","html-keyboard-response","227","1299906","0.0-3.0-1.179","<span style=""font-size:30px; font-family: monospace"">instinto</span>"," ","","exp-sent","instinto","","",""
"","1443","html-keyboard-response","228","1301617","0.0-3.0-1.180","<span style=""font-size:30px; font-family: monospace"">de</span>"," ","","exp-sent","de","","",""
"","4429","html-keyboard-response","229","1306303","0.0-3.0-1.181","<span style=""font-size:30px; font-family: monospace"">sobrevivência</span>"," ","","exp-sent","sobrevivência","","",""
"","2123","html-keyboard-response","230","1308697","0.0-3.0-1.182","<span style=""font-size:30px; font-family: monospace"">forte.</span>"," ","","exp-sent","forte.","","",""
"","null","html-keyboard-response","231","1309973","0.0-3.0-0.183-0.183","<span style= ""font-size:30px; font-family: monospace"">+</span>","null","fixation","","","","",""
"","2927","html-keyboard-response","232","1313162","0.0-3.0-1.183","<span style=""font-size:30px; font-family: monospace"">Aquele</span>"," ","","exp-sent","Aquele","","",""
"","2340","html-keyboard-response","233","1315754","0.0-3.0-1.184","<span style=""font-size:30px; font-family: monospace"">menino</span>"," ","","exp-sent","menino","","",""
"","2142","html-keyboard-response","234","1318156","0.0-3.0-1.185","<span style=""font-size:30px; font-family: monospace"">alto</span>"," ","","exp-sent","alto","","",""
"","1514","html-keyboard-response","235","1319929","0.0-3.0-1.186","<span style=""font-size:30px; font-family: monospace"">é</span>"," ","","exp-sent","é","","",""
"","3204","html-keyboard-response","236","1323388","0.0-3.0-1.187","<span style=""font-size:30px; font-family: monospace"">exibido</span>"," ","","exp-sent","exibido","","",""
"","1837","html-keyboard-response","237","1325481","0.0-3.0-1.188","<span style=""font-size:30px; font-family: monospace"">e</span>"," ","","exp-sent","e","","",""
"","6280","html-keyboard-response","238","1332014","0.0-3.0-1.189","<span style=""font-size:30px; font-family: monospace"">sovina.</span>"," ","","comp","sovina.","","",""
"","12487","html-keyboard-response","239","1344762","0.0-3.0-2.189-0.189","<span style=""font-size:30px; font-family: monospace"">Aquele menino é humilde?</span>","s","","comp","","Aquele menino é humilde?","não","false"
"","null","html-keyboard-response","240","1346274","0.0-3.0-0.190-0.190","<span style= ""font-size:30px; font-family: monospace"">+</span>","null","fixation","","","","",""
"","2822","html-keyboard-response","241","1349367","0.0-3.0-1.190","<span style=""font-size:30px; font-family: monospace"">A</span>"," ","","exp-sent","A","","",""
"","2309","html-keyboard-response","242","1351942","0.0-3.0-1.191","<span style=""font-size:30px; font-family: monospace"">senhora</span>"," ","","exp-sent","senhora","","",""
"","3653","html-keyboard-response","243","1355856","0.0-3.0-1.192","<span style=""font-size:30px; font-family: monospace"">cumprimentou</span>"," ","","exp-sent","cumprimentou","","",""
"","1813","html-keyboard-response","244","1357928","0.0-3.0-1.193","<span style=""font-size:30px; font-family: monospace"">o</span>"," ","","exp-sent","o","","",""
"","3701","html-keyboard-response","245","1361895","0.0-3.0-1.194","<span style=""font-size:30px; font-family: monospace"">operador</span>"," ","","exp-sent","operador","","",""
"","1344","html-keyboard-response","246","1363508","0.0-3.0-1.195","<span style=""font-size:30px; font-family: monospace"">de</span>"," ","","exp-sent","de","","",""
"","1748","html-keyboard-response","247","1365512","0.0-3.0-1.196","<span style=""font-size:30px; font-family: monospace"">caixa.</span>"," ","","exp-sent","caixa.","","",""
"","null","html-keyboard-response","248","1366773","0.0-3.0-0.197-0.197","<span style= ""font-size:30px; font-family: monospace"">+</span>","null","fixation","","","","",""
"","1385","html-keyboard-response","249","1368429","0.0-3.0-1.197","<span style=""font-size:30px; font-family: monospace"">A</span>"," ","","exp-sent","A","","",""
"","1508","html-keyboard-response","250","1370202","0.0-3.0-1.198","<span style=""font-size:30px; font-family: monospace"">gente</span>"," ","","exp-sent","gente","","",""
"","1828","html-keyboard-response","251","1372281","0.0-3.0-1.199","<span style=""font-size:30px; font-family: monospace"">viu</span>"," ","","exp-sent","viu","","",""
"","1597","html-keyboard-response","252","1374131","0.0-3.0-1.200","<span style=""font-size:30px; font-family: monospace"">o</span>"," ","","exp-sent","o","","",""
"","6895","html-keyboard-response","253","1381279","0.0-3.0-1.201","<span style=""font-size:30px; font-family: monospace"">eclipse</span>"," ","","exp-sent","eclipse","","",""
"","4350","html-keyboard-response","254","1385884","0.0-3.0-1.202","<span style=""font-size:30px; font-family: monospace"">lunar</span>"," ","","exp-sent","lunar","","",""
"","2139","html-keyboard-response","255","1388293","0.0-3.0-1.203","<span style=""font-size:30px; font-family: monospace"">durante</span>"," ","","exp-sent","durante","","",""
"","1352","html-keyboard-response","256","1389897","0.0-3.0-1.204","<span style=""font-size:30px; font-family: monospace"">o</span>"," ","","exp-sent","o","","",""
"","1625","html-keyboard-response","257","1391789","0.0-3.0-1.205","<span style=""font-size:30px; font-family: monospace"">dia.</span>"," ","","exp-sent","dia.","","",""
"","null","html-keyboard-response","258","1393063","0.0-3.0-0.206-0.206","<span style= ""font-size:30px; font-family: monospace"">+</span>","null","fixation","","","","",""
"","1593","html-keyboard-response","259","1394926","0.0-3.0-1.206","<span style=""font-size:30px; font-family: monospace"">A</span>"," ","","exp-sent","A","","",""
"","3260","html-keyboard-response","260","1398454","0.0-3.0-1.207","<span style=""font-size:30px; font-family: monospace"">mordida</span>"," ","","exp-sent","mordida","","",""
"","1374","html-keyboard-response","261","1400087","0.0-3.0-1.208","<span style=""font-size:30px; font-family: monospace"">do</span>"," ","","exp-sent","do","","",""
"","3293","html-keyboard-response","262","1403637","0.0-3.0-1.209","<span style=""font-size:30px; font-family: monospace"">cachorro</span>"," ","","exp-sent","cachorro","","",""
"","4531","html-keyboard-response","263","1408426","0.0-3.0-1.210","<span style=""font-size:30px; font-family: monospace"">voraz</span>"," ","","exp-sent","voraz","","",""
"","2103","html-keyboard-response","264","1410798","0.0-3.0-1.211","<span style=""font-size:30px; font-family: monospace"">causou</span>"," ","","exp-sent","causou","","",""
"","1365","html-keyboard-response","265","1412418","0.0-3.0-1.212","<span style=""font-size:30px; font-family: monospace"">uma</span>"," ","","exp-sent","uma","","",""
"","3152","html-keyboard-response","266","1415827","0.0-3.0-1.213","<span style=""font-size:30px; font-family: monospace"">cicatriz.</span>"," ","","exp-sent","cicatriz.","","",""
"","null","html-keyboard-response","267","1417104","0.0-3.0-0.214-0.214","<span style= ""font-size:30px; font-family: monospace"">+</span>","null","fixation","","","","",""
"","1738","html-keyboard-response","268","1419103","0.0-3.0-1.214","<span style=""font-size:30px; font-family: monospace"">Elas</span>"," ","","exp-sent","Elas","","",""
"","1631","html-keyboard-response","269","1420995","0.0-3.0-1.215","<span style=""font-size:30px; font-family: monospace"">não</span>"," ","","exp-sent","não","","",""
"","1984","html-keyboard-response","270","1423237","0.0-3.0-1.216","<span style=""font-size:30px; font-family: monospace"">viram</span>"," ","","exp-sent","viram","","",""
"","1822","html-keyboard-response","271","1425316","0.0-3.0-1.217","<span style=""font-size:30px; font-family: monospace"">nenhuma</span>"," ","","exp-sent","nenhuma","","",""
"","2788","html-keyboard-response","272","1428374","0.0-3.0-1.218","<span style=""font-size:30px; font-family: monospace"">diferença</span>"," ","","exp-sent","diferença","","",""
"","1562","html-keyboard-response","273","1430206","0.0-3.0-1.219","<span style=""font-size:30px; font-family: monospace"">entre</span>"," ","","exp-sent","entre","","",""
"","1222","html-keyboard-response","274","1431687","0.0-3.0-1.220","<span style=""font-size:30px; font-family: monospace"">os</span>"," ","","exp-sent","os","","",""
"","2162","html-keyboard-response","275","1434106","0.0-3.0-1.221","<span style=""font-size:30px; font-family: monospace"">textos.</span>"," ","","exp-sent","textos.","","",""
"","null","html-keyboard-response","276","1435394","0.0-3.0-0.222-0.222","<span style= ""font-size:30px; font-family: monospace"">+</span>","null","fixation","","","","",""
"","2706","html-keyboard-response","277","1438370","0.0-3.0-1.222","<span style=""font-size:30px; font-family: monospace"">Amanhã</span>"," ","","exp-sent","Amanhã","","",""
"","1517","html-keyboard-response","278","1440142","0.0-3.0-1.223","<span style=""font-size:30px; font-family: monospace"">vai</span>"," ","","exp-sent","vai","","",""
"","1162","html-keyboard-response","279","1441566","0.0-3.0-1.224","<span style=""font-size:30px; font-family: monospace"">ter</span>"," ","","exp-sent","ter","","",""
"","1285","html-keyboard-response","280","1443109","0.0-3.0-1.225","<span style=""font-size:30px; font-family: monospace"">um</span>"," ","","exp-sent","um","","",""
"","4846","html-keyboard-response","281","1448210","0.0-3.0-1.226","<span style=""font-size:30px; font-family: monospace"">bazar</span>"," ","","exp-sent","bazar","","",""
"","1244","html-keyboard-response","282","1449719","0.0-3.0-1.227","<span style=""font-size:30px; font-family: monospace"">no</span>"," ","","exp-sent","no","","",""
"","2187","html-keyboard-response","283","1452161","0.0-3.0-1.228","<span style=""font-size:30px; font-family: monospace"">bairro.</span>"," ","","comp","bairro.","","",""
"","13347","html-keyboard-response","284","1465761","0.0-3.0-2.228-0.228","<span style=""font-size:30px; font-family: monospace"">Amanhã vai acontecer um bazar no bairro?</span>","s","","comp","","Amanhã vai acontecer um bazar no bairro?","sim","false"
"","null","html-keyboard-response","285","1467284","0.0-3.0-0.229-0.229","<span style= ""font-size:30px; font-family: monospace"">+</span>","null","fixation","","","","",""
"","6615","html-keyboard-response","286","1474159","0.0-3.0-1.229","<span style=""font-size:30px; font-family: monospace"">Ursos</span>"," ","","exp-sent","Ursos","","",""
"","1680","html-keyboard-response","287","1476094","0.0-3.0-1.230","<span style=""font-size:30px; font-family: monospace"">têm</span>"," ","","exp-sent","têm","","",""
"","1262","html-keyboard-response","288","1477617","0.0-3.0-1.231","<span style=""font-size:30px; font-family: monospace"">uma</span>"," ","","exp-sent","uma","","",""
"","2158","html-keyboard-response","289","1480032","0.0-3.0-1.232","<span style=""font-size:30px; font-family: monospace"">patada</span>"," ","","exp-sent","patada","","",""
"","5552","html-keyboard-response","290","1485838","0.0-3.0-1.233","<span style=""font-size:30px; font-family: monospace"">brutal</span>"," ","","exp-sent","brutal","","",""
"","2328","html-keyboard-response","291","1488432","0.0-3.0-1.234","<span style=""font-size:30px; font-family: monospace"">e</span>"," ","","exp-sent","e","","",""
"","5326","html-keyboard-response","292","1494011","0.0-3.0-1.235","<span style=""font-size:30px; font-family: monospace"">poderosa.</span>"," ","","exp-sent","poderosa.","","",""
"","null","html-keyboard-response","293","1495284","0.0-3.0-0.236-0.236","<span style= ""font-size:30px; font-family: monospace"">+</span>","null","fixation","","","","",""
"","1462","html-keyboard-response","294","1497006","0.0-3.0-1.236","<span style=""font-size:30px; font-family: monospace"">Eu</span>"," ","","exp-sent","Eu","","",""
"","1680","html-keyboard-response","295","1498954","0.0-3.0-1.237","<span style=""font-size:30px; font-family: monospace"">fiz</span>"," ","","exp-sent","fiz","","",""
"","2124","html-keyboard-response","296","1501331","0.0-3.0-1.238","<span style=""font-size:30px; font-family: monospace"">aulas</span>"," ","","exp-sent","aulas","","",""
"","1371","html-keyboard-response","297","1502965","0.0-3.0-1.239","<span style=""font-size:30px; font-family: monospace"">de</span>"," ","","exp-sent","de","","",""
"","2987","html-keyboard-response","298","1506222","0.0-3.0-1.240","<span style=""font-size:30px; font-family: monospace"">espanhol</span>"," ","","exp-sent","espanhol","","",""
"","1682","html-keyboard-response","299","1508167","0.0-3.0-1.241","<span style=""font-size:30px; font-family: monospace"">nesta</span>"," ","","exp-sent","nesta","","",""
"","2040","html-keyboard-response","300","1510475","0.0-3.0-1.242","<span style=""font-size:30px; font-family: monospace"">cidade.</span>"," ","","exp-sent","cidade.","","",""
"","null","html-keyboard-response","301","1511754","0.0-3.0-0.243-0.243","<span style= ""font-size:30px; font-family: monospace"">+</span>","null","fixation","","","","",""
"","1342","html-keyboard-response","302","1513348","0.0-3.0-1.243","<span style=""font-size:30px; font-family: monospace"">Ele</span>"," ","","exp-sent","Ele","","",""
"","1980","html-keyboard-response","303","1515584","0.0-3.0-1.244","<span style=""font-size:30px; font-family: monospace"">comprou</span>"," ","","exp-sent","comprou","","",""
"","2522","html-keyboard-response","304","1518376","0.0-3.0-1.245","<span style=""font-size:30px; font-family: monospace"">mais</span>"," ","","exp-sent","mais","","",""
"","1269","html-keyboard-response","305","1519913","0.0-3.0-1.246","<span style=""font-size:30px; font-family: monospace"">uma</span>"," ","","exp-sent","uma","","",""
"","4133","html-keyboard-response","306","1524304","0.0-3.0-1.247","<span style=""font-size:30px; font-family: monospace"">esponja</span>"," ","","exp-sent","esponja","","",""
"","1936","html-keyboard-response","307","1526492","0.0-3.0-1.248","<span style=""font-size:30px; font-family: monospace"">para</span>"," ","","exp-sent","para","","",""
"","1695","html-keyboard-response","308","1528449","0.0-3.0-1.249","<span style=""font-size:30px; font-family: monospace"">a</span>"," ","","exp-sent","a","","",""
"","2726","html-keyboard-response","309","1531441","0.0-3.0-1.250","<span style=""font-size:30px; font-family: monospace"">cozinha.</span>"," ","","exp-sent","cozinha.","","",""
"","null","html-keyboard-response","310","1532714","0.0-3.0-0.251-0.251","<span style= ""font-size:30px; font-family: monospace"">+</span>","null","fixation","","","","",""
"","1352","html-keyboard-response","311","1534337","0.0-3.0-1.251","<span style=""font-size:30px; font-family: monospace"">Ele</span>"," ","","exp-sent","Ele","","",""
"","1437","html-keyboard-response","312","1536042","0.0-3.0-1.252","<span style=""font-size:30px; font-family: monospace"">teve</span>"," ","","exp-sent","teve","","",""
"","1319","html-keyboard-response","313","1537624","0.0-3.0-1.253","<span style=""font-size:30px; font-family: monospace"">um</span>"," ","","exp-sent","um","","",""
"","1864","html-keyboard-response","314","1539749","0.0-3.0-1.254","<span style=""font-size:30px; font-family: monospace"">sono</span>"," ","","exp-sent","sono","","",""
"","26249","html-keyboard-response","315","1566264","0.0-3.0-1.255","<span style=""font-size:30px; font-family: monospace"">bizarro</span>"," ","","exp-sent","bizarro","","",""
"","2754","html-keyboard-response","316","1569278","0.0-3.0-1.256","<span style=""font-size:30px; font-family: monospace"">sem</span>"," ","","exp-sent","sem","","",""
"","2335","html-keyboard-response","317","1571868","0.0-3.0-1.257","<span style=""font-size:30px; font-family: monospace"">nenhum</span>"," ","","exp-sent","nenhum","","",""
"","2286","html-keyboard-response","318","1574419","0.0-3.0-1.258","<span style=""font-size:30px; font-family: monospace"">motivo.</span>"," ","","exp-sent","motivo.","","",""
"","null","html-keyboard-response","319","1575693","0.0-3.0-0.259-0.259","<span style= ""font-size:30px; font-family: monospace"">+</span>","null","fixation","","","","",""
"","2080","html-keyboard-response","320","1578034","0.0-3.0-1.259","<span style=""font-size:30px; font-family: monospace"">A</span>"," ","","exp-sent","A","","",""
"","7702","html-keyboard-response","321","1586006","0.0-3.0-1.260","<span style=""font-size:30px; font-family: monospace"">moça</span>"," ","","exp-sent","moça","","",""
"","2161","html-keyboard-response","322","1588436","0.0-3.0-1.261","<span style=""font-size:30px; font-family: monospace"">comprou</span>"," ","","exp-sent","comprou","","",""
"","1246","html-keyboard-response","323","1589951","0.0-3.0-1.262","<span style=""font-size:30px; font-family: monospace"">um</span>"," ","","exp-sent","um","","",""
"","3295","html-keyboard-response","324","1593499","0.0-3.0-1.263","<span style=""font-size:30px; font-family: monospace"">diamante</span>"," ","","exp-sent","diamante","","",""
"","1857","html-keyboard-response","325","1595611","0.0-3.0-1.264","<span style=""font-size:30px; font-family: monospace"">para</span>"," ","","exp-sent","para","","",""
"","1433","html-keyboard-response","326","1597307","0.0-3.0-1.265","<span style=""font-size:30px; font-family: monospace"">sua</span>"," ","","exp-sent","sua","","",""
"","1763","html-keyboard-response","327","1599329","0.0-3.0-1.266","<span style=""font-size:30px; font-family: monospace"">prima.</span>"," ","","comp","prima.","","",""
"","23614","html-keyboard-response","328","1623198","0.0-3.0-2.266-0.266","<span style=""font-size:30px; font-family: monospace"">A moça comprou um diamante?</span>","s","","comp","","A moça comprou um diamante?","sim","false"
"","null","html-keyboard-response","329","1624724","0.0-3.0-0.267-0.267","<span style= ""font-size:30px; font-family: monospace"">+</span>","null","fixation","","","","",""
"","9373","html-keyboard-response","330","1634367","0.0-3.0-1.267","<span style=""font-size:30px; font-family: monospace"">Ganhamos</span>"," ","","exp-sent","Ganhamos","","",""
"","2329","html-keyboard-response","331","1636963","0.0-3.0-1.268","<span style=""font-size:30px; font-family: monospace"">passagem</span>"," ","","exp-sent","passagem","","",""
"","1485","html-keyboard-response","332","1638709","0.0-3.0-1.269","<span style=""font-size:30px; font-family: monospace"">para</span>"," ","","exp-sent","para","","",""
"","1236","html-keyboard-response","333","1640200","0.0-3.0-1.270","<span style=""font-size:30px; font-family: monospace"">uma</span>"," ","","exp-sent","uma","","",""
"","1889","html-keyboard-response","334","1642343","0.0-3.0-1.271","<span style=""font-size:30px; font-family: monospace"">viagem</span>"," ","","exp-sent","viagem","","",""
"","1087","html-keyboard-response","335","1643692","0.0-3.0-1.272","<span style=""font-size:30px; font-family: monospace"">de</span>"," ","","exp-sent","de","","",""
"","2585","html-keyboard-response","336","1646540","0.0-3.0-1.273","<span style=""font-size:30px; font-family: monospace"">férias.</span>"," ","","exp-sent","férias.","","",""
"","null","html-keyboard-response","337","1647814","0.0-3.0-0.274-0.274","<span style= ""font-size:30px; font-family: monospace"">+</span>","null","fixation","","","","",""
"","4496","html-keyboard-response","338","1652578","0.0-3.0-1.274","<span style=""font-size:30px; font-family: monospace"">Caiu</span>"," ","","exp-sent","Caiu","","",""
"","2044","html-keyboard-response","339","1654888","0.0-3.0-1.275","<span style=""font-size:30px; font-family: monospace"">algo</span>"," ","","exp-sent","algo","","",""
"","1080","html-keyboard-response","340","1656224","0.0-3.0-1.276","<span style=""font-size:30px; font-family: monospace"">no</span>"," ","","exp-sent","no","","",""
"","1362","html-keyboard-response","341","1657856","0.0-3.0-1.277","<span style=""font-size:30px; font-family: monospace"">meu</span>"," ","","exp-sent","meu","","",""
"","2643","html-keyboard-response","342","1660757","0.0-3.0-1.278","<span style=""font-size:30px; font-family: monospace"">olho</span>"," ","","exp-sent","olho","","",""
"","1606","html-keyboard-response","343","1662631","0.0-3.0-1.279","<span style=""font-size:30px; font-family: monospace"">ontem</span>"," ","","exp-sent","ontem","","",""
"","1105","html-keyboard-response","344","1663990","0.0-3.0-1.280","<span style=""font-size:30px; font-family: monospace"">de</span>"," ","","exp-sent","de","","",""
"","1573","html-keyboard-response","345","1665827","0.0-3.0-1.281","<span style=""font-size:30px; font-family: monospace"">tarde.</span>"," ","","exp-sent","tarde.","","",""
"","null","html-keyboard-response","346","1667104","0.0-3.0-0.282-0.282","<span style= ""font-size:30px; font-family: monospace"">+</span>","null","fixation","","","","",""
"","1550","html-keyboard-response","347","1668924","0.0-3.0-1.282","<span style=""font-size:30px; font-family: monospace"">Não</span>"," ","","exp-sent","Não","","",""
"","1962","html-keyboard-response","348","1671146","0.0-3.0-1.283","<span style=""font-size:30px; font-family: monospace"">havia</span>"," ","","exp-sent","havia","","",""
"","1371","html-keyboard-response","349","1672775","0.0-3.0-1.284","<span style=""font-size:30px; font-family: monospace"">mais</span>"," ","","exp-sent","mais","","",""
"","1630","html-keyboard-response","350","1674669","0.0-3.0-1.285","<span style=""font-size:30px; font-family: monospace"">nenhum</span>"," ","","exp-sent","nenhum","","",""
"","3587","html-keyboard-response","351","1678511","0.0-3.0-1.286","<span style=""font-size:30px; font-family: monospace"">ingresso</span>"," ","","exp-sent","ingresso","","",""
"","1358","html-keyboard-response","352","1680122","0.0-3.0-1.287","<span style=""font-size:30px; font-family: monospace"">para</span>"," ","","exp-sent","para","","",""
"","1397","html-keyboard-response","353","1681774","0.0-3.0-1.288","<span style=""font-size:30px; font-family: monospace"">o</span>"," ","","exp-sent","o","","",""
"","2615","html-keyboard-response","354","1684650","0.0-3.0-1.289","<span style=""font-size:30px; font-family: monospace"">evento.</span>"," ","","exp-sent","evento.","","",""
"","null","html-keyboard-response","355","1685924","0.0-3.0-0.290-0.290","<span style= ""font-size:30px; font-family: monospace"">+</span>","null","fixation","","","","",""
"","1800","html-keyboard-response","356","1687977","0.0-3.0-1.290","<span style=""font-size:30px; font-family: monospace"">A</span>"," ","","exp-sent","A","","",""
"","2791","html-keyboard-response","357","1691026","0.0-3.0-1.291","<span style=""font-size:30px; font-family: monospace"">médica</span>"," ","","exp-sent","médica","","",""
"","3027","html-keyboard-response","358","1694320","0.0-3.0-1.292","<span style=""font-size:30px; font-family: monospace"">descobriu</span>"," ","","exp-sent","descobriu","","",""
"","1363","html-keyboard-response","359","1695947","0.0-3.0-1.293","<span style=""font-size:30px; font-family: monospace"">uma</span>"," ","","exp-sent","uma","","",""
"","2130","html-keyboard-response","360","1698334","0.0-3.0-1.294","<span style=""font-size:30px; font-family: monospace"">cura</span>"," ","","exp-sent","cura","","",""
"","1071","html-keyboard-response","361","1699665","0.0-3.0-1.295","<span style=""font-size:30px; font-family: monospace"">para</span>"," ","","exp-sent","para","","",""
"","1178","html-keyboard-response","362","1701113","0.0-3.0-1.296","<span style=""font-size:30px; font-family: monospace"">a</span>"," ","","exp-sent","a","","",""
"","2524","html-keyboard-response","363","1703889","0.0-3.0-1.297","<span style=""font-size:30px; font-family: monospace"">doença.</span>"," ","","exp-sent","doença.","","",""
"","null","html-keyboard-response","364","1705164","0.0-3.0-0.298-0.298","<span style= ""font-size:30px; font-family: monospace"">+</span>","null","fixation","","","","",""
"","1064","html-keyboard-response","365","1706498","0.0-3.0-1.298","<span style=""font-size:30px; font-family: monospace"">O</span>"," ","","exp-sent","O","","",""
"","1936","html-keyboard-response","366","1708691","0.0-3.0-1.299","<span style=""font-size:30px; font-family: monospace"">menino</span>"," ","","exp-sent","menino","","",""
"","2413","html-keyboard-response","367","1711357","0.0-3.0-1.300","<span style=""font-size:30px; font-family: monospace"">riscou</span>"," ","","exp-sent","riscou","","",""
"","1514","html-keyboard-response","368","1713140","0.0-3.0-1.301","<span style=""font-size:30px; font-family: monospace"">o</span>"," ","","exp-sent","o","","",""
"","4714","html-keyboard-response","369","1718118","0.0-3.0-1.302","<span style=""font-size:30px; font-family: monospace"">caderno</span>"," ","","exp-sent","caderno","","",""
"","1416","html-keyboard-response","370","1719786","0.0-3.0-1.303","<span style=""font-size:30px; font-family: monospace"">com</span>"," ","","exp-sent","com","","",""
"","1272","html-keyboard-response","371","1721316","0.0-3.0-1.304","<span style=""font-size:30px; font-family: monospace"">a</span>"," ","","exp-sent","a","","",""
"","2542","html-keyboard-response","372","1724125","0.0-3.0-1.305","<span style=""font-size:30px; font-family: monospace"">caneta.</span>"," ","","comp","caneta.","","",""
"","45835","html-keyboard-response","373","1770219","0.0-3.0-2.305-0.305","<span style=""font-size:30px; font-family: monospace"">O menino riscou a parede com a caneta?</span>","s","","comp","","O menino riscou a parede com a caneta?","não","false"
"","null","html-keyboard-response","374","1771754","0.0-3.0-0.306-0.306","<span style= ""font-size:30px; font-family: monospace"">+</span>","null","fixation","","","","",""
"","3862","html-keyboard-response","375","1775876","0.0-3.0-1.306","<span style=""font-size:30px; font-family: monospace"">O</span>"," ","","exp-sent","O","","",""
"","5622","html-keyboard-response","376","1781767","0.0-3.0-1.307","<span style=""font-size:30px; font-family: monospace"">travesseiro</span>"," ","","exp-sent","travesseiro","","",""
"","2405","html-keyboard-response","377","1784429","0.0-3.0-1.308","<span style=""font-size:30px; font-family: monospace"">era</span>"," ","","exp-sent","era","","",""
"","1972","html-keyboard-response","378","1786665","0.0-3.0-1.309","<span style=""font-size:30px; font-family: monospace"">muito</span>"," ","","exp-sent","muito","","",""
"","2732","html-keyboard-response","379","1789657","0.0-3.0-1.310","<span style=""font-size:30px; font-family: monospace"">macio</span>"," ","","exp-sent","macio","","",""
"","1235","html-keyboard-response","380","1791149","0.0-3.0-1.311","<span style=""font-size:30px; font-family: monospace"">e</span>"," ","","exp-sent","e","","",""
"","2573","html-keyboard-response","381","1793976","0.0-3.0-1.312","<span style=""font-size:30px; font-family: monospace"">confortável.</span>"," ","","exp-sent","confortável.","","",""
"","null","html-keyboard-response","382","1795244","0.0-3.0-0.313-0.313","<span style= ""font-size:30px; font-family: monospace"">+</span>","null","fixation","","","","",""
"","1806","html-keyboard-response","383","1797320","0.0-3.0-1.313","<span style=""font-size:30px; font-family: monospace"">Hoje</span>"," ","","exp-sent","Hoje","","",""
"","1433","html-keyboard-response","384","1799007","0.0-3.0-1.314","<span style=""font-size:30px; font-family: monospace"">a</span>"," ","","exp-sent","a","","",""
"","6156","html-keyboard-response","385","1805421","0.0-3.0-1.315","<span style=""font-size:30px; font-family: monospace"">atendente</span>"," ","","exp-sent","atendente","","",""
"","1811","html-keyboard-response","386","1807486","0.0-3.0-1.316","<span style=""font-size:30px; font-family: monospace"">estava</span>"," ","","exp-sent","estava","","",""
"","8723","html-keyboard-response","387","1816467","0.0-3.0-1.317","<span style=""font-size:30px; font-family: monospace"">furiosa</span>"," ","","exp-sent","furiosa","","",""
"","1462","html-keyboard-response","388","1818186","0.0-3.0-1.318","<span style=""font-size:30px; font-family: monospace"">com</span>"," ","","exp-sent","com","","",""
"","1617","html-keyboard-response","389","1820061","0.0-3.0-1.319","<span style=""font-size:30px; font-family: monospace"">o</span>"," ","","exp-sent","o","","",""
"","3232","html-keyboard-response","390","1823557","0.0-3.0-1.320","<span style=""font-size:30px; font-family: monospace"">cliente.</span>"," ","","exp-sent","cliente.","","",""
"","null","html-keyboard-response","391","1824844","0.0-3.0-0.321-0.321","<span style= ""font-size:30px; font-family: monospace"">+</span>","null","fixation","","","","",""
"","1281","html-keyboard-response","392","1826385","0.0-3.0-1.321","<span style=""font-size:30px; font-family: monospace"">O</span>"," ","","exp-sent","O","","",""
"","2355","html-keyboard-response","393","1829009","0.0-3.0-1.322","<span style=""font-size:30px; font-family: monospace"">vizinho</span>"," ","","exp-sent","vizinho","","",""
"","1229","html-keyboard-response","394","1830493","0.0-3.0-1.323","<span style=""font-size:30px; font-family: monospace"">é</span>"," ","","exp-sent","é","","",""
"","1289","html-keyboard-response","395","1832042","0.0-3.0-1.324","<span style=""font-size:30px; font-family: monospace"">um</span>"," ","","exp-sent","um","","",""
"","9265","html-keyboard-response","396","1841559","0.0-3.0-1.325","<span style=""font-size:30px; font-family: monospace"">arquiteto</span>"," ","","exp-sent","arquiteto","","",""
"","1937","html-keyboard-response","397","1843750","0.0-3.0-1.326","<span style=""font-size:30px; font-family: monospace"">muito</span>"," ","","exp-sent","muito","","",""
"","7007","html-keyboard-response","398","1851013","0.0-3.0-1.327","<span style=""font-size:30px; font-family: monospace"">excêntrico.</span>"," ","","exp-sent","excêntrico.","","",""
"","null","html-keyboard-response","399","1852294","0.0-3.0-0.328-0.328","<span style= ""font-size:30px; font-family: monospace"">+</span>","null","fixation","","","","",""
"","865","html-keyboard-response","400","1853419","0.0-3.0-1.328","<span style=""font-size:30px; font-family: monospace"">A</span>"," ","","exp-sent","A","","",""
"","1534","html-keyboard-response","401","1855208","0.0-3.0-1.329","<span style=""font-size:30px; font-family: monospace"">nossa</span>"," ","","exp-sent","nossa","","",""
"","2853","html-keyboard-response","402","1858327","0.0-3.0-1.330","<span style=""font-size:30px; font-family: monospace"">colega</span>"," ","","exp-sent","colega","","",""
"","1301","html-keyboard-response","403","1859887","0.0-3.0-1.331","<span style=""font-size:30px; font-family: monospace"">foi</span>"," ","","exp-sent","foi","","",""
"","3022","html-keyboard-response","404","1863176","0.0-3.0-1.332","<span style=""font-size:30px; font-family: monospace"">má</span>"," ","","exp-sent","má","","",""
"","1560","html-keyboard-response","405","1864995","0.0-3.0-1.333","<span style=""font-size:30px; font-family: monospace"">com</span>"," ","","exp-sent","com","","",""
"","1284","html-keyboard-response","406","1866547","0.0-3.0-1.334","<span style=""font-size:30px; font-family: monospace"">as</span>"," ","","exp-sent","as","","",""
"","2985","html-keyboard-response","407","1869789","0.0-3.0-1.335","<span style=""font-size:30px; font-family: monospace"">crianças.</span>"," ","","exp-sent","crianças.","","",""
"","null","html-keyboard-response","408","1871064","0.0-3.0-0.336-0.336","<span style= ""font-size:30px; font-family: monospace"">+</span>","null","fixation","","","","",""
"","7710","html-keyboard-response","409","1879045","0.0-3.0-1.336","<span style=""font-size:30px; font-family: monospace"">Virtudes</span>"," ","","exp-sent","Virtudes","","",""
"","1456","html-keyboard-response","410","1880762","0.0-3.0-1.337","<span style=""font-size:30px; font-family: monospace"">não</span>"," ","","exp-sent","não","","",""
"","1356","html-keyboard-response","411","1882381","0.0-3.0-1.338","<span style=""font-size:30px; font-family: monospace"">são</span>"," ","","exp-sent","são","","",""
"","5719","html-keyboard-response","412","1888363","0.0-3.0-1.339","<span style=""font-size:30px; font-family: monospace"">preguiça,</span>"," ","","exp-sent","preguiça,","","",""
"","9712","html-keyboard-response","413","1898338","0.0-3.0-1.340","<span style=""font-size:30px; font-family: monospace"">gula</span>"," ","","exp-sent","gula","","",""
"","1547","html-keyboard-response","414","1900152","0.0-3.0-1.341","<span style=""font-size:30px; font-family: monospace"">nem</span>"," ","","exp-sent","nem","","",""
"","5295","html-keyboard-response","415","1905709","0.0-3.0-1.342","<span style=""font-size:30px; font-family: monospace"">ganância.</span>"," ","","comp","ganância.","","",""
"","34700","html-keyboard-response","416","1940664","0.0-3.0-2.342-0.342","<span style=""font-size:30px; font-family: monospace"">Preguiça é uma virtude?</span>","s","","comp","","Preguiça é uma virtude?","não","false"
"","null","html-keyboard-response","417","1942174","0.0-3.0-0.343-0.343","<span style= ""font-size:30px; font-family: monospace"">+</span>","null","fixation","","","","",""
"","4327","html-keyboard-response","418","1946771","0.0-3.0-1.343","<span style=""font-size:30px; font-family: monospace"">Preciso</span>"," ","","exp-sent","Preciso","","",""
"","1442","html-keyboard-response","419","1948478","0.0-3.0-1.344","<span style=""font-size:30px; font-family: monospace"">de</span>"," ","","exp-sent","de","","",""
"","2617","html-keyboard-response","420","1951363","0.0-3.0-1.345","<span style=""font-size:30px; font-family: monospace"">um</span>"," ","","exp-sent","um","","",""
"","4866","html-keyboard-response","421","1956481","0.0-3.0-1.346","<span style=""font-size:30px; font-family: monospace"">relatório</span>"," ","","exp-sent","relatório","","",""
"","2624","html-keyboard-response","422","1959369","0.0-3.0-1.347","<span style=""font-size:30px; font-family: monospace"">oficial</span>"," ","","exp-sent","oficial","","",""
"","1297","html-keyboard-response","423","1960922","0.0-3.0-1.348","<span style=""font-size:30px; font-family: monospace"">para</span>"," ","","exp-sent","para","","",""
"","1818","html-keyboard-response","424","1962994","0.0-3.0-1.349","<span style=""font-size:30px; font-family: monospace"">amanhã.</span>"," ","","exp-sent","amanhã.","","",""
"","null","html-keyboard-response","425","1964264","0.0-3.0-0.350-0.350","<span style= ""font-size:30px; font-family: monospace"">+</span>","null","fixation","","","","",""
"","1369","html-keyboard-response","426","1965884","0.0-3.0-1.350","<span style=""font-size:30px; font-family: monospace"">Ele</span>"," ","","exp-sent","Ele","","",""
"","1262","html-keyboard-response","427","1967406","0.0-3.0-1.351","<span style=""font-size:30px; font-family: monospace"">viu</span>"," ","","exp-sent","viu","","",""
"","1071","html-keyboard-response","428","1968747","0.0-3.0-1.352","<span style=""font-size:30px; font-family: monospace"">um</span>"," ","","exp-sent","um","","",""
"","6534","html-keyboard-response","429","1975539","0.0-3.0-1.353","<span style=""font-size:30px; font-family: monospace"">inseto</span>"," ","","exp-sent","inseto","","",""
"","4578","html-keyboard-response","430","1980372","0.0-3.0-1.354","<span style=""font-size:30px; font-family: monospace"">marrom</span>"," ","","exp-sent","marrom","","",""
"","1500","html-keyboard-response","431","1982127","0.0-3.0-1.355","<span style=""font-size:30px; font-family: monospace"">na</span>"," ","","exp-sent","na","","",""
"","4128","html-keyboard-response","432","1986523","0.0-3.0-1.356","<span style=""font-size:30px; font-family: monospace"">parede.</span>"," ","","exp-sent","parede.","","",""
"","null","html-keyboard-response","433","1987804","0.0-3.0-0.357-0.357","<span style= ""font-size:30px; font-family: monospace"">+</span>","null","fixation","","","","",""
"","1518","html-keyboard-response","434","1989583","0.0-3.0-1.357","<span style=""font-size:30px; font-family: monospace"">O</span>"," ","","exp-sent","O","","",""
"","1640","html-keyboard-response","435","1991484","0.0-3.0-1.358","<span style=""font-size:30px; font-family: monospace"">avô</span>"," ","","exp-sent","avô","","",""
"","1277","html-keyboard-response","436","1993022","0.0-3.0-1.359","<span style=""font-size:30px; font-family: monospace"">fez</span>"," ","","exp-sent","fez","","",""
"","1529","html-keyboard-response","437","1994803","0.0-3.0-1.360","<span style=""font-size:30px; font-family: monospace"">uma</span>"," ","","exp-sent","uma","","",""
"","4013","html-keyboard-response","438","1999086","0.0-3.0-1.361","<span style=""font-size:30px; font-family: monospace"">lista</span>"," ","","exp-sent","lista","","",""
"","1143","html-keyboard-response","439","2000488","0.0-3.0-1.362","<span style=""font-size:30px; font-family: monospace"">de</span>"," ","","exp-sent","de","","",""
"","1785","html-keyboard-response","440","2002530","0.0-3.0-1.363","<span style=""font-size:30px; font-family: monospace"">compras</span>"," ","","exp-sent","compras","","",""
"","1045","html-keyboard-response","441","2003840","0.0-3.0-1.364","<span style=""font-size:30px; font-family: monospace"">do</span>"," ","","exp-sent","do","","",""
"","2113","html-keyboard-response","442","2006207","0.0-3.0-1.365","<span style=""font-size:30px; font-family: monospace"">mercado.</span>"," ","","exp-sent","mercado.","","",""
"","null","html-keyboard-response","443","2007495","0.0-3.0-0.366-0.366","<span style= ""font-size:30px; font-family: monospace"">+</span>","null","fixation","","","","",""
"","1018","html-keyboard-response","444","2008783","0.0-3.0-1.366","<span style=""font-size:30px; font-family: monospace"">As</span>"," ","","exp-sent","As","","",""
"","1482","html-keyboard-response","445","2010535","0.0-3.0-1.367","<span style=""font-size:30px; font-family: monospace"">pessoas</span>"," ","","exp-sent","pessoas","","",""
"","1238","html-keyboard-response","446","2012042","0.0-3.0-1.368","<span style=""font-size:30px; font-family: monospace"">não</span>"," ","","exp-sent","não","","",""
"","2393","html-keyboard-response","447","2014697","0.0-3.0-1.369","<span style=""font-size:30px; font-family: monospace"">enviam</span>"," ","","exp-sent","enviam","","",""
"","5643","html-keyboard-response","448","2020607","0.0-3.0-1.370","<span style=""font-size:30px; font-family: monospace"">telegrama</span>"," ","","exp-sent","telegrama","","",""
"","1387","html-keyboard-response","449","2022250","0.0-3.0-1.371","<span style=""font-size:30px; font-family: monospace"">nos</span>"," ","","exp-sent","nos","","",""
"","1569","html-keyboard-response","450","2024085","0.0-3.0-1.372","<span style=""font-size:30px; font-family: monospace"">dias</span>"," ","","exp-sent","dias","","",""
"","1251","html-keyboard-response","451","2025598","0.0-3.0-1.373","<span style=""font-size:30px; font-family: monospace"">de</span>"," ","","exp-sent","de","","",""
"","1694","html-keyboard-response","452","2027562","0.0-3.0-1.374","<span style=""font-size:30px; font-family: monospace"">hoje.</span>"," ","","exp-sent","hoje.","","",""
"","null","html-keyboard-response","453","2028844","0.0-3.0-0.375-0.375","<span style= ""font-size:30px; font-family: monospace"">+</span>","null","fixation","","","","",""
"","1286","html-keyboard-response","454","2030397","0.0-3.0-1.375","<span style=""font-size:30px; font-family: monospace"">Ele</span>"," ","","exp-sent","Ele","","",""
"","1256","html-keyboard-response","455","2031919","0.0-3.0-1.376","<span style=""font-size:30px; font-family: monospace"">não</span>"," ","","exp-sent","não","","",""
"","1452","html-keyboard-response","456","2033626","0.0-3.0-1.377","<span style=""font-size:30px; font-family: monospace"">gosta</span>"," ","","exp-sent","gosta","","",""
"","872","html-keyboard-response","457","2034767","0.0-3.0-1.378","<span style=""font-size:30px; font-family: monospace"">de</span>"," ","","exp-sent","de","","",""
"","2818","html-keyboard-response","458","2037844","0.0-3.0-1.379","<span style=""font-size:30px; font-family: monospace"">tomate</span>"," ","","exp-sent","tomate","","",""
"","5331","html-keyboard-response","459","2043436","0.0-3.0-1.380","<span style=""font-size:30px; font-family: monospace"">misturado</span>"," ","","exp-sent","misturado","","",""
"","1261","html-keyboard-response","460","2044965","0.0-3.0-1.381","<span style=""font-size:30px; font-family: monospace"">na</span>"," ","","exp-sent","na","","",""
"","2762","html-keyboard-response","461","2047989","0.0-3.0-1.382","<span style=""font-size:30px; font-family: monospace"">comida.</span>"," ","","comp","comida.","","",""
"","15371","html-keyboard-response","462","2063622","0.0-3.0-2.382-0.382","<span style=""font-size:30px; font-family: monospace"">Ele gosta de tomate na comida?</span>","n","","comp","","Ele gosta de tomate na comida?","não","false"
"","null","html-keyboard-response","463","2065144","0.0-3.0-0.383-0.383","<span style= ""font-size:30px; font-family: monospace"">+</span>","null","fixation","","","","",""
"","1621","html-keyboard-response","464","2067027","0.0-3.0-1.383","<span style=""font-size:30px; font-family: monospace"">A</span>"," ","","exp-sent","A","","",""
"","5187","html-keyboard-response","465","2072482","0.0-3.0-1.384","<span style=""font-size:30px; font-family: monospace"">força</span>"," ","","exp-sent","força","","",""
"","6764","html-keyboard-response","466","2079509","0.0-3.0-1.385","<span style=""font-size:30px; font-family: monospace"">d'água</span>"," ","","exp-sent","d'água","","",""
"","2712","html-keyboard-response","467","2082477","0.0-3.0-1.386","<span style=""font-size:30px; font-family: monospace"">estava</span>"," ","","exp-sent","estava","","",""
"","3315","html-keyboard-response","468","2086049","0.0-3.0-1.387","<span style=""font-size:30px; font-family: monospace"">normal</span>"," ","","exp-sent","normal","","",""
"","2683","html-keyboard-response","469","2088987","0.0-3.0-1.388","<span style=""font-size:30px; font-family: monospace"">naquele</span>"," ","","exp-sent","naquele","","",""
"","1591","html-keyboard-response","470","2090848","0.0-3.0-1.389","<span style=""font-size:30px; font-family: monospace"">dia.</span>"," ","","exp-sent","dia.","","",""
"","null","html-keyboard-response","471","2092134","0.0-3.0-0.390-0.390","<span style= ""font-size:30px; font-family: monospace"">+</span>","null","fixation","","","","",""
"","1313","html-keyboard-response","472","2093708","0.0-3.0-1.390","<span style=""font-size:30px; font-family: monospace"">A</span>"," ","","exp-sent","A","","",""
"","2427","html-keyboard-response","473","2096393","0.0-3.0-1.391","<span style=""font-size:30px; font-family: monospace"">médica</span>"," ","","exp-sent","médica","","",""
"","2027","html-keyboard-response","474","2098693","0.0-3.0-1.392","<span style=""font-size:30px; font-family: monospace"">ofereceu</span>"," ","","exp-sent","ofereceu","","",""
"","1141","html-keyboard-response","475","2100090","0.0-3.0-1.393","<span style=""font-size:30px; font-family: monospace"">a</span>"," ","","exp-sent","a","","",""
"","5366","html-keyboard-response","476","2105712","0.0-3.0-1.394","<span style=""font-size:30px; font-family: monospace"">pomada</span>"," ","","exp-sent","pomada","","",""
"","1374","html-keyboard-response","477","2107339","0.0-3.0-1.395","<span style=""font-size:30px; font-family: monospace"">para</span>"," ","","exp-sent","para","","",""
"","1259","html-keyboard-response","478","2108861","0.0-3.0-1.396","<span style=""font-size:30px; font-family: monospace"">o</span>"," ","","exp-sent","o","","",""
"","2505","html-keyboard-response","479","2111631","0.0-3.0-1.397","<span style=""font-size:30px; font-family: monospace"">avô.</span>"," ","","exp-sent","avô.","","",""
"","null","html-keyboard-response","480","2112904","0.0-3.0-0.398-0.398","<span style= ""font-size:30px; font-family: monospace"">+</span>","null","fixation","","","","",""
"","2789","html-keyboard-response","481","2115964","0.0-3.0-1.398","<span style=""font-size:30px; font-family: monospace"">Ele</span>"," ","","exp-sent","Ele","","",""
"","2290","html-keyboard-response","482","2118515","0.0-3.0-1.399","<span style=""font-size:30px; font-family: monospace"">conversou</span>"," ","","exp-sent","conversou","","",""
"","1178","html-keyboard-response","483","2119963","0.0-3.0-1.400","<span style=""font-size:30px; font-family: monospace"">com</span>"," ","","exp-sent","com","","",""
"","1391","html-keyboard-response","484","2121616","0.0-3.0-1.401","<span style=""font-size:30px; font-family: monospace"">o</span>"," ","","exp-sent","o","","",""
"","3605","html-keyboard-response","485","2125479","0.0-3.0-1.402","<span style=""font-size:30px; font-family: monospace"">patrão</span>"," ","","exp-sent","patrão","","",""
"","1935","html-keyboard-response","486","2127680","0.0-3.0-1.403","<span style=""font-size:30px; font-family: monospace"">durante</span>"," ","","exp-sent","durante","","",""
"","1423","html-keyboard-response","487","2129368","0.0-3.0-1.404","<span style=""font-size:30px; font-family: monospace"">a</span>"," ","","exp-sent","a","","",""
"","1994","html-keyboard-response","488","2131628","0.0-3.0-1.405","<span style=""font-size:30px; font-family: monospace"">tarde.</span>"," ","","exp-sent","tarde.","","",""
"","null","html-keyboard-response","489","2132904","0.0-3.0-0.406-0.406","<span style= ""font-size:30px; font-family: monospace"">+</span>","null","fixation","","","","",""
"","2035","html-keyboard-response","490","2135210","0.0-3.0-1.406","<span style=""font-size:30px; font-family: monospace"">Algumas</span>"," ","","exp-sent","Algumas","","",""
"","1843","html-keyboard-response","491","2137317","0.0-3.0-1.407","<span style=""font-size:30px; font-family: monospace"">pessoas</span>"," ","","exp-sent","pessoas","","",""
"","3987","html-keyboard-response","492","2141572","0.0-3.0-1.408","<span style=""font-size:30px; font-family: monospace"">acreditam</span>"," ","","exp-sent","acreditam","","",""
"","1082","html-keyboard-response","493","2142918","0.0-3.0-1.409","<span style=""font-size:30px; font-family: monospace"">em</span>"," ","","exp-sent","em","","",""
"","5128","html-keyboard-response","494","2148312","0.0-3.0-1.410","<span style=""font-size:30px; font-family: monospace"">espíritos</span>"," ","","exp-sent","espíritos","","",""
"","1482","html-keyboard-response","495","2150046","0.0-3.0-1.411","<span style=""font-size:30px; font-family: monospace"">e</span>"," ","","exp-sent","e","","",""
"","1566","html-keyboard-response","496","2151868","0.0-3.0-1.412","<span style=""font-size:30px; font-family: monospace"">em</span>"," ","","exp-sent","em","","",""
"","1979","html-keyboard-response","497","2154103","0.0-3.0-1.413","<span style=""font-size:30px; font-family: monospace"">outras</span>"," ","","exp-sent","outras","","",""
"","1788","html-keyboard-response","498","2156152","0.0-3.0-1.414","<span style=""font-size:30px; font-family: monospace"">vidas.</span>"," ","","exp-sent","vidas.","","",""
"","null","html-keyboard-response","499","2157424","0.0-3.0-0.415-0.415","<span style= ""font-size:30px; font-family: monospace"">+</span>","null","fixation","","","","",""
"","1278","html-keyboard-response","500","2158962","0.0-3.0-1.415","<span style=""font-size:30px; font-family: monospace"">Ela</span>"," ","","exp-sent","Ela","","",""
"","1519","html-keyboard-response","501","2160735","0.0-3.0-1.416","<span style=""font-size:30px; font-family: monospace"">gosta</span>"," ","","exp-sent","gosta","","",""
"","1150","html-keyboard-response","502","2162154","0.0-3.0-1.417","<span style=""font-size:30px; font-family: monospace"">de</span>"," ","","exp-sent","de","","",""
"","2295","html-keyboard-response","503","2164710","0.0-3.0-1.418","<span style=""font-size:30px; font-family: monospace"">estudar</span>"," ","","exp-sent","estudar","","",""
"","5713","html-keyboard-response","504","2170677","0.0-3.0-1.419","<span style=""font-size:30px; font-family: monospace"">matemática</span>"," ","","exp-sent","matemática","","",""
"","1253","html-keyboard-response","505","2172187","0.0-3.0-1.420","<span style=""font-size:30px; font-family: monospace"">com</span>"," ","","exp-sent","com","","",""
"","2698","html-keyboard-response","506","2175153","0.0-3.0-1.421","<span style=""font-size:30px; font-family: monospace"">colegas.</span>"," ","","comp","colegas.","","",""
"","12291","html-keyboard-response","507","2187696","0.0-3.0-2.421-0.421","<span style=""font-size:30px; font-family: monospace"">Ela gosta de estudar física?</span>","s","","comp","","Ela gosta de estudar física?","não","false"
"","null","html-keyboard-response","508","2189224","0.0-3.0-0.422-0.422","<span style= ""font-size:30px; font-family: monospace"">+</span>","null","fixation","","","","",""
"","4072","html-keyboard-response","509","2193563","0.0-3.0-1.422","<span style=""font-size:30px; font-family: monospace"">Este</span>"," ","","exp-sent","Este","","",""
"","3192","html-keyboard-response","510","2197027","0.0-3.0-1.423","<span style=""font-size:30px; font-family: monospace"">conto</span>"," ","","exp-sent","conto","","",""
"","1620","html-keyboard-response","511","2198905","0.0-3.0-1.424","<span style=""font-size:30px; font-family: monospace"">tem</span>"," ","","exp-sent","tem","","",""
"","1322","html-keyboard-response","512","2200487","0.0-3.0-1.425","<span style=""font-size:30px; font-family: monospace"">um</span>"," ","","exp-sent","um","","",""
"","2712","html-keyboard-response","513","2203466","0.0-3.0-1.426","<span style=""font-size:30px; font-family: monospace"">final</span>"," ","","exp-sent","final","","",""
"","2450","html-keyboard-response","514","2206185","0.0-3.0-1.427","<span style=""font-size:30px; font-family: monospace"">perfeito.</span>"," ","","exp-sent","perfeito.","","",""
"","null","html-keyboard-response","515","2207454","0.0-3.0-0.428-0.428","<span style= ""font-size:30px; font-family: monospace"">+</span>","null","fixation","","","","",""
"","1483","html-keyboard-response","516","2209198","0.0-3.0-1.428","<span style=""font-size:30px; font-family: monospace"">Ele</span>"," ","","exp-sent","Ele","","",""
"","2319","html-keyboard-response","517","2211784","0.0-3.0-1.429","<span style=""font-size:30px; font-family: monospace"">precisa</span>"," ","","exp-sent","precisa","","",""
"","1310","html-keyboard-response","518","2213353","0.0-3.0-1.430","<span style=""font-size:30px; font-family: monospace"">de</span>"," ","","exp-sent","de","","",""
"","1340","html-keyboard-response","519","2214955","0.0-3.0-1.431","<span style=""font-size:30px; font-family: monospace"">um</span>"," ","","exp-sent","um","","",""
"","2883","html-keyboard-response","520","2218098","0.0-3.0-1.432","<span style=""font-size:30px; font-family: monospace"">protetor</span>"," ","","exp-sent","protetor","","",""
"","1428","html-keyboard-response","521","2219791","0.0-3.0-1.433","<span style=""font-size:30px; font-family: monospace"">de</span>"," ","","exp-sent","de","","",""
"","5872","html-keyboard-response","522","2225918","0.0-3.0-1.434","<span style=""font-size:30px; font-family: monospace"">ouvido.</span>"," ","","exp-sent","ouvido.","","",""
"","null","html-keyboard-response","523","2227194","0.0-3.0-0.435-0.435","<span style= ""font-size:30px; font-family: monospace"">+</span>","null","fixation","","","","",""
"","1377","html-keyboard-response","524","2228832","0.0-3.0-1.435","<span style=""font-size:30px; font-family: monospace"">Os</span>"," ","","exp-sent","Os","","",""
"","2580","html-keyboard-response","525","2231664","0.0-3.0-1.436","<span style=""font-size:30px; font-family: monospace"">hábitos</span>"," ","","exp-sent","hábitos","","",""
"","1463","html-keyboard-response","526","2233397","0.0-3.0-1.437","<span style=""font-size:30px; font-family: monospace"">de</span>"," ","","exp-sent","de","","",""
"","2400","html-keyboard-response","527","2236054","0.0-3.0-1.438","<span style=""font-size:30px; font-family: monospace"">lugares</span>"," ","","exp-sent","lugares","","",""
"","3424","html-keyboard-response","528","2239734","0.0-3.0-1.439","<span style=""font-size:30px; font-family: monospace"">diferentes</span>"," ","","exp-sent","diferentes","","",""
"","3254","html-keyboard-response","529","2243259","0.0-3.0-1.440","<span style=""font-size:30px; font-family: monospace"">são</span>"," ","","exp-sent","são","","",""
"","1903","html-keyboard-response","530","2245417","0.0-3.0-1.441","<span style=""font-size:30px; font-family: monospace"">muito</span>"," ","","exp-sent","muito","","",""
"","3680","html-keyboard-response","531","2249354","0.0-3.0-1.442","<span style=""font-size:30px; font-family: monospace"">lindos.</span>"," ","","exp-sent","lindos.","","",""
"","null","html-keyboard-response","532","2250634","0.0-3.0-0.443-0.443","<span style= ""font-size:30px; font-family: monospace"">+</span>","null","fixation","","","","",""
"","1373","html-keyboard-response","533","2252267","0.0-3.0-1.443","<span style=""font-size:30px; font-family: monospace"">O</span>"," ","","exp-sent","O","","",""
"","1823","html-keyboard-response","534","2254358","0.0-3.0-1.444","<span style=""font-size:30px; font-family: monospace"">médico</span>"," ","","exp-sent","médico","","",""
"","2401","html-keyboard-response","535","2257025","0.0-3.0-1.445","<span style=""font-size:30px; font-family: monospace"">corrigiu</span>"," ","","exp-sent","corrigiu","","",""
"","1259","html-keyboard-response","536","2258555","0.0-3.0-1.446","<span style=""font-size:30px; font-family: monospace"">a</span>"," ","","exp-sent","a","","",""
"","3273","html-keyboard-response","537","2262097","0.0-3.0-1.447","<span style=""font-size:30px; font-family: monospace"">postura</span>"," ","","exp-sent","postura","","",""
"","1249","html-keyboard-response","538","2263603","0.0-3.0-1.448","<span style=""font-size:30px; font-family: monospace"">das</span>"," ","","exp-sent","das","","",""
"","2362","html-keyboard-response","539","2266227","0.0-3.0-1.449","<span style=""font-size:30px; font-family: monospace"">costas</span>"," ","","exp-sent","costas","","",""
"","1306","html-keyboard-response","540","2267801","0.0-3.0-1.450","<span style=""font-size:30px; font-family: monospace"">da</span>"," ","","exp-sent","da","","",""
"","1847","html-keyboard-response","541","2269912","0.0-3.0-1.451","<span style=""font-size:30px; font-family: monospace"">pessoa.</span>"," ","","exp-sent","pessoa.","","",""
"","null","html-keyboard-response","542","2271184","0.0-3.0-0.452-0.452","<span style= ""font-size:30px; font-family: monospace"">+</span>","null","fixation","","","","",""
"","1660","html-keyboard-response","543","2273105","0.0-3.0-1.452","<span style=""font-size:30px; font-family: monospace"">Aquele</span>"," ","","exp-sent","Aquele","","",""
"","1583","html-keyboard-response","544","2274947","0.0-3.0-1.453","<span style=""font-size:30px; font-family: monospace"">era</span>"," ","","exp-sent","era","","",""
"","1106","html-keyboard-response","545","2276309","0.0-3.0-1.454","<span style=""font-size:30px; font-family: monospace"">um</span>"," ","","exp-sent","um","","",""
"","1538","html-keyboard-response","546","2278101","0.0-3.0-1.455","<span style=""font-size:30px; font-family: monospace"">caso</span>"," ","","exp-sent","caso","","",""
"","1604","html-keyboard-response","547","2279968","0.0-3.0-1.456","<span style=""font-size:30px; font-family: monospace"">real</span>"," ","","exp-sent","real","","",""
"","1207","html-keyboard-response","548","2281443","0.0-3.0-1.457","<span style=""font-size:30px; font-family: monospace"">de</span>"," ","","exp-sent","de","","",""
"","7243","html-keyboard-response","549","2288939","0.0-3.0-1.458","<span style=""font-size:30px; font-family: monospace"">sequestro</span>"," ","","exp-sent","sequestro","","",""
"","5126","html-keyboard-response","550","2294330","0.0-3.0-1.459","<span style=""font-size:30px; font-family: monospace"">premeditado.</span>"," ","","comp","premeditado.","","",""
"","186900","html-keyboard-response","551","2481486","0.0-3.0-2.459-0.459","<span style=""font-size:30px; font-family: monospace"">Aquele era um caso real de roubo?</span>","n","","comp","","Aquele era um caso real de roubo?","não","false"
"","null","html-keyboard-response","552","2483004","0.0-3.0-0.460-0.460","<span style= ""font-size:30px; font-family: monospace"">+</span>","null","fixation","","","","",""
"","5523","html-keyboard-response","553","2488798","0.0-3.0-1.460","<span style=""font-size:30px; font-family: monospace"">O</span>"," ","","exp-sent","O","","",""
"","2960","html-keyboard-response","554","2492024","0.0-3.0-1.461","<span style=""font-size:30px; font-family: monospace"">moço</span>"," ","","exp-sent","moço","","",""
"","2111","html-keyboard-response","555","2494397","0.0-3.0-1.462","<span style=""font-size:30px; font-family: monospace"">usou</span>"," ","","exp-sent","usou","","",""
"","2136","html-keyboard-response","556","2496800","0.0-3.0-1.463","<span style=""font-size:30px; font-family: monospace"">várias</span>"," ","","exp-sent","várias","","",""
"","4698","html-keyboard-response","557","2501762","0.0-3.0-1.464","<span style=""font-size:30px; font-family: monospace"">velas</span>"," ","","exp-sent","velas","","",""
"","1441","html-keyboard-response","558","2503455","0.0-3.0-1.465","<span style=""font-size:30px; font-family: monospace"">no</span>"," ","","exp-sent","no","","",""
"","5603","html-keyboard-response","559","2509318","0.0-3.0-1.466","<span style=""font-size:30px; font-family: monospace"">enfeite</span>"," ","","exp-sent","enfeite","","",""
"","4828","html-keyboard-response","560","2514403","0.0-3.0-1.467","<span style=""font-size:30px; font-family: monospace"">de</span>"," ","","exp-sent","de","","",""
"","2020","html-keyboard-response","561","2516675","0.0-3.0-1.468","<span style=""font-size:30px; font-family: monospace"">mesa.</span>"," ","","exp-sent","mesa.","","",""
"","null","html-keyboard-response","562","2517944","0.0-3.0-0.469-0.469","<span style= ""font-size:30px; font-family: monospace"">+</span>","null","fixation","","","","",""
"","2493","html-keyboard-response","563","2520699","0.0-3.0-1.469","<span style=""font-size:30px; font-family: monospace"">Gostamos</span>"," ","","exp-sent","Gostamos","","",""
"","1642","html-keyboard-response","564","2522596","0.0-3.0-1.470","<span style=""font-size:30px; font-family: monospace"">de</span>"," ","","exp-sent","de","","",""
"","2202","html-keyboard-response","565","2525057","0.0-3.0-1.471","<span style=""font-size:30px; font-family: monospace"">suco</span>"," ","","exp-sent","suco","","",""
"","1548","html-keyboard-response","566","2526863","0.0-3.0-1.472","<span style=""font-size:30px; font-family: monospace"">em</span>"," ","","exp-sent","em","","",""
"","4392","html-keyboard-response","567","2531517","0.0-3.0-1.473","<span style=""font-size:30px; font-family: monospace"">garrafa</span>"," ","","exp-sent","garrafa","","",""
"","1173","html-keyboard-response","568","2532959","0.0-3.0-1.474","<span style=""font-size:30px; font-family: monospace"">de</span>"," ","","exp-sent","de","","",""
"","2292","html-keyboard-response","569","2535507","0.0-3.0-1.475","<span style=""font-size:30px; font-family: monospace"">tamanho</span>"," ","","exp-sent","tamanho","","",""
"","2077","html-keyboard-response","570","2537841","0.0-3.0-1.476","<span style=""font-size:30px; font-family: monospace"">pequeno.</span>"," ","","exp-sent","pequeno.","","",""
"","null","html-keyboard-response","571","2539114","0.0-3.0-0.477-0.477","<span style= ""font-size:30px; font-family: monospace"">+</span>","null","fixation","","","","",""
"","1863","html-keyboard-response","572","2541237","0.0-3.0-1.477","<span style=""font-size:30px; font-family: monospace"">Sua</span>"," ","","exp-sent","Sua","","",""
"","1918","html-keyboard-response","573","2543414","0.0-3.0-1.478","<span style=""font-size:30px; font-family: monospace"">filha</span>"," ","","exp-sent","filha","","",""
"","1372","html-keyboard-response","574","2545056","0.0-3.0-1.479","<span style=""font-size:30px; font-family: monospace"">é</span>"," ","","exp-sent","é","","",""
"","6765","html-keyboard-response","575","2552079","0.0-3.0-1.480","<span style=""font-size:30px; font-family: monospace"">muito</span>"," ","","exp-sent","muito","","",""
"","2373","html-keyboard-response","576","2554717","0.0-3.0-1.481","<span style=""font-size:30px; font-family: monospace"">capaz</span>"," ","","exp-sent","capaz","","",""
"","2480","html-keyboard-response","577","2557466","0.0-3.0-1.482","<span style=""font-size:30px; font-family: monospace"">e</span>"," ","","exp-sent","e","","",""
"","4023","html-keyboard-response","578","2561758","0.0-3.0-1.483","<span style=""font-size:30px; font-family: monospace"">esforçada.</span>"," ","","exp-sent","esforçada.","","",""
"","null","html-keyboard-response","579","2563034","0.0-3.0-0.484-0.484","<span style= ""font-size:30px; font-family: monospace"">+</span>","null","fixation","","","","",""
