[
	{
		"view_history": [
			{
				"page_index": 0,
				"viewing_time": 1434
			}
		],
		"rt": 1435,
		"trial_type": "instructions",
		"trial_index": 0,
		"time_elapsed": 1444,
		"internal_node_id": "0.0-0.0"
	},
	{
		"rt": 457051,
		"response": {
			"tcle": "Concordo voluntariamente em participar da pesquisa conforme texto acima."
		},
		"question_order": [
			0
		],
		"trial_type": "survey-multi-choice",
		"trial_index": 1,
		"time_elapsed": 458707,
		"internal_node_id": "0.0-1.0"
	},
	{
		"rt": 31886,
		"response": {
			"email": "J06WV"
		},
		"trial_type": "survey-text",
		"trial_index": 2,
		"time_elapsed": 491624,
		"internal_node_id": "0.0-2.0"
	}
]