[
	{
		"view_history": [
			{
				"page_index": 0,
				"viewing_time": 53074
			},
			{
				"page_index": 1,
				"viewing_time": 6741
			}
		],
		"rt": 59815,
		"trial_type": "instructions",
		"trial_index": 0,
		"time_elapsed": 59817,
		"internal_node_id": "0.0-0.0"
	},
	{
		"rt": null,
		"stimulus": "<span style= \"font-size:30px; font-family: monospace\">+</span>",
		"response": null,
		"trial_part": "fixation",
		"trial_type": "html-keyboard-response",
		"trial_index": 1,
		"time_elapsed": 60955,
		"internal_node_id": "0.0-1.0-0.0-0.0"
	},
	{
		"rt": 4310,
		"stimulus": "../audio/prac-question-1-1.mp3",
		"response": " ",
		"word": "O",
		"trial_type": "audio-keyboard-response",
		"trial_index": 2,
		"time_elapsed": 65853,
		"internal_node_id": "0.0-1.0-1.0"
	},
	{
		"rt": 2339,
		"stimulus": "../audio/prac-question-1-2.mp3",
		"response": " ",
		"word": "dia",
		"trial_type": "audio-keyboard-response",
		"trial_index": 3,
		"time_elapsed": 68497,
		"internal_node_id": "0.0-1.0-1.1"
	},
	{
		"rt": 2171,
		"stimulus": "../audio/prac-question-1-3.mp3",
		"response": " ",
		"word": "estará",
		"trial_type": "audio-keyboard-response",
		"trial_index": 4,
		"time_elapsed": 70980,
		"internal_node_id": "0.0-1.0-1.2"
	},
	{
		"rt": 1620,
		"stimulus": "../audio/prac-question-1-4.mp3",
		"response": " ",
		"word": "cheio",
		"trial_type": "audio-keyboard-response",
		"trial_index": 5,
		"time_elapsed": 72894,
		"internal_node_id": "0.0-1.0-1.3"
	},
	{
		"rt": 1190,
		"stimulus": "../audio/prac-question-1-5.mp3",
		"response": " ",
		"word": "de",
		"trial_type": "audio-keyboard-response",
		"trial_index": 6,
		"time_elapsed": 74370,
		"internal_node_id": "0.0-1.0-1.4"
	},
	{
		"rt": 1800,
		"stimulus": "../audio/prac-question-1-6.mp3",
		"response": " ",
		"word": "nuvens",
		"trial_type": "audio-keyboard-response",
		"trial_index": 7,
		"time_elapsed": 76477,
		"internal_node_id": "0.0-1.0-1.5"
	},
	{
		"rt": 1730,
		"stimulus": "../audio/prac-question-1-7.mp3",
		"response": " ",
		"word": "hoje.",
		"trial_type": "audio-keyboard-response",
		"trial_index": 8,
		"time_elapsed": 78502,
		"internal_node_id": "0.0-1.0-1.6"
	},
	{
		"rt": null,
		"stimulus": "<span style= \"font-size:30px; font-family: monospace\">+</span>",
		"response": null,
		"trial_part": "fixation",
		"trial_type": "html-keyboard-response",
		"trial_index": 9,
		"time_elapsed": 79764,
		"internal_node_id": "0.0-1.0-0.7-0.7"
	},
	{
		"rt": 9970,
		"stimulus": "../audio/prac-question-2-1.mp3",
		"response": " ",
		"word": "A",
		"trial_type": "audio-keyboard-response",
		"trial_index": 10,
		"time_elapsed": 90024,
		"internal_node_id": "0.0-1.0-1.7"
	},
	{
		"rt": 2069,
		"stimulus": "../audio/prac-question-2-2.mp3",
		"response": " ",
		"word": "caneca",
		"trial_type": "audio-keyboard-response",
		"trial_index": 11,
		"time_elapsed": 92390,
		"internal_node_id": "0.0-1.0-1.8"
	},
	{
		"rt": 2351,
		"stimulus": "../audio/prac-question-2-3.mp3",
		"response": " ",
		"word": "colorida",
		"trial_type": "audio-keyboard-response",
		"trial_index": 12,
		"time_elapsed": 95028,
		"internal_node_id": "0.0-1.0-1.9"
	},
	{
		"rt": 1901,
		"stimulus": "../audio/prac-question-2-4.mp3",
		"response": " ",
		"word": "caiu",
		"trial_type": "audio-keyboard-response",
		"trial_index": 13,
		"time_elapsed": 97229,
		"internal_node_id": "0.0-1.0-1.10"
	},
	{
		"rt": 1538,
		"stimulus": "../audio/prac-question-2-5.mp3",
		"response": " ",
		"word": "da",
		"trial_type": "audio-keyboard-response",
		"trial_index": 14,
		"time_elapsed": 99057,
		"internal_node_id": "0.0-1.0-1.11"
	},
	{
		"rt": 1480,
		"stimulus": "../audio/prac-question-2-6.mp3",
		"response": " ",
		"word": "mesa",
		"trial_type": "audio-keyboard-response",
		"trial_index": 15,
		"time_elapsed": 100818,
		"internal_node_id": "0.0-1.0-1.12"
	},
	{
		"rt": 1268,
		"stimulus": "../audio/prac-question-2-7.mp3",
		"response": " ",
		"word": "de",
		"trial_type": "audio-keyboard-response",
		"trial_index": 16,
		"time_elapsed": 102381,
		"internal_node_id": "0.0-1.0-1.13"
	},
	{
		"rt": 1959,
		"stimulus": "../audio/prac-question-2-8.mp3",
		"response": " ",
		"word": "jantar.",
		"trial_type": "audio-keyboard-response",
		"trial_index": 17,
		"time_elapsed": 104635,
		"internal_node_id": "0.0-1.0-1.14"
	},
	{
		"rt": 29805,
		"stimulus": "<span style=\"font-size:25px; font-family: monospace\">A caneca era colorida?</span>",
		"response": "s",
		"question": "A caneca era colorida?",
		"answer": "null",
		"trial": "prac-sent",
		"trial_type": "html-keyboard-response",
		"trial_index": 18,
		"time_elapsed": 134712,
		"internal_node_id": "0.0-1.0-2.14-0.14",
		"accuracy": false
	},
	{
		"view_history": [
			{
				"page_index": 0,
				"viewing_time": 10100
			}
		],
		"rt": 10100,
		"trial_type": "instructions",
		"trial_index": 19,
		"time_elapsed": 145328,
		"internal_node_id": "0.0-2.0"
	},
	{
		"rt": null,
		"stimulus": "<span style= \"font-size:30px; font-family: monospace\">+</span>",
		"response": null,
		"trial_part": "fixation",
		"trial_type": "html-keyboard-response",
		"trial_index": 20,
		"time_elapsed": 146454,
		"internal_node_id": "0.0-3.0-0.0-0.0"
	},
	{
		"rt": 3460,
		"stimulus": "../audio/48-1-masc.mp3",
		"response": " ",
		"word": "Ela",
		"trial_type": "audio-keyboard-response",
		"trial_index": 21,
		"time_elapsed": 150261,
		"internal_node_id": "0.0-3.0-1.0"
	},
	{
		"rt": 1712,
		"stimulus": "../audio/48-2-masc.mp3",
		"response": " ",
		"word": "come",
		"trial_type": "audio-keyboard-response",
		"trial_index": 22,
		"time_elapsed": 152313,
		"internal_node_id": "0.0-3.0-1.1"
	},
	{
		"rt": 2040,
		"stimulus": "../audio/48-3-masc.mp3",
		"response": " ",
		"word": "feijão",
		"trial_type": "audio-keyboard-response",
		"trial_index": 23,
		"time_elapsed": 154702,
		"internal_node_id": "0.0-3.0-1.2"
	},
	{
		"rt": 1451,
		"stimulus": "../audio/48-4-masc.mp3",
		"response": " ",
		"word": "com",
		"trial_type": "audio-keyboard-response",
		"trial_index": 24,
		"time_elapsed": 156514,
		"internal_node_id": "0.0-3.0-1.3"
	},
	{
		"rt": 1669,
		"stimulus": "../audio/48-5-masc.mp3",
		"response": " ",
		"word": "arroz",
		"trial_type": "audio-keyboard-response",
		"trial_index": 25,
		"time_elapsed": 158526,
		"internal_node_id": "0.0-3.0-1.4"
	},
	{
		"rt": 1419,
		"stimulus": "../audio/48-6-masc.mp3",
		"response": " ",
		"word": "todos",
		"trial_type": "audio-keyboard-response",
		"trial_index": 26,
		"time_elapsed": 160307,
		"internal_node_id": "0.0-3.0-1.5"
	},
	{
		"rt": 1210,
		"stimulus": "../audio/48-7-masc.mp3",
		"response": " ",
		"word": "os",
		"trial_type": "audio-keyboard-response",
		"trial_index": 27,
		"time_elapsed": 161858,
		"internal_node_id": "0.0-3.0-1.6"
	},
	{
		"rt": 1739,
		"stimulus": "../audio/48-8-masc.mp3",
		"response": " ",
		"word": "dias.",
		"trial_type": "audio-keyboard-response",
		"trial_index": 28,
		"time_elapsed": 163930,
		"internal_node_id": "0.0-3.0-1.7"
	},
	{
		"rt": null,
		"stimulus": "<span style= \"font-size:30px; font-family: monospace\">+</span>",
		"response": null,
		"trial_part": "fixation",
		"trial_type": "html-keyboard-response",
		"trial_index": 29,
		"time_elapsed": 165201,
		"internal_node_id": "0.0-3.0-0.8-0.8"
	},
	{
		"rt": 1489,
		"stimulus": "../audio/47-1-masc.mp3",
		"response": " ",
		"word": "O",
		"trial_type": "audio-keyboard-response",
		"trial_index": 30,
		"time_elapsed": 166997,
		"internal_node_id": "0.0-3.0-1.8"
	},
	{
		"rt": 1292,
		"stimulus": "../audio/47-2-masc.mp3",
		"response": " ",
		"word": "tio",
		"trial_type": "audio-keyboard-response",
		"trial_index": 31,
		"time_elapsed": 168572,
		"internal_node_id": "0.0-3.0-1.9"
	},
	{
		"rt": 1562,
		"stimulus": "../audio/47-3-masc.mp3",
		"response": " ",
		"word": "recusou",
		"trial_type": "audio-keyboard-response",
		"trial_index": 32,
		"time_elapsed": 170436,
		"internal_node_id": "0.0-3.0-1.10"
	},
	{
		"rt": 1109,
		"stimulus": "../audio/47-4-masc.mp3",
		"response": " ",
		"word": "a",
		"trial_type": "audio-keyboard-response",
		"trial_index": 33,
		"time_elapsed": 171837,
		"internal_node_id": "0.0-3.0-1.11"
	},
	{
		"rt": 1509,
		"stimulus": "../audio/47-5-masc.mp3",
		"response": " ",
		"word": "sobremesa",
		"trial_type": "audio-keyboard-response",
		"trial_index": 34,
		"time_elapsed": 173653,
		"internal_node_id": "0.0-3.0-1.12"
	},
	{
		"rt": 1210,
		"stimulus": "../audio/47-6-masc.mp3",
		"response": " ",
		"word": "no",
		"trial_type": "audio-keyboard-response",
		"trial_index": 35,
		"time_elapsed": 175161,
		"internal_node_id": "0.0-3.0-1.13"
	},
	{
		"rt": 2142,
		"stimulus": "../audio/47-7-masc.mp3",
		"response": " ",
		"word": "almoço.",
		"trial_type": "audio-keyboard-response",
		"trial_index": 36,
		"time_elapsed": 177598,
		"internal_node_id": "0.0-3.0-1.14"
	},
	{
		"rt": null,
		"stimulus": "<span style= \"font-size:30px; font-family: monospace\">+</span>",
		"response": null,
		"trial_part": "fixation",
		"trial_type": "html-keyboard-response",
		"trial_index": 37,
		"time_elapsed": 178877,
		"internal_node_id": "0.0-3.0-0.15-0.15"
	},
	{
		"rt": 1689,
		"stimulus": "../audio/46-1-fem.mp3",
		"response": " ",
		"word": "Meu",
		"trial_type": "audio-keyboard-response",
		"trial_index": 38,
		"time_elapsed": 180888,
		"internal_node_id": "0.0-3.0-1.15"
	},
	{
		"rt": 1399,
		"stimulus": "../audio/46-2-fem.mp3",
		"response": " ",
		"word": "primo",
		"trial_type": "audio-keyboard-response",
		"trial_index": 39,
		"time_elapsed": 182605,
		"internal_node_id": "0.0-3.0-1.16"
	},
	{
		"rt": 1689,
		"stimulus": "../audio/46-3-fem.mp3",
		"response": " ",
		"word": "estava",
		"trial_type": "audio-keyboard-response",
		"trial_index": 40,
		"time_elapsed": 184618,
		"internal_node_id": "0.0-3.0-1.17"
	},
	{
		"rt": 1428,
		"stimulus": "../audio/46-4-fem.mp3",
		"response": " ",
		"word": "muito",
		"trial_type": "audio-keyboard-response",
		"trial_index": 41,
		"time_elapsed": 186368,
		"internal_node_id": "0.0-3.0-1.18"
	},
	{
		"rt": 2011,
		"stimulus": "../audio/46-5-fem.mp3",
		"response": " ",
		"word": "deprimido",
		"trial_type": "audio-keyboard-response",
		"trial_index": 42,
		"time_elapsed": 188710,
		"internal_node_id": "0.0-3.0-1.19"
	},
	{
		"rt": 1431,
		"stimulus": "../audio/46-6-fem.mp3",
		"response": " ",
		"word": "no",
		"trial_type": "audio-keyboard-response",
		"trial_index": 43,
		"time_elapsed": 190474,
		"internal_node_id": "0.0-3.0-1.20"
	},
	{
		"rt": 2220,
		"stimulus": "../audio/46-7-fem.mp3",
		"response": " ",
		"word": "inverno.",
		"trial_type": "audio-keyboard-response",
		"trial_index": 44,
		"time_elapsed": 193028,
		"internal_node_id": "0.0-3.0-1.21"
	},
	{
		"rt": null,
		"stimulus": "<span style= \"font-size:30px; font-family: monospace\">+</span>",
		"response": null,
		"trial_part": "fixation",
		"trial_type": "html-keyboard-response",
		"trial_index": 45,
		"time_elapsed": 194304,
		"internal_node_id": "0.0-3.0-0.22-0.22"
	},
	{
		"rt": 1440,
		"stimulus": "../audio/49-1-fem.mp3",
		"response": " ",
		"word": "Eu",
		"trial_type": "audio-keyboard-response",
		"trial_index": 46,
		"time_elapsed": 196046,
		"internal_node_id": "0.0-3.0-1.22"
	},
	{
		"rt": 1260,
		"stimulus": "../audio/49-2-fem.mp3",
		"response": " ",
		"word": "quero",
		"trial_type": "audio-keyboard-response",
		"trial_index": 47,
		"time_elapsed": 197606,
		"internal_node_id": "0.0-3.0-1.23"
	},
	{
		"rt": 1120,
		"stimulus": "../audio/49-3-fem.mp3",
		"response": " ",
		"word": "um",
		"trial_type": "audio-keyboard-response",
		"trial_index": 48,
		"time_elapsed": 199036,
		"internal_node_id": "0.0-3.0-1.24"
	},
	{
		"rt": 1489,
		"stimulus": "../audio/49-4-fem.mp3",
		"response": " ",
		"word": "lanche",
		"trial_type": "audio-keyboard-response",
		"trial_index": 49,
		"time_elapsed": 200831,
		"internal_node_id": "0.0-3.0-1.25"
	},
	{
		"rt": 1599,
		"stimulus": "../audio/49-5-fem.mp3",
		"response": " ",
		"word": "duplo",
		"trial_type": "audio-keyboard-response",
		"trial_index": 50,
		"time_elapsed": 202722,
		"internal_node_id": "0.0-3.0-1.26"
	},
	{
		"rt": 1231,
		"stimulus": "../audio/49-6-fem.mp3",
		"response": " ",
		"word": "e",
		"trial_type": "audio-keyboard-response",
		"trial_index": 51,
		"time_elapsed": 204249,
		"internal_node_id": "0.0-3.0-1.27"
	},
	{
		"rt": 1109,
		"stimulus": "../audio/49-7-fem.mp3",
		"response": " ",
		"word": "um",
		"trial_type": "audio-keyboard-response",
		"trial_index": 52,
		"time_elapsed": 205641,
		"internal_node_id": "0.0-3.0-1.28"
	},
	{
		"rt": 2081,
		"stimulus": "../audio/49-8-fem.mp3",
		"response": " ",
		"word": "suco.",
		"trial_type": "audio-keyboard-response",
		"trial_index": 53,
		"time_elapsed": 208016,
		"internal_node_id": "0.0-3.0-1.29"
	},
	{
		"rt": null,
		"stimulus": "<span style= \"font-size:30px; font-family: monospace\">+</span>",
		"response": null,
		"trial_part": "fixation",
		"trial_type": "html-keyboard-response",
		"trial_index": 54,
		"time_elapsed": 209296,
		"internal_node_id": "0.0-3.0-0.30-0.30"
	},
	{
		"rt": 1239,
		"stimulus": "../audio/50-1-masc.mp3",
		"response": " ",
		"word": "O",
		"trial_type": "audio-keyboard-response",
		"trial_index": 55,
		"time_elapsed": 210842,
		"internal_node_id": "0.0-3.0-1.30"
	},
	{
		"rt": 1329,
		"stimulus": "../audio/50-2-masc.mp3",
		"response": " ",
		"word": "pássaro",
		"trial_type": "audio-keyboard-response",
		"trial_index": 56,
		"time_elapsed": 212466,
		"internal_node_id": "0.0-3.0-1.31"
	},
	{
		"rt": 1228,
		"stimulus": "../audio/50-3-masc.mp3",
		"response": " ",
		"word": "fugiu",
		"trial_type": "audio-keyboard-response",
		"trial_index": 57,
		"time_elapsed": 213998,
		"internal_node_id": "0.0-3.0-1.32"
	},
	{
		"rt": 1001,
		"stimulus": "../audio/50-4-masc.mp3",
		"response": " ",
		"word": "da",
		"trial_type": "audio-keyboard-response",
		"trial_index": 58,
		"time_elapsed": 215302,
		"internal_node_id": "0.0-3.0-1.33"
	},
	{
		"rt": 1399,
		"stimulus": "../audio/50-5-masc.mp3",
		"response": " ",
		"word": "gaiola",
		"trial_type": "audio-keyboard-response",
		"trial_index": 59,
		"time_elapsed": 216991,
		"internal_node_id": "0.0-3.0-1.34"
	},
	{
		"rt": 1120,
		"stimulus": "../audio/50-6-masc.mp3",
		"response": " ",
		"word": "pela",
		"trial_type": "audio-keyboard-response",
		"trial_index": 60,
		"time_elapsed": 218398,
		"internal_node_id": "0.0-3.0-1.35"
	},
	{
		"rt": 3120,
		"stimulus": "../audio/50-7-masc.mp3",
		"response": " ",
		"word": "portinhola.",
		"trial_type": "audio-keyboard-response",
		"trial_index": 61,
		"time_elapsed": 221817,
		"internal_node_id": "0.0-3.0-1.36"
	},
	{
		"rt": 17430,
		"stimulus": "<span style=\"font-size:25px; font-family: monospace\">O pássaro fugiu da gaiola?</span>",
		"response": "s",
		"question": "O pássaro fugiu da gaiola?",
		"answer": "null",
		"trial": "exp-sent",
		"trial_type": "html-keyboard-response",
		"trial_index": 62,
		"time_elapsed": 239505,
		"internal_node_id": "0.0-3.0-2.36-0.36",
		"accuracy": false
	},
	{
		"rt": null,
		"stimulus": "<span style= \"font-size:30px; font-family: monospace\">+</span>",
		"response": null,
		"trial_part": "fixation",
		"trial_type": "html-keyboard-response",
		"trial_index": 63,
		"time_elapsed": 241030,
		"internal_node_id": "0.0-3.0-0.37-0.37"
	},
	{
		"rt": 2490,
		"stimulus": "../audio/59-1-fem.mp3",
		"response": " ",
		"word": "O",
		"trial_type": "audio-keyboard-response",
		"trial_index": 64,
		"time_elapsed": 243817,
		"internal_node_id": "0.0-3.0-1.37"
	},
	{
		"rt": 1811,
		"stimulus": "../audio/59-2-fem.mp3",
		"response": " ",
		"word": "carteiro",
		"trial_type": "audio-keyboard-response",
		"trial_index": 65,
		"time_elapsed": 245936,
		"internal_node_id": "0.0-3.0-1.38"
	},
	{
		"rt": 1402,
		"stimulus": "../audio/59-3-fem.mp3",
		"response": " ",
		"word": "fez",
		"trial_type": "audio-keyboard-response",
		"trial_index": 66,
		"time_elapsed": 247645,
		"internal_node_id": "0.0-3.0-1.39"
	},
	{
		"rt": 1129,
		"stimulus": "../audio/59-4-fem.mp3",
		"response": " ",
		"word": "uma",
		"trial_type": "audio-keyboard-response",
		"trial_index": 67,
		"time_elapsed": 249086,
		"internal_node_id": "0.0-3.0-1.40"
	},
	{
		"rt": 1872,
		"stimulus": "../audio/59-5-fem.mp3",
		"response": " ",
		"word": "tentativa",
		"trial_type": "audio-keyboard-response",
		"trial_index": 68,
		"time_elapsed": 251250,
		"internal_node_id": "0.0-3.0-1.41"
	},
	{
		"rt": 891,
		"stimulus": "../audio/59-6-fem.mp3",
		"response": " ",
		"word": "de",
		"trial_type": "audio-keyboard-response",
		"trial_index": 69,
		"time_elapsed": 252439,
		"internal_node_id": "0.0-3.0-1.42"
	},
	{
		"rt": 1480,
		"stimulus": "../audio/59-7-fem.mp3",
		"response": " ",
		"word": "entrega.",
		"trial_type": "audio-keyboard-response",
		"trial_index": 70,
		"time_elapsed": 254207,
		"internal_node_id": "0.0-3.0-1.43"
	},
	{
		"rt": null,
		"stimulus": "<span style= \"font-size:30px; font-family: monospace\">+</span>",
		"response": null,
		"trial_part": "fixation",
		"trial_type": "html-keyboard-response",
		"trial_index": 71,
		"time_elapsed": 255474,
		"internal_node_id": "0.0-3.0-0.44-0.44"
	},
	{
		"rt": 949,
		"stimulus": "../audio/57-1-masc.mp3",
		"response": " ",
		"word": "O",
		"trial_type": "audio-keyboard-response",
		"trial_index": 72,
		"time_elapsed": 256719,
		"internal_node_id": "0.0-3.0-1.44"
	},
	{
		"rt": 1390,
		"stimulus": "../audio/57-2-masc.mp3",
		"response": " ",
		"word": "capitão",
		"trial_type": "audio-keyboard-response",
		"trial_index": 73,
		"time_elapsed": 258414,
		"internal_node_id": "0.0-3.0-1.45"
	},
	{
		"rt": 1059,
		"stimulus": "../audio/57-3-masc.mp3",
		"response": " ",
		"word": "deu",
		"trial_type": "audio-keyboard-response",
		"trial_index": 74,
		"time_elapsed": 259777,
		"internal_node_id": "0.0-3.0-1.46"
	},
	{
		"rt": 1120,
		"stimulus": "../audio/57-4-masc.mp3",
		"response": " ",
		"word": "uma",
		"trial_type": "audio-keyboard-response",
		"trial_index": 75,
		"time_elapsed": 261200,
		"internal_node_id": "0.0-3.0-1.47"
	},
	{
		"rt": 1611,
		"stimulus": "../audio/57-5-masc.mp3",
		"response": " ",
		"word": "instrução",
		"trial_type": "audio-keyboard-response",
		"trial_index": 76,
		"time_elapsed": 263117,
		"internal_node_id": "0.0-3.0-1.48"
	},
	{
		"rt": 1149,
		"stimulus": "../audio/57-6-masc.mp3",
		"response": " ",
		"word": "para",
		"trial_type": "audio-keyboard-response",
		"trial_index": 77,
		"time_elapsed": 264558,
		"internal_node_id": "0.0-3.0-1.49"
	},
	{
		"rt": 998,
		"stimulus": "../audio/57-7-masc.mp3",
		"response": " ",
		"word": "as",
		"trial_type": "audio-keyboard-response",
		"trial_index": 78,
		"time_elapsed": 265865,
		"internal_node_id": "0.0-3.0-1.50"
	},
	{
		"rt": 1689,
		"stimulus": "../audio/57-8-masc.mp3",
		"response": " ",
		"word": "pessoas.",
		"trial_type": "audio-keyboard-response",
		"trial_index": 79,
		"time_elapsed": 267858,
		"internal_node_id": "0.0-3.0-1.51"
	},
	{
		"rt": null,
		"stimulus": "<span style= \"font-size:30px; font-family: monospace\">+</span>",
		"response": null,
		"trial_part": "fixation",
		"trial_type": "html-keyboard-response",
		"trial_index": 80,
		"time_elapsed": 269124,
		"internal_node_id": "0.0-3.0-0.52-0.52"
	},
	{
		"rt": 1178,
		"stimulus": "../audio/56-1-masc.mp3",
		"response": " ",
		"word": "A",
		"trial_type": "audio-keyboard-response",
		"trial_index": 81,
		"time_elapsed": 270602,
		"internal_node_id": "0.0-3.0-1.52"
	},
	{
		"rt": 1207,
		"stimulus": "../audio/56-2-masc.mp3",
		"response": " ",
		"word": "moça",
		"trial_type": "audio-keyboard-response",
		"trial_index": 82,
		"time_elapsed": 272111,
		"internal_node_id": "0.0-3.0-1.53"
	},
	{
		"rt": 920,
		"stimulus": "../audio/56-3-masc.mp3",
		"response": " ",
		"word": "foi",
		"trial_type": "audio-keyboard-response",
		"trial_index": 83,
		"time_elapsed": 273337,
		"internal_node_id": "0.0-3.0-1.54"
	},
	{
		"rt": 888,
		"stimulus": "../audio/56-4-masc.mp3",
		"response": " ",
		"word": "à",
		"trial_type": "audio-keyboard-response",
		"trial_index": 84,
		"time_elapsed": 274529,
		"internal_node_id": "0.0-3.0-1.55"
	},
	{
		"rt": 1379,
		"stimulus": "../audio/56-5-masc.mp3",
		"response": " ",
		"word": "agência",
		"trial_type": "audio-keyboard-response",
		"trial_index": 85,
		"time_elapsed": 276214,
		"internal_node_id": "0.0-3.0-1.56"
	},
	{
		"rt": 1570,
		"stimulus": "../audio/56-6-masc.mp3",
		"response": " ",
		"word": "bancária",
		"trial_type": "audio-keyboard-response",
		"trial_index": 86,
		"time_elapsed": 278077,
		"internal_node_id": "0.0-3.0-1.57"
	},
	{
		"rt": 1132,
		"stimulus": "../audio/56-7-masc.mp3",
		"response": " ",
		"word": "ontem",
		"trial_type": "audio-keyboard-response",
		"trial_index": 87,
		"time_elapsed": 279499,
		"internal_node_id": "0.0-3.0-1.58"
	},
	{
		"rt": 929,
		"stimulus": "../audio/56-8-masc.mp3",
		"response": " ",
		"word": "de",
		"trial_type": "audio-keyboard-response",
		"trial_index": 88,
		"time_elapsed": 280736,
		"internal_node_id": "0.0-3.0-1.59"
	},
	{
		"rt": 1579,
		"stimulus": "../audio/56-9-masc.mp3",
		"response": " ",
		"word": "tarde.",
		"trial_type": "audio-keyboard-response",
		"trial_index": 89,
		"time_elapsed": 282617,
		"internal_node_id": "0.0-3.0-1.60"
	},
	{
		"rt": null,
		"stimulus": "<span style= \"font-size:30px; font-family: monospace\">+</span>",
		"response": null,
		"trial_part": "fixation",
		"trial_type": "html-keyboard-response",
		"trial_index": 90,
		"time_elapsed": 283886,
		"internal_node_id": "0.0-3.0-0.61-0.61"
	},
	{
		"rt": 1440,
		"stimulus": "../audio/58-1-fem.mp3",
		"response": " ",
		"word": "Havia",
		"trial_type": "audio-keyboard-response",
		"trial_index": 91,
		"time_elapsed": 285657,
		"internal_node_id": "0.0-3.0-1.61"
	},
	{
		"rt": 1501,
		"stimulus": "../audio/58-2-fem.mp3",
		"response": " ",
		"word": "apenas",
		"trial_type": "audio-keyboard-response",
		"trial_index": 92,
		"time_elapsed": 287485,
		"internal_node_id": "0.0-3.0-1.62"
	},
	{
		"rt": 969,
		"stimulus": "../audio/58-3-fem.mp3",
		"response": " ",
		"word": "um",
		"trial_type": "audio-keyboard-response",
		"trial_index": 93,
		"time_elapsed": 288784,
		"internal_node_id": "0.0-3.0-1.63"
	},
	{
		"rt": 1370,
		"stimulus": "../audio/58-4-fem.mp3",
		"response": " ",
		"word": "último",
		"trial_type": "audio-keyboard-response",
		"trial_index": 94,
		"time_elapsed": 290494,
		"internal_node_id": "0.0-3.0-1.64"
	},
	{
		"rt": 1428,
		"stimulus": "../audio/58-5-fem.mp3",
		"response": " ",
		"word": "herdeiro",
		"trial_type": "audio-keyboard-response",
		"trial_index": 95,
		"time_elapsed": 292273,
		"internal_node_id": "0.0-3.0-1.65"
	},
	{
		"rt": 1010,
		"stimulus": "../audio/58-6-fem.mp3",
		"response": " ",
		"word": "do",
		"trial_type": "audio-keyboard-response",
		"trial_index": 96,
		"time_elapsed": 293603,
		"internal_node_id": "0.0-3.0-1.66"
	},
	{
		"rt": 1640,
		"stimulus": "../audio/58-7-fem.mp3",
		"response": " ",
		"word": "dinheiro.",
		"trial_type": "audio-keyboard-response",
		"trial_index": 97,
		"time_elapsed": 295573,
		"internal_node_id": "0.0-3.0-1.67"
	},
	{
		"rt": null,
		"stimulus": "<span style= \"font-size:30px; font-family: monospace\">+</span>",
		"response": null,
		"trial_part": "fixation",
		"trial_type": "html-keyboard-response",
		"trial_index": 98,
		"time_elapsed": 296855,
		"internal_node_id": "0.0-3.0-0.68-0.68"
	},
	{
		"rt": 1408,
		"stimulus": "../audio/60-1-fem.mp3",
		"response": " ",
		"word": "Ondas",
		"trial_type": "audio-keyboard-response",
		"trial_index": 99,
		"time_elapsed": 298558,
		"internal_node_id": "0.0-3.0-1.68"
	},
	{
		"rt": 1030,
		"stimulus": "../audio/60-2-fem.mp3",
		"response": " ",
		"word": "têm",
		"trial_type": "audio-keyboard-response",
		"trial_index": 100,
		"time_elapsed": 299876,
		"internal_node_id": "0.0-3.0-1.69"
	},
	{
		"rt": 1100,
		"stimulus": "../audio/60-3-fem.mp3",
		"response": " ",
		"word": "um",
		"trial_type": "audio-keyboard-response",
		"trial_index": 101,
		"time_elapsed": 301270,
		"internal_node_id": "0.0-3.0-1.70"
	},
	{
		"rt": 1541,
		"stimulus": "../audio/60-4-fem.mp3",
		"response": " ",
		"word": "impacto",
		"trial_type": "audio-keyboard-response",
		"trial_index": 102,
		"time_elapsed": 303116,
		"internal_node_id": "0.0-3.0-1.71"
	},
	{
		"rt": 1739,
		"stimulus": "../audio/60-5-fem.mp3",
		"response": " ",
		"word": "destrutivo",
		"trial_type": "audio-keyboard-response",
		"trial_index": 103,
		"time_elapsed": 305163,
		"internal_node_id": "0.0-3.0-1.72"
	},
	{
		"rt": 1117,
		"stimulus": "../audio/60-6-fem.mp3",
		"response": " ",
		"word": "no",
		"trial_type": "audio-keyboard-response",
		"trial_index": 104,
		"time_elapsed": 306587,
		"internal_node_id": "0.0-3.0-1.73"
	},
	{
		"rt": 1890,
		"stimulus": "../audio/60-7-fem.mp3",
		"response": " ",
		"word": "litoral.",
		"trial_type": "audio-keyboard-response",
		"trial_index": 105,
		"time_elapsed": 308780,
		"internal_node_id": "0.0-3.0-1.74"
	},
	{
		"rt": 19916,
		"stimulus": "<span style=\"font-size:25px; font-family: monospace\">Ondas têm um impacto destrutivo?</span>",
		"response": "s",
		"question": "Ondas têm um impacto destrutivo?",
		"answer": "null",
		"trial": "exp-sent",
		"trial_type": "html-keyboard-response",
		"trial_index": 106,
		"time_elapsed": 328957,
		"internal_node_id": "0.0-3.0-2.74-0.74",
		"accuracy": false
	},
	{
		"rt": null,
		"stimulus": "<span style= \"font-size:30px; font-family: monospace\">+</span>",
		"response": null,
		"trial_part": "fixation",
		"trial_type": "html-keyboard-response",
		"trial_index": 107,
		"time_elapsed": 330474,
		"internal_node_id": "0.0-3.0-0.75-0.75"
	},
	{
		"rt": 1228,
		"stimulus": "../audio/07-1-masc.mp3",
		"response": " ",
		"word": "Meu",
		"trial_type": "audio-keyboard-response",
		"trial_index": 108,
		"time_elapsed": 332004,
		"internal_node_id": "0.0-3.0-1.75"
	},
	{
		"rt": 1382,
		"stimulus": "../audio/07-2-masc.mp3",
		"response": " ",
		"word": "filho",
		"trial_type": "audio-keyboard-response",
		"trial_index": 109,
		"time_elapsed": 333673,
		"internal_node_id": "0.0-3.0-1.76"
	},
	{
		"rt": 1321,
		"stimulus": "../audio/07-3-masc.mp3",
		"response": " ",
		"word": "é",
		"trial_type": "audio-keyboard-response",
		"trial_index": 110,
		"time_elapsed": 335297,
		"internal_node_id": "0.0-3.0-1.77"
	},
	{
		"rt": 1280,
		"stimulus": "../audio/07-4-masc.mp3",
		"response": " ",
		"word": "muito",
		"trial_type": "audio-keyboard-response",
		"trial_index": 111,
		"time_elapsed": 336874,
		"internal_node_id": "0.0-3.0-1.78"
	},
	{
		"rt": 1927,
		"stimulus": "../audio/07-5-masc.mp3",
		"response": " ",
		"word": "responsável",
		"trial_type": "audio-keyboard-response",
		"trial_index": 112,
		"time_elapsed": 339118,
		"internal_node_id": "0.0-3.0-1.79"
	},
	{
		"rt": 1222,
		"stimulus": "../audio/07-6-masc.mp3",
		"response": " ",
		"word": "nos",
		"trial_type": "audio-keyboard-response",
		"trial_index": 113,
		"time_elapsed": 340636,
		"internal_node_id": "0.0-3.0-1.80"
	},
	{
		"rt": 1509,
		"stimulus": "../audio/07-7-masc.mp3",
		"response": " ",
		"word": "estudos.",
		"trial_type": "audio-keyboard-response",
		"trial_index": 114,
		"time_elapsed": 342445,
		"internal_node_id": "0.0-3.0-1.81"
	},
	{
		"rt": null,
		"stimulus": "<span style= \"font-size:30px; font-family: monospace\">+</span>",
		"response": null,
		"trial_part": "fixation",
		"trial_type": "html-keyboard-response",
		"trial_index": 115,
		"time_elapsed": 343723,
		"internal_node_id": "0.0-3.0-0.82-0.82"
	},
	{
		"rt": 1631,
		"stimulus": "../audio/06-1-fem.mp3",
		"response": " ",
		"word": "Ouvimos",
		"trial_type": "audio-keyboard-response",
		"trial_index": 116,
		"time_elapsed": 345666,
		"internal_node_id": "0.0-3.0-1.82"
	},
	{
		"rt": 969,
		"stimulus": "../audio/06-2-fem.mp3",
		"response": " ",
		"word": "a",
		"trial_type": "audio-keyboard-response",
		"trial_index": 117,
		"time_elapsed": 346953,
		"internal_node_id": "0.0-3.0-1.83"
	},
	{
		"rt": 2241,
		"stimulus": "../audio/06-3-fem.mp3",
		"response": " ",
		"word": "fala",
		"trial_type": "audio-keyboard-response",
		"trial_index": 118,
		"time_elapsed": 349504,
		"internal_node_id": "0.0-3.0-1.84"
	},
	{
		"rt": 1071,
		"stimulus": "../audio/06-4-fem.mp3",
		"response": " ",
		"word": "do",
		"trial_type": "audio-keyboard-response",
		"trial_index": 119,
		"time_elapsed": 350914,
		"internal_node_id": "0.0-3.0-1.85"
	},
	{
		"rt": 1631,
		"stimulus": "../audio/06-5-fem.mp3",
		"response": " ",
		"word": "profeta",
		"trial_type": "audio-keyboard-response",
		"trial_index": 120,
		"time_elapsed": 352875,
		"internal_node_id": "0.0-3.0-1.86"
	},
	{
		"rt": 1469,
		"stimulus": "../audio/06-6-fem.mp3",
		"response": " ",
		"word": "no",
		"trial_type": "audio-keyboard-response",
		"trial_index": 121,
		"time_elapsed": 354663,
		"internal_node_id": "0.0-3.0-1.87"
	},
	{
		"rt": 1411,
		"stimulus": "../audio/06-7-fem.mp3",
		"response": " ",
		"word": "púlpito",
		"trial_type": "audio-keyboard-response",
		"trial_index": 122,
		"time_elapsed": 356396,
		"internal_node_id": "0.0-3.0-1.88"
	},
	{
		"rt": 1042,
		"stimulus": "../audio/06-8-fem.mp3",
		"response": " ",
		"word": "da",
		"trial_type": "audio-keyboard-response",
		"trial_index": 123,
		"time_elapsed": 357765,
		"internal_node_id": "0.0-3.0-1.89"
	},
	{
		"rt": 1599,
		"stimulus": "../audio/06-9-fem.mp3",
		"response": " ",
		"word": "igreja.",
		"trial_type": "audio-keyboard-response",
		"trial_index": 124,
		"time_elapsed": 359692,
		"internal_node_id": "0.0-3.0-1.90"
	},
	{
		"rt": null,
		"stimulus": "<span style= \"font-size:30px; font-family: monospace\">+</span>",
		"response": null,
		"trial_part": "fixation",
		"trial_type": "html-keyboard-response",
		"trial_index": 125,
		"time_elapsed": 360955,
		"internal_node_id": "0.0-3.0-0.91-0.91"
	},
	{
		"rt": 958,
		"stimulus": "../audio/09-1-fem.mp3",
		"response": " ",
		"word": "O",
		"trial_type": "audio-keyboard-response",
		"trial_index": 126,
		"time_elapsed": 362198,
		"internal_node_id": "0.0-3.0-1.91"
	},
	{
		"rt": 1280,
		"stimulus": "../audio/09-2-fem.mp3",
		"response": " ",
		"word": "rapaz",
		"trial_type": "audio-keyboard-response",
		"trial_index": 127,
		"time_elapsed": 363782,
		"internal_node_id": "0.0-3.0-1.92"
	},
	{
		"rt": 1387,
		"stimulus": "../audio/09-3-fem.mp3",
		"response": " ",
		"word": "limpou",
		"trial_type": "audio-keyboard-response",
		"trial_index": 128,
		"time_elapsed": 365457,
		"internal_node_id": "0.0-3.0-1.93"
	},
	{
		"rt": 969,
		"stimulus": "../audio/09-4-fem.mp3",
		"response": " ",
		"word": "o",
		"trial_type": "audio-keyboard-response",
		"trial_index": 129,
		"time_elapsed": 366708,
		"internal_node_id": "0.0-3.0-1.94"
	},
	{
		"rt": 1280,
		"stimulus": "../audio/09-5-fem.mp3",
		"response": " ",
		"word": "terreno",
		"trial_type": "audio-keyboard-response",
		"trial_index": 130,
		"time_elapsed": 368282,
		"internal_node_id": "0.0-3.0-1.95"
	},
	{
		"rt": 859,
		"stimulus": "../audio/09-6-fem.mp3",
		"response": " ",
		"word": "com",
		"trial_type": "audio-keyboard-response",
		"trial_index": 131,
		"time_elapsed": 369430,
		"internal_node_id": "0.0-3.0-1.96"
	},
	{
		"rt": 1051,
		"stimulus": "../audio/09-7-fem.mp3",
		"response": " ",
		"word": "uma",
		"trial_type": "audio-keyboard-response",
		"trial_index": 132,
		"time_elapsed": 370770,
		"internal_node_id": "0.0-3.0-1.97"
	},
	{
		"rt": 1010,
		"stimulus": "../audio/09-8-fem.mp3",
		"response": " ",
		"word": "pá.",
		"trial_type": "audio-keyboard-response",
		"trial_index": 133,
		"time_elapsed": 372073,
		"internal_node_id": "0.0-3.0-1.98"
	},
	{
		"rt": null,
		"stimulus": "<span style= \"font-size:30px; font-family: monospace\">+</span>",
		"response": null,
		"trial_part": "fixation",
		"trial_type": "html-keyboard-response",
		"trial_index": 134,
		"time_elapsed": 373344,
		"internal_node_id": "0.0-3.0-0.99-0.99"
	},
	{
		"rt": 1190,
		"stimulus": "../audio/08-1-masc.mp3",
		"response": " ",
		"word": "A",
		"trial_type": "audio-keyboard-response",
		"trial_index": 135,
		"time_elapsed": 374827,
		"internal_node_id": "0.0-3.0-1.99"
	},
	{
		"rt": 1350,
		"stimulus": "../audio/08-2-masc.mp3",
		"response": " ",
		"word": "receita",
		"trial_type": "audio-keyboard-response",
		"trial_index": 136,
		"time_elapsed": 376482,
		"internal_node_id": "0.0-3.0-1.100"
	},
	{
		"rt": 1109,
		"stimulus": "../audio/08-3-masc.mp3",
		"response": " ",
		"word": "pede",
		"trial_type": "audio-keyboard-response",
		"trial_index": 137,
		"time_elapsed": 377896,
		"internal_node_id": "0.0-3.0-1.101"
	},
	{
		"rt": 1001,
		"stimulus": "../audio/08-4-masc.mp3",
		"response": " ",
		"word": "um",
		"trial_type": "audio-keyboard-response",
		"trial_index": 138,
		"time_elapsed": 379190,
		"internal_node_id": "0.0-3.0-1.102"
	},
	{
		"rt": 1321,
		"stimulus": "../audio/08-5-masc.mp3",
		"response": " ",
		"word": "litro",
		"trial_type": "audio-keyboard-response",
		"trial_index": 139,
		"time_elapsed": 380815,
		"internal_node_id": "0.0-3.0-1.103"
	},
	{
		"rt": 882,
		"stimulus": "../audio/08-6-masc.mp3",
		"response": " ",
		"word": "de",
		"trial_type": "audio-keyboard-response",
		"trial_index": 140,
		"time_elapsed": 381995,
		"internal_node_id": "0.0-3.0-1.104"
	},
	{
		"rt": 1242,
		"stimulus": "../audio/08-7-masc.mp3",
		"response": " ",
		"word": "leite",
		"trial_type": "audio-keyboard-response",
		"trial_index": 141,
		"time_elapsed": 383544,
		"internal_node_id": "0.0-3.0-1.105"
	},
	{
		"rt": 1570,
		"stimulus": "../audio/08-8-masc.mp3",
		"response": " ",
		"word": "integral.",
		"trial_type": "audio-keyboard-response",
		"trial_index": 142,
		"time_elapsed": 385407,
		"internal_node_id": "0.0-3.0-1.106"
	},
	{
		"rt": null,
		"stimulus": "<span style= \"font-size:30px; font-family: monospace\">+</span>",
		"response": null,
		"trial_part": "fixation",
		"trial_type": "html-keyboard-response",
		"trial_index": 143,
		"time_elapsed": 386694,
		"internal_node_id": "0.0-3.0-0.107-0.107"
	},
	{
		"rt": 981,
		"stimulus": "../audio/10-1-masc.mp3",
		"response": " ",
		"word": "O",
		"trial_type": "audio-keyboard-response",
		"trial_index": 144,
		"time_elapsed": 388028,
		"internal_node_id": "0.0-3.0-1.107"
	},
	{
		"rt": 1170,
		"stimulus": "../audio/10-2-masc.mp3",
		"response": " ",
		"word": "pássaro",
		"trial_type": "audio-keyboard-response",
		"trial_index": 145,
		"time_elapsed": 389534,
		"internal_node_id": "0.0-3.0-1.108"
	},
	{
		"rt": 1202,
		"stimulus": "../audio/10-3-masc.mp3",
		"response": " ",
		"word": "azul",
		"trial_type": "audio-keyboard-response",
		"trial_index": 146,
		"time_elapsed": 391068,
		"internal_node_id": "0.0-3.0-1.109"
	},
	{
		"rt": 1370,
		"stimulus": "../audio/10-4-masc.mp3",
		"response": " ",
		"word": "estava",
		"trial_type": "audio-keyboard-response",
		"trial_index": 147,
		"time_elapsed": 392762,
		"internal_node_id": "0.0-3.0-1.110"
	},
	{
		"rt": 1149,
		"stimulus": "../audio/10-5-masc.mp3",
		"response": " ",
		"word": "vivo",
		"trial_type": "audio-keyboard-response",
		"trial_index": 148,
		"time_elapsed": 394246,
		"internal_node_id": "0.0-3.0-1.111"
	},
	{
		"rt": 1219,
		"stimulus": "../audio/10-6-masc.mp3",
		"response": " ",
		"word": "e",
		"trial_type": "audio-keyboard-response",
		"trial_index": 149,
		"time_elapsed": 396020,
		"internal_node_id": "0.0-3.0-1.112"
	},
	{
		"rt": 1088,
		"stimulus": "../audio/10-7-masc.mp3",
		"response": " ",
		"word": "em",
		"trial_type": "audio-keyboard-response",
		"trial_index": 150,
		"time_elapsed": 397431,
		"internal_node_id": "0.0-3.0-1.113"
	},
	{
		"rt": 1730,
		"stimulus": "../audio/10-8-masc.mp3",
		"response": " ",
		"word": "segurança.",
		"trial_type": "audio-keyboard-response",
		"trial_index": 151,
		"time_elapsed": 399491,
		"internal_node_id": "0.0-3.0-1.114"
	},
	{
		"rt": 5448,
		"stimulus": "<span style=\"font-size:25px; font-family: monospace\">O pássaro vermelho estava em segurança?</span>",
		"response": "s",
		"question": "O pássaro vermelho estava em segurança?",
		"answer": "null",
		"trial": "exp-sent",
		"trial_type": "html-keyboard-response",
		"trial_index": 152,
		"time_elapsed": 405204,
		"internal_node_id": "0.0-3.0-2.114-0.114",
		"accuracy": false
	},
	{
		"rt": null,
		"stimulus": "<span style= \"font-size:30px; font-family: monospace\">+</span>",
		"response": null,
		"trial_part": "fixation",
		"trial_type": "html-keyboard-response",
		"trial_index": 153,
		"time_elapsed": 406724,
		"internal_node_id": "0.0-3.0-0.115-0.115"
	},
	{
		"rt": 1451,
		"stimulus": "../audio/78-1-masc.mp3",
		"response": " ",
		"word": "Eles",
		"trial_type": "audio-keyboard-response",
		"trial_index": 154,
		"time_elapsed": 408472,
		"internal_node_id": "0.0-3.0-1.115"
	},
	{
		"rt": 1280,
		"stimulus": "../audio/78-2-masc.mp3",
		"response": " ",
		"word": "trazem",
		"trial_type": "audio-keyboard-response",
		"trial_index": 155,
		"time_elapsed": 410050,
		"internal_node_id": "0.0-3.0-1.116"
	},
	{
		"rt": 1080,
		"stimulus": "../audio/78-3-masc.mp3",
		"response": " ",
		"word": "um",
		"trial_type": "audio-keyboard-response",
		"trial_index": 156,
		"time_elapsed": 411419,
		"internal_node_id": "0.0-3.0-1.117"
	},
	{
		"rt": 1170,
		"stimulus": "../audio/78-4-masc.mp3",
		"response": " ",
		"word": "fato",
		"trial_type": "audio-keyboard-response",
		"trial_index": 157,
		"time_elapsed": 412879,
		"internal_node_id": "0.0-3.0-1.118"
	},
	{
		"rt": 1469,
		"stimulus": "../audio/78-5-masc.mp3",
		"response": " ",
		"word": "urgente",
		"trial_type": "audio-keyboard-response",
		"trial_index": 158,
		"time_elapsed": 414644,
		"internal_node_id": "0.0-3.0-1.119"
	},
	{
		"rt": 1309,
		"stimulus": "../audio/78-6-masc.mp3",
		"response": " ",
		"word": "todos",
		"trial_type": "audio-keyboard-response",
		"trial_index": 159,
		"time_elapsed": 416251,
		"internal_node_id": "0.0-3.0-1.120"
	},
	{
		"rt": 990,
		"stimulus": "../audio/78-7-masc.mp3",
		"response": " ",
		"word": "os",
		"trial_type": "audio-keyboard-response",
		"trial_index": 160,
		"time_elapsed": 417547,
		"internal_node_id": "0.0-3.0-1.121"
	},
	{
		"rt": 1370,
		"stimulus": "../audio/78-8-masc.mp3",
		"response": " ",
		"word": "dias.",
		"trial_type": "audio-keyboard-response",
		"trial_index": 161,
		"time_elapsed": 419216,
		"internal_node_id": "0.0-3.0-1.122"
	},
	{
		"rt": null,
		"stimulus": "<span style= \"font-size:30px; font-family: monospace\">+</span>",
		"response": null,
		"trial_part": "fixation",
		"trial_type": "html-keyboard-response",
		"trial_index": 162,
		"time_elapsed": 420494,
		"internal_node_id": "0.0-3.0-0.123-0.123"
	},
	{
		"rt": 1521,
		"stimulus": "../audio/77-1-fem.mp3",
		"response": " ",
		"word": "A",
		"trial_type": "audio-keyboard-response",
		"trial_index": 163,
		"time_elapsed": 422305,
		"internal_node_id": "0.0-3.0-1.123"
	},
	{
		"rt": 1379,
		"stimulus": "../audio/77-2-fem.mp3",
		"response": " ",
		"word": "criança",
		"trial_type": "audio-keyboard-response",
		"trial_index": 164,
		"time_elapsed": 423986,
		"internal_node_id": "0.0-3.0-1.124"
	},
	{
		"rt": 1309,
		"stimulus": "../audio/77-3-fem.mp3",
		"response": " ",
		"word": "ficou",
		"trial_type": "audio-keyboard-response",
		"trial_index": 165,
		"time_elapsed": 425589,
		"internal_node_id": "0.0-3.0-1.125"
	},
	{
		"rt": 1292,
		"stimulus": "../audio/77-4-fem.mp3",
		"response": " ",
		"word": "muito",
		"trial_type": "audio-keyboard-response",
		"trial_index": 166,
		"time_elapsed": 427184,
		"internal_node_id": "0.0-3.0-1.126"
	},
	{
		"rt": 1239,
		"stimulus": "../audio/77-5-fem.mp3",
		"response": " ",
		"word": "feliz",
		"trial_type": "audio-keyboard-response",
		"trial_index": 167,
		"time_elapsed": 428737,
		"internal_node_id": "0.0-3.0-1.127"
	},
	{
		"rt": 958,
		"stimulus": "../audio/77-6-fem.mp3",
		"response": " ",
		"word": "com",
		"trial_type": "audio-keyboard-response",
		"trial_index": 168,
		"time_elapsed": 430001,
		"internal_node_id": "0.0-3.0-1.128"
	},
	{
		"rt": 1219,
		"stimulus": "../audio/77-7-fem.mp3",
		"response": " ",
		"word": "o",
		"trial_type": "audio-keyboard-response",
		"trial_index": 169,
		"time_elapsed": 431497,
		"internal_node_id": "0.0-3.0-1.129"
	},
	{
		"rt": 1428,
		"stimulus": "../audio/77-8-fem.mp3",
		"response": " ",
		"word": "brinquedo.",
		"trial_type": "audio-keyboard-response",
		"trial_index": 170,
		"time_elapsed": 433231,
		"internal_node_id": "0.0-3.0-1.130"
	},
	{
		"rt": null,
		"stimulus": "<span style= \"font-size:30px; font-family: monospace\">+</span>",
		"response": null,
		"trial_part": "fixation",
		"trial_type": "html-keyboard-response",
		"trial_index": 171,
		"time_elapsed": 434495,
		"internal_node_id": "0.0-3.0-0.131-0.131"
	},
	{
		"rt": 1071,
		"stimulus": "../audio/76-1-masc.mp3",
		"response": " ",
		"word": "O",
		"trial_type": "audio-keyboard-response",
		"trial_index": 172,
		"time_elapsed": 435876,
		"internal_node_id": "0.0-3.0-1.131"
	},
	{
		"rt": 1260,
		"stimulus": "../audio/76-2-masc.mp3",
		"response": " ",
		"word": "bisavô",
		"trial_type": "audio-keyboard-response",
		"trial_index": 173,
		"time_elapsed": 437434,
		"internal_node_id": "0.0-3.0-1.132"
	},
	{
		"rt": 1170,
		"stimulus": "../audio/76-3-masc.mp3",
		"response": " ",
		"word": "comprou",
		"trial_type": "audio-keyboard-response",
		"trial_index": 174,
		"time_elapsed": 438905,
		"internal_node_id": "0.0-3.0-1.133"
	},
	{
		"rt": 998,
		"stimulus": "../audio/76-4-masc.mp3",
		"response": " ",
		"word": "um",
		"trial_type": "audio-keyboard-response",
		"trial_index": 175,
		"time_elapsed": 440187,
		"internal_node_id": "0.0-3.0-1.134"
	},
	{
		"rt": 1390,
		"stimulus": "../audio/76-5-masc.mp3",
		"response": " ",
		"word": "ralador",
		"trial_type": "audio-keyboard-response",
		"trial_index": 176,
		"time_elapsed": 441877,
		"internal_node_id": "0.0-3.0-1.135"
	},
	{
		"rt": 842,
		"stimulus": "../audio/76-6-masc.mp3",
		"response": " ",
		"word": "de",
		"trial_type": "audio-keyboard-response",
		"trial_index": 177,
		"time_elapsed": 443016,
		"internal_node_id": "0.0-3.0-1.136"
	},
	{
		"rt": 1419,
		"stimulus": "../audio/76-7-masc.mp3",
		"response": " ",
		"word": "queijo.",
		"trial_type": "audio-keyboard-response",
		"trial_index": 178,
		"time_elapsed": 444735,
		"internal_node_id": "0.0-3.0-1.137"
	},
	{
		"rt": null,
		"stimulus": "<span style= \"font-size:30px; font-family: monospace\">+</span>",
		"response": null,
		"trial_part": "fixation",
		"trial_type": "html-keyboard-response",
		"trial_index": 179,
		"time_elapsed": 446013,
		"internal_node_id": "0.0-3.0-0.138-0.138"
	},
	{
		"rt": 1550,
		"stimulus": "../audio/79-1-fem.mp3",
		"response": " ",
		"word": "A",
		"trial_type": "audio-keyboard-response",
		"trial_index": 180,
		"time_elapsed": 447889,
		"internal_node_id": "0.0-3.0-1.138"
	},
	{
		"rt": 1533,
		"stimulus": "../audio/79-2-fem.mp3",
		"response": " ",
		"word": "médica",
		"trial_type": "audio-keyboard-response",
		"trial_index": 181,
		"time_elapsed": 449743,
		"internal_node_id": "0.0-3.0-1.139"
	},
	{
		"rt": 1440,
		"stimulus": "../audio/79-3-fem.mp3",
		"response": " ",
		"word": "verificou",
		"trial_type": "audio-keyboard-response",
		"trial_index": 182,
		"time_elapsed": 451504,
		"internal_node_id": "0.0-3.0-1.140"
	},
	{
		"rt": 990,
		"stimulus": "../audio/79-4-fem.mp3",
		"response": " ",
		"word": "a",
		"trial_type": "audio-keyboard-response",
		"trial_index": 183,
		"time_elapsed": 452822,
		"internal_node_id": "0.0-3.0-1.141"
	},
	{
		"rt": 1779,
		"stimulus": "../audio/79-5-fem.mp3",
		"response": " ",
		"word": "gengiva",
		"trial_type": "audio-keyboard-response",
		"trial_index": 184,
		"time_elapsed": 454920,
		"internal_node_id": "0.0-3.0-1.142"
	},
	{
		"rt": 969,
		"stimulus": "../audio/79-6-fem.mp3",
		"response": " ",
		"word": "por",
		"trial_type": "audio-keyboard-response",
		"trial_index": 185,
		"time_elapsed": 456227,
		"internal_node_id": "0.0-3.0-1.143"
	},
	{
		"rt": 4058,
		"stimulus": "../audio/79-7-fem.mp3",
		"response": " ",
		"word": "último.",
		"trial_type": "audio-keyboard-response",
		"trial_index": 186,
		"time_elapsed": 460627,
		"internal_node_id": "0.0-3.0-1.144"
	},
	{
		"rt": null,
		"stimulus": "<span style= \"font-size:30px; font-family: monospace\">+</span>",
		"response": null,
		"trial_part": "fixation",
		"trial_type": "html-keyboard-response",
		"trial_index": 187,
		"time_elapsed": 461900,
		"internal_node_id": "0.0-3.0-0.145-0.145"
	},
	{
		"rt": 1199,
		"stimulus": "../audio/80-1-masc.mp3",
		"response": " ",
		"word": "Meu",
		"trial_type": "audio-keyboard-response",
		"trial_index": 188,
		"time_elapsed": 463450,
		"internal_node_id": "0.0-3.0-1.145"
	},
	{
		"rt": 1190,
		"stimulus": "../audio/80-2-masc.mp3",
		"response": " ",
		"word": "primo",
		"trial_type": "audio-keyboard-response",
		"trial_index": 189,
		"time_elapsed": 464966,
		"internal_node_id": "0.0-3.0-1.146"
	},
	{
		"rt": 1341,
		"stimulus": "../audio/80-3-masc.mp3",
		"response": " ",
		"word": "conheceu",
		"trial_type": "audio-keyboard-response",
		"trial_index": 190,
		"time_elapsed": 466647,
		"internal_node_id": "0.0-3.0-1.147"
	},
	{
		"rt": 981,
		"stimulus": "../audio/80-4-masc.mp3",
		"response": " ",
		"word": "um",
		"trial_type": "audio-keyboard-response",
		"trial_index": 191,
		"time_elapsed": 467939,
		"internal_node_id": "0.0-3.0-1.148"
	},
	{
		"rt": 1350,
		"stimulus": "../audio/80-5-masc.mp3",
		"response": " ",
		"word": "jovem",
		"trial_type": "audio-keyboard-response",
		"trial_index": 192,
		"time_elapsed": 469623,
		"internal_node_id": "0.0-3.0-1.149"
	},
	{
		"rt": 1402,
		"stimulus": "../audio/80-6-masc.mp3",
		"response": " ",
		"word": "amável",
		"trial_type": "audio-keyboard-response",
		"trial_index": 193,
		"time_elapsed": 471370,
		"internal_node_id": "0.0-3.0-1.150"
	},
	{
		"rt": 961,
		"stimulus": "../audio/80-7-masc.mp3",
		"response": " ",
		"word": "e",
		"trial_type": "audio-keyboard-response",
		"trial_index": 194,
		"time_elapsed": 472648,
		"internal_node_id": "0.0-3.0-1.151"
	},
	{
		"rt": 5021,
		"stimulus": "../audio/80-8-masc.mp3",
		"response": " ",
		"word": "confiante.",
		"trial_type": "audio-keyboard-response",
		"trial_index": 195,
		"time_elapsed": 478006,
		"internal_node_id": "0.0-3.0-1.152"
	},
	{
		"rt": 80874,
		"stimulus": "<span style=\"font-size:25px; font-family: monospace\">O primo conheceu um jovem irritante?</span>",
		"response": "n",
		"question": "O primo conheceu um jovem irritante?",
		"answer": "null",
		"trial": "exp-sent",
		"trial_type": "html-keyboard-response",
		"trial_index": 196,
		"time_elapsed": 559149,
		"internal_node_id": "0.0-3.0-2.152-0.152",
		"accuracy": false
	},
	{
		"rt": null,
		"stimulus": "<span style= \"font-size:30px; font-family: monospace\">+</span>",
		"response": null,
		"trial_part": "fixation",
		"trial_type": "html-keyboard-response",
		"trial_index": 197,
		"time_elapsed": 560665,
		"internal_node_id": "0.0-3.0-0.153-0.153"
	},
	{
		"rt": 2058,
		"stimulus": "../audio/37-1-masc.mp3",
		"response": " ",
		"word": "Eu",
		"trial_type": "audio-keyboard-response",
		"trial_index": 198,
		"time_elapsed": 563037,
		"internal_node_id": "0.0-3.0-1.153"
	},
	{
		"rt": 1919,
		"stimulus": "../audio/37-2-masc.mp3",
		"response": " ",
		"word": "adoro",
		"trial_type": "audio-keyboard-response",
		"trial_index": 199,
		"time_elapsed": 565250,
		"internal_node_id": "0.0-3.0-1.154"
	},
	{
		"rt": 1730,
		"stimulus": "../audio/37-3-masc.mp3",
		"response": " ",
		"word": "suco",
		"trial_type": "audio-keyboard-response",
		"trial_index": 200,
		"time_elapsed": 567276,
		"internal_node_id": "0.0-3.0-1.155"
	},
	{
		"rt": 1158,
		"stimulus": "../audio/37-4-masc.mp3",
		"response": " ",
		"word": "de",
		"trial_type": "audio-keyboard-response",
		"trial_index": 201,
		"time_elapsed": 568727,
		"internal_node_id": "0.0-3.0-1.156"
	},
	{
		"rt": 1419,
		"stimulus": "../audio/37-5-masc.mp3",
		"response": " ",
		"word": "manga",
		"trial_type": "audio-keyboard-response",
		"trial_index": 202,
		"time_elapsed": 570449,
		"internal_node_id": "0.0-3.0-1.157"
	},
	{
		"rt": 1001,
		"stimulus": "../audio/37-6-masc.mp3",
		"response": " ",
		"word": "com",
		"trial_type": "audio-keyboard-response",
		"trial_index": 203,
		"time_elapsed": 571754,
		"internal_node_id": "0.0-3.0-1.158"
	},
	{
		"rt": 3260,
		"stimulus": "../audio/37-7-masc.mp3",
		"response": " ",
		"word": "hortelã.",
		"trial_type": "audio-keyboard-response",
		"trial_index": 204,
		"time_elapsed": 575326,
		"internal_node_id": "0.0-3.0-1.159"
	},
	{
		"rt": null,
		"stimulus": "<span style= \"font-size:30px; font-family: monospace\">+</span>",
		"response": null,
		"trial_part": "fixation",
		"trial_type": "html-keyboard-response",
		"trial_index": 205,
		"time_elapsed": 576597,
		"internal_node_id": "0.0-3.0-0.160-0.160"
	},
	{
		"rt": 1178,
		"stimulus": "../audio/39-1-fem.mp3",
		"response": " ",
		"word": "O",
		"trial_type": "audio-keyboard-response",
		"trial_index": 206,
		"time_elapsed": 578074,
		"internal_node_id": "0.0-3.0-1.160"
	},
	{
		"rt": 1730,
		"stimulus": "../audio/39-2-fem.mp3",
		"response": " ",
		"word": "conselho",
		"trial_type": "audio-keyboard-response",
		"trial_index": 207,
		"time_elapsed": 580111,
		"internal_node_id": "0.0-3.0-1.161"
	},
	{
		"rt": 1202,
		"stimulus": "../audio/39-3-fem.mp3",
		"response": " ",
		"word": "foi",
		"trial_type": "audio-keyboard-response",
		"trial_index": 208,
		"time_elapsed": 581617,
		"internal_node_id": "0.0-3.0-1.162"
	},
	{
		"rt": 1599,
		"stimulus": "../audio/39-4-fem.mp3",
		"response": " ",
		"word": "muito",
		"trial_type": "audio-keyboard-response",
		"trial_index": 209,
		"time_elapsed": 583507,
		"internal_node_id": "0.0-3.0-1.163"
	},
	{
		"rt": 1509,
		"stimulus": "../audio/39-5-fem.mp3",
		"response": " ",
		"word": "útil",
		"trial_type": "audio-keyboard-response",
		"trial_index": 210,
		"time_elapsed": 585326,
		"internal_node_id": "0.0-3.0-1.164"
	},
	{
		"rt": 1173,
		"stimulus": "../audio/39-6-fem.mp3",
		"response": " ",
		"word": "para",
		"trial_type": "audio-keyboard-response",
		"trial_index": 211,
		"time_elapsed": 586787,
		"internal_node_id": "0.0-3.0-1.165"
	},
	{
		"rt": 1251,
		"stimulus": "../audio/39-7-fem.mp3",
		"response": " ",
		"word": "minha",
		"trial_type": "audio-keyboard-response",
		"trial_index": 212,
		"time_elapsed": 588337,
		"internal_node_id": "0.0-3.0-1.166"
	},
	{
		"rt": 1402,
		"stimulus": "../audio/39-8-fem.mp3",
		"response": " ",
		"word": "tia.",
		"trial_type": "audio-keyboard-response",
		"trial_index": 213,
		"time_elapsed": 590029,
		"internal_node_id": "0.0-3.0-1.167"
	},
	{
		"rt": null,
		"stimulus": "<span style= \"font-size:30px; font-family: monospace\">+</span>",
		"response": null,
		"trial_part": "fixation",
		"trial_type": "html-keyboard-response",
		"trial_index": 214,
		"time_elapsed": 591314,
		"internal_node_id": "0.0-3.0-0.168-0.168"
	},
	{
		"rt": 969,
		"stimulus": "../audio/36-1-masc.mp3",
		"response": " ",
		"word": "Meu",
		"trial_type": "audio-keyboard-response",
		"trial_index": 215,
		"time_elapsed": 592585,
		"internal_node_id": "0.0-3.0-1.168"
	},
	{
		"rt": 1109,
		"stimulus": "../audio/36-2-masc.mp3",
		"response": " ",
		"word": "tio",
		"trial_type": "audio-keyboard-response",
		"trial_index": 216,
		"time_elapsed": 593991,
		"internal_node_id": "0.0-3.0-1.169"
	},
	{
		"rt": 1170,
		"stimulus": "../audio/36-3-masc.mp3",
		"response": " ",
		"word": "comprou",
		"trial_type": "audio-keyboard-response",
		"trial_index": 217,
		"time_elapsed": 595452,
		"internal_node_id": "0.0-3.0-1.170"
	},
	{
		"rt": 879,
		"stimulus": "../audio/36-4-masc.mp3",
		"response": " ",
		"word": "um",
		"trial_type": "audio-keyboard-response",
		"trial_index": 218,
		"time_elapsed": 596608,
		"internal_node_id": "0.0-3.0-1.171"
	},
	{
		"rt": 981,
		"stimulus": "../audio/36-5-masc.mp3",
		"response": " ",
		"word": "filtro",
		"trial_type": "audio-keyboard-response",
		"trial_index": 219,
		"time_elapsed": 597890,
		"internal_node_id": "0.0-3.0-1.172"
	},
	{
		"rt": 888,
		"stimulus": "../audio/36-6-masc.mp3",
		"response": " ",
		"word": "de",
		"trial_type": "audio-keyboard-response",
		"trial_index": 220,
		"time_elapsed": 599076,
		"internal_node_id": "0.0-3.0-1.173"
	},
	{
		"rt": 781,
		"stimulus": "../audio/36-7-masc.mp3",
		"response": " ",
		"word": "água",
		"trial_type": "audio-keyboard-response",
		"trial_index": 221,
		"time_elapsed": 600165,
		"internal_node_id": "0.0-3.0-1.174"
	},
	{
		"rt": 859,
		"stimulus": "../audio/36-8-masc.mp3",
		"response": " ",
		"word": "hoje",
		"trial_type": "audio-keyboard-response",
		"trial_index": 222,
		"time_elapsed": 601336,
		"internal_node_id": "0.0-3.0-1.175"
	},
	{
		"rt": 2612,
		"stimulus": "../audio/36-9-masc.mp3",
		"response": " ",
		"word": "cedo.",
		"trial_type": "audio-keyboard-response",
		"trial_index": 223,
		"time_elapsed": 604243,
		"internal_node_id": "0.0-3.0-1.176"
	},
	{
		"rt": null,
		"stimulus": "<span style= \"font-size:30px; font-family: monospace\">+</span>",
		"response": null,
		"trial_part": "fixation",
		"trial_type": "html-keyboard-response",
		"trial_index": 224,
		"time_elapsed": 605504,
		"internal_node_id": "0.0-3.0-0.177-0.177"
	},
	{
		"rt": 859,
		"stimulus": "../audio/38-1-masc.mp3",
		"response": " ",
		"word": "A",
		"trial_type": "audio-keyboard-response",
		"trial_index": 225,
		"time_elapsed": 606678,
		"internal_node_id": "0.0-3.0-1.177"
	},
	{
		"rt": 1181,
		"stimulus": "../audio/38-2-masc.mp3",
		"response": " ",
		"word": "empresa",
		"trial_type": "audio-keyboard-response",
		"trial_index": 226,
		"time_elapsed": 608148,
		"internal_node_id": "0.0-3.0-1.178"
	},
	{
		"rt": 998,
		"stimulus": "../audio/38-3-masc.mp3",
		"response": " ",
		"word": "criou",
		"trial_type": "audio-keyboard-response",
		"trial_index": 227,
		"time_elapsed": 609439,
		"internal_node_id": "0.0-3.0-1.179"
	},
	{
		"rt": 978,
		"stimulus": "../audio/38-4-masc.mp3",
		"response": " ",
		"word": "a",
		"trial_type": "audio-keyboard-response",
		"trial_index": 228,
		"time_elapsed": 610725,
		"internal_node_id": "0.0-3.0-1.180"
	},
	{
		"rt": 1379,
		"stimulus": "../audio/38-5-masc.mp3",
		"response": " ",
		"word": "patente",
		"trial_type": "audio-keyboard-response",
		"trial_index": 229,
		"time_elapsed": 612410,
		"internal_node_id": "0.0-3.0-1.181"
	},
	{
		"rt": 940,
		"stimulus": "../audio/38-6-masc.mp3",
		"response": " ",
		"word": "da",
		"trial_type": "audio-keyboard-response",
		"trial_index": 230,
		"time_elapsed": 613646,
		"internal_node_id": "0.0-3.0-1.182"
	},
	{
		"rt": 1440,
		"stimulus": "../audio/38-7-masc.mp3",
		"response": " ",
		"word": "frigideira.",
		"trial_type": "audio-keyboard-response",
		"trial_index": 231,
		"time_elapsed": 615383,
		"internal_node_id": "0.0-3.0-1.183"
	},
	{
		"rt": null,
		"stimulus": "<span style= \"font-size:30px; font-family: monospace\">+</span>",
		"response": null,
		"trial_part": "fixation",
		"trial_type": "html-keyboard-response",
		"trial_index": 232,
		"time_elapsed": 616664,
		"internal_node_id": "0.0-3.0-0.184-0.184"
	},
	{
		"rt": 981,
		"stimulus": "../audio/40-1-fem.mp3",
		"response": " ",
		"word": "O",
		"trial_type": "audio-keyboard-response",
		"trial_index": 233,
		"time_elapsed": 618009,
		"internal_node_id": "0.0-3.0-1.184"
	},
	{
		"rt": 1268,
		"stimulus": "../audio/40-2-fem.mp3",
		"response": " ",
		"word": "jogo",
		"trial_type": "audio-keyboard-response",
		"trial_index": 234,
		"time_elapsed": 619596,
		"internal_node_id": "0.0-3.0-1.185"
	},
	{
		"rt": 1152,
		"stimulus": "../audio/40-3-fem.mp3",
		"response": " ",
		"word": "falava",
		"trial_type": "audio-keyboard-response",
		"trial_index": 235,
		"time_elapsed": 621080,
		"internal_node_id": "0.0-3.0-1.186"
	},
	{
		"rt": 900,
		"stimulus": "../audio/40-4-fem.mp3",
		"response": " ",
		"word": "de",
		"trial_type": "audio-keyboard-response",
		"trial_index": 236,
		"time_elapsed": 622294,
		"internal_node_id": "0.0-3.0-1.187"
	},
	{
		"rt": 1550,
		"stimulus": "../audio/40-5-fem.mp3",
		"response": " ",
		"word": "fantasia",
		"trial_type": "audio-keyboard-response",
		"trial_index": 237,
		"time_elapsed": 624184,
		"internal_node_id": "0.0-3.0-1.188"
	},
	{
		"rt": 1170,
		"stimulus": "../audio/40-6-fem.mp3",
		"response": " ",
		"word": "e",
		"trial_type": "audio-keyboard-response",
		"trial_index": 238,
		"time_elapsed": 625673,
		"internal_node_id": "0.0-3.0-1.189"
	},
	{
		"rt": 1100,
		"stimulus": "../audio/40-7-fem.mp3",
		"response": " ",
		"word": "de",
		"trial_type": "audio-keyboard-response",
		"trial_index": 239,
		"time_elapsed": 627088,
		"internal_node_id": "0.0-3.0-1.190"
	},
	{
		"rt": 1759,
		"stimulus": "../audio/40-8-fem.mp3",
		"response": " ",
		"word": "aventura.",
		"trial_type": "audio-keyboard-response",
		"trial_index": 240,
		"time_elapsed": 629180,
		"internal_node_id": "0.0-3.0-1.191"
	},
	{
		"rt": 18517,
		"stimulus": "<span style=\"font-size:25px; font-family: monospace\">O jogo tinha fantasia e aventura?</span>",
		"response": "s",
		"question": "O jogo tinha fantasia e aventura?",
		"answer": "null",
		"trial": "exp-sent",
		"trial_type": "html-keyboard-response",
		"trial_index": 241,
		"time_elapsed": 647964,
		"internal_node_id": "0.0-3.0-2.191-0.191",
		"accuracy": false
	},
	{
		"rt": null,
		"stimulus": "<span style= \"font-size:30px; font-family: monospace\">+</span>",
		"response": null,
		"trial_part": "fixation",
		"trial_type": "html-keyboard-response",
		"trial_index": 242,
		"time_elapsed": 649504,
		"internal_node_id": "0.0-3.0-0.192-0.192"
	},
	{
		"rt": 1219,
		"stimulus": "../audio/03-1-fem.mp3",
		"response": " ",
		"word": "O",
		"trial_type": "audio-keyboard-response",
		"trial_index": 243,
		"time_elapsed": 651038,
		"internal_node_id": "0.0-3.0-1.192"
	},
	{
		"rt": 1501,
		"stimulus": "../audio/03-2-fem.mp3",
		"response": " ",
		"word": "coelho",
		"trial_type": "audio-keyboard-response",
		"trial_index": 244,
		"time_elapsed": 652846,
		"internal_node_id": "0.0-3.0-1.193"
	},
	{
		"rt": 1178,
		"stimulus": "../audio/03-3-fem.mp3",
		"response": " ",
		"word": "foi",
		"trial_type": "audio-keyboard-response",
		"trial_index": 245,
		"time_elapsed": 654336,
		"internal_node_id": "0.0-3.0-1.194"
	},
	{
		"rt": 1640,
		"stimulus": "../audio/03-4-fem.mp3",
		"response": " ",
		"word": "bastante",
		"trial_type": "audio-keyboard-response",
		"trial_index": 246,
		"time_elapsed": 656296,
		"internal_node_id": "0.0-3.0-1.195"
	},
	{
		"rt": 1300,
		"stimulus": "../audio/03-5-fem.mp3",
		"response": " ",
		"word": "dócil",
		"trial_type": "audio-keyboard-response",
		"trial_index": 247,
		"time_elapsed": 657907,
		"internal_node_id": "0.0-3.0-1.196"
	},
	{
		"rt": 1088,
		"stimulus": "../audio/03-6-fem.mp3",
		"response": " ",
		"word": "com",
		"trial_type": "audio-keyboard-response",
		"trial_index": 248,
		"time_elapsed": 659287,
		"internal_node_id": "0.0-3.0-1.197"
	},
	{
		"rt": 1051,
		"stimulus": "../audio/03-7-fem.mp3",
		"response": " ",
		"word": "as",
		"trial_type": "audio-keyboard-response",
		"trial_index": 249,
		"time_elapsed": 660635,
		"internal_node_id": "0.0-3.0-1.198"
	},
	{
		"rt": 1460,
		"stimulus": "../audio/03-8-fem.mp3",
		"response": " ",
		"word": "crianças.",
		"trial_type": "audio-keyboard-response",
		"trial_index": 250,
		"time_elapsed": 662395,
		"internal_node_id": "0.0-3.0-1.199"
	},
	{
		"rt": null,
		"stimulus": "<span style= \"font-size:30px; font-family: monospace\">+</span>",
		"response": null,
		"trial_part": "fixation",
		"trial_type": "html-keyboard-response",
		"trial_index": 251,
		"time_elapsed": 663673,
		"internal_node_id": "0.0-3.0-0.200-0.200"
	},
	{
		"rt": 929,
		"stimulus": "../audio/01-1-fem.mp3",
		"response": " ",
		"word": "O",
		"trial_type": "audio-keyboard-response",
		"trial_index": 252,
		"time_elapsed": 664881,
		"internal_node_id": "0.0-3.0-1.200"
	},
	{
		"rt": 1530,
		"stimulus": "../audio/01-2-fem.mp3",
		"response": " ",
		"word": "menino",
		"trial_type": "audio-keyboard-response",
		"trial_index": 253,
		"time_elapsed": 666715,
		"internal_node_id": "0.0-3.0-1.201"
	},
	{
		"rt": 1280,
		"stimulus": "../audio/01-3-fem.mp3",
		"response": " ",
		"word": "derrubou",
		"trial_type": "audio-keyboard-response",
		"trial_index": 254,
		"time_elapsed": 668289,
		"internal_node_id": "0.0-3.0-1.202"
	},
	{
		"rt": 949,
		"stimulus": "../audio/01-4-fem.mp3",
		"response": " ",
		"word": "a",
		"trial_type": "audio-keyboard-response",
		"trial_index": 255,
		"time_elapsed": 669533,
		"internal_node_id": "0.0-3.0-1.203"
	},
	{
		"rt": 1431,
		"stimulus": "../audio/01-5-fem.mp3",
		"response": " ",
		"word": "guitarra",
		"trial_type": "audio-keyboard-response",
		"trial_index": 256,
		"time_elapsed": 671267,
		"internal_node_id": "0.0-3.0-1.204"
	},
	{
		"rt": 1010,
		"stimulus": "../audio/01-6-fem.mp3",
		"response": " ",
		"word": "no",
		"trial_type": "audio-keyboard-response",
		"trial_index": 257,
		"time_elapsed": 672569,
		"internal_node_id": "0.0-3.0-1.205"
	},
	{
		"rt": 2302,
		"stimulus": "../audio/01-7-fem.mp3",
		"response": " ",
		"word": "chão.",
		"trial_type": "audio-keyboard-response",
		"trial_index": 258,
		"time_elapsed": 675160,
		"internal_node_id": "0.0-3.0-1.206"
	},
	{
		"rt": null,
		"stimulus": "<span style= \"font-size:30px; font-family: monospace\">+</span>",
		"response": null,
		"trial_part": "fixation",
		"trial_type": "html-keyboard-response",
		"trial_index": 259,
		"time_elapsed": 676435,
		"internal_node_id": "0.0-3.0-0.207-0.207"
	},
	{
		"rt": 969,
		"stimulus": "../audio/02-2-masc.mp3",
		"response": " ",
		"word": "Havia",
		"trial_type": "audio-keyboard-response",
		"trial_index": 260,
		"time_elapsed": 677697,
		"internal_node_id": "0.0-3.0-1.207"
	},
	{
		"rt": 2110,
		"stimulus": "../audio/02-2-masc.mp3",
		"response": " ",
		"word": "um",
		"trial_type": "audio-keyboard-response",
		"trial_index": 261,
		"time_elapsed": 680058,
		"internal_node_id": "0.0-3.0-1.208"
	},
	{
		"rt": 1358,
		"stimulus": "../audio/02-3-masc.mp3",
		"response": " ",
		"word": "cheiro",
		"trial_type": "audio-keyboard-response",
		"trial_index": 262,
		"time_elapsed": 681717,
		"internal_node_id": "0.0-3.0-1.209"
	},
	{
		"rt": 961,
		"stimulus": "../audio/02-4-masc.mp3",
		"response": " ",
		"word": "de",
		"trial_type": "audio-keyboard-response",
		"trial_index": 263,
		"time_elapsed": 682970,
		"internal_node_id": "0.0-3.0-1.210"
	},
	{
		"rt": 1129,
		"stimulus": "../audio/02-5-masc.mp3",
		"response": " ",
		"word": "gasolina",
		"trial_type": "audio-keyboard-response",
		"trial_index": 264,
		"time_elapsed": 684406,
		"internal_node_id": "0.0-3.0-1.211"
	},
	{
		"rt": 1010,
		"stimulus": "../audio/02-6-masc.mp3",
		"response": " ",
		"word": "na",
		"trial_type": "audio-keyboard-response",
		"trial_index": 265,
		"time_elapsed": 685708,
		"internal_node_id": "0.0-3.0-1.212"
	},
	{
		"rt": 2278,
		"stimulus": "../audio/02-7-masc.mp3",
		"response": " ",
		"word": "garagem.",
		"trial_type": "audio-keyboard-response",
		"trial_index": 266,
		"time_elapsed": 688296,
		"internal_node_id": "0.0-3.0-1.213"
	},
	{
		"rt": null,
		"stimulus": "<span style= \"font-size:30px; font-family: monospace\">+</span>",
		"response": null,
		"trial_part": "fixation",
		"trial_type": "html-keyboard-response",
		"trial_index": 267,
		"time_elapsed": 689563,
		"internal_node_id": "0.0-3.0-0.214-0.214"
	},
	{
		"rt": 1628,
		"stimulus": "../audio/04-1-masc.mp3",
		"response": " ",
		"word": "Duzentos",
		"trial_type": "audio-keyboard-response",
		"trial_index": 268,
		"time_elapsed": 691538,
		"internal_node_id": "0.0-3.0-1.214"
	},
	{
		"rt": 1382,
		"stimulus": "../audio/04-2-masc.mp3",
		"response": " ",
		"word": "carros",
		"trial_type": "audio-keyboard-response",
		"trial_index": 269,
		"time_elapsed": 693244,
		"internal_node_id": "0.0-3.0-1.215"
	},
	{
		"rt": 1161,
		"stimulus": "../audio/04-3-masc.mp3",
		"response": " ",
		"word": "passaram",
		"trial_type": "audio-keyboard-response",
		"trial_index": 270,
		"time_elapsed": 694723,
		"internal_node_id": "0.0-3.0-1.216"
	},
	{
		"rt": 1001,
		"stimulus": "../audio/04-4-masc.mp3",
		"response": " ",
		"word": "pela",
		"trial_type": "audio-keyboard-response",
		"trial_index": 271,
		"time_elapsed": 696054,
		"internal_node_id": "0.0-3.0-1.217"
	},
	{
		"rt": 1019,
		"stimulus": "../audio/04-5-masc.mp3",
		"response": " ",
		"word": "ponte",
		"trial_type": "audio-keyboard-response",
		"trial_index": 272,
		"time_elapsed": 697407,
		"internal_node_id": "0.0-3.0-1.218"
	},
	{
		"rt": 1161,
		"stimulus": "../audio/04-6-masc.mp3",
		"response": " ",
		"word": "hoje",
		"trial_type": "audio-keyboard-response",
		"trial_index": 273,
		"time_elapsed": 698881,
		"internal_node_id": "0.0-3.0-1.219"
	},
	{
		"rt": 1100,
		"stimulus": "../audio/04-7-masc.mp3",
		"response": " ",
		"word": "de",
		"trial_type": "audio-keyboard-response",
		"trial_index": 274,
		"time_elapsed": 700308,
		"internal_node_id": "0.0-3.0-1.220"
	},
	{
		"rt": 1489,
		"stimulus": "../audio/04-8-masc.mp3",
		"response": " ",
		"word": "tarde.",
		"trial_type": "audio-keyboard-response",
		"trial_index": 275,
		"time_elapsed": 702113,
		"internal_node_id": "0.0-3.0-1.221"
	},
	{
		"rt": null,
		"stimulus": "<span style= \"font-size:30px; font-family: monospace\">+</span>",
		"response": null,
		"trial_part": "fixation",
		"trial_type": "html-keyboard-response",
		"trial_index": 276,
		"time_elapsed": 703384,
		"internal_node_id": "0.0-3.0-0.222-0.222"
	},
	{
		"rt": 862,
		"stimulus": "../audio/05-1-masc.mp3",
		"response": " ",
		"word": "A",
		"trial_type": "audio-keyboard-response",
		"trial_index": 277,
		"time_elapsed": 704528,
		"internal_node_id": "0.0-3.0-1.222"
	},
	{
		"rt": 1370,
		"stimulus": "../audio/05-2-masc.mp3",
		"response": " ",
		"word": "vendedora",
		"trial_type": "audio-keyboard-response",
		"trial_index": 278,
		"time_elapsed": 706212,
		"internal_node_id": "0.0-3.0-1.223"
	},
	{
		"rt": 1231,
		"stimulus": "../audio/05-3-masc.mp3",
		"response": " ",
		"word": "ajudou",
		"trial_type": "audio-keyboard-response",
		"trial_index": 279,
		"time_elapsed": 707742,
		"internal_node_id": "0.0-3.0-1.224"
	},
	{
		"rt": 978,
		"stimulus": "../audio/05-4-masc.mp3",
		"response": " ",
		"word": "um",
		"trial_type": "audio-keyboard-response",
		"trial_index": 280,
		"time_elapsed": 709008,
		"internal_node_id": "0.0-3.0-1.225"
	},
	{
		"rt": 1117,
		"stimulus": "../audio/05-5-masc.mp3",
		"response": " ",
		"word": "turista",
		"trial_type": "audio-keyboard-response",
		"trial_index": 281,
		"time_elapsed": 710428,
		"internal_node_id": "0.0-3.0-1.226"
	},
	{
		"rt": 1071,
		"stimulus": "../audio/05-6-masc.mp3",
		"response": " ",
		"word": "na",
		"trial_type": "audio-keyboard-response",
		"trial_index": 282,
		"time_elapsed": 711788,
		"internal_node_id": "0.0-3.0-1.227"
	},
	{
		"rt": 2351,
		"stimulus": "../audio/05-7-masc.mp3",
		"response": " ",
		"word": "loja.",
		"trial_type": "audio-keyboard-response",
		"trial_index": 283,
		"time_elapsed": 714443,
		"internal_node_id": "0.0-3.0-1.228"
	},
	{
		"rt": 26076,
		"stimulus": "<span style=\"font-size:25px; font-family: monospace\">A vendedora ajudou um turista?</span>",
		"response": "n",
		"question": "A vendedora ajudou um turista?",
		"answer": "null",
		"trial": "exp-sent",
		"trial_type": "html-keyboard-response",
		"trial_index": 284,
		"time_elapsed": 740781,
		"internal_node_id": "0.0-3.0-2.228-0.228",
		"accuracy": false
	},
	{
		"rt": null,
		"stimulus": "<span style= \"font-size:30px; font-family: monospace\">+</span>",
		"response": null,
		"trial_part": "fixation",
		"trial_type": "html-keyboard-response",
		"trial_index": 285,
		"time_elapsed": 742306,
		"internal_node_id": "0.0-3.0-0.229-0.229"
	},
	{
		"rt": 1782,
		"stimulus": "../audio/19-1-masc.mp3",
		"response": " ",
		"word": "O",
		"trial_type": "audio-keyboard-response",
		"trial_index": 286,
		"time_elapsed": 744394,
		"internal_node_id": "0.0-3.0-1.229"
	},
	{
		"rt": 1431,
		"stimulus": "../audio/19-2-masc.mp3",
		"response": " ",
		"word": "menino",
		"trial_type": "audio-keyboard-response",
		"trial_index": 287,
		"time_elapsed": 746134,
		"internal_node_id": "0.0-3.0-1.230"
	},
	{
		"rt": 1387,
		"stimulus": "../audio/19-3-masc.mp3",
		"response": " ",
		"word": "ganhou",
		"trial_type": "audio-keyboard-response",
		"trial_index": 288,
		"time_elapsed": 747824,
		"internal_node_id": "0.0-3.0-1.231"
	},
	{
		"rt": 1059,
		"stimulus": "../audio/19-4-masc.mp3",
		"response": " ",
		"word": "uma",
		"trial_type": "audio-keyboard-response",
		"trial_index": 289,
		"time_elapsed": 749178,
		"internal_node_id": "0.0-3.0-1.232"
	},
	{
		"rt": 1260,
		"stimulus": "../audio/19-5-masc.mp3",
		"response": " ",
		"word": "bala",
		"trial_type": "audio-keyboard-response",
		"trial_index": 290,
		"time_elapsed": 750737,
		"internal_node_id": "0.0-3.0-1.233"
	},
	{
		"rt": 1199,
		"stimulus": "../audio/19-6-masc.mp3",
		"response": " ",
		"word": "depois",
		"trial_type": "audio-keyboard-response",
		"trial_index": 291,
		"time_elapsed": 752243,
		"internal_node_id": "0.0-3.0-1.234"
	},
	{
		"rt": 961,
		"stimulus": "../audio/19-7-masc.mp3",
		"response": " ",
		"word": "do",
		"trial_type": "audio-keyboard-response",
		"trial_index": 292,
		"time_elapsed": 753495,
		"internal_node_id": "0.0-3.0-1.235"
	},
	{
		"rt": 2261,
		"stimulus": "../audio/19-8-masc.mp3",
		"response": " ",
		"word": "almoço.",
		"trial_type": "audio-keyboard-response",
		"trial_index": 293,
		"time_elapsed": 756052,
		"internal_node_id": "0.0-3.0-1.236"
	},
	{
		"rt": null,
		"stimulus": "<span style= \"font-size:30px; font-family: monospace\">+</span>",
		"response": null,
		"trial_part": "fixation",
		"trial_type": "html-keyboard-response",
		"trial_index": 294,
		"time_elapsed": 757317,
		"internal_node_id": "0.0-3.0-0.237-0.237"
	},
	{
		"rt": 958,
		"stimulus": "../audio/18-1-fem.mp3",
		"response": " ",
		"word": "O",
		"trial_type": "audio-keyboard-response",
		"trial_index": 295,
		"time_elapsed": 758603,
		"internal_node_id": "0.0-3.0-1.237"
	},
	{
		"rt": 1521,
		"stimulus": "../audio/18-2-fem.mp3",
		"response": " ",
		"word": "enredo",
		"trial_type": "audio-keyboard-response",
		"trial_index": 296,
		"time_elapsed": 760469,
		"internal_node_id": "0.0-3.0-1.238"
	},
	{
		"rt": 1239,
		"stimulus": "../audio/18-3-fem.mp3",
		"response": " ",
		"word": "traz",
		"trial_type": "audio-keyboard-response",
		"trial_index": 297,
		"time_elapsed": 762037,
		"internal_node_id": "0.0-3.0-1.239"
	},
	{
		"rt": 1071,
		"stimulus": "../audio/18-4-fem.mp3",
		"response": " ",
		"word": "um",
		"trial_type": "audio-keyboard-response",
		"trial_index": 298,
		"time_elapsed": 763427,
		"internal_node_id": "0.0-3.0-1.240"
	},
	{
		"rt": 1361,
		"stimulus": "../audio/18-5-fem.mp3",
		"response": " ",
		"word": "dragão",
		"trial_type": "audio-keyboard-response",
		"trial_index": 299,
		"time_elapsed": 765121,
		"internal_node_id": "0.0-3.0-1.241"
	},
	{
		"rt": 981,
		"stimulus": "../audio/18-6-fem.mp3",
		"response": " ",
		"word": "forte",
		"trial_type": "audio-keyboard-response",
		"trial_index": 300,
		"time_elapsed": 766418,
		"internal_node_id": "0.0-3.0-1.242"
	},
	{
		"rt": 850,
		"stimulus": "../audio/18-7-fem.mp3",
		"response": " ",
		"word": "e",
		"trial_type": "audio-keyboard-response",
		"trial_index": 301,
		"time_elapsed": 767570,
		"internal_node_id": "0.0-3.0-1.243"
	},
	{
		"rt": 1649,
		"stimulus": "../audio/18-8-fem.mp3",
		"response": " ",
		"word": "solitário.",
		"trial_type": "audio-keyboard-response",
		"trial_index": 302,
		"time_elapsed": 769548,
		"internal_node_id": "0.0-3.0-1.244"
	},
	{
		"rt": null,
		"stimulus": "<span style= \"font-size:30px; font-family: monospace\">+</span>",
		"response": null,
		"trial_part": "fixation",
		"trial_type": "html-keyboard-response",
		"trial_index": 303,
		"time_elapsed": 770824,
		"internal_node_id": "0.0-3.0-0.245-0.245"
	},
	{
		"rt": 911,
		"stimulus": "../audio/16-1-fem.mp3",
		"response": " ",
		"word": "Eu",
		"trial_type": "audio-keyboard-response",
		"trial_index": 304,
		"time_elapsed": 772125,
		"internal_node_id": "0.0-3.0-1.245"
	},
	{
		"rt": 1428,
		"stimulus": "../audio/16-2-fem.mp3",
		"response": " ",
		"word": "nunca",
		"trial_type": "audio-keyboard-response",
		"trial_index": 305,
		"time_elapsed": 773896,
		"internal_node_id": "0.0-3.0-1.246"
	},
	{
		"rt": 1411,
		"stimulus": "../audio/16-3-fem.mp3",
		"response": " ",
		"word": "conheci",
		"trial_type": "audio-keyboard-response",
		"trial_index": 306,
		"time_elapsed": 775628,
		"internal_node_id": "0.0-3.0-1.247"
	},
	{
		"rt": 1048,
		"stimulus": "../audio/16-4-fem.mp3",
		"response": " ",
		"word": "um",
		"trial_type": "audio-keyboard-response",
		"trial_index": 307,
		"time_elapsed": 776997,
		"internal_node_id": "0.0-3.0-1.248"
	},
	{
		"rt": 1559,
		"stimulus": "../audio/16-5-fem.mp3",
		"response": " ",
		"word": "general",
		"trial_type": "audio-keyboard-response",
		"trial_index": 308,
		"time_elapsed": 778896,
		"internal_node_id": "0.0-3.0-1.249"
	},
	{
		"rt": 871,
		"stimulus": "../audio/16-6-fem.mp3",
		"response": " ",
		"word": "do",
		"trial_type": "audio-keyboard-response",
		"trial_index": 309,
		"time_elapsed": 780085,
		"internal_node_id": "0.0-3.0-1.250"
	},
	{
		"rt": 2618,
		"stimulus": "../audio/16-7-fem.mp3",
		"response": " ",
		"word": "exército.",
		"trial_type": "audio-keyboard-response",
		"trial_index": 310,
		"time_elapsed": 783034,
		"internal_node_id": "0.0-3.0-1.251"
	},
	{
		"rt": null,
		"stimulus": "<span style= \"font-size:30px; font-family: monospace\">+</span>",
		"response": null,
		"trial_part": "fixation",
		"trial_type": "html-keyboard-response",
		"trial_index": 311,
		"time_elapsed": 784304,
		"internal_node_id": "0.0-3.0-0.252-0.252"
	},
	{
		"rt": 1550,
		"stimulus": "../audio/17-1-fem.mp3",
		"response": " ",
		"word": "Falaram",
		"trial_type": "audio-keyboard-response",
		"trial_index": 312,
		"time_elapsed": 786157,
		"internal_node_id": "0.0-3.0-1.252"
	},
	{
		"rt": 1051,
		"stimulus": "../audio/17-2-fem.mp3",
		"response": " ",
		"word": "da",
		"trial_type": "audio-keyboard-response",
		"trial_index": 313,
		"time_elapsed": 787489,
		"internal_node_id": "0.0-3.0-1.253"
	},
	{
		"rt": 1222,
		"stimulus": "../audio/17-3-fem.mp3",
		"response": " ",
		"word": "lei",
		"trial_type": "audio-keyboard-response",
		"trial_index": 314,
		"time_elapsed": 789015,
		"internal_node_id": "0.0-3.0-1.254"
	},
	{
		"rt": 1071,
		"stimulus": "../audio/17-4-fem.mp3",
		"response": " ",
		"word": "no",
		"trial_type": "audio-keyboard-response",
		"trial_index": 315,
		"time_elapsed": 790379,
		"internal_node_id": "0.0-3.0-1.255"
	},
	{
		"rt": 1620,
		"stimulus": "../audio/17-5-fem.mp3",
		"response": " ",
		"word": "ministério",
		"trial_type": "audio-keyboard-response",
		"trial_index": 316,
		"time_elapsed": 792304,
		"internal_node_id": "0.0-3.0-1.256"
	},
	{
		"rt": 1329,
		"stimulus": "../audio/17-6-fem.mp3",
		"response": " ",
		"word": "diversas",
		"trial_type": "audio-keyboard-response",
		"trial_index": 317,
		"time_elapsed": 793929,
		"internal_node_id": "0.0-3.0-1.257"
	},
	{
		"rt": 1109,
		"stimulus": "../audio/17-7-fem.mp3",
		"response": " ",
		"word": "vezes.",
		"trial_type": "audio-keyboard-response",
		"trial_index": 318,
		"time_elapsed": 795329,
		"internal_node_id": "0.0-3.0-1.258"
	},
	{
		"rt": null,
		"stimulus": "<span style= \"font-size:30px; font-family: monospace\">+</span>",
		"response": null,
		"trial_part": "fixation",
		"trial_type": "html-keyboard-response",
		"trial_index": 319,
		"time_elapsed": 796589,
		"internal_node_id": "0.0-3.0-0.259-0.259"
	},
	{
		"rt": 1030,
		"stimulus": "../audio/20-1-fem.mp3",
		"response": " ",
		"word": "O",
		"trial_type": "audio-keyboard-response",
		"trial_index": 320,
		"time_elapsed": 797911,
		"internal_node_id": "0.0-3.0-1.259"
	},
	{
		"rt": 1350,
		"stimulus": "../audio/20-2-fem.mp3",
		"response": " ",
		"word": "colega",
		"trial_type": "audio-keyboard-response",
		"trial_index": 321,
		"time_elapsed": 799560,
		"internal_node_id": "0.0-3.0-1.260"
	},
	{
		"rt": 1512,
		"stimulus": "../audio/20-3-fem.mp3",
		"response": " ",
		"word": "parecia",
		"trial_type": "audio-keyboard-response",
		"trial_index": 322,
		"time_elapsed": 801358,
		"internal_node_id": "0.0-3.0-1.261"
	},
	{
		"rt": 1730,
		"stimulus": "../audio/20-4-fem.mp3",
		"response": " ",
		"word": "muito",
		"trial_type": "audio-keyboard-response",
		"trial_index": 323,
		"time_elapsed": 803394,
		"internal_node_id": "0.0-3.0-1.262"
	},
	{
		"rt": 1701,
		"stimulus": "../audio/20-5-fem.mp3",
		"response": " ",
		"word": "gripado",
		"trial_type": "audio-keyboard-response",
		"trial_index": 324,
		"time_elapsed": 805394,
		"internal_node_id": "0.0-3.0-1.263"
	},
	{
		"rt": 1088,
		"stimulus": "../audio/20-6-fem.mp3",
		"response": " ",
		"word": "no",
		"trial_type": "audio-keyboard-response",
		"trial_index": 325,
		"time_elapsed": 806788,
		"internal_node_id": "0.0-3.0-1.264"
	},
	{
		"rt": 1120,
		"stimulus": "../audio/20-7-fem.mp3",
		"response": " ",
		"word": "dia",
		"trial_type": "audio-keyboard-response",
		"trial_index": 326,
		"time_elapsed": 808207,
		"internal_node_id": "0.0-3.0-1.265"
	},
	{
		"rt": 2601,
		"stimulus": "../audio/20-8-fem.mp3",
		"response": " ",
		"word": "anterior.",
		"trial_type": "audio-keyboard-response",
		"trial_index": 327,
		"time_elapsed": 811124,
		"internal_node_id": "0.0-3.0-1.266"
	},
	{
		"rt": 10224,
		"stimulus": "<span style=\"font-size:25px; font-family: monospace\">O colega parecia muito gripado?</span>",
		"response": "s",
		"question": "O colega parecia muito gripado?",
		"answer": "null",
		"trial": "exp-sent",
		"trial_type": "html-keyboard-response",
		"trial_index": 328,
		"time_elapsed": 821608,
		"internal_node_id": "0.0-3.0-2.266-0.266",
		"accuracy": false
	},
	{
		"rt": null,
		"stimulus": "<span style= \"font-size:30px; font-family: monospace\">+</span>",
		"response": null,
		"trial_part": "fixation",
		"trial_type": "html-keyboard-response",
		"trial_index": 329,
		"time_elapsed": 823115,
		"internal_node_id": "0.0-3.0-0.267-0.267"
	},
	{
		"rt": 3431,
		"stimulus": "../audio/23-1-fem.mp3",
		"response": " ",
		"word": "Português",
		"trial_type": "audio-keyboard-response",
		"trial_index": 330,
		"time_elapsed": 826860,
		"internal_node_id": "0.0-3.0-1.267"
	},
	{
		"rt": 1300,
		"stimulus": "../audio/23-2-fem.mp3",
		"response": " ",
		"word": "é",
		"trial_type": "audio-keyboard-response",
		"trial_index": 331,
		"time_elapsed": 828454,
		"internal_node_id": "0.0-3.0-1.268"
	},
	{
		"rt": 1280,
		"stimulus": "../audio/23-3-fem.mp3",
		"response": " ",
		"word": "um",
		"trial_type": "audio-keyboard-response",
		"trial_index": 332,
		"time_elapsed": 830017,
		"internal_node_id": "0.0-3.0-1.269"
	},
	{
		"rt": 1788,
		"stimulus": "../audio/23-4-fem.mp3",
		"response": " ",
		"word": "assunto",
		"trial_type": "audio-keyboard-response",
		"trial_index": 333,
		"time_elapsed": 832106,
		"internal_node_id": "0.0-3.0-1.270"
	},
	{
		"rt": 1820,
		"stimulus": "../audio/23-5-fem.mp3",
		"response": " ",
		"word": "elementar",
		"trial_type": "audio-keyboard-response",
		"trial_index": 334,
		"time_elapsed": 834234,
		"internal_node_id": "0.0-3.0-1.271"
	},
	{
		"rt": 1300,
		"stimulus": "../audio/23-6-fem.mp3",
		"response": " ",
		"word": "para",
		"trial_type": "audio-keyboard-response",
		"trial_index": 335,
		"time_elapsed": 835844,
		"internal_node_id": "0.0-3.0-1.272"
	},
	{
		"rt": 1100,
		"stimulus": "../audio/23-7-fem.mp3",
		"response": " ",
		"word": "os",
		"trial_type": "audio-keyboard-response",
		"trial_index": 336,
		"time_elapsed": 837247,
		"internal_node_id": "0.0-3.0-1.273"
	},
	{
		"rt": 2331,
		"stimulus": "../audio/23-8-fem.mp3",
		"response": " ",
		"word": "alunos.",
		"trial_type": "audio-keyboard-response",
		"trial_index": 337,
		"time_elapsed": 839868,
		"internal_node_id": "0.0-3.0-1.274"
	},
	{
		"rt": null,
		"stimulus": "<span style= \"font-size:30px; font-family: monospace\">+</span>",
		"response": null,
		"trial_part": "fixation",
		"trial_type": "html-keyboard-response",
		"trial_index": 338,
		"time_elapsed": 841129,
		"internal_node_id": "0.0-3.0-0.275-0.275"
	},
	{
		"rt": 1509,
		"stimulus": "../audio/21-1-fem.mp3",
		"response": " ",
		"word": "Precisamos",
		"trial_type": "audio-keyboard-response",
		"trial_index": 339,
		"time_elapsed": 843006,
		"internal_node_id": "0.0-3.0-1.275"
	},
	{
		"rt": 1010,
		"stimulus": "../audio/21-2-fem.mp3",
		"response": " ",
		"word": "de",
		"trial_type": "audio-keyboard-response",
		"trial_index": 340,
		"time_elapsed": 844343,
		"internal_node_id": "0.0-3.0-1.276"
	},
	{
		"rt": 1872,
		"stimulus": "../audio/21-3-fem.mp3",
		"response": " ",
		"word": "paciência",
		"trial_type": "audio-keyboard-response",
		"trial_index": 341,
		"time_elapsed": 846547,
		"internal_node_id": "0.0-3.0-1.277"
	},
	{
		"rt": 1080,
		"stimulus": "../audio/21-4-fem.mp3",
		"response": " ",
		"word": "e",
		"trial_type": "audio-keyboard-response",
		"trial_index": 342,
		"time_elapsed": 847990,
		"internal_node_id": "0.0-3.0-1.278"
	},
	{
		"rt": 1620,
		"stimulus": "../audio/21-5-fem.mp3",
		"response": " ",
		"word": "bondade",
		"trial_type": "audio-keyboard-response",
		"trial_index": 343,
		"time_elapsed": 849941,
		"internal_node_id": "0.0-3.0-1.279"
	},
	{
		"rt": 1170,
		"stimulus": "../audio/21-6-fem.mp3",
		"response": " ",
		"word": "para",
		"trial_type": "audio-keyboard-response",
		"trial_index": 344,
		"time_elapsed": 851437,
		"internal_node_id": "0.0-3.0-1.280"
	},
	{
		"rt": 1059,
		"stimulus": "../audio/21-7-fem.mp3",
		"response": " ",
		"word": "um",
		"trial_type": "audio-keyboard-response",
		"trial_index": 345,
		"time_elapsed": 852814,
		"internal_node_id": "0.0-3.0-1.281"
	},
	{
		"rt": 1321,
		"stimulus": "../audio/21-8-fem.mp3",
		"response": " ",
		"word": "mundo",
		"trial_type": "audio-keyboard-response",
		"trial_index": 346,
		"time_elapsed": 854466,
		"internal_node_id": "0.0-3.0-1.282"
	},
	{
		"rt": 1591,
		"stimulus": "../audio/21-9-fem.mp3",
		"response": " ",
		"word": "melhor.",
		"trial_type": "audio-keyboard-response",
		"trial_index": 347,
		"time_elapsed": 856387,
		"internal_node_id": "0.0-3.0-1.283"
	},
	{
		"rt": null,
		"stimulus": "<span style= \"font-size:30px; font-family: monospace\">+</span>",
		"response": null,
		"trial_part": "fixation",
		"trial_type": "html-keyboard-response",
		"trial_index": 348,
		"time_elapsed": 857670,
		"internal_node_id": "0.0-3.0-0.284-0.284"
	},
	{
		"rt": 1329,
		"stimulus": "../audio/24-1-masc.mp3",
		"response": " ",
		"word": "As",
		"trial_type": "audio-keyboard-response",
		"trial_index": 349,
		"time_elapsed": 859333,
		"internal_node_id": "0.0-3.0-1.284"
	},
	{
		"rt": 1231,
		"stimulus": "../audio/24-2-masc.mp3",
		"response": " ",
		"word": "crianças",
		"trial_type": "audio-keyboard-response",
		"trial_index": 350,
		"time_elapsed": 860878,
		"internal_node_id": "0.0-3.0-1.285"
	},
	{
		"rt": 1170,
		"stimulus": "../audio/24-3-masc.mp3",
		"response": " ",
		"word": "vão",
		"trial_type": "audio-keyboard-response",
		"trial_index": 351,
		"time_elapsed": 862368,
		"internal_node_id": "0.0-3.0-1.286"
	},
	{
		"rt": 1222,
		"stimulus": "../audio/24-4-masc.mp3",
		"response": " ",
		"word": "ao",
		"trial_type": "audio-keyboard-response",
		"trial_index": 352,
		"time_elapsed": 863899,
		"internal_node_id": "0.0-3.0-1.287"
	},
	{
		"rt": 1361,
		"stimulus": "../audio/24-5-masc.mp3",
		"response": " ",
		"word": "cinema",
		"trial_type": "audio-keyboard-response",
		"trial_index": 353,
		"time_elapsed": 865567,
		"internal_node_id": "0.0-3.0-1.288"
	},
	{
		"rt": 1199,
		"stimulus": "../audio/24-6-masc.mp3",
		"response": " ",
		"word": "mais",
		"trial_type": "audio-keyboard-response",
		"trial_index": 354,
		"time_elapsed": 867083,
		"internal_node_id": "0.0-3.0-1.289"
	},
	{
		"rt": 1869,
		"stimulus": "../audio/24-7-masc.mp3",
		"response": " ",
		"word": "tarde.",
		"trial_type": "audio-keyboard-response",
		"trial_index": 355,
		"time_elapsed": 869264,
		"internal_node_id": "0.0-3.0-1.290"
	},
	{
		"rt": null,
		"stimulus": "<span style= \"font-size:30px; font-family: monospace\">+</span>",
		"response": null,
		"trial_part": "fixation",
		"trial_type": "html-keyboard-response",
		"trial_index": 356,
		"time_elapsed": 870532,
		"internal_node_id": "0.0-3.0-0.291-0.291"
	},
	{
		"rt": 1120,
		"stimulus": "../audio/22-1-masc.mp3",
		"response": " ",
		"word": "Eu",
		"trial_type": "audio-keyboard-response",
		"trial_index": 357,
		"time_elapsed": 871950,
		"internal_node_id": "0.0-3.0-1.291"
	},
	{
		"rt": 1422,
		"stimulus": "../audio/22-2-masc.mp3",
		"response": " ",
		"word": "detesto",
		"trial_type": "audio-keyboard-response",
		"trial_index": 358,
		"time_elapsed": 873667,
		"internal_node_id": "0.0-3.0-1.292"
	},
	{
		"rt": 1379,
		"stimulus": "../audio/22-3-masc.mp3",
		"response": " ",
		"word": "fumaça",
		"trial_type": "audio-keyboard-response",
		"trial_index": 359,
		"time_elapsed": 875355,
		"internal_node_id": "0.0-3.0-1.293"
	},
	{
		"rt": 1051,
		"stimulus": "../audio/22-4-masc.mp3",
		"response": " ",
		"word": "de",
		"trial_type": "audio-keyboard-response",
		"trial_index": 360,
		"time_elapsed": 876697,
		"internal_node_id": "0.0-3.0-1.294"
	},
	{
		"rt": 1379,
		"stimulus": "../audio/22-5-masc.mp3",
		"response": " ",
		"word": "cachimbo",
		"trial_type": "audio-keyboard-response",
		"trial_index": 361,
		"time_elapsed": 878368,
		"internal_node_id": "0.0-3.0-1.295"
	},
	{
		"rt": 952,
		"stimulus": "../audio/22-6-masc.mp3",
		"response": " ",
		"word": "e",
		"trial_type": "audio-keyboard-response",
		"trial_index": 362,
		"time_elapsed": 879624,
		"internal_node_id": "0.0-3.0-1.296"
	},
	{
		"rt": 1051,
		"stimulus": "../audio/22-7-masc.mp3",
		"response": " ",
		"word": "de",
		"trial_type": "audio-keyboard-response",
		"trial_index": 363,
		"time_elapsed": 880968,
		"internal_node_id": "0.0-3.0-1.297"
	},
	{
		"rt": 1898,
		"stimulus": "../audio/22-8-masc.mp3",
		"response": " ",
		"word": "cigarro.",
		"trial_type": "audio-keyboard-response",
		"trial_index": 364,
		"time_elapsed": 883166,
		"internal_node_id": "0.0-3.0-1.298"
	},
	{
		"rt": null,
		"stimulus": "<span style= \"font-size:30px; font-family: monospace\">+</span>",
		"response": null,
		"trial_part": "fixation",
		"trial_type": "html-keyboard-response",
		"trial_index": 365,
		"time_elapsed": 884440,
		"internal_node_id": "0.0-3.0-0.299-0.299"
	},
	{
		"rt": 1109,
		"stimulus": "../audio/25-1-masc.mp3",
		"response": " ",
		"word": "Ela",
		"trial_type": "audio-keyboard-response",
		"trial_index": 366,
		"time_elapsed": 885882,
		"internal_node_id": "0.0-3.0-1.299"
	},
	{
		"rt": 1059,
		"stimulus": "../audio/25-2-masc.mp3",
		"response": " ",
		"word": "faz",
		"trial_type": "audio-keyboard-response",
		"trial_index": 367,
		"time_elapsed": 887260,
		"internal_node_id": "0.0-3.0-1.300"
	},
	{
		"rt": 1219,
		"stimulus": "../audio/25-3-masc.mp3",
		"response": " ",
		"word": "tanto",
		"trial_type": "audio-keyboard-response",
		"trial_index": 368,
		"time_elapsed": 888801,
		"internal_node_id": "0.0-3.0-1.301"
	},
	{
		"rt": 1158,
		"stimulus": "../audio/25-4-masc.mp3",
		"response": " ",
		"word": "cabelo",
		"trial_type": "audio-keyboard-response",
		"trial_index": 369,
		"time_elapsed": 890285,
		"internal_node_id": "0.0-3.0-1.302"
	},
	{
		"rt": 1068,
		"stimulus": "../audio/25-5-masc.mp3",
		"response": " ",
		"word": "liso",
		"trial_type": "audio-keyboard-response",
		"trial_index": 370,
		"time_elapsed": 891670,
		"internal_node_id": "0.0-3.0-1.303"
	},
	{
		"rt": 1080,
		"stimulus": "../audio/25-6-masc.mp3",
		"response": " ",
		"word": "quanto",
		"trial_type": "audio-keyboard-response",
		"trial_index": 371,
		"time_elapsed": 893063,
		"internal_node_id": "0.0-3.0-1.304"
	},
	{
		"rt": 2601,
		"stimulus": "../audio/25-7-masc.mp3",
		"response": " ",
		"word": "cacheado.",
		"trial_type": "audio-keyboard-response",
		"trial_index": 372,
		"time_elapsed": 895997,
		"internal_node_id": "0.0-3.0-1.305"
	},
	{
		"rt": 14608,
		"stimulus": "<span style=\"font-size:25px; font-family: monospace\">Ela só faz cabelo cacheado?</span>",
		"response": "s",
		"question": "Ela só faz cabelo cacheado?",
		"answer": "null",
		"trial": "exp-sent",
		"trial_type": "html-keyboard-response",
		"trial_index": 373,
		"time_elapsed": 910873,
		"internal_node_id": "0.0-3.0-2.305-0.305",
		"accuracy": false
	},
	{
		"rt": null,
		"stimulus": "<span style= \"font-size:30px; font-family: monospace\">+</span>",
		"response": null,
		"trial_part": "fixation",
		"trial_type": "html-keyboard-response",
		"trial_index": 374,
		"time_elapsed": 912394,
		"internal_node_id": "0.0-3.0-0.306-0.306"
	},
	{
		"rt": 1741,
		"stimulus": "../audio/61-1-masc.mp3",
		"response": " ",
		"word": "Aquele",
		"trial_type": "audio-keyboard-response",
		"trial_index": 375,
		"time_elapsed": 914498,
		"internal_node_id": "0.0-3.0-1.306"
	},
	{
		"rt": 2029,
		"stimulus": "../audio/61-2-masc.mp3",
		"response": " ",
		"word": "senhor",
		"trial_type": "audio-keyboard-response",
		"trial_index": 376,
		"time_elapsed": 916875,
		"internal_node_id": "0.0-3.0-1.307"
	},
	{
		"rt": 1071,
		"stimulus": "../audio/61-3-masc.mp3",
		"response": " ",
		"word": "é",
		"trial_type": "audio-keyboard-response",
		"trial_index": 377,
		"time_elapsed": 918271,
		"internal_node_id": "0.0-3.0-1.308"
	},
	{
		"rt": 1622,
		"stimulus": "../audio/61-4-masc.mp3",
		"response": " ",
		"word": "muito",
		"trial_type": "audio-keyboard-response",
		"trial_index": 378,
		"time_elapsed": 920217,
		"internal_node_id": "0.0-3.0-1.309"
	},
	{
		"rt": 1550,
		"stimulus": "../audio/61-5-masc.mp3",
		"response": " ",
		"word": "sovina",
		"trial_type": "audio-keyboard-response",
		"trial_index": 379,
		"time_elapsed": 922107,
		"internal_node_id": "0.0-3.0-1.310"
	},
	{
		"rt": 998,
		"stimulus": "../audio/61-6-masc.mp3",
		"response": " ",
		"word": "e",
		"trial_type": "audio-keyboard-response",
		"trial_index": 380,
		"time_elapsed": 923423,
		"internal_node_id": "0.0-3.0-1.311"
	},
	{
		"rt": 2261,
		"stimulus": "../audio/61-7-masc.mp3",
		"response": " ",
		"word": "inflexível.",
		"trial_type": "audio-keyboard-response",
		"trial_index": 381,
		"time_elapsed": 926021,
		"internal_node_id": "0.0-3.0-1.312"
	},
	{
		"rt": null,
		"stimulus": "<span style= \"font-size:30px; font-family: monospace\">+</span>",
		"response": null,
		"trial_part": "fixation",
		"trial_type": "html-keyboard-response",
		"trial_index": 382,
		"time_elapsed": 927289,
		"internal_node_id": "0.0-3.0-0.313-0.313"
	},
	{
		"rt": 1019,
		"stimulus": "../audio/64-1-fem.mp3",
		"response": " ",
		"word": "O",
		"trial_type": "audio-keyboard-response",
		"trial_index": 383,
		"time_elapsed": 928611,
		"internal_node_id": "0.0-3.0-1.313"
	},
	{
		"rt": 1059,
		"stimulus": "../audio/64-2-fem.mp3",
		"response": " ",
		"word": "dia",
		"trial_type": "audio-keyboard-response",
		"trial_index": 384,
		"time_elapsed": 929967,
		"internal_node_id": "0.0-3.0-1.314"
	},
	{
		"rt": 1408,
		"stimulus": "../audio/64-3-fem.mp3",
		"response": " ",
		"word": "começou",
		"trial_type": "audio-keyboard-response",
		"trial_index": 385,
		"time_elapsed": 931671,
		"internal_node_id": "0.0-3.0-1.315"
	},
	{
		"rt": 949,
		"stimulus": "../audio/64-4-fem.mp3",
		"response": " ",
		"word": "com",
		"trial_type": "audio-keyboard-response",
		"trial_index": 386,
		"time_elapsed": 932898,
		"internal_node_id": "0.0-3.0-1.316"
	},
	{
		"rt": 1379,
		"stimulus": "../audio/64-5-fem.mp3",
		"response": " ",
		"word": "garoa",
		"trial_type": "audio-keyboard-response",
		"trial_index": 387,
		"time_elapsed": 934579,
		"internal_node_id": "0.0-3.0-1.317"
	},
	{
		"rt": 1440,
		"stimulus": "../audio/64-6-fem.mp3",
		"response": " ",
		"word": "gelada",
		"trial_type": "audio-keyboard-response",
		"trial_index": 388,
		"time_elapsed": 936331,
		"internal_node_id": "0.0-3.0-1.318"
	},
	{
		"rt": 940,
		"stimulus": "../audio/64-7-fem.mp3",
		"response": " ",
		"word": "e",
		"trial_type": "audio-keyboard-response",
		"trial_index": 389,
		"time_elapsed": 937559,
		"internal_node_id": "0.0-3.0-1.319"
	},
	{
		"rt": 1431,
		"stimulus": "../audio/64-8-fem.mp3",
		"response": " ",
		"word": "leve.",
		"trial_type": "audio-keyboard-response",
		"trial_index": 390,
		"time_elapsed": 939290,
		"internal_node_id": "0.0-3.0-1.320"
	},
	{
		"rt": null,
		"stimulus": "<span style= \"font-size:30px; font-family: monospace\">+</span>",
		"response": null,
		"trial_part": "fixation",
		"trial_type": "html-keyboard-response",
		"trial_index": 391,
		"time_elapsed": 940553,
		"internal_node_id": "0.0-3.0-0.321-0.321"
	},
	{
		"rt": 1001,
		"stimulus": "../audio/63-1-fem.mp3",
		"response": " ",
		"word": "A",
		"trial_type": "audio-keyboard-response",
		"trial_index": 392,
		"time_elapsed": 941855,
		"internal_node_id": "0.0-3.0-1.321"
	},
	{
		"rt": 1379,
		"stimulus": "../audio/63-2-fem.mp3",
		"response": " ",
		"word": "chuva",
		"trial_type": "audio-keyboard-response",
		"trial_index": 393,
		"time_elapsed": 943546,
		"internal_node_id": "0.0-3.0-1.322"
	},
	{
		"rt": 1292,
		"stimulus": "../audio/63-3-fem.mp3",
		"response": " ",
		"word": "entrou",
		"trial_type": "audio-keyboard-response",
		"trial_index": 394,
		"time_elapsed": 945130,
		"internal_node_id": "0.0-3.0-1.323"
	},
	{
		"rt": 1010,
		"stimulus": "../audio/63-4-fem.mp3",
		"response": " ",
		"word": "pela",
		"trial_type": "audio-keyboard-response",
		"trial_index": 395,
		"time_elapsed": 946422,
		"internal_node_id": "0.0-3.0-1.324"
	},
	{
		"rt": 1530,
		"stimulus": "../audio/63-5-fem.mp3",
		"response": " ",
		"word": "abertura",
		"trial_type": "audio-keyboard-response",
		"trial_index": 396,
		"time_elapsed": 948238,
		"internal_node_id": "0.0-3.0-1.325"
	},
	{
		"rt": 1248,
		"stimulus": "../audio/63-6-fem.mp3",
		"response": " ",
		"word": "na",
		"trial_type": "audio-keyboard-response",
		"trial_index": 397,
		"time_elapsed": 949773,
		"internal_node_id": "0.0-3.0-1.326"
	},
	{
		"rt": 1860,
		"stimulus": "../audio/63-7-fem.mp3",
		"response": " ",
		"word": "janela.",
		"trial_type": "audio-keyboard-response",
		"trial_index": 398,
		"time_elapsed": 951949,
		"internal_node_id": "0.0-3.0-1.327"
	},
	{
		"rt": null,
		"stimulus": "<span style= \"font-size:30px; font-family: monospace\">+</span>",
		"response": null,
		"trial_part": "fixation",
		"trial_type": "html-keyboard-response",
		"trial_index": 399,
		"time_elapsed": 953228,
		"internal_node_id": "0.0-3.0-0.328-0.328"
	},
	{
		"rt": 1190,
		"stimulus": "../audio/62-1-fem.mp3",
		"response": " ",
		"word": "As",
		"trial_type": "audio-keyboard-response",
		"trial_index": 400,
		"time_elapsed": 954725,
		"internal_node_id": "0.0-3.0-1.328"
	},
	{
		"rt": 1640,
		"stimulus": "../audio/62-2-fem.mp3",
		"response": " ",
		"word": "artesãs",
		"trial_type": "audio-keyboard-response",
		"trial_index": 401,
		"time_elapsed": 956687,
		"internal_node_id": "0.0-3.0-1.329"
	},
	{
		"rt": 1228,
		"stimulus": "../audio/62-3-fem.mp3",
		"response": " ",
		"word": "gostam",
		"trial_type": "audio-keyboard-response",
		"trial_index": 402,
		"time_elapsed": 958216,
		"internal_node_id": "0.0-3.0-1.330"
	},
	{
		"rt": 1109,
		"stimulus": "../audio/62-4-fem.mp3",
		"response": " ",
		"word": "de",
		"trial_type": "audio-keyboard-response",
		"trial_index": 403,
		"time_elapsed": 959624,
		"internal_node_id": "0.0-3.0-1.331"
	},
	{
		"rt": 1602,
		"stimulus": "../audio/62-5-fem.mp3",
		"response": " ",
		"word": "maquiagem",
		"trial_type": "audio-keyboard-response",
		"trial_index": 404,
		"time_elapsed": 961538,
		"internal_node_id": "0.0-3.0-1.332"
	},
	{
		"rt": 1117,
		"stimulus": "../audio/62-6-fem.mp3",
		"response": " ",
		"word": "e",
		"trial_type": "audio-keyboard-response",
		"trial_index": 405,
		"time_elapsed": 962954,
		"internal_node_id": "0.0-3.0-1.333"
	},
	{
		"rt": 1149,
		"stimulus": "../audio/62-7-fem.mp3",
		"response": " ",
		"word": "de",
		"trial_type": "audio-keyboard-response",
		"trial_index": 406,
		"time_elapsed": 964417,
		"internal_node_id": "0.0-3.0-1.334"
	},
	{
		"rt": 2662,
		"stimulus": "../audio/62-8-fem.mp3",
		"response": " ",
		"word": "crochê.",
		"trial_type": "audio-keyboard-response",
		"trial_index": 407,
		"time_elapsed": 967384,
		"internal_node_id": "0.0-3.0-1.335"
	},
	{
		"rt": null,
		"stimulus": "<span style= \"font-size:30px; font-family: monospace\">+</span>",
		"response": null,
		"trial_part": "fixation",
		"trial_type": "html-keyboard-response",
		"trial_index": 408,
		"time_elapsed": 968653,
		"internal_node_id": "0.0-3.0-0.336-0.336"
	},
	{
		"rt": 1161,
		"stimulus": "../audio/65-1-masc.mp3",
		"response": " ",
		"word": "O",
		"trial_type": "audio-keyboard-response",
		"trial_index": 409,
		"time_elapsed": 970219,
		"internal_node_id": "0.0-3.0-1.336"
	},
	{
		"rt": 1312,
		"stimulus": "../audio/65-2-masc.mp3",
		"response": " ",
		"word": "fantasma",
		"trial_type": "audio-keyboard-response",
		"trial_index": 410,
		"time_elapsed": 971856,
		"internal_node_id": "0.0-3.0-1.337"
	},
	{
		"rt": 1080,
		"stimulus": "../audio/65-3-masc.mp3",
		"response": " ",
		"word": "veio",
		"trial_type": "audio-keyboard-response",
		"trial_index": 411,
		"time_elapsed": 973277,
		"internal_node_id": "0.0-3.0-1.338"
	},
	{
		"rt": 952,
		"stimulus": "../audio/65-4-masc.mp3",
		"response": " ",
		"word": "da",
		"trial_type": "audio-keyboard-response",
		"trial_index": 412,
		"time_elapsed": 974543,
		"internal_node_id": "0.0-3.0-1.339"
	},
	{
		"rt": 1808,
		"stimulus": "../audio/65-5-masc.mp3",
		"response": " ",
		"word": "escuridão",
		"trial_type": "audio-keyboard-response",
		"trial_index": 413,
		"time_elapsed": 976675,
		"internal_node_id": "0.0-3.0-1.340"
	},
	{
		"rt": 1010,
		"stimulus": "../audio/65-6-masc.mp3",
		"response": " ",
		"word": "do",
		"trial_type": "audio-keyboard-response",
		"trial_index": 414,
		"time_elapsed": 978027,
		"internal_node_id": "0.0-3.0-1.341"
	},
	{
		"rt": 1831,
		"stimulus": "../audio/65-7-masc.mp3",
		"response": " ",
		"word": "armário.",
		"trial_type": "audio-keyboard-response",
		"trial_index": 415,
		"time_elapsed": 980184,
		"internal_node_id": "0.0-3.0-1.342"
	},
	{
		"rt": 115848,
		"stimulus": "<span style=\"font-size:25px; font-family: monospace\">O fantasma veio da escuridão do armário?</span>",
		"response": "s",
		"question": "O fantasma veio da escuridão do armário?",
		"answer": "null",
		"trial": "exp-sent",
		"trial_type": "html-keyboard-response",
		"trial_index": 416,
		"time_elapsed": 1096284,
		"internal_node_id": "0.0-3.0-2.342-0.342",
		"accuracy": false
	},
	{
		"rt": null,
		"stimulus": "<span style= \"font-size:30px; font-family: monospace\">+</span>",
		"response": null,
		"trial_part": "fixation",
		"trial_type": "html-keyboard-response",
		"trial_index": 417,
		"time_elapsed": 1097789,
		"internal_node_id": "0.0-3.0-0.343-0.343"
	},
	{
		"rt": 2281,
		"stimulus": "../audio/33-1-masc.mp3",
		"response": " ",
		"word": "Eles",
		"trial_type": "audio-keyboard-response",
		"trial_index": 418,
		"time_elapsed": 1100370,
		"internal_node_id": "0.0-3.0-1.343"
	},
	{
		"rt": 1991,
		"stimulus": "../audio/33-2-masc.mp3",
		"response": " ",
		"word": "sabem",
		"trial_type": "audio-keyboard-response",
		"trial_index": 419,
		"time_elapsed": 1102658,
		"internal_node_id": "0.0-3.0-1.344"
	},
	{
		"rt": 1620,
		"stimulus": "../audio/33-3-masc.mp3",
		"response": " ",
		"word": "do",
		"trial_type": "audio-keyboard-response",
		"trial_index": 420,
		"time_elapsed": 1104582,
		"internal_node_id": "0.0-3.0-1.345"
	},
	{
		"rt": 1620,
		"stimulus": "../audio/33-4-masc.mp3",
