"view_history","rt","trial_type","trial_index","time_elapsed","internal_node_id","stimulus","response","trial_part","word","question","answer","trial","accuracy"
"[{""page_index"":0,""viewing_time"":8613},{""page_index"":1,""viewing_time"":5201}]","13814","instructions","0","13815","0.0-0.0","","","","","","","",""
"","null","html-keyboard-response","1","14926","0.0-1.0-0.0-0.0","<span style= ""font-size:30px; font-family: monospace"">+</span>","null","fixation","","","","",""
"","5811","audio-keyboard-response","2","21030","0.0-1.0-1.0","../audio/prac-question-1-1.mp3"," ","","O","","","",""
"","1941","audio-keyboard-response","3","23237","0.0-1.0-1.1","../audio/prac-question-1-2.mp3"," ","","dia","","","",""
"","4200","audio-keyboard-response","4","27733","0.0-1.0-1.2","../audio/prac-question-1-3.mp3"," ","","estará","","","",""
"","1269","audio-keyboard-response","5","29285","0.0-1.0-1.3","../audio/prac-question-1-4.mp3"," ","","cheio","","","",""
"","1088","audio-keyboard-response","6","30661","0.0-1.0-1.4","../audio/prac-question-1-5.mp3"," ","","de","","","",""
"","1301","audio-keyboard-response","7","32246","0.0-1.0-1.5","../audio/prac-question-1-6.mp3"," ","","nuvens","","","",""
"","1019","audio-keyboard-response","8","33541","0.0-1.0-1.6","../audio/prac-question-1-7.mp3"," ","","hoje.","","","",""
"","null","html-keyboard-response","9","34824","0.0-1.0-0.7-0.7","<span style= ""font-size:30px; font-family: monospace"">+</span>","null","fixation","","","","",""
"","701","audio-keyboard-response","10","35813","0.0-1.0-1.7","../audio/prac-question-2-1.mp3"," ","","A","","","",""
"","1179","audio-keyboard-response","11","37269","0.0-1.0-1.8","../audio/prac-question-2-2.mp3"," ","","caneca","","","",""
"","1240","audio-keyboard-response","12","38789","0.0-1.0-1.9","../audio/prac-question-2-3.mp3"," ","","colorida","","","",""
"","1120","audio-keyboard-response","13","40181","0.0-1.0-1.10","../audio/prac-question-2-4.mp3"," ","","caiu","","","",""
"","1032","audio-keyboard-response","14","41493","0.0-1.0-1.11","../audio/prac-question-2-5.mp3"," ","","da","","","",""
"","1229","audio-keyboard-response","15","42997","0.0-1.0-1.12","../audio/prac-question-2-6.mp3"," ","","mesa","","","",""
"","1120","audio-keyboard-response","16","44389","0.0-1.0-1.13","../audio/prac-question-2-7.mp3"," ","","de","","","",""
"","1061","audio-keyboard-response","17","45717","0.0-1.0-1.14","../audio/prac-question-2-8.mp3"," ","","jantar.","","","",""
"","10623","html-keyboard-response","18","56597","0.0-1.0-2.14-0.14","<span style=""font-size:25px; font-family: monospace"">A caneca era colorida?</span>","s","","","A caneca era colorida?","null","prac-sent","false"
"[{""page_index"":0,""viewing_time"":13084}]","13084","instructions","19","70189","0.0-2.0","","","","","","","",""
"","null","html-keyboard-response","20","71314","0.0-3.0-0.0-0.0","<span style= ""font-size:30px; font-family: monospace"">+</span>","null","fixation","","","","",""
"","5189","audio-keyboard-response","21","76788","0.0-3.0-1.0","../audio/67-1-masc.mp3"," ","","Minha","","","",""
"","1171","audio-keyboard-response","22","78228","0.0-3.0-1.1","../audio/67-2-masc.mp3"," ","","tia","","","",""
"","1152","audio-keyboard-response","23","79652","0.0-3.0-1.2","../audio/67-3-masc.mp3"," ","","comprou","","","",""
"","1269","audio-keyboard-response","24","81188","0.0-3.0-1.3","../audio/67-4-masc.mp3"," ","","um","","","",""
"","1141","audio-keyboard-response","25","82596","0.0-3.0-1.4","../audio/67-5-masc.mp3"," ","","cordão","","","",""
"","1069","audio-keyboard-response","26","83940","0.0-3.0-1.5","../audio/67-6-masc.mp3"," ","","para","","","",""
"","979","audio-keyboard-response","27","85188","0.0-3.0-1.6","../audio/67-7-masc.mp3"," ","","o","","","",""
"","1211","audio-keyboard-response","28","86676","0.0-3.0-1.7","../audio/67-8-masc.mp3"," ","","varal.","","","",""
"","null","html-keyboard-response","29","87964","0.0-3.0-0.8-0.8","<span style= ""font-size:30px; font-family: monospace"">+</span>","null","fixation","","","","",""
"","1411","audio-keyboard-response","30","89652","0.0-3.0-1.8","../audio/66-1-fem.mp3"," ","","Não","","","",""
"","1160","audio-keyboard-response","31","91076","0.0-3.0-1.9","../audio/66-2-fem.mp3"," ","","gosto","","","",""
"","821","audio-keyboard-response","32","92165","0.0-3.0-1.10","../audio/66-3-fem.mp3"," ","","de","","","",""
"","1131","audio-keyboard-response","33","93572","0.0-3.0-1.11","../audio/66-4-fem.mp3"," ","","gente","","","",""
"","1232","audio-keyboard-response","34","95092","0.0-3.0-1.12","../audio/66-5-fem.mp3"," ","","egoísta","","","",""
"","1040","audio-keyboard-response","35","96404","0.0-3.0-1.13","../audio/66-6-fem.mp3"," ","","nem","","","",""
"","1259","audio-keyboard-response","36","97940","0.0-3.0-1.14","../audio/66-7-fem.mp3"," ","","chata.","","","",""
"","null","html-keyboard-response","37","99211","0.0-3.0-0.15-0.15","<span style= ""font-size:30px; font-family: monospace"">+</span>","null","fixation","","","","",""
"","971","audio-keyboard-response","38","100452","0.0-3.0-1.15","../audio/68-1-fem.mp3"," ","","Meu","","","",""
"","1048","audio-keyboard-response","39","101780","0.0-3.0-1.16","../audio/68-2-fem.mp3"," ","","irmão","","","",""
"","1240","audio-keyboard-response","40","103285","0.0-3.0-1.17","../audio/68-3-fem.mp3"," ","","teve","","","",""
"","1069","audio-keyboard-response","41","104644","0.0-3.0-1.18","../audio/68-4-fem.mp3"," ","","um","","","",""
"","1360","audio-keyboard-response","42","106292","0.0-3.0-1.19","../audio/68-5-fem.mp3"," ","","noivado","","","",""
"","1048","audio-keyboard-response","43","107620","0.0-3.0-1.20","../audio/68-6-fem.mp3"," ","","longo","","","",""
"","960","audio-keyboard-response","44","108852","0.0-3.0-1.21","../audio/68-7-fem.mp3"," ","","e","","","",""
"","1589","audio-keyboard-response","45","110708","0.0-3.0-1.22","../audio/68-8-fem.mp3"," ","","maravilhoso.","","","",""
"","null","html-keyboard-response","46","111984","0.0-3.0-0.23-0.23","<span style= ""font-size:30px; font-family: monospace"">+</span>","null","fixation","","","","",""
"","40","audio-keyboard-response","47","112292","0.0-3.0-1.23","../audio/69-1-fem.mp3"," ","","A","","","",""
"","1019","audio-keyboard-response","48","113588","0.0-3.0-1.24","../audio/69-2-fem.mp3"," ","","loja","","","",""
"","1072","audio-keyboard-response","49","114932","0.0-3.0-1.25","../audio/69-3-fem.mp3"," ","","recebeu","","","",""
"","979","audio-keyboard-response","50","116180","0.0-3.0-1.26","../audio/69-4-fem.mp3"," ","","uma","","","",""
"","1352","audio-keyboard-response","51","117803","0.0-3.0-1.27","../audio/69-5-fem.mp3"," ","","poltrona","","","",""
"","949","audio-keyboard-response","52","119019","0.0-3.0-1.28","../audio/69-6-fem.mp3"," ","","de","","","",""
"","1011","audio-keyboard-response","53","120299","0.0-3.0-1.29","../audio/69-7-fem.mp3"," ","","couro","","","",""
"","1109","audio-keyboard-response","54","121691","0.0-3.0-1.30","../audio/69-8-fem.mp3"," ","","preto.","","","",""
"","null","html-keyboard-response","55","122945","0.0-3.0-0.31-0.31","<span style= ""font-size:30px; font-family: monospace"">+</span>","null","fixation","","","","",""
"","91","audio-keyboard-response","56","123307","0.0-3.0-1.31","../audio/70-1-masc.mp3"," ","","O","","","",""
"","2000","audio-keyboard-response","57","125579","0.0-3.0-1.32","../audio/70-2-masc.mp3"," ","","meu","","","",""
"","992","audio-keyboard-response","58","126843","0.0-3.0-1.33","../audio/70-3-masc.mp3"," ","","filho","","","",""
"","829","audio-keyboard-response","59","127947","0.0-3.0-1.34","../audio/70-4-masc.mp3"," ","","tem","","","",""
"","1131","audio-keyboard-response","60","129355","0.0-3.0-1.35","../audio/70-5-masc.mp3"," ","","medo","","","",""
"","989","audio-keyboard-response","61","130635","0.0-3.0-1.36","../audio/70-6-masc.mp3"," ","","de","","","",""
"","1248","audio-keyboard-response","62","132172","0.0-3.0-1.37","../audio/70-7-masc.mp3"," ","","enguia","","","",""
"","1000","audio-keyboard-response","63","133451","0.0-3.0-1.38","../audio/70-8-masc.mp3"," ","","e","","","",""
"","1331","audio-keyboard-response","64","135067","0.0-3.0-1.39","../audio/70-9-masc.mp3"," ","","beija-flor.","","","",""
"","31534","html-keyboard-response","65","166860","0.0-3.0-2.39-0.39","<span style=""font-size:25px; font-family: monospace"">O filho tem medo de tigre?</span>","s","","","O filho tem medo de tigre?","null","exp-sent","false"
"","null","html-keyboard-response","66","168362","0.0-3.0-0.40-0.40","<span style= ""font-size:30px; font-family: monospace"">+</span>","null","fixation","","","","",""
"","1120","audio-keyboard-response","67","169739","0.0-3.0-1.40","../audio/78-1-fem.mp3"," ","","Eles","","","",""
"","1251","audio-keyboard-response","68","171259","0.0-3.0-1.41","../audio/78-2-fem.mp3"," ","","trazem","","","",""
"","1229","audio-keyboard-response","69","172763","0.0-3.0-1.42","../audio/78-3-fem.mp3"," ","","um","","","",""
"","1309","audio-keyboard-response","70","174347","0.0-3.0-1.43","../audio/78-4-fem.mp3"," ","","fato","","","",""
"","1491","audio-keyboard-response","71","176123","0.0-3.0-1.44","../audio/78-5-fem.mp3"," ","","urgente","","","",""
"","1051","audio-keyboard-response","72","177451","0.0-3.0-1.45","../audio/78-6-fem.mp3"," ","","todos","","","",""
"","931","audio-keyboard-response","73","178659","0.0-3.0-1.46","../audio/78-7-fem.mp3"," ","","os","","","",""
"","1109","audio-keyboard-response","74","180051","0.0-3.0-1.47","../audio/78-8-fem.mp3"," ","","dias.","","","",""
"","null","html-keyboard-response","75","181317","0.0-3.0-0.48-0.48","<span style= ""font-size:30px; font-family: monospace"">+</span>","null","fixation","","","","",""
"","3131","audio-keyboard-response","76","184738","0.0-3.0-1.48","../audio/79-1-masc.mp3"," ","","A","","","",""
"","1259","audio-keyboard-response","77","186275","0.0-3.0-1.49","../audio/79-2-masc.mp3"," ","","médica","","","",""
"","1248","audio-keyboard-response","78","187795","0.0-3.0-1.50","../audio/79-3-masc.mp3"," ","","verificou","","","",""
"","901","audio-keyboard-response","79","188979","0.0-3.0-1.51","../audio/79-4-masc.mp3"," ","","a","","","",""
"","1069","audio-keyboard-response","80","190322","0.0-3.0-1.52","../audio/79-5-masc.mp3"," ","","gengiva","","","",""
"","949","audio-keyboard-response","81","191538","0.0-3.0-1.53","../audio/79-6-masc.mp3"," ","","por","","","",""
"","992","audio-keyboard-response","82","192803","0.0-3.0-1.54","../audio/79-7-masc.mp3"," ","","último.","","","",""
"","null","html-keyboard-response","83","194078","0.0-3.0-0.55-0.55","<span style= ""font-size:30px; font-family: monospace"">+</span>","null","fixation","","","","",""
"","1829","audio-keyboard-response","84","196195","0.0-3.0-1.55","../audio/76-1-fem.mp3"," ","","O","","","",""
"","1381","audio-keyboard-response","85","197859","0.0-3.0-1.56","../audio/76-2-fem.mp3"," ","","bisavô","","","",""
"","1059","audio-keyboard-response","86","199203","0.0-3.0-1.57","../audio/76-3-fem.mp3"," ","","comprou","","","",""
"","781","audio-keyboard-response","87","200259","0.0-3.0-1.58","../audio/76-4-fem.mp3"," ","","um","","","",""
"","1011","audio-keyboard-response","88","201539","0.0-3.0-1.59","../audio/76-5-fem.mp3"," ","","ralador","","","",""
"","869","audio-keyboard-response","89","202675","0.0-3.0-1.60","../audio/76-6-fem.mp3"," ","","de","","","",""
"","880","audio-keyboard-response","90","203827","0.0-3.0-1.61","../audio/76-7-fem.mp3"," ","","queijo.","","","",""
"","null","html-keyboard-response","91","205093","0.0-3.0-0.62-0.62","<span style= ""font-size:30px; font-family: monospace"">+</span>","null","fixation","","","","",""
"","859","audio-keyboard-response","92","206242","0.0-3.0-1.62","../audio/77-1-fem.mp3"," ","","A","","","",""
"","992","audio-keyboard-response","93","207507","0.0-3.0-1.63","../audio/77-2-fem.mp3"," ","","criança","","","",""
"","949","audio-keyboard-response","94","208739","0.0-3.0-1.64","../audio/77-3-fem.mp3"," ","","ficou","","","",""
"","859","audio-keyboard-response","95","209874","0.0-3.0-1.65","../audio/77-4-fem.mp3"," ","","muito","","","",""
"","909","audio-keyboard-response","96","211058","0.0-3.0-1.66","../audio/77-5-fem.mp3"," ","","feliz","","","",""
"","789","audio-keyboard-response","97","212131","0.0-3.0-1.67","../audio/77-6-fem.mp3"," ","","com","","","",""
"","771","audio-keyboard-response","98","213187","0.0-3.0-1.68","../audio/77-7-fem.mp3"," ","","o","","","",""
"","1011","audio-keyboard-response","99","214467","0.0-3.0-1.69","../audio/77-8-fem.mp3"," ","","brinquedo.","","","",""
"","null","html-keyboard-response","100","215741","0.0-3.0-0.70-0.70","<span style= ""font-size:30px; font-family: monospace"">+</span>","null","fixation","","","","",""
"","211","audio-keyboard-response","101","216227","0.0-3.0-1.70","../audio/80-1-masc.mp3"," ","","Meu","","","",""
"","1619","audio-keyboard-response","102","218131","0.0-3.0-1.71","../audio/80-2-masc.mp3"," ","","primo","","","",""
"","1229","audio-keyboard-response","103","219635","0.0-3.0-1.72","../audio/80-3-masc.mp3"," ","","conheceu","","","",""
"","989","audio-keyboard-response","104","220899","0.0-3.0-1.73","../audio/80-4-masc.mp3"," ","","um","","","",""
"","1149","audio-keyboard-response","105","222322","0.0-3.0-1.74","../audio/80-5-masc.mp3"," ","","jovem","","","",""
"","992","audio-keyboard-response","106","223587","0.0-3.0-1.75","../audio/80-6-masc.mp3"," ","","amável","","","",""
"","888","audio-keyboard-response","107","224755","0.0-3.0-1.76","../audio/80-7-masc.mp3"," ","","e","","","",""
"","909","audio-keyboard-response","108","225955","0.0-3.0-1.77","../audio/80-8-masc.mp3"," ","","confiante.","","","",""
"","2421","html-keyboard-response","109","228643","0.0-3.0-2.77-0.77","<span style=""font-size:25px; font-family: monospace"">O primo conheceu um jovem irritante?</span>","s","","","O primo conheceu um jovem irritante?","null","exp-sent","false"
"","null","html-keyboard-response","110","230172","0.0-3.0-0.78-0.78","<span style= ""font-size:30px; font-family: monospace"">+</span>","null","fixation","","","","",""
"","869","audio-keyboard-response","111","231331","0.0-3.0-1.78","../audio/33-1-masc.mp3"," ","","Eles","","","",""
"","1229","audio-keyboard-response","112","232851","0.0-3.0-1.79","../audio/33-2-masc.mp3"," ","","sabem","","","",""
"","1000","audio-keyboard-response","113","234131","0.0-3.0-1.80","../audio/33-3-masc.mp3"," ","","do","","","",""
"","1069","audio-keyboard-response","114","235491","0.0-3.0-1.81","../audio/33-4-masc.mp3"," ","","seu","","","",""
"","1112","audio-keyboard-response","115","236866","0.0-3.0-1.82","../audio/33-5-masc.mp3"," ","","privilégio","","","",""
"","1251","audio-keyboard-response","116","238387","0.0-3.0-1.83","../audio/33-6-masc.mp3"," ","","nessa","","","",""
"","1059","audio-keyboard-response","117","239711","0.0-3.0-1.84","../audio/33-7-masc.mp3"," ","","confusão.","","","",""
"","null","html-keyboard-response","118","240978","0.0-3.0-0.85-0.85","<span style= ""font-size:30px; font-family: monospace"">+</span>","null","fixation","","","","",""
"","291","audio-keyboard-response","119","241535","0.0-3.0-1.85","../audio/31-1-masc.mp3"," ","","O","","","",""
"","1648","audio-keyboard-response","120","243471","0.0-3.0-1.86","../audio/31-2-masc.mp3"," ","","padeiro","","","",""
"","1160","audio-keyboard-response","121","244911","0.0-3.0-1.87","../audio/31-3-masc.mp3"," ","","usou","","","",""
"","1008","audio-keyboard-response","122","246191","0.0-3.0-1.88","../audio/31-4-masc.mp3"," ","","a","","","",""
"","979","audio-keyboard-response","123","247439","0.0-3.0-1.89","../audio/31-5-masc.mp3"," ","","balança","","","",""
"","901","audio-keyboard-response","124","248623","0.0-3.0-1.90","../audio/31-6-masc.mp3"," ","","o","","","",""
"","1019","audio-keyboard-response","125","249919","0.0-3.0-1.91","../audio/31-7-masc.mp3"," ","","dia","","","",""
"","859","audio-keyboard-response","126","251071","0.0-3.0-1.92","../audio/31-8-masc.mp3"," ","","inteiro.","","","",""
"","null","html-keyboard-response","127","252343","0.0-3.0-0.93-0.93","<span style= ""font-size:30px; font-family: monospace"">+</span>","null","fixation","","","","",""
"","1352","audio-keyboard-response","128","253983","0.0-3.0-1.93","../audio/34-1-fem.mp3"," ","","Cobrança","","","",""
"","2539","audio-keyboard-response","129","256799","0.0-3.0-1.94","../audio/34-2-fem.mp3"," ","","excessiva","","","",""
"","931","audio-keyboard-response","130","257999","0.0-3.0-1.95","../audio/34-3-fem.mp3"," ","","é","","","",""
"","1131","audio-keyboard-response","131","259407","0.0-3.0-1.96","../audio/34-4-fem.mp3"," ","","um","","","",""
"","1389","audio-keyboard-response","132","261071","0.0-3.0-1.97","../audio/34-5-fem.mp3"," ","","fardo","","","",""
"","899","audio-keyboard-response","133","262239","0.0-3.0-1.98","../audio/34-6-fem.mp3"," ","","para","","","",""
"","1280","audio-keyboard-response","134","263791","0.0-3.0-1.99","../audio/34-7-fem.mp3"," ","","a","","","",""
"","1200","audio-keyboard-response","135","265263","0.0-3.0-1.100","../audio/34-8-fem.mp3"," ","","cabeça.","","","",""
"","null","html-keyboard-response","136","266538","0.0-3.0-0.101-0.101","<span style= ""font-size:30px; font-family: monospace"">+</span>","null","fixation","","","","",""
"","629","audio-keyboard-response","137","267439","0.0-3.0-1.101","../audio/32-1-fem.mp3"," ","","A","","","",""
"","1000","audio-keyboard-response","138","268719","0.0-3.0-1.102","../audio/32-2-fem.mp3"," ","","tia","","","",""
"","1160","audio-keyboard-response","139","270159","0.0-3.0-1.103","../audio/32-3-fem.mp3"," ","","comprou","","","",""
"","1051","audio-keyboard-response","140","271487","0.0-3.0-1.104","../audio/32-4-fem.mp3"," ","","um","","","",""
"","1240","audio-keyboard-response","141","273007","0.0-3.0-1.105","../audio/32-5-fem.mp3"," ","","pilão","","","",""
"","1131","audio-keyboard-response","142","274415","0.0-3.0-1.106","../audio/32-6-fem.mp3"," ","","para","","","",""
"","909","audio-keyboard-response","143","275600","0.0-3.0-1.107","../audio/32-7-fem.mp3"," ","","a","","","",""
"","1171","audio-keyboard-response","144","277039","0.0-3.0-1.108","../audio/32-8-fem.mp3"," ","","cozinha.","","","",""
"","null","html-keyboard-response","145","278319","0.0-3.0-0.109-0.109","<span style= ""font-size:30px; font-family: monospace"">+</span>","null","fixation","","","","",""
"","1819","audio-keyboard-response","146","280431","0.0-3.0-1.109","../audio/35-1-masc.mp3"," ","","A","","","",""
"","1229","audio-keyboard-response","147","281935","0.0-3.0-1.110","../audio/35-2-masc.mp3"," ","","receita","","","",""
"","1080","audio-keyboard-response","148","283295","0.0-3.0-1.111","../audio/35-3-masc.mp3"," ","","para","","","",""
"","1069","audio-keyboard-response","149","284640","0.0-3.0-1.112","../audio/35-4-masc.mp3"," ","","a","","","",""
"","1109","audio-keyboard-response","150","286032","0.0-3.0-1.113","../audio/35-5-masc.mp3"," ","","preparação","","","",""
"","1309","audio-keyboard-response","151","287615","0.0-3.0-1.114","../audio/35-6-masc.mp3"," ","","do","","","",""
"","1080","audio-keyboard-response","152","288959","0.0-3.0-1.115","../audio/35-7-masc.mp3"," ","","bolo","","","",""
"","811","audio-keyboard-response","153","290047","0.0-3.0-1.116","../audio/35-8-masc.mp3"," ","","é","","","",""
"","901","audio-keyboard-response","154","291215","0.0-3.0-1.117","../audio/35-9-masc.mp3"," ","","leve.","","","",""
"","8729","html-keyboard-response","155","300211","0.0-3.0-2.117-0.117","<span style=""font-size:25px; font-family: monospace"">A receita do bolo é pesada?</span>","s","","","A receita do bolo é pesada?","null","exp-sent","false"
"","null","html-keyboard-response","156","301734","0.0-3.0-0.118-0.118","<span style= ""font-size:30px; font-family: monospace"">+</span>","null","fixation","","","","",""
"","1309","audio-keyboard-response","157","303314","0.0-3.0-1.118","../audio/49-1-fem.mp3"," ","","Eu","","","",""
"","960","audio-keyboard-response","158","304546","0.0-3.0-1.119","../audio/49-2-fem.mp3"," ","","quero","","","",""
"","1200","audio-keyboard-response","159","306018","0.0-3.0-1.120","../audio/49-3-fem.mp3"," ","","um","","","",""
"","1680","audio-keyboard-response","160","307971","0.0-3.0-1.121","../audio/49-4-fem.mp3"," ","","lanche","","","",""
"","1429","audio-keyboard-response","161","309682","0.0-3.0-1.122","../audio/49-5-fem.mp3"," ","","duplo","","","",""
"","1251","audio-keyboard-response","162","311219","0.0-3.0-1.123","../audio/49-6-fem.mp3"," ","","e","","","",""
"","2261","audio-keyboard-response","163","313746","0.0-3.0-1.124","../audio/49-7-fem.mp3"," ","","um","","","",""
"","1120","audio-keyboard-response","164","315138","0.0-3.0-1.125","../audio/49-8-fem.mp3"," ","","suco.","","","",""
"","null","html-keyboard-response","165","316401","0.0-3.0-0.126-0.126","<span style= ""font-size:30px; font-family: monospace"">+</span>","null","fixation","","","","",""
"","160","audio-keyboard-response","166","316850","0.0-3.0-1.126","../audio/47-1-fem.mp3"," ","","O","","","",""
"","1581","audio-keyboard-response","167","318706","0.0-3.0-1.127","../audio/47-2-fem.mp3"," ","","tio","","","",""
"","1299","audio-keyboard-response","168","320290","0.0-3.0-1.128","../audio/47-3-fem.mp3"," ","","recusou","","","",""
"","1240","audio-keyboard-response","169","321810","0.0-3.0-1.129","../audio/47-4-fem.mp3"," ","","a","","","",""
"","2040","audio-keyboard-response","170","324114","0.0-3.0-1.130","../audio/47-5-fem.mp3"," ","","sobremesa","","","",""
"","1408","audio-keyboard-response","171","325794","0.0-3.0-1.131","../audio/47-6-fem.mp3"," ","","no","","","",""
"","1320","audio-keyboard-response","172","327394","0.0-3.0-1.132","../audio/47-7-fem.mp3"," ","","almoço.","","","",""
"","null","html-keyboard-response","173","328666","0.0-3.0-0.133-0.133","<span style= ""font-size:30px; font-family: monospace"">+</span>","null","fixation","","","","",""
"","2000","audio-keyboard-response","174","330946","0.0-3.0-1.133","../audio/46-1-masc.mp3"," ","","Meu","","","",""
"","1411","audio-keyboard-response","175","332626","0.0-3.0-1.134","../audio/46-2-masc.mp3"," ","","primo","","","",""
"","1189","audio-keyboard-response","176","334082","0.0-3.0-1.135","../audio/46-3-masc.mp3"," ","","estava","","","",""
"","1312","audio-keyboard-response","177","335666","0.0-3.0-1.136","../audio/46-4-masc.mp3"," ","","muito","","","",""
"","1299","audio-keyboard-response","178","337250","0.0-3.0-1.137","../audio/46-5-masc.mp3"," ","","deprimido","","","",""
"","931","audio-keyboard-response","179","338466","0.0-3.0-1.138","../audio/46-6-masc.mp3"," ","","no","","","",""
"","1219","audio-keyboard-response","180","339954","0.0-3.0-1.139","../audio/46-7-masc.mp3"," ","","inverno.","","","",""
"","null","html-keyboard-response","181","341241","0.0-3.0-0.140-0.140","<span style= ""font-size:30px; font-family: monospace"">+</span>","null","fixation","","","","",""
"","1061","audio-keyboard-response","182","342578","0.0-3.0-1.140","../audio/48-1-masc.mp3"," ","","Ela","","","",""
"","1011","audio-keyboard-response","183","343858","0.0-3.0-1.141","../audio/48-2-masc.mp3"," ","","come","","","",""
"","1000","audio-keyboard-response","184","345122","0.0-3.0-1.142","../audio/48-3-masc.mp3"," ","","feijão","","","",""
"","941","audio-keyboard-response","185","346338","0.0-3.0-1.143","../audio/48-4-masc.mp3"," ","","com","","","",""
"","971","audio-keyboard-response","186","347586","0.0-3.0-1.144","../audio/48-5-masc.mp3"," ","","arroz","","","",""
"","1309","audio-keyboard-response","187","349170","0.0-3.0-1.145","../audio/48-6-masc.mp3"," ","","todos","","","",""
"","971","audio-keyboard-response","188","350418","0.0-3.0-1.146","../audio/48-7-masc.mp3"," ","","os","","","",""
"","1141","audio-keyboard-response","189","351826","0.0-3.0-1.147","../audio/48-8-masc.mp3"," ","","dias.","","","",""
"","null","html-keyboard-response","190","353093","0.0-3.0-0.148-0.148","<span style= ""font-size:30px; font-family: monospace"">+</span>","null","fixation","","","","",""
"","1131","audio-keyboard-response","191","354499","0.0-3.0-1.148","../audio/50-1-masc.mp3"," ","","O","","","",""
"","1349","audio-keyboard-response","192","356114","0.0-3.0-1.149","../audio/50-2-masc.mp3"," ","","pássaro","","","",""
"","1309","audio-keyboard-response","193","357699","0.0-3.0-1.150","../audio/50-3-masc.mp3"," ","","fugiu","","","",""
"","1109","audio-keyboard-response","194","359090","0.0-3.0-1.151","../audio/50-4-masc.mp3"," ","","da","","","",""
"","1189","audio-keyboard-response","195","360540","0.0-3.0-1.152","../audio/50-5-masc.mp3"," ","","gaiola","","","",""
"","1019","audio-keyboard-response","196","361836","0.0-3.0-1.153","../audio/50-6-masc.mp3"," ","","pela","","","",""
"","1189","audio-keyboard-response","197","363308","0.0-3.0-1.154","../audio/50-7-masc.mp3"," ","","portinhola.","","","",""
"","10080","html-keyboard-response","198","373645","0.0-3.0-2.154-0.154","<span style=""font-size:25px; font-family: monospace"">O pássaro fugiu da gaiola?</span>","s","","","O pássaro fugiu da gaiola?","null","exp-sent","false"
"","null","html-keyboard-response","199","375175","0.0-3.0-0.155-0.155","<span style= ""font-size:30px; font-family: monospace"">+</span>","null","fixation","","","","",""
"","1240","audio-keyboard-response","200","376700","0.0-3.0-1.155","../audio/72-1-masc.mp3"," ","","A","","","",""
"","1389","audio-keyboard-response","201","378364","0.0-3.0-1.156","../audio/72-2-masc.mp3"," ","","vencedora","","","",""
"","1432","audio-keyboard-response","202","380060","0.0-3.0-1.157","../audio/72-3-masc.mp3"," ","","recebeu","","","",""
"","1080","audio-keyboard-response","203","381420","0.0-3.0-1.158","../audio/72-4-masc.mp3"," ","","um","","","",""
"","1139","audio-keyboard-response","204","382828","0.0-3.0-1.159","../audio/72-5-masc.mp3"," ","","prêmio","","","",""
"","1200","audio-keyboard-response","205","384301","0.0-3.0-1.160","../audio/72-6-masc.mp3"," ","","em","","","",""
"","1379","audio-keyboard-response","206","385948","0.0-3.0-1.161","../audio/72-7-masc.mp3"," ","","dinheiro.","","","",""
"","null","html-keyboard-response","207","387235","0.0-3.0-0.162-0.162","<span style= ""font-size:30px; font-family: monospace"">+</span>","null","fixation","","","","",""
"","1240","audio-keyboard-response","208","388748","0.0-3.0-1.162","../audio/74-1-fem.mp3"," ","","Este","","","",""
"","1360","audio-keyboard-response","209","390380","0.0-3.0-1.163","../audio/74-2-fem.mp3"," ","","emprego","","","",""
"","1208","audio-keyboard-response","210","391868","0.0-3.0-1.164","../audio/74-3-fem.mp3"," ","","é","","","",""
"","1309","audio-keyboard-response","211","393452","0.0-3.0-1.165","../audio/74-4-fem.mp3"," ","","muito","","","",""
"","1659","audio-keyboard-response","212","395389","0.0-3.0-1.166","../audio/74-5-fem.mp3"," ","","cansativo","","","",""
"","1301","audio-keyboard-response","213","396972","0.0-3.0-1.167","../audio/74-6-fem.mp3"," ","","a","","","",""
"","1339","audio-keyboard-response","214","398588","0.0-3.0-1.168","../audio/74-7-fem.mp3"," ","","longo","","","",""
"","1221","audio-keyboard-response","215","400092","0.0-3.0-1.169","../audio/74-8-fem.mp3"," ","","prazo.","","","",""
"","null","html-keyboard-response","216","401365","0.0-3.0-0.170-0.170","<span style= ""font-size:30px; font-family: monospace"">+</span>","null","fixation","","","","",""
"","851","audio-keyboard-response","217","402493","0.0-3.0-1.170","../audio/73-1-masc.mp3"," ","","O","","","",""
"","1229","audio-keyboard-response","218","404012","0.0-3.0-1.171","../audio/73-2-masc.mp3"," ","","cliente","","","",""
"","1269","audio-keyboard-response","219","405564","0.0-3.0-1.172","../audio/73-3-masc.mp3"," ","","era","","","",""
"","1421","audio-keyboard-response","220","407260","0.0-3.0-1.173","../audio/73-4-masc.mp3"," ","","um","","","",""
"","1509","audio-keyboard-response","221","409052","0.0-3.0-1.174","../audio/73-5-masc.mp3"," ","","homem","","","",""
"","1301","audio-keyboard-response","222","410620","0.0-3.0-1.175","../audio/73-6-masc.mp3"," ","","muito","","","",""
"","2099","audio-keyboard-response","223","413004","0.0-3.0-1.176","../audio/73-7-masc.mp3"," ","","educado.","","","",""
"","null","html-keyboard-response","224","414275","0.0-3.0-0.177-0.177","<span style= ""font-size:30px; font-family: monospace"">+</span>","null","fixation","","","","",""
"","1480","audio-keyboard-response","225","416045","0.0-3.0-1.177","../audio/71-1-masc.mp3"," ","","Minhas","","","",""
"","1131","audio-keyboard-response","226","417452","0.0-3.0-1.178","../audio/71-2-masc.mp3"," ","","comidas","","","",""
"","1509","audio-keyboard-response","227","419244","0.0-3.0-1.179","../audio/71-3-masc.mp3"," ","","favoritas","","","",""
"","1291","audio-keyboard-response","228","420800","0.0-3.0-1.180","../audio/71-4-masc.mp3"," ","","são","","","",""
"","1581","audio-keyboard-response","229","422656","0.0-3.0-1.181","../audio/71-5-masc.mp3"," ","","morango","","","",""
"","2629","audio-keyboard-response","230","425552","0.0-3.0-1.182","../audio/71-6-masc.mp3"," ","","e","","","",""
"","1091","audio-keyboard-response","231","426928","0.0-3.0-1.183","../audio/71-7-masc.mp3"," ","","uva.","","","",""
"","null","html-keyboard-response","232","428198","0.0-3.0-0.184-0.184","<span style= ""font-size:30px; font-family: monospace"">+</span>","null","fixation","","","","",""
"","1789","audio-keyboard-response","233","430272","0.0-3.0-1.184","../audio/75-1-fem.mp3"," ","","Só","","","",""
"","1691","audio-keyboard-response","234","432256","0.0-3.0-1.185","../audio/75-2-fem.mp3"," ","","existe","","","",""
"","1080","audio-keyboard-response","235","433600","0.0-3.0-1.186","../audio/75-3-fem.mp3"," ","","uma","","","",""
"","1120","audio-keyboard-response","236","434992","0.0-3.0-1.187","../audio/75-4-fem.mp3"," ","","pessoa","","","",""
"","1320","audio-keyboard-response","237","436592","0.0-3.0-1.188","../audio/75-5-fem.mp3"," ","","canhota","","","",""
"","1499","audio-keyboard-response","238","438368","0.0-3.0-1.189","../audio/75-6-fem.mp3"," ","","nesta","","","",""
"","1661","audio-keyboard-response","239","440304","0.0-3.0-1.190","../audio/75-7-fem.mp3"," ","","cidade.","","","",""
"","6913","html-keyboard-response","240","447472","0.0-3.0-2.190-0.190","<span style=""font-size:25px; font-family: monospace"">Só existe uma pessoa canhota na cidade?</span>","n","","","Só existe uma pessoa canhota na cidade?","null","exp-sent","false"
"","null","html-keyboard-response","241","448980","0.0-3.0-0.191-0.191","<span style= ""font-size:30px; font-family: monospace"">+</span>","null","fixation","","","","",""
"","952","audio-keyboard-response","242","450224","0.0-3.0-1.191","../audio/53-1-masc.mp3"," ","","O","","","",""
"","1139","audio-keyboard-response","243","451632","0.0-3.0-1.192","../audio/53-2-masc.mp3"," ","","médico","","","",""
"","851","audio-keyboard-response","244","452768","0.0-3.0-1.193","../audio/53-3-masc.mp3"," ","","foi","","","",""
"","1229","audio-keyboard-response","245","454288","0.0-3.0-1.194","../audio/53-4-masc.mp3"," ","","bastante","","","",""
"","1051","audio-keyboard-response","246","455616","0.0-3.0-1.195","../audio/53-5-masc.mp3"," ","","preciso","","","",""
"","1080","audio-keyboard-response","247","456976","0.0-3.0-1.196","../audio/53-6-masc.mp3"," ","","durante","","","",""
"","1069","audio-keyboard-response","248","458320","0.0-3.0-1.197","../audio/53-7-masc.mp3"," ","","a","","","",""
"","1280","audio-keyboard-response","249","459888","0.0-3.0-1.198","../audio/53-8-masc.mp3"," ","","cirurgia.","","","",""
"","null","html-keyboard-response","250","461164","0.0-3.0-0.199-0.199","<span style= ""font-size:30px; font-family: monospace"">+</span>","null","fixation","","","","",""
"","971","audio-keyboard-response","251","462400","0.0-3.0-1.199","../audio/52-1-masc.mp3"," ","","Às","","","",""
"","901","audio-keyboard-response","252","463584","0.0-3.0-1.200","../audio/52-2-masc.mp3"," ","","vezes","","","",""
"","771","audio-keyboard-response","253","464624","0.0-3.0-1.201","../audio/52-3-masc.mp3"," ","","eu","","","",""
"","829","audio-keyboard-response","254","465728","0.0-3.0-1.202","../audio/52-4-masc.mp3"," ","","tenho","","","",""
"","1011","audio-keyboard-response","255","467024","0.0-3.0-1.203","../audio/52-5-masc.mp3"," ","","azia","","","",""
"","1059","audio-keyboard-response","256","468352","0.0-3.0-1.204","../audio/52-6-masc.mp3"," ","","depois","","","",""
"","859","audio-keyboard-response","257","469488","0.0-3.0-1.205","../audio/52-7-masc.mp3"," ","","da","","","",""
"","1480","audio-keyboard-response","258","471248","0.0-3.0-1.206","../audio/52-8-masc.mp3"," ","","janta.","","","",""
"","null","html-keyboard-response","259","472508","0.0-3.0-0.207-0.207","<span style= ""font-size:30px; font-family: monospace"">+</span>","null","fixation","","","","",""
"","899","audio-keyboard-response","260","473680","0.0-3.0-1.207","../audio/54-1-masc.mp3"," ","","Estou","","","",""
"","861","audio-keyboard-response","261","474816","0.0-3.0-1.208","../audio/54-2-masc.mp3"," ","","com","","","",""
"","1160","audio-keyboard-response","262","476256","0.0-3.0-1.209","../audio/54-3-masc.mp3"," ","","medo","","","",""
"","1109","audio-keyboard-response","263","477648","0.0-3.0-1.210","../audio/54-4-masc.mp3"," ","","da","","","",""
"","1069","audio-keyboard-response","264","479008","0.0-3.0-1.211","../audio/54-5-masc.mp3"," ","","atual","","","",""
"","1019","audio-keyboard-response","265","480320","0.0-3.0-1.212","../audio/54-6-masc.mp3"," ","","organização","","","",""
"","1381","audio-keyboard-response","266","481980","0.0-3.0-1.213","../audio/54-7-masc.mp3"," ","","do","","","",""
"","1189","audio-keyboard-response","267","483436","0.0-3.0-1.214","../audio/54-8-masc.mp3"," ","","país.","","","",""
"","null","html-keyboard-response","268","484704","0.0-3.0-0.215-0.215","<span style= ""font-size:30px; font-family: monospace"">+</span>","null","fixation","","","","",""
"","1971","audio-keyboard-response","269","486972","0.0-3.0-1.215","../audio/51-1-fem.mp3"," ","","Suco","","","",""
"","989","audio-keyboard-response","270","488236","0.0-3.0-1.216","../audio/51-2-fem.mp3"," ","","de","","","",""
"","1621","audio-keyboard-response","271","490140","0.0-3.0-1.217","../audio/51-3-fem.mp3"," ","","acerola","","","",""
"","1368","audio-keyboard-response","272","491788","0.0-3.0-1.218","../audio/51-4-fem.mp3"," ","","é","","","",""
"","1840","audio-keyboard-response","273","493900","0.0-3.0-1.219","../audio/51-5-fem.mp3"," ","","azedo","","","",""
"","1219","audio-keyboard-response","274","495404","0.0-3.0-1.220","../audio/51-6-fem.mp3"," ","","e","","","",""
"","1611","audio-keyboard-response","275","497292","0.0-3.0-1.221","../audio/51-7-fem.mp3"," ","","até","","","",""
"","2909","audio-keyboard-response","276","500476","0.0-3.0-1.222","../audio/51-8-fem.mp3"," ","","barato.","","","",""
"","null","html-keyboard-response","277","501739","0.0-3.0-0.223-0.223","<span style= ""font-size:30px; font-family: monospace"">+</span>","null","fixation","","","","",""
"","1109","audio-keyboard-response","278","503116","0.0-3.0-1.223","../audio/55-1-fem.mp3"," ","","O","","","",""
"","1232","audio-keyboard-response","279","504620","0.0-3.0-1.224","../audio/55-2-fem.mp3"," ","","insulto","","","",""
"","1349","audio-keyboard-response","280","506252","0.0-3.0-1.225","../audio/55-3-fem.mp3"," ","","recente","","","",""
"","1080","audio-keyboard-response","281","507612","0.0-3.0-1.226","../audio/55-4-fem.mp3"," ","","causou","","","",""
"","1549","audio-keyboard-response","282","509436","0.0-3.0-1.227","../audio/55-5-fem.mp3"," ","","indignação","","","",""
"","1261","audio-keyboard-response","283","510972","0.0-3.0-1.228","../audio/55-6-fem.mp3"," ","","em","","","",""
"","1149","audio-keyboard-response","284","512396","0.0-3.0-1.229","../audio/55-7-fem.mp3"," ","","todos.","","","",""
"","6771","html-keyboard-response","285","519436","0.0-3.0-2.229-0.229","<span style=""font-size:25px; font-family: monospace"">O insulto causou calmaria?</span>","s","","","O insulto causou calmaria?","null","exp-sent","false"
"","null","html-keyboard-response","286","520964","0.0-3.0-0.230-0.230","<span style= ""font-size:30px; font-family: monospace"">+</span>","null","fixation","","","","",""
"","1000","audio-keyboard-response","287","522252","0.0-3.0-1.230","../audio/26-1-masc.mp3"," ","","Amanhã","","","",""
"","1171","audio-keyboard-response","288","523692","0.0-3.0-1.231","../audio/26-2-masc.mp3"," ","","temos","","","",""
"","1301","audio-keyboard-response","289","525260","0.0-3.0-1.232","../audio/26-3-masc.mp3"," ","","festa","","","",""
"","1189","audio-keyboard-response","290","526716","0.0-3.0-1.233","../audio/26-4-masc.mp3"," ","","na","","","",""
"","1091","audio-keyboard-response","291","528076","0.0-3.0-1.234","../audio/26-5-masc.mp3"," ","","piscina","","","",""
"","1360","audio-keyboard-response","292","529724","0.0-3.0-1.235","../audio/26-6-masc.mp3"," ","","o","","","",""
"","1389","audio-keyboard-response","293","531404","0.0-3.0-1.236","../audio/26-7-masc.mp3"," ","","dia","","","",""
"","960","audio-keyboard-response","294","532636","0.0-3.0-1.237","../audio/26-8-masc.mp3"," ","","todo.","","","",""
"","null","html-keyboard-response","295","533915","0.0-3.0-0.238-0.238","<span style= ""font-size:30px; font-family: monospace"">+</span>","null","fixation","","","","",""
"","771","audio-keyboard-response","296","534956","0.0-3.0-1.238","../audio/29-1-fem.mp3"," ","","Hoje","","","",""
"","1109","audio-keyboard-response","297","536364","0.0-3.0-1.239","../audio/29-2-fem.mp3"," ","","vamos","","","",""
"","1251","audio-keyboard-response","298","537900","0.0-3.0-1.240","../audio/29-3-fem.mp3"," ","","fazer","","","",""
"","1419","audio-keyboard-response","299","539596","0.0-3.0-1.241","../audio/29-4-fem.mp3"," ","","uma","","","",""
"","1589","audio-keyboard-response","300","541468","0.0-3.0-1.242","../audio/29-5-fem.mp3"," ","","atividade","","","",""
"","1251","audio-keyboard-response","301","543009","0.0-3.0-1.243","../audio/29-6-fem.mp3"," ","","sobre","","","",""
"","1261","audio-keyboard-response","302","544545","0.0-3.0-1.244","../audio/29-7-fem.mp3"," ","","fauna","","","",""
"","1360","audio-keyboard-response","303","546193","0.0-3.0-1.245","../audio/29-8-fem.mp3"," ","","marinha.","","","",""
"","null","html-keyboard-response","304","547479","0.0-3.0-0.246-0.246","<span style= ""font-size:30px; font-family: monospace"">+</span>","null","fixation","","","","",""
"","1131","audio-keyboard-response","305","548881","0.0-3.0-1.246","../audio/27-1-masc.mp3"," ","","O","","","",""
"","1120","audio-keyboard-response","306","550289","0.0-3.0-1.247","../audio/27-2-masc.mp3"," ","","dinheiro","","","",""
"","1261","audio-keyboard-response","307","551825","0.0-3.0-1.248","../audio/27-3-masc.mp3"," ","","chegou","","","",""
"","1459","audio-keyboard-response","308","553553","0.0-3.0-1.249","../audio/27-4-masc.mp3"," ","","à","","","",""
"","1211","audio-keyboard-response","309","555057","0.0-3.0-1.250","../audio/27-5-masc.mp3"," ","","elite","","","",""
"","1160","audio-keyboard-response","310","556497","0.0-3.0-1.251","../audio/27-6-masc.mp3"," ","","deste","","","",""
"","1560","audio-keyboard-response","311","558337","0.0-3.0-1.252","../audio/27-7-masc.mp3"," ","","país.","","","",""
"","null","html-keyboard-response","312","559609","0.0-3.0-0.253-0.253","<span style= ""font-size:30px; font-family: monospace"">+</span>","null","fixation","","","","",""
"","1109","audio-keyboard-response","313","561009","0.0-3.0-1.253","../audio/28-1-masc.mp3"," ","","O","","","",""
"","1101","audio-keyboard-response","314","562385","0.0-3.0-1.254","../audio/28-2-masc.mp3"," ","","time","","","",""
"","899","audio-keyboard-response","315","563569","0.0-3.0-1.255","../audio/28-3-masc.mp3"," ","","quer","","","",""
"","851","audio-keyboard-response","316","564689","0.0-3.0-1.256","../audio/28-4-masc.mp3"," ","","a","","","",""
"","1032","audio-keyboard-response","317","565985","0.0-3.0-1.257","../audio/28-5-masc.mp3"," ","","vitória","","","",""
"","851","audio-keyboard-response","318","567105","0.0-3.0-1.258","../audio/28-6-masc.mp3"," ","","no","","","",""
"","1000","audio-keyboard-response","319","568385","0.0-3.0-1.259","../audio/28-7-masc.mp3"," ","","jogo","","","",""
"","1019","audio-keyboard-response","320","569681","0.0-3.0-1.260","../audio/28-8-masc.mp3"," ","","de","","","",""
"","1091","audio-keyboard-response","321","571057","0.0-3.0-1.261","../audio/28-9-masc.mp3"," ","","vôlei.","","","",""
"","null","html-keyboard-response","322","572329","0.0-3.0-0.262-0.262","<span style= ""font-size:30px; font-family: monospace"">+</span>","null","fixation","","","","",""
"","949","audio-keyboard-response","323","573569","0.0-3.0-1.262","../audio/30-1-fem.mp3"," ","","O","","","",""
"","1280","audio-keyboard-response","324","575137","0.0-3.0-1.263","../audio/30-2-fem.mp3"," ","","funcionário","","","",""
"","1171","audio-keyboard-response","325","576577","0.0-3.0-1.264","../audio/30-3-fem.mp3"," ","","entregou","","","",""
"","851","audio-keyboard-response","326","577697","0.0-3.0-1.265","../audio/30-4-fem.mp3"," ","","o","","","",""
"","1211","audio-keyboard-response","327","579185","0.0-3.0-1.266","../audio/30-5-fem.mp3"," ","","restante","","","",""
"","739","audio-keyboard-response","328","580209","0.0-3.0-1.267","../audio/30-6-fem.mp3"," ","","do","","","",""
"","1091","audio-keyboard-response","329","581569","0.0-3.0-1.268","../audio/30-7-fem.mp3"," ","","dinheiro.","","","",""
"","5478","html-keyboard-response","330","587297","0.0-3.0-2.268-0.268","<span style=""font-size:25px; font-family: monospace"">O funcionário entregou o contrato?</span>","s","","","O funcionário entregou o contrato?","null","exp-sent","false"
"","null","html-keyboard-response","331","588820","0.0-3.0-0.269-0.269","<span style= ""font-size:30px; font-family: monospace"">+</span>","null","fixation","","","","",""
"","1949","audio-keyboard-response","332","591057","0.0-3.0-1.269","../audio/42-1-masc.mp3"," ","","Eu","","","",""
"","1029","audio-keyboard-response","333","592369","0.0-3.0-1.270","../audio/42-2-masc.mp3"," ","","fui","","","",""
"","1011","audio-keyboard-response","334","593649","0.0-3.0-1.271","../audio/42-3-masc.mp3"," ","","a","","","",""
"","1080","audio-keyboard-response","335","595009","0.0-3.0-1.272","../audio/42-4-masc.mp3"," ","","uma","","","",""
"","1320","audio-keyboard-response","336","596593","0.0-3.0-1.273","../audio/42-5-masc.mp3"," ","","loja","","","",""
"","1168","audio-keyboard-response","337","598033","0.0-3.0-1.274","../audio/42-6-masc.mp3"," ","","de","","","",""
"","1320","audio-keyboard-response","338","599633","0.0-3.0-1.275","../audio/42-7-masc.mp3"," ","","móveis","","","",""
"","1051","audio-keyboard-response","339","600961","0.0-3.0-1.276","../audio/42-8-masc.mp3"," ","","no","","","",""
"","2200","audio-keyboard-response","340","603439","0.0-3.0-1.277","../audio/42-9-masc.mp3"," ","","bairro.","","","",""
"","null","html-keyboard-response","341","604717","0.0-3.0-0.278-0.278","<span style= ""font-size:30px; font-family: monospace"">+</span>","null","fixation","","","","",""
"","880","audio-keyboard-response","342","605870","0.0-3.0-1.278","../audio/41-1-fem.mp3"," ","","A","","","",""
"","1400","audio-keyboard-response","343","607551","0.0-3.0-1.279","../audio/41-2-fem.mp3"," ","","novela","","","",""
"","1320","audio-keyboard-response","344","609151","0.0-3.0-1.280","../audio/41-3-fem.mp3"," ","","falava","","","",""
"","909","audio-keyboard-response","345","610335","0.0-3.0-1.281","../audio/41-4-fem.mp3"," ","","de","","","",""
"","1160","audio-keyboard-response","346","611775","0.0-3.0-1.282","../audio/41-5-fem.mp3"," ","","paixão","","","",""
"","869","audio-keyboard-response","347","612927","0.0-3.0-1.283","../audio/41-6-fem.mp3"," ","","e","","","",""
"","1149","audio-keyboard-response","348","614351","0.0-3.0-1.284","../audio/41-7-fem.mp3"," ","","comédia.","","","",""
"","null","html-keyboard-response","349","615637","0.0-3.0-0.285-0.285","<span style= ""font-size:30px; font-family: monospace"">+</span>","null","fixation","","","","",""
"","520","audio-keyboard-response","350","616431","0.0-3.0-1.285","../audio/44-1-fem.mp3"," ","","Meus","","","",""
"","1920","audio-keyboard-response","351","618639","0.0-3.0-1.286","../audio/44-2-fem.mp3"," ","","irmãos","","","",""
"","1240","audio-keyboard-response","352","620159","0.0-3.0-1.287","../audio/44-3-fem.mp3"," ","","brigam","","","",""
"","1189","audio-keyboard-response","353","621631","0.0-3.0-1.288","../audio/44-4-fem.mp3"," ","","por","","","",""
"","1480","audio-keyboard-response","354","623391","0.0-3.0-1.289","../audio/44-5-fem.mp3"," ","","bobagem","","","",""
"","1272","audio-keyboard-response","355","624943","0.0-3.0-1.290","../audio/44-6-fem.mp3"," ","","todos","","","",""
"","1048","audio-keyboard-response","356","626271","0.0-3.0-1.291","../audio/44-7-fem.mp3"," ","","os","","","",""
"","1749","audio-keyboard-response","357","628287","0.0-3.0-1.292","../audio/44-8-fem.mp3"," ","","dias.","","","",""
"","null","html-keyboard-response","358","629567","0.0-3.0-0.293-0.293","<span style= ""font-size:30px; font-family: monospace"">+</span>","null","fixation","","","","",""
"","760","audio-keyboard-response","359","630607","0.0-3.0-1.293","../audio/43-1-fem.mp3"," ","","Eu","","","",""
"","1040","audio-keyboard-response","360","631935","0.0-3.0-1.294","../audio/43-2-fem.mp3"," ","","achei","","","",""
"","1061","audio-keyboard-response","361","633263","0.0-3.0-1.295","../audio/43-3-fem.mp3"," ","","um","","","",""
"","1200","audio-keyboard-response","362","634735","0.0-3.0-1.296","../audio/43-4-fem.mp3"," ","","colchão","","","",""
"","1011","audio-keyboard-response","363","636015","0.0-3.0-1.297","../audio/43-5-fem.mp3"," ","","velho","","","",""
"","760","audio-keyboard-response","364","637039","0.0-3.0-1.298","../audio/43-6-fem.mp3"," ","","e","","","",""
"","1251","audio-keyboard-response","365","638575","0.0-3.0-1.299","../audio/43-7-fem.mp3"," ","","imundo","","","",""
"","1019","audio-keyboard-response","366","639871","0.0-3.0-1.300","../audio/43-8-fem.mp3"," ","","na","","","",""
"","2331","audio-keyboard-response","367","642479","0.0-3.0-1.301","../audio/43-9-fem.mp3"," ","","casa.","","","",""
"","null","html-keyboard-response","368","643750","0.0-3.0-0.302-0.302","<span style= ""font-size:30px; font-family: monospace"">+</span>","null","fixation","","","","",""
"","861","audio-keyboard-response","369","644895","0.0-3.0-1.302","../audio/45-1-masc.mp3"," ","","O","","","",""
"","920","audio-keyboard-response","370","646095","0.0-3.0-1.303","../audio/45-2-masc.mp3"," ","","homem","","","",""
"","949","audio-keyboard-response","371","647311","0.0-3.0-1.304","../audio/45-3-masc.mp3"," ","","pagou","","","",""
"","859","audio-keyboard-response","372","648447","0.0-3.0-1.305","../audio/45-4-masc.mp3"," ","","o","","","",""
"","1040","audio-keyboard-response","373","649759","0.0-3.0-1.306","../audio/45-5-masc.mp3"," ","","aluguel","","","",""
"","800","audio-keyboard-response","374","650831","0.0-3.0-1.307","../audio/45-6-masc.mp3"," ","","com","","","",""
"","2411","audio-keyboard-response","375","653519","0.0-3.0-1.308","../audio/45-7-masc.mp3"," ","","atraso.","","","",""
"","10340","html-keyboard-response","376","664129","0.0-3.0-2.308-0.308","<span style=""font-size:25px; font-family: monospace"">O homem pagou o aluguel em dia?</span>","s","","","O homem pagou o aluguel em dia?","null","exp-sent","false"
"","null","html-keyboard-response","377","665668","0.0-3.0-0.309-0.309","<span style= ""font-size:30px; font-family: monospace"">+</span>","null","fixation","","","","",""
"","1499","audio-keyboard-response","378","667440","0.0-3.0-1.309","../audio/22-1-masc.mp3"," ","","Eu","","","",""
"","1451","audio-keyboard-response","379","669168","0.0-3.0-1.310","../audio/22-2-masc.mp3"," ","","detesto","","","",""
"","1000","audio-keyboard-response","380","670432","0.0-3.0-1.311","../audio/22-3-masc.mp3"," ","","fumaça","","","",""
"","939","audio-keyboard-response","381","671648","0.0-3.0-1.312","../audio/22-4-masc.mp3"," ","","de","","","",""
"","1589","audio-keyboard-response","382","673520","0.0-3.0-1.313","../audio/22-5-masc.mp3"," ","","cachimbo","","","",""
"","1019","audio-keyboard-response","383","674800","0.0-3.0-1.314","../audio/22-6-masc.mp3"," ","","e","","","",""
"","1160","audio-keyboard-response","384","676240","0.0-3.0-1.315","../audio/22-7-masc.mp3"," ","","de","","","",""
"","2421","audio-keyboard-response","385","678944","0.0-3.0-1.316","../audio/22-8-masc.mp3"," ","","cigarro.","","","",""
"","null","html-keyboard-response","386","680211","0.0-3.0-0.317-0.317","<span style= ""font-size:30px; font-family: monospace"">+</span>","null","fixation","","","","",""
"","891","audio-keyboard-response","387","681376","0.0-3.0-1.317","../audio/24-1-fem.mp3"," ","","As","","","",""
"","981","audio-keyboard-response","388","682624","0.0-3.0-1.318","../audio/24-2-fem.mp3"," ","","crianças","","","",""
"","819","audio-keyboard-response","389","683728","0.0-3.0-1.319","../audio/24-3-fem.mp3"," ","","vão","","","",""
"","1251","audio-keyboard-response","390","685264","0.0-3.0-1.320","../audio/24-4-fem.mp3"," ","","ao","","","",""
"","1389","audio-keyboard-response","391","686928","0.0-3.0-1.321","../audio/24-5-fem.mp3"," ","","cinema","","","",""
"","1272","audio-keyboard-response","392","688464","0.0-3.0-1.322","../audio/24-6-fem.mp3"," ","","mais","","","",""
"","1509","audio-keyboard-response","393","690240","0.0-3.0-1.323","../audio/24-7-fem.mp3"," ","","tarde.","","","",""
"","null","html-keyboard-response","394","691518","0.0-3.0-0.324-0.324","<span style= ""font-size:30px; font-family: monospace"">+</span>","null","fixation","","","","",""
"","1171","audio-keyboard-response","395","692976","0.0-3.0-1.324","../audio/23-1-masc.mp3"," ","","Português","","","",""
"","840","audio-keyboard-response","396","694096","0.0-3.0-1.325","../audio/23-2-masc.mp3"," ","","é","","","",""
"","880","audio-keyboard-response","397","695248","0.0-3.0-1.326","../audio/23-3-masc.mp3"," ","","um","","","",""
"","1200","audio-keyboard-response","398","696720","0.0-3.0-1.327","../audio/23-4-masc.mp3"," ","","assunto","","","",""
"","1749","audio-keyboard-response","399","698752","0.0-3.0-1.328","../audio/23-5-masc.mp3"," ","","elementar","","","",""
"","1168","audio-keyboard-response","400","700192","0.0-3.0-1.329","../audio/23-6-masc.mp3"," ","","para","","","",""
"","1019","audio-keyboard-response","401","701488","0.0-3.0-1.330","../audio/23-7-masc.mp3"," ","","os","","","",""
"","1789","audio-keyboard-response","402","703552","0.0-3.0-1.331","../audio/23-8-masc.mp3"," ","","alunos.","","","",""
"","null","html-keyboard-response","403","704829","0.0-3.0-0.332-0.332","<span style= ""font-size:30px; font-family: monospace"">+</span>","null","fixation","","","","",""
"","1000","audio-keyboard-response","404","706112","0.0-3.0-1.332","../audio/21-1-masc.mp3"," ","","Precisamos","","","",""
"","840","audio-keyboard-response","405","707232","0.0-3.0-1.333","../audio/21-2-masc.mp3"," ","","de","","","",""
"","1400","audio-keyboard-response","406","708912","0.0-3.0-1.334","../audio/21-3-masc.mp3"," ","","paciência","","","",""
"","909","audio-keyboard-response","407","710096","0.0-3.0-1.335","../audio/21-4-masc.mp3"," ","","e","","","",""
"","1429","audio-keyboard-response","408","711792","0.0-3.0-1.336","../audio/21-5-masc.mp3"," ","","bondade","","","",""
"","979","audio-keyboard-response","409","713040","0.0-3.0-1.337","../audio/21-6-masc.mp3"," ","","para","","","",""
"","840","audio-keyboard-response","410","714160","0.0-3.0-1.338","../audio/21-7-masc.mp3"," ","","um","","","",""
"","1291","audio-keyboard-response","411","715728","0.0-3.0-1.339","../audio/21-8-masc.mp3"," ","","mundo","","","",""
"","2312","audio-keyboard-response","412","718304","0.0-3.0-1.340","../audio/21-9-masc.mp3"," ","","melhor.","","","",""
"","null","html-keyboard-response","413","719578","0.0-3.0-0.341-0.341","<span style= ""font-size:30px; font-family: monospace"">+</span>","null","fixation","","","","",""
"","1040","audio-keyboard-response","414","720896","0.0-3.0-1.341","../audio/25-1-fem.mp3"," ","","Ela","","","",""
"","1109","audio-keyboard-response","415","722272","0.0-3.0-1.342","../audio/25-2-fem.mp3"," ","","faz","","","",""
"","1059","audio-keyboard-response","416","723600","0.0-3.0-1.343","../audio/25-3-fem.mp3"," ","","tanto","","","",""
"","1021","audio-keyboard-response","417","724888","0.0-3.0-1.344","../audio/25-4-fem.mp3"," ","","cabelo","","","",""
"","1000","audio-keyboard-response","418","726152","0.0-3.0-1.345","../audio/25-5-fem.mp3"," ","","liso","","","",""
"","1091","audio-keyboard-response","419","727528","0.0-3.0-1.346","../audio/25-6-fem.mp3"," ","","quanto","","","",""
"","931","audio-keyboard-response","420","728728","0.0-3.0-1.347","../audio/25-7-fem.mp3"," ","","cacheado.","","","",""
"","2979","html-keyboard-response","421","731960","0.0-3.0-2.347-0.347","<span style=""font-size:25px; font-family: monospace"">Ela só faz cabelo cacheado?</span>","s","","","Ela só faz cabelo cacheado?","null","exp-sent","false"
"","null","html-keyboard-response","422","733471","0.0-3.0-0.348-0.348","<span style= ""font-size:30px; font-family: monospace"">+</span>","null","fixation","","","","",""
"","1112","audio-keyboard-response","423","734856","0.0-3.0-1.348","../audio/38-1-masc.mp3"," ","","A","","","",""
"","1149","audio-keyboard-response","424","736280","0.0-3.0-1.349","../audio/38-2-masc.mp3"," ","","empresa","","","",""
"","979","audio-keyboard-response","425","737544","0.0-3.0-1.350","../audio/38-3-masc.mp3"," ","","criou","","","",""
"","1019","audio-keyboard-response","426","738840","0.0-3.0-1.351","../audio/38-4-masc.mp3"," ","","a","","","",""
"","1320","audio-keyboard-response","427","740440","0.0-3.0-1.352","../audio/38-5-masc.mp3"," ","","patente","","","",""
"","1021","audio-keyboard-response","428","741736","0.0-3.0-1.353","../audio/38-6-masc.mp3"," ","","da","","","",""
"","1829","audio-keyboard-response","429","743832","0.0-3.0-1.354","../audio/38-7-masc.mp3"," ","","frigideira.","","","",""
"","null","html-keyboard-response","430","745111","0.0-3.0-0.355-0.355","<span style= ""font-size:30px; font-family: monospace"">+</span>","null","fixation","","","","",""
"","661","audio-keyboard-response","431","746056","0.0-3.0-1.355","../audio/39-1-masc.mp3"," ","","O","","","",""
"","1200","audio-keyboard-response","432","747544","0.0-3.0-1.356","../audio/39-2-masc.mp3"," ","","conselho","","","",""
"","1019","audio-keyboard-response","433","748840","0.0-3.0-1.357","../audio/39-3-masc.mp3"," ","","foi","","","",""
"","1531","audio-keyboard-response","434","750648","0.0-3.0-1.358","../audio/39-4-masc.mp3"," ","","muito","","","",""
"","1171","audio-keyboard-response","435","752088","0.0-3.0-1.359","../audio/39-5-masc.mp3"," ","","útil","","","",""
"","1080","audio-keyboard-response","436","753448","0.0-3.0-1.360","../audio/39-6-masc.mp3"," ","","para","","","",""
"","1120","audio-keyboard-response","437","754840","0.0-3.0-1.361","../audio/39-7-masc.mp3"," ","","minha","","","",""
"","1840","audio-keyboard-response","438","756968","0.0-3.0-1.362","../audio/39-8-masc.mp3"," ","","tia.","","","",""
"","null","html-keyboard-response","439","758242","0.0-3.0-0.363-0.363","<span style= ""font-size:30px; font-family: monospace"">+</span>","null","fixation","","","","",""
"","1021","audio-keyboard-response","440","759528","0.0-3.0-1.363","../audio/36-1-fem.mp3"," ","","Meu","","","",""
"","909","audio-keyboard-response","441","760712","0.0-3.0-1.364","../audio/36-2-fem.mp3"," ","","tio","","","",""
"","1112","audio-keyboard-response","442","762136","0.0-3.0-1.365","../audio/36-3-fem.mp3"," ","","comprou","","","",""
"","989","audio-keyboard-response","443","763400","0.0-3.0-1.366","../audio/36-4-fem.mp3"," ","","um","","","",""
"","1240","audio-keyboard-response","444","764920","0.0-3.0-1.367","../audio/36-5-fem.mp3"," ","","filtro","","","",""
"","960","audio-keyboard-response","445","766152","0.0-3.0-1.368","../audio/36-6-fem.mp3"," ","","de","","","",""
"","1101","audio-keyboard-response","446","767528","0.0-3.0-1.369","../audio/36-7-fem.mp3"," ","","água","","","",""
"","1309","audio-keyboard-response","447","769112","0.0-3.0-1.370","../audio/36-8-fem.mp3"," ","","hoje","","","",""
"","1792","audio-keyboard-response","448","771176","0.0-3.0-1.371","../audio/36-9-fem.mp3"," ","","cedo.","","","",""
"","null","html-keyboard-response","449","772460","0.0-3.0-0.372-0.372","<span style= ""font-size:30px; font-family: monospace"">+</span>","null","fixation","","","","",""
"","971","audio-keyboard-response","450","773720","0.0-3.0-1.372","../audio/37-1-masc.mp3"," ","","Eu","","","",""
"","1171","audio-keyboard-response","451","775160","0.0-3.0-1.373","../audio/37-2-masc.mp3"," ","","adoro","","","",""
"","1272","audio-keyboard-response","452","776696","0.0-3.0-1.374","../audio/37-3-masc.mp3"," ","","suco","","","",""
"","1251","audio-keyboard-response","453","778216","0.0-3.0-1.375","../audio/37-4-masc.mp3"," ","","de","","","",""
"","1299","audio-keyboard-response","454","779784","0.0-3.0-1.376","../audio/37-5-masc.mp3"," ","","manga","","","",""
"","1019","audio-keyboard-response","455","781080","0.0-3.0-1.377","../audio/37-6-masc.mp3"," ","","com","","","",""
"","8669","audio-keyboard-response","456","790027","0.0-3.0-1.378","../audio/37-7-masc.mp3"," ","","hortelã.","","","",""
"","null","html-keyboard-response","457","791284","0.0-3.0-0.379-0.379","<span style= ""font-size:30px; font-family: monospace"">+</span>","null","fixation","","","","",""
"","1160","audio-keyboard-response","458","792731","0.0-3.0-1.379","../audio/40-1-masc.mp3"," ","","O","","","",""
"","1080","audio-keyboard-response","459","794075","0.0-3.0-1.380","../audio/40-2-masc.mp3"," ","","jogo","","","",""
"","1091","audio-keyboard-response","460","795451","0.0-3.0-1.381","../audio/40-3-masc.mp3"," ","","falava","","","",""
"","920","audio-keyboard-response","461","796651","0.0-3.0-1.382","../audio/40-4-masc.mp3"," ","","de","","","",""
"","1291","audio-keyboard-response","462","798219","0.0-3.0-1.383","../audio/40-5-masc.mp3"," ","","fantasia","","","",""
"","949","audio-keyboard-response","463","799451","0.0-3.0-1.384","../audio/40-6-masc.mp3"," ","","e","","","",""
"","1091","audio-keyboard-response","464","800811","0.0-3.0-1.385","../audio/40-7-masc.mp3"," ","","de","","","",""
"","2131","audio-keyboard-response","465","803211","0.0-3.0-1.386","../audio/40-8-masc.mp3"," ","","aventura.","","","",""
"","2777","html-keyboard-response","466","806251","0.0-3.0-2.386-0.386","<span style=""font-size:25px; font-family: monospace"">O jogo tinha fantasia e aventura?</span>","s","","","O jogo tinha fantasia e aventura?","null","exp-sent","false"
"","null","html-keyboard-response","467","807769","0.0-3.0-0.387-0.387","<span style= ""font-size:30px; font-family: monospace"">+</span>","null","fixation","","","","",""
"","1299","audio-keyboard-response","468","809355","0.0-3.0-1.387","../audio/01-1-masc.mp3"," ","","O","","","",""
"","1120","audio-keyboard-response","469","810763","0.0-3.0-1.388","../audio/01-2-masc.mp3"," ","","menino","","","",""
"","1160","audio-keyboard-response","470","812203","0.0-3.0-1.389","../audio/01-3-masc.mp3"," ","","derrubou","","","",""
"","1011","audio-keyboard-response","471","813483","0.0-3.0-1.390","../audio/01-4-masc.mp3"," ","","a","","","",""
"","1560","audio-keyboard-response","472","815307","0.0-3.0-1.391","../audio/01-5-masc.mp3"," ","","guitarra","","","",""
"","1032","audio-keyboard-response","473","816619","0.0-3.0-1.392","../audio/01-6-masc.mp3"," ","","no","","","",""
"","1048","audio-keyboard-response","474","817947","0.0-3.0-1.393","../audio/01-7-masc.mp3"," ","","chão.","","","",""
"","null","html-keyboard-response","475","819224","0.0-3.0-0.394-0.394","<span style= ""font-size:30px; font-family: monospace"">+</span>","null","fixation","","","","",""
"","731","audio-keyboard-response","476","820251","0.0-3.0-1.394","../audio/03-1-masc.mp3"," ","","O","","","",""
"","1149","audio-keyboard-response","477","821675","0.0-3.0-1.395","../audio/03-2-masc.mp3"," ","","coelho","","","",""
"","1171","audio-keyboard-response","478","823115","0.0-3.0-1.396","../audio/03-3-masc.mp3"," ","","foi","","","",""
"","1211","audio-keyboard-response","479","824603","0.0-3.0-1.397","../audio/03-4-masc.mp3"," ","","bastante","","","",""
"","1069","audio-keyboard-response","480","825963","0.0-3.0-1.398","../audio/03-5-masc.mp3"," ","","dócil","","","",""
"","840","audio-keyboard-response","481","827067","0.0-3.0-1.399","../audio/03-6-masc.mp3"," ","","com","","","",""
"","1120","audio-keyboard-response","482","828459","0.0-3.0-1.400","../audio/03-7-masc.mp3"," ","","as","","","",""
"","1520","audio-keyboard-response","483","830251","0.0-3.0-1.401","../audio/03-8-masc.mp3"," ","","crianças.","","","",""
"","null","html-keyboard-response","484","831523","0.0-3.0-0.402-0.402","<span style= ""font-size:30px; font-family: monospace"">+</span>","null","fixation","","","","",""
"","789","audio-keyboard-response","485","832603","0.0-3.0-1.402","../audio/02-2-fem.mp3"," ","","Havia","","","",""
"","880","audio-keyboard-response","486","833739","0.0-3.0-1.403","../audio/02-2-fem.mp3"," ","","um","","","",""
"","1101","audio-keyboard-response","487","835131","0.0-3.0-1.404","../audio/02-3-fem.mp3"," ","","cheiro","","","",""
"","901","audio-keyboard-response","488","836299","0.0-3.0-1.405","../audio/02-4-fem.mp3"," ","","de","","","",""
"","1499","audio-keyboard-response","489","838075","0.0-3.0-1.406","../audio/02-5-fem.mp3"," ","","gasolina","","","",""
"","1029","audio-keyboard-response","490","839387","0.0-3.0-1.407","../audio/02-6-fem.mp3"," ","","na","","","",""
"","1512","audio-keyboard-response","491","841179","0.0-3.0-1.408","../audio/02-7-fem.mp3"," ","","garagem.","","","",""
"","null","html-keyboard-response","492","842443","0.0-3.0-0.409-0.409","<span style= ""font-size:30px; font-family: monospace"">+</span>","null","fixation","","","","",""
"","1661","audio-keyboard-response","493","844379","0.0-3.0-1.409","../audio/04-1-masc.mp3"," ","","Duzentos","","","",""
"","1059","audio-keyboard-response","494","845723","0.0-3.0-1.410","../audio/04-2-masc.mp3"," ","","carros","","","",""
"","1160","audio-keyboard-response","495","847163","0.0-3.0-1.411","../audio/04-3-masc.mp3"," ","","passaram","","","",""
"","1000","audio-keyboard-response","496","848427","0.0-3.0-1.412","../audio/04-4-masc.mp3"," ","","pela","","","",""
"","1131","audio-keyboard-response","497","849835","0.0-3.0-1.413","../audio/04-5-masc.mp3"," ","","ponte","","","",""
"","1040","audio-keyboard-response","498","851150","0.0-3.0-1.414","../audio/04-6-masc.mp3"," ","","hoje","","","",""
"","1032","audio-keyboard-response","499","852462","0.0-3.0-1.415","../audio/04-7-masc.mp3"," ","","de","","","",""
"","6328","audio-keyboard-response","500","859071","0.0-3.0-1.416","../audio/04-8-masc.mp3"," ","","tarde.","","","",""
"","null","html-keyboard-response","501","860347","0.0-3.0-0.417-0.417","<span style= ""font-size:30px; font-family: monospace"">+</span>","null","fixation","","","","",""
"","920","audio-keyboard-response","502","861550","0.0-3.0-1.417","../audio/05-1-fem.mp3"," ","","A","","","",""
"","1971","audio-keyboard-response","503","863806","0.0-3.0-1.418","../audio/05-2-fem.mp3"," ","","vendedora","","","",""
"","1461","audio-keyboard-response","504","865534","0.0-3.0-1.419","../audio/05-3-fem.mp3"," ","","ajudou","","","",""
"","1099","audio-keyboard-response","505","866910","0.0-3.0-1.420","../audio/05-4-fem.mp3"," ","","um","","","",""
"","1520","audio-keyboard-response","506","868702","0.0-3.0-1.421","../audio/05-5-fem.mp3"," ","","turista","","","",""
"","1379","audio-keyboard-response","507","870351","0.0-3.0-1.422","../audio/05-6-fem.mp3"," ","","na","","","",""
"","1139","audio-keyboard-response","508","871758","0.0-3.0-1.423","../audio/05-7-fem.mp3"," ","","loja.","","","",""
"","3700","html-keyboard-response","509","875727","0.0-3.0-2.423-0.423","<span style=""font-size:25px; font-family: monospace"">A vendedora ajudou um turista?</span>","s","","","A vendedora ajudou um turista?","null","exp-sent","false"
"","null","html-keyboard-response","510","877234","0.0-3.0-0.424-0.424","<span style= ""font-size:30px; font-family: monospace"">+</span>","null","fixation","","","","",""
"","1352","audio-keyboard-response","511","878862","0.0-3.0-1.424","../audio/11-1-fem.mp3"," ","","Elas","","","",""
"","1560","audio-keyboard-response","512","880703","0.0-3.0-1.425","../audio/11-2-fem.mp3"," ","","gostam","","","",""
"","1229","audio-keyboard-response","513","882207","0.0-3.0-1.426","../audio/11-3-fem.mp3"," ","","muito","","","",""
"","1061","audio-keyboard-response","514","883534","0.0-3.0-1.427","../audio/11-4-fem.mp3"," ","","de","","","",""
"","1579","audio-keyboard-response","515","885407","0.0-3.0-1.428","../audio/11-5-fem.mp3"," ","","aritmética","","","",""
"","1720","audio-keyboard-response","516","887406","0.0-3.0-1.429","../audio/11-6-fem.mp3"," ","","e","","","",""
"","829","audio-keyboard-response","517","888510","0.0-3.0-1.430","../audio/11-7-fem.mp3"," ","","de","","","",""
"","1248","audio-keyboard-response","518","890030","0.0-3.0-1.431","../audio/11-8-fem.mp3"," ","","leitura.","","","",""
"","null","html-keyboard-response","519","891317","0.0-3.0-0.432-0.432","<span style= ""font-size:30px; font-family: monospace"">+</span>","null","fixation","","","","",""
"","941","audio-keyboard-response","520","892543","0.0-3.0-1.432","../audio/13-1-masc.mp3"," ","","Para","","","",""
"","851","audio-keyboard-response","521","893662","0.0-3.0-1.433","../audio/13-2-masc.mp3"," ","","mim","","","",""
"","979","audio-keyboard-response","522","894926","0.0-3.0-1.434","../audio/13-3-masc.mp3"," ","","é","","","",""
"","1120","audio-keyboard-response","523","896319","0.0-3.0-1.435","../audio/13-4-masc.mp3"," ","","muito","","","",""
"","1160","audio-keyboard-response","524","897758","0.0-3.0-1.436","../audio/13-5-masc.mp3"," ","","difícil","","","",""
"","1189","audio-keyboard-response","525","899230","0.0-3.0-1.437","../audio/13-6-masc.mp3"," ","","acordar","","","",""
"","2099","audio-keyboard-response","526","901598","0.0-3.0-1.438","../audio/13-7-masc.mp3"," ","","cedo.","","","",""
"","null","html-keyboard-response","527","902870","0.0-3.0-0.439-0.439","<span style= ""font-size:30px; font-family: monospace"">+</span>","null","fixation","","","","",""
"","920","audio-keyboard-response","528","904063","0.0-3.0-1.439","../audio/12-1-fem.mp3"," ","","O","","","",""
"","960","audio-keyboard-response","529","905294","0.0-3.0-1.440","../audio/12-2-fem.mp3"," ","","dia","","","",""
"","1589","audio-keyboard-response","530","907150","0.0-3.0-1.441","../audio/12-3-fem.mp3"," ","","estava","","","",""
"","1168","audio-keyboard-response","531","908590","0.0-3.0-1.442","../audio/12-4-fem.mp3"," ","","quente,","","","",""
"","1331","audio-keyboard-response","532","910197","0.0-3.0-1.443","../audio/12-5-fem.mp3"," ","","tranquilo","","","",""
"","1131","audio-keyboard-response","533","911605","0.0-3.0-1.444","../audio/12-6-fem.mp3"," ","","e","","","",""
"","2160","audio-keyboard-response","534","914037","0.0-3.0-1.445","../audio/12-7-fem.mp3"," ","","ensolarado.","","","",""
"","null","html-keyboard-response","535","915308","0.0-3.0-0.446-0.446","<span style= ""font-size:30px; font-family: monospace"">+</span>","null","fixation","","","","",""
"","1040","audio-keyboard-response","536","916629","0.0-3.0-1.446","../audio/14-1-masc.mp3"," ","","O","","","",""
"","1341","audio-keyboard-response","537","918245","0.0-3.0-1.447","../audio/14-2-masc.mp3"," ","","cachorro","","","",""
"","1389","audio-keyboard-response","538","919909","0.0-3.0-1.448","../audio/14-3-masc.mp3"," ","","é","","","",""
"","1261","audio-keyboard-response","539","921445","0.0-3.0-1.449","../audio/14-4-masc.mp3"," ","","muito","","","",""
"","1000","audio-keyboard-response","540","922709","0.0-3.0-1.450","../audio/14-5-masc.mp3"," ","","fiel","","","",""
"","869","audio-keyboard-response","541","923861","0.0-3.0-1.451","../audio/14-6-masc.mp3"," ","","a","","","",""
"","1080","audio-keyboard-response","542","925221","0.0-3.0-1.452","../audio/14-7-masc.mp3"," ","","seus","","","",""
"","4899","audio-keyboard-response","543","930389","0.0-3.0-1.453","../audio/14-8-masc.mp3"," ","","donos.","","","",""
"","null","html-keyboard-response","544","931678","0.0-3.0-0.454-0.454","<span style= ""font-size:30px; font-family: monospace"">+</span>","null","fixation","","","","",""
"","880","audio-keyboard-response","545","932837","0.0-3.0-1.454","../audio/15-1-masc.mp3"," ","","Meu","","","",""
"","1181","audio-keyboard-response","546","934293","0.0-3.0-1.455","../audio/15-2-masc.mp3"," ","","primo","","","",""
"","1229","audio-keyboard-response","547","935797","0.0-3.0-1.456","../audio/15-3-masc.mp3"," ","","é","","","",""
"","909","audio-keyboard-response","548","936981","0.0-3.0-1.457","../audio/15-4-masc.mp3"," ","","um","","","",""
"","1019","audio-keyboard-response","549","938277","0.0-3.0-1.458","../audio/15-5-masc.mp3"," ","","grande","","","",""
"","1229","audio-keyboard-response","550","939781","0.0-3.0-1.459","../audio/15-6-masc.mp3"," ","","vendedor","","","",""
"","1168","audio-keyboard-response","551","941221","0.0-3.0-1.460","../audio/15-7-masc.mp3"," ","","de","","","",""
"","5832","audio-keyboard-response","552","947333","0.0-3.0-1.461","../audio/15-8-masc.mp3"," ","","carros.","","","",""
"","2472","html-keyboard-response","553","950069","0.0-3.0-2.461-0.461","<span style=""font-size:25px; font-family: monospace"">O primo é um vendedor de carros?</span>","s","","","O primo é um vendedor de carros?","null","exp-sent","false"
"","null","html-keyboard-response","554","951608","0.0-3.0-0.462-0.462","<span style= ""font-size:30px; font-family: monospace"">+</span>","null","fixation","","","","",""
"","280","audio-keyboard-response","555","952165","0.0-3.0-1.462","../audio/08-1-masc.mp3"," ","","A","","","",""
"","1291","audio-keyboard-response","556","953733","0.0-3.0-1.463","../audio/08-2-masc.mp3"," ","","receita","","","",""
"","1389","audio-keyboard-response","557","955397","0.0-3.0-1.464","../audio/08-3-masc.mp3"," ","","pede","","","",""
"","1160","audio-keyboard-response","558","956821","0.0-3.0-1.465","../audio/08-4-masc.mp3"," ","","um","","","",""
"","1379","audio-keyboard-response","559","958469","0.0-3.0-1.466","../audio/08-5-masc.mp3"," ","","litro","","","",""
"","1312","audio-keyboard-response","560","960053","0.0-3.0-1.467","../audio/08-6-masc.mp3"," ","","de","","","",""
"","1509","audio-keyboard-response","561","961829","0.0-3.0-1.468","../audio/08-7-masc.mp3"," ","","leite","","","",""
"","7859","audio-keyboard-response","562","969957","0.0-3.0-1.469","../audio/08-8-masc.mp3"," ","","integral.","","","",""
"","null","html-keyboard-response","563","971226","0.0-3.0-0.470-0.470","<span style= ""font-size:30px; font-family: monospace"">+</span>","null","fixation","","","","",""
"","2019","audio-keyboard-response","564","973517","0.0-3.0-1.470","../audio/06-1-masc.mp3"," ","","Ouvimos","","","",""
"","1021","audio-keyboard-response","565","974813","0.0-3.0-1.471","../audio/06-2-masc.mp3"," ","","a","","","",""
"","1109","audio-keyboard-response","566","976205","0.0-3.0-1.472","../audio/06-3-masc.mp3"," ","","fala","","","",""
"","1400","audio-keyboard-response","567","977869","0.0-3.0-1.473","../audio/06-4-masc.mp3"," ","","do","","","",""
"","1451","audio-keyboard-response","568","979597","0.0-3.0-1.474","../audio/06-5-masc.mp3"," ","","profeta","","","",""
"","1072","audio-keyboard-response","569","980941","0.0-3.0-1.475","../audio/06-6-masc.mp3"," ","","no","","","",""
"","1448","audio-keyboard-response","570","982669","0.0-3.0-1.476","../audio/06-7-masc.mp3"," ","","púlpito","","","",""
"","1179","audio-keyboard-response","571","984125","0.0-3.0-1.477","../audio/06-8-masc.mp3"," ","","da","","","",""
"","7789","audio-keyboard-response","572","992206","0.0-3.0-1.478","../audio/06-9-masc.mp3"," ","","igreja.","","","",""
"","null","html-keyboard-response","573","993486","0.0-3.0-0.479-0.479","<span style= ""font-size:30px; font-family: monospace"">+</span>","null","fixation","","","","",""
"","1261","audio-keyboard-response","574","995021","0.0-3.0-1.479","../audio/09-1-masc.mp3"," ","","O","","","",""
"","1269","audio-keyboard-response","575","996574","0.0-3.0-1.480","../audio/09-2-masc.mp3"," ","","rapaz","","","",""
"","1371","audio-keyboard-response","576","998222","0.0-3.0-1.481","../audio/09-3-masc.mp3"," ","","limpou","","","",""
"","909","audio-keyboard-response","577","999405","0.0-3.0-1.482","../audio/09-4-masc.mp3"," ","","o","","","",""
"","1291","audio-keyboard-response","578","1000973","0.0-3.0-1.483","../audio/09-5-masc.mp3"," ","","terreno","","","",""
"","1011","audio-keyboard-response","579","1002254","0.0-3.0-1.484","../audio/09-6-masc.mp3"," ","","com","","","",""
"","1389","audio-keyboard-response","580","1003917","0.0-3.0-1.485","../audio/09-7-masc.mp3"," ","","uma","","","",""
"","7651","audio-keyboard-response","581","1011837","0.0-3.0-1.486","../audio/09-8-masc.mp3"," ","","pá.","","","",""
"","null","html-keyboard-response","582","1013106","0.0-3.0-0.487-0.487","<span style= ""font-size:30px; font-family: monospace"">+</span>","null","fixation","","","","",""
"","1051","audio-keyboard-response","583","1014446","0.0-3.0-1.487","../audio/07-1-fem.mp3"," ","","Meu","","","",""
"","971","audio-keyboard-response","584","1015693","0.0-3.0-1.488","../audio/07-2-fem.mp3"," ","","filho","","","",""
"","1120","audio-keyboard-response","585","1017085","0.0-3.0-1.489","../audio/07-3-fem.mp3"," ","","é","","","",""
"","1371","audio-keyboard-response","586","1018733","0.0-3.0-1.490","../audio/07-4-fem.mp3"," ","","muito","","","",""
"","1931","audio-keyboard-response","587","1020941","0.0-3.0-1.491","../audio/07-5-fem.mp3"," ","","responsável","","","",""
"","1189","audio-keyboard-response","588","1022397","0.0-3.0-1.492","../audio/07-6-fem.mp3"," ","","nos","","","",""
"","1560","audio-keyboard-response","589","1024238","0.0-3.0-1.493","../audio/07-7-fem.mp3"," ","","estudos.","","","",""
"","null","html-keyboard-response","590","1025526","0.0-3.0-0.494-0.494","<span style= ""font-size:30px; font-family: monospace"">+</span>","null","fixation","","","","",""
"","869","audio-keyboard-response","591","1026670","0.0-3.0-1.494","../audio/10-1-fem.mp3"," ","","O","","","",""
"","1221","audio-keyboard-response","592","1028173","0.0-3.0-1.495","../audio/10-2-fem.mp3"," ","","pássaro","","","",""
"","1189","audio-keyboard-response","593","1029645","0.0-3.0-1.496","../audio/10-3-fem.mp3"," ","","azul","","","",""
"","1512","audio-keyboard-response","594","1031421","0.0-3.0-1.497","../audio/10-4-fem.mp3"," ","","estava","","","",""
"","1339","audio-keyboard-response","595","1033037","0.0-3.0-1.498","../audio/10-5-fem.mp3"," ","","vivo","","","",""
"","1000","audio-keyboard-response","596","1034317","0.0-3.0-1.499","../audio/10-6-fem.mp3"," ","","e","","","",""
"","949","audio-keyboard-response","597","1035549","0.0-3.0-1.500","../audio/10-7-fem.mp3"," ","","em","","","",""
"","1779","audio-keyboard-response","598","1037597","0.0-3.0-1.501","../audio/10-8-fem.mp3"," ","","segurança.","","","",""
"","2035","html-keyboard-response","599","1039901","0.0-3.0-2.501-0.501","<span style=""font-size:25px; font-family: monospace"">O pássaro vermelho estava em segurança?</span>","s","","","O pássaro vermelho estava em segurança?","null","exp-sent","false"
"","null","html-keyboard-response","600","1041426","0.0-3.0-0.502-0.502","<span style= ""font-size:30px; font-family: monospace"">+</span>","null","fixation","","","","",""
"","549","audio-keyboard-response","601","1042253","0.0-3.0-1.502","../audio/16-1-fem.mp3"," ","","Eu","","","",""
"","1280","audio-keyboard-response","602","1043805","0.0-3.0-1.503","../audio/16-2-fem.mp3"," ","","nunca","","","",""
"","1149","audio-keyboard-response","603","1045229","0.0-3.0-1.504","../audio/16-3-fem.mp3"," ","","conheci","","","",""
"","1040","audio-keyboard-response","604","1046541","0.0-3.0-1.505","../audio/16-4-fem.mp3"," ","","um","","","",""
"","1269","audio-keyboard-response","605","1048077","0.0-3.0-1.506","../audio/16-5-fem.mp3"," ","","general","","","",""
"","931","audio-keyboard-response","606","1049277","0.0-3.0-1.507","../audio/16-6-fem.mp3"," ","","do","","","",""
"","1160","audio-keyboard-response","607","1050717","0.0-3.0-1.508","../audio/16-7-fem.mp3"," ","","exército.","","","",""
"","null","html-keyboard-response","608","1051986","0.0-3.0-0.509-0.509","<span style= ""font-size:30px; font-family: monospace"">+</span>","null","fixation","","","","",""
"","728","audio-keyboard-response","609","1052989","0.0-3.0-1.509","../audio/17-1-fem.mp3"," ","","Falaram","","","",""
"","1099","audio-keyboard-response","610","1054365","0.0-3.0-1.510","../audio/17-2-fem.mp3"," ","","da","","","",""
"","1040","audio-keyboard-response","611","1055677","0.0-3.0-1.511","../audio/17-3-fem.mp3"," ","","lei","","","",""
"","960","audio-keyboard-response","612","1056909","0.0-3.0-1.512","../audio/17-4-fem.mp3"," ","","no","","","",""
"","1771","audio-keyboard-response","613","1058957","0.0-3.0-1.513","../audio/17-5-fem.mp3"," ","","ministério","","","",""
"","1400","audio-keyboard-response","614","1060637","0.0-3.0-1.514","../audio/17-6-fem.mp3"," ","","diversas","","","",""
"","1221","audio-keyboard-response","615","1062141","0.0-3.0-1.515","../audio/17-7-fem.mp3"," ","","vezes.","","","",""
"","null","html-keyboard-response","616","1063426","0.0-3.0-0.516-0.516","<span style= ""font-size:30px; font-family: monospace"">+</span>","null","fixation","","","","",""
"","779","audio-keyboard-response","617","1064477","0.0-3.0-1.516","../audio/18-1-masc.mp3"," ","","O","","","",""
"","861","audio-keyboard-response","618","1065613","0.0-3.0-1.517","../audio/18-2-masc.mp3"," ","","enredo","","","",""
"","829","audio-keyboard-response","619","1066717","0.0-3.0-1.518","../audio/18-3-masc.mp3"," ","","traz","","","",""
"","931","audio-keyboard-response","620","1067933","0.0-3.0-1.519","../audio/18-4-masc.mp3"," ","","um","","","",""
"","1019","audio-keyboard-response","621","1069229","0.0-3.0-1.520","../audio/18-5-masc.mp3"," ","","dragão","","","",""
"","1040","audio-keyboard-response","622","1070557","0.0-3.0-1.521","../audio/18-6-masc.mp3"," ","","forte","","","",""
"","888","audio-keyboard-response","623","1071709","0.0-3.0-1.522","../audio/18-7-masc.mp3"," ","","e","","","",""
"","1200","audio-keyboard-response","624","1073181","0.0-3.0-1.523","../audio/18-8-masc.mp3"," ","","solitário.","","","",""
"","null","html-keyboard-response","625","1074456","0.0-3.0-0.524-0.524","<span style= ""font-size:30px; font-family: monospace"">+</span>","null","fixation","","","","",""
"","1160","audio-keyboard-response","626","1075901","0.0-3.0-1.524","../audio/19-1-masc.mp3"," ","","O","","","",""
"","1491","audio-keyboard-response","627","1077661","0.0-3.0-1.525","../audio/19-2-masc.mp3"," ","","menino","","","",""
"","949","audio-keyboard-response","628","1078877","0.0-3.0-1.526","../audio/19-3-masc.mp3"," ","","ganhou","","","",""
"","941","audio-keyboard-response","629","1080093","0.0-3.0-1.527","../audio/19-4-masc.mp3"," ","","uma","","","",""
"","1131","audio-keyboard-response","630","1081501","0.0-3.0-1.528","../audio/19-5-masc.mp3"," ","","bala","","","",""
"","1059","audio-keyboard-response","631","1082829","0.0-3.0-1.529","../audio/19-6-masc.mp3"," ","","depois","","","",""
"","899","audio-keyboard-response","632","1083997","0.0-3.0-1.530","../audio/19-7-masc.mp3"," ","","do","","","",""
"","1909","audio-keyboard-response","633","1086189","0.0-3.0-1.531","../audio/19-8-masc.mp3"," ","","almoço.","","","",""
"","null","html-keyboard-response","634","1087476","0.0-3.0-0.532-0.532","<span style= ""font-size:30px; font-family: monospace"">+</span>","null","fixation","","","","",""
"","720","audio-keyboard-response","635","1088477","0.0-3.0-1.532","../audio/20-1-fem.mp3"," ","","O","","","",""
"","1099","audio-keyboard-response","636","1089837","0.0-3.0-1.533","../audio/20-2-fem.mp3"," ","","colega","","","",""
"","1200","audio-keyboard-response","637","1091325","0.0-3.0-1.534","../audio/20-3-fem.mp3"," ","","parecia","","","",""
"","1371","audio-keyboard-response","638","1092973","0.0-3.0-1.535","../audio/20-4-fem.mp3"," ","","muito","","","",""
"","1669","audio-keyboard-response","639","1094925","0.0-3.0-1.536","../audio/20-5-fem.mp3"," ","","gripado","","","",""
"","1501","audio-keyboard-response","640","1096701","0.0-3.0-1.537","../audio/20-6-fem.mp3"," ","","no","","","",""
"","931","audio-keyboard-response","641","1097901","0.0-3.0-1.538","../audio/20-7-fem.mp3"," ","","dia","","","",""
"","2659","audio-keyboard-response","642","1100829","0.0-3.0-1.539","../audio/20-8-fem.mp3"," ","","anterior.","","","",""
"","1696","html-keyboard-response","643","1102781","0.0-3.0-2.539-0.539","<span style=""font-size:25px; font-family: monospace"">O colega parecia muito gripado?</span>","s","","","O colega parecia muito gripado?","null","exp-sent","false"
"","null","html-keyboard-response","644","1104295","0.0-3.0-0.540-0.540","<span style= ""font-size:30px; font-family: monospace"">+</span>","null","fixation","","","","",""
"","2811","audio-keyboard-response","645","1107405","0.0-3.0-1.540","../audio/57-1-fem.mp3"," ","","O","","","",""
"","1160","audio-keyboard-response","646","1108845","0.0-3.0-1.541","../audio/57-2-fem.mp3"," ","","capitão","","","",""
"","971","audio-keyboard-response","647","1110077","0.0-3.0-1.542","../audio/57-3-fem.mp3"," ","","deu","","","",""
"","920","audio-keyboard-response","648","1111277","0.0-3.0-1.543","../audio/57-4-fem.mp3"," ","","uma","","","",""
"","1280","audio-keyboard-response","649","1112845","0.0-3.0-1.544","../audio/57-5-fem.mp3"," ","","instrução","","","",""
"","901","audio-keyboard-response","650","1114013","0.0-3.0-1.545","../audio/57-6-fem.mp3"," ","","para","","","",""
"","859","audio-keyboard-response","651","1115149","0.0-3.0-1.546","../audio/57-7-fem.mp3"," ","","as","","","",""
"","891","audio-keyboard-response","652","1116317","0.0-3.0-1.547","../audio/57-8-fem.mp3"," ","","pessoas.","","","",""
"","null","html-keyboard-response","653","1117596","0.0-3.0-0.548-0.548","<span style= ""font-size:30px; font-family: monospace"">+</span>","null","fixation","","","","",""
"","859","audio-keyboard-response","654","1118717","0.0-3.0-1.548","../audio/56-1-fem.mp3"," ","","A","","","",""
"","1160","audio-keyboard-response","655","1120157","0.0-3.0-1.549","../audio/56-2-fem.mp3"," ","","moça","","","",""
"","960","audio-keyboard-response","656","1121405","0.0-3.0-1.550","../audio/56-3-fem.mp3"," ","","foi","","","",""
"","1240","audio-keyboard-response","657","1122925","0.0-3.0-1.551","../audio/56-4-fem.mp3"," ","","à","","","",""
"","1341","audio-keyboard-response","658","1124541","0.0-3.0-1.552","../audio/56-5-fem.mp3"," ","","agência","","","",""
"","1219","audio-keyboard-response","659","1126045","0.0-3.0-1.553","../audio/56-6-fem.mp3"," ","","bancária","","","",""
"","989","audio-keyboard-response","660","1127325","0.0-3.0-1.554","../audio/56-7-fem.mp3"," ","","ontem","","","",""
"","920","audio-keyboard-response","661","1128509","0.0-3.0-1.555","../audio/56-8-fem.mp3"," ","","de","","","",""
"","1019","audio-keyboard-response","662","1129805","0.0-3.0-1.556","../audio/56-9-fem.mp3"," ","","tarde.","","","",""
"","null","html-keyboard-response","663","1131081","0.0-3.0-0.557-0.557","<span style= ""font-size:30px; font-family: monospace"">+</span>","null","fixation","","","","",""
"","901","audio-keyboard-response","664","1132253","0.0-3.0-1.557","../audio/58-1-masc.mp3"," ","","Havia","","","",""
"","1000","audio-keyboard-response","665","1133533","0.0-3.0-1.558","../audio/58-2-masc.mp3"," ","","apenas","","","",""
"","779","audio-keyboard-response","666","1134589","0.0-3.0-1.559","../audio/58-3-masc.mp3"," ","","um","","","",""
"","1040","audio-keyboard-response","667","1135901","0.0-3.0-1.560","../audio/58-4-masc.mp3"," ","","último","","","",""
"","1189","audio-keyboard-response","668","1137357","0.0-3.0-1.561","../audio/58-5-masc.mp3"," ","","herdeiro","","","",""
"","880","audio-keyboard-response","669","1138525","0.0-3.0-1.562","../audio/58-6-masc.mp3"," ","","do","","","",""
"","7400","audio-keyboard-response","670","1146189","0.0-3.0-1.563","../audio/58-7-masc.mp3"," ","","dinheiro.","","","",""
"","null","html-keyboard-response","671","1147445","0.0-3.0-0.564-0.564","<span style= ""font-size:30px; font-family: monospace"">+</span>","null","fixation","","","","",""
"","1019","audio-keyboard-response","672","1148749","0.0-3.0-1.564","../audio/59-1-masc.mp3"," ","","O","","","",""
"","1469","audio-keyboard-response","673","1150493","0.0-3.0-1.565","../audio/59-2-masc.mp3"," ","","carteiro","","","",""
"","1109","audio-keyboard-response","674","1151865","0.0-3.0-1.566","../audio/59-3-masc.mp3"," ","","fez","","","",""
"","931","audio-keyboard-response","675","1153081","0.0-3.0-1.567","../audio/59-4-masc.mp3"," ","","uma","","","",""
"","1371","audio-keyboard-response","676","1154729","0.0-3.0-1.568","../audio/59-5-masc.mp3"," ","","tentativa","","","",""
"","960","audio-keyboard-response","677","1155961","0.0-3.0-1.569","../audio/59-6-masc.mp3"," ","","de","","","",""
"","1211","audio-keyboard-response","678","1157449","0.0-3.0-1.570","../audio/59-7-masc.mp3"," ","","entrega.","","","",""
"","null","html-keyboard-response","679","1158732","0.0-3.0-0.571-0.571","<span style= ""font-size:30px; font-family: monospace"">+</span>","null","fixation","","","","",""
"","669","audio-keyboard-response","680","1159673","0.0-3.0-1.571","../audio/60-1-fem.mp3"," ","","Ondas","","","",""
"","1011","audio-keyboard-response","681","1160953","0.0-3.0-1.572","../audio/60-2-fem.mp3"," ","","têm","","","",""
"","1200","audio-keyboard-response","682","1162425","0.0-3.0-1.573","../audio/60-3-fem.mp3"," ","","um","","","",""
"","1672","audio-keyboard-response","683","1164377","0.0-3.0-1.574","../audio/60-4-fem.mp3"," ","","impacto","","","",""
"","1139","audio-keyboard-response","684","1165785","0.0-3.0-1.575","../audio/60-5-fem.mp3"," ","","destrutivo","","","",""
"","1379","audio-keyboard-response","685","1167433","0.0-3.0-1.576","../audio/60-6-fem.mp3"," ","","no","","","",""
"","2139","audio-keyboard-response","686","1169833","0.0-3.0-1.577","../audio/60-7-fem.mp3"," ","","litoral.","","","",""
"","1837","html-keyboard-response","687","1171929","0.0-3.0-2.577-0.577","<span style=""font-size:25px; font-family: monospace"">Ondas têm um impacto destrutivo?</span>","s","","","Ondas têm um impacto destrutivo?","null","exp-sent","false"
"","null","html-keyboard-response","688","1173441","0.0-3.0-0.578-0.578","<span style= ""font-size:30px; font-family: monospace"">+</span>","null","fixation","","","","",""
"","1541","audio-keyboard-response","689","1175257","0.0-3.0-1.578","../audio/62-1-masc.mp3"," ","","As","","","",""
"","1499","audio-keyboard-response","690","1177033","0.0-3.0-1.579","../audio/62-2-masc.mp3"," ","","artesãs","","","",""
"","1101","audio-keyboard-response","691","1178409","0.0-3.0-1.580","../audio/62-3-masc.mp3"," ","","gostam","","","",""
"","1051","audio-keyboard-response","692","1179737","0.0-3.0-1.581","../audio/62-4-masc.mp3"," ","","de","","","",""
"","7760","audio-keyboard-response","693","1187769","0.0-3.0-1.582","../audio/62-5-masc.mp3"," ","","maquiagem","","","",""
"","1429","audio-keyboard-response","694","1189481","0.0-3.0-1.583","../audio/62-6-masc.mp3"," ","","e","","","",""
"","3051","audio-keyboard-response","695","1192793","0.0-3.0-1.584","../audio/62-7-masc.mp3"," ","","de","","","",""
"","7421","audio-keyboard-response","696","1200489","0.0-3.0-1.585","../audio/62-8-masc.mp3"," ","","crochê.","","","",""
"","null","html-keyboard-response","697","1201752","0.0-3.0-0.586-0.586","<span style= ""font-size:30px; font-family: monospace"">+</span>","null","fixation","","","","",""
"","1640","audio-keyboard-response","698","1203673","0.0-3.0-1.586","../audio/61-1-fem.mp3"," ","","Aquele","","","",""
"","3229","audio-keyboard-response","699","1207194","0.0-3.0-1.587","../audio/61-2-fem.mp3"," ","","senhor","","","",""
"","840","audio-keyboard-response","700","1208313","0.0-3.0-1.588","../audio/61-3-fem.mp3"," ","","é","","","",""
"","1661","audio-keyboard-response","701","1210249","0.0-3.0-1.589","../audio/61-4-fem.mp3"," ","","muito","","","",""
"","2048","audio-keyboard-response","702","1212585","0.0-3.0-1.590","../audio/61-5-fem.mp3"," ","","sovina","","","",""
"","1339","audio-keyboard-response","703","1214200","0.0-3.0-1.591","../audio/61-6-fem.mp3"," ","","e","","","",""
"","2499","audio-keyboard-response","704","1216984","0.0-3.0-1.592","../audio/61-7-fem.mp3"," ","","inflexível.","","","",""
"","null","html-keyboard-response","705","1218261","0.0-3.0-0.593-0.593","<span style= ""font-size:30px; font-family: monospace"">+</span>","null","fixation","","","","",""
"","859","audio-keyboard-response","706","1219400","0.0-3.0-1.593","../audio/64-1-fem.mp3"," ","","O","","","",""
"","1229","audio-keyboard-response","707","1220904","0.0-3.0-1.594","../audio/64-2-fem.mp3"," ","","dia","","","",""
"","1731","audio-keyboard-response","708","1222921","0.0-3.0-1.595","../audio/64-3-fem.mp3"," ","","começou","","","",""
"","1080","audio-keyboard-response","709","1224264","0.0-3.0-1.596","../audio/64-4-fem.mp3"," ","","com","","","",""
"","1299","audio-keyboard-response","710","1225832","0.0-3.0-1.597","../audio/64-5-fem.mp3"," ","","garoa","","","",""
"","1749","audio-keyboard-response","711","1227864","0.0-3.0-1.598","../audio/64-6-fem.mp3"," ","","gelada","","","",""
"","1032","audio-keyboard-response","712","1229176","0.0-3.0-1.599","../audio/64-7-fem.mp3"," ","","e","","","",""
"","3520","audio-keyboard-response","713","1232969","0.0-3.0-1.600","../audio/64-8-fem.mp3"," ","","leve.","","","",""
"","null","html-keyboard-response","714","1234241","0.0-3.0-0.601-0.601","<span style= ""font-size:30px; font-family: monospace"">+</span>","null","fixation","","","","",""
"","789","audio-keyboard-response","715","1235321","0.0-3.0-1.601","../audio/63-1-masc.mp3"," ","","A","","","",""
"","1131","audio-keyboard-response","716","1236728","0.0-3.0-1.602","../audio/63-2-masc.mp3"," ","","chuva","","","",""
"","1120","audio-keyboard-response","717","1238120","0.0-3.0-1.603","../audio/63-3-masc.mp3"," ","","entrou","","","",""
"","1101","audio-keyboard-response","718","1239496","0.0-3.0-1.604","../audio/63-4-masc.mp3"," ","","pela","","","",""
"","1659","audio-keyboard-response","719","1241432","0.0-3.0-1.605","../audio/63-5-masc.mp3"," ","","abertura","","","",""
"","1091","audio-keyboard-response","720","1242792","0.0-3.0-1.606","../audio/63-6-masc.mp3"," ","","na","","","",""
"","1109","audio-keyboard-response","721","1244185","0.0-3.0-1.607","../audio/63-7-masc.mp3"," ","","janela.","","","",""
"","null","html-keyboard-response","722","1245452","0.0-3.0-0.608-0.608","<span style= ""font-size:30px; font-family: monospace"">+</span>","null","fixation","","","","",""
"","1059","audio-keyboard-response","723","1246792","0.0-3.0-1.608","../audio/65-1-masc.mp3"," ","","O","","","",""
"","1152","audio-keyboard-response","724","1248216","0.0-3.0-1.609","../audio/65-2-masc.mp3"," ","","fantasma","","","",""
"","1011","audio-keyboard-response","725","1249496","0.0-3.0-1.610","../audio/65-3-masc.mp3"," ","","veio","","","",""
"","899","audio-keyboard-response","726","1250680","0.0-3.0-1.611","../audio/65-4-masc.mp3"," ","","da","","","",""
"","1360","audio-keyboard-response","727","1252312","0.0-3.0-1.612","../audio/65-5-masc.mp3"," ","","escuridão","","","",""
"","1200","audio-keyboard-response","728","1253784","0.0-3.0-1.613","../audio/65-6-masc.mp3"," ","","do","","","",""
"","4368","audio-keyboard-response","729","1258425","0.0-3.0-1.614","../audio/65-7-masc.mp3"," ","","armário.","","","",""
"","2486","html-keyboard-response","730","1261177","0.0-3.0-2.614-0.614","<span style=""font-size:25px; font-family: monospace"">O fantasma veio da escuridão do armário?</span>","s","","","O fantasma veio da escuridão do armário?","null","exp-sent","false"
"[{""page_index"":0,""viewing_time"":12551}]","12552","instructions","731","1274235","0.0-4.0","","","","","","","",""
