"view_history","rt","trial_type","trial_index","time_elapsed","internal_node_id","stimulus","response","trial_part","trial","word","question","answer","accuracy"
"[{""page_index"":0,""viewing_time"":27139},{""page_index"":1,""viewing_time"":1800}]","28940","instructions","0","28941","0.0-0.0","","","","","","","",""
"","null","html-keyboard-response","1","30080","0.0-1.0-0.0-0.0","<span style= ""font-size:30px; font-family: monospace"">+</span>","null","fixation","","","","",""
"","6655","html-keyboard-response","2","37005","0.0-1.0-1.0","<span style=""font-size:30px; font-family: monospace"">O</span>"," ","","prac-sent","O","","",""
"","3492","html-keyboard-response","3","40748","0.0-1.0-1.1","<span style=""font-size:30px; font-family: monospace"">dia</span>"," ","","prac-sent","dia","","",""
"","1637","html-keyboard-response","4","42636","0.0-1.0-1.2","<span style=""font-size:30px; font-family: monospace"">estará</span>"," ","","prac-sent","estará","","",""
"","1925","html-keyboard-response","5","44813","0.0-1.0-1.3","<span style=""font-size:30px; font-family: monospace"">cheio</span>"," ","","prac-sent","cheio","","",""
"","1765","html-keyboard-response","6","46829","0.0-1.0-1.4","<span style=""font-size:30px; font-family: monospace"">de</span>"," ","","prac-sent","de","","",""
"","1253","html-keyboard-response","7","48333","0.0-1.0-1.5","<span style=""font-size:30px; font-family: monospace"">nuvens</span>"," ","","prac-sent","nuvens","","",""
"","1285","html-keyboard-response","8","49869","0.0-1.0-1.6","<span style=""font-size:30px; font-family: monospace"">hoje.</span>"," ","","prac-sent","hoje.","","",""
"","null","html-keyboard-response","9","51120","0.0-1.0-0.7-0.7","<span style= ""font-size:30px; font-family: monospace"">+</span>","null","fixation","","","","",""
"","1218","html-keyboard-response","10","52589","0.0-1.0-1.7","<span style=""font-size:30px; font-family: monospace"">A</span>"," ","","prac-sent","A","","",""
"","1507","html-keyboard-response","11","54348","0.0-1.0-1.8","<span style=""font-size:30px; font-family: monospace"">caneca</span>"," ","","prac-sent","caneca","","",""
"","1318","html-keyboard-response","12","55917","0.0-1.0-1.9","<span style=""font-size:30px; font-family: monospace"">colorida</span>"," ","","prac-sent","colorida","","",""
"","1013","html-keyboard-response","13","57181","0.0-1.0-1.10","<span style=""font-size:30px; font-family: monospace"">caiu</span>"," ","","prac-sent","caiu","","",""
"","1221","html-keyboard-response","14","58653","0.0-1.0-1.11","<span style=""font-size:30px; font-family: monospace"">da</span>"," ","","prac-sent","da","","",""
"","948","html-keyboard-response","15","59853","0.0-1.0-1.12","<span style=""font-size:30px; font-family: monospace"">mesa</span>"," ","","prac-sent","mesa","","",""
"","821","html-keyboard-response","16","60925","0.0-1.0-1.13","<span style=""font-size:30px; font-family: monospace"">de</span>"," ","","prac-sent","de","","",""
"","997","html-keyboard-response","17","62173","0.0-1.0-1.14","<span style=""font-size:30px; font-family: monospace"">jantar.</span>"," ","","prac-comp","jantar.","","",""
"","3621","html-keyboard-response","18","66044","0.0-1.0-2.14-0.14","<span style=""font-size:30px; font-family: monospace"">A caneca permaneceu na mesa?</span>","s","","prac-comp","","A caneca permaneceu na mesa?","não","false"
"[{""page_index"":0,""viewing_time"":16452}]","16452","instructions","19","82997","0.0-2.0","","","","","","","",""
"","null","html-keyboard-response","20","84100","0.0-3.0-0.0-0.0","<span style= ""font-size:30px; font-family: monospace"">+</span>","null","fixation","","","","",""
"","926","html-keyboard-response","21","85277","0.0-3.0-1.0","<span style=""font-size:30px; font-family: monospace"">A</span>"," ","","exp-sent","A","","",""
"","1205","html-keyboard-response","22","86733","0.0-3.0-1.1","<span style=""font-size:30px; font-family: monospace"">senhora</span>"," ","","exp-sent","senhora","","",""
"","1029","html-keyboard-response","23","88013","0.0-3.0-1.2","<span style=""font-size:30px; font-family: monospace"">cumprimentou</span>"," ","","exp-sent","cumprimentou","","",""
"","869","html-keyboard-response","24","89133","0.0-3.0-1.3","<span style=""font-size:30px; font-family: monospace"">o</span>"," ","","exp-sent","o","","",""
"","822","html-keyboard-response","25","90221","0.0-3.0-1.4","<span style=""font-size:30px; font-family: monospace"">operador</span>"," ","","exp-sent","operador","","",""
"","1205","html-keyboard-response","26","91677","0.0-3.0-1.5","<span style=""font-size:30px; font-family: monospace"">de</span>"," ","","exp-sent","de","","",""
"","773","html-keyboard-response","27","92701","0.0-3.0-1.6","<span style=""font-size:30px; font-family: monospace"">caixa.</span>"," ","","exp-sent","caixa.","","",""
"","null","html-keyboard-response","28","93953","0.0-3.0-0.7-0.7","<span style= ""font-size:30px; font-family: monospace"">+</span>","null","fixation","","","","",""
"","1873","html-keyboard-response","29","96077","0.0-3.0-1.7","<span style=""font-size:30px; font-family: monospace"">A</span>"," ","","exp-sent","A","","",""
"","869","html-keyboard-response","30","97197","0.0-3.0-1.8","<span style=""font-size:30px; font-family: monospace"">gente</span>"," ","","exp-sent","gente","","",""
"","741","html-keyboard-response","31","98189","0.0-3.0-1.9","<span style=""font-size:30px; font-family: monospace"">viu</span>"," ","","exp-sent","viu","","",""
"","597","html-keyboard-response","32","99036","0.0-3.0-1.10","<span style=""font-size:30px; font-family: monospace"">o</span>"," ","","exp-sent","o","","",""
"","758","html-keyboard-response","33","100045","0.0-3.0-1.11","<span style=""font-size:30px; font-family: monospace"">eclipse</span>"," ","","exp-sent","eclipse","","",""
"","581","html-keyboard-response","34","100877","0.0-3.0-1.12","<span style=""font-size:30px; font-family: monospace"">lunar</span>"," ","","exp-sent","lunar","","",""
"","644","html-keyboard-response","35","101772","0.0-3.0-1.13","<span style=""font-size:30px; font-family: monospace"">durante</span>"," ","","exp-sent","durante","","",""
"","597","html-keyboard-response","36","102621","0.0-3.0-1.14","<span style=""font-size:30px; font-family: monospace"">o</span>"," ","","exp-sent","o","","",""
"","757","html-keyboard-response","37","103628","0.0-3.0-1.15","<span style=""font-size:30px; font-family: monospace"">dia.</span>"," ","","exp-sent","dia.","","",""
"","null","html-keyboard-response","38","104880","0.0-3.0-0.16-0.16","<span style= ""font-size:30px; font-family: monospace"">+</span>","null","fixation","","","","",""
"","512","html-keyboard-response","39","105644","0.0-3.0-1.16","<span style=""font-size:30px; font-family: monospace"">A</span>"," ","","exp-sent","A","","",""
"","661","html-keyboard-response","40","106556","0.0-3.0-1.17","<span style=""font-size:30px; font-family: monospace"">mordida</span>"," ","","exp-sent","mordida","","",""
"","661","html-keyboard-response","41","107468","0.0-3.0-1.18","<span style=""font-size:30px; font-family: monospace"">do</span>"," ","","exp-sent","do","","",""
"","965","html-keyboard-response","42","108684","0.0-3.0-1.19","<span style=""font-size:30px; font-family: monospace"">cachorro</span>"," ","","exp-sent","cachorro","","",""
"","837","html-keyboard-response","43","109772","0.0-3.0-1.20","<span style=""font-size:30px; font-family: monospace"">voraz</span>"," ","","exp-sent","voraz","","",""
"","709","html-keyboard-response","44","110732","0.0-3.0-1.21","<span style=""font-size:30px; font-family: monospace"">causou</span>"," ","","exp-sent","causou","","",""
"","661","html-keyboard-response","45","111644","0.0-3.0-1.22","<span style=""font-size:30px; font-family: monospace"">uma</span>"," ","","exp-sent","uma","","",""
"","1269","html-keyboard-response","46","113164","0.0-3.0-1.23","<span style=""font-size:30px; font-family: monospace"">cicatriz.</span>"," ","","exp-sent","cicatriz.","","",""
"","null","html-keyboard-response","47","114416","0.0-3.0-0.24-0.24","<span style= ""font-size:30px; font-family: monospace"">+</span>","null","fixation","","","","",""
"","481","html-keyboard-response","48","115148","0.0-3.0-1.24","<span style=""font-size:30px; font-family: monospace"">Elas</span>"," ","","exp-sent","Elas","","",""
"","1263","html-keyboard-response","49","116668","0.0-3.0-1.25","<span style=""font-size:30px; font-family: monospace"">não</span>"," ","","exp-sent","não","","",""
"","837","html-keyboard-response","50","117756","0.0-3.0-1.26","<span style=""font-size:30px; font-family: monospace"">viram</span>"," ","","exp-sent","viram","","",""
"","1045","html-keyboard-response","51","119052","0.0-3.0-1.27","<span style=""font-size:30px; font-family: monospace"">nenhuma</span>"," ","","exp-sent","nenhuma","","",""
"","853","html-keyboard-response","52","120156","0.0-3.0-1.28","<span style=""font-size:30px; font-family: monospace"">diferença</span>"," ","","exp-sent","diferença","","",""
"","710","html-keyboard-response","53","121116","0.0-3.0-1.29","<span style=""font-size:30px; font-family: monospace"">entre</span>"," ","","exp-sent","entre","","",""
"","676","html-keyboard-response","54","122044","0.0-3.0-1.30","<span style=""font-size:30px; font-family: monospace"">os</span>"," ","","exp-sent","os","","",""
"","645","html-keyboard-response","55","122940","0.0-3.0-1.31","<span style=""font-size:30px; font-family: monospace"">textos.</span>"," ","","exp-sent","textos.","","",""
"","null","html-keyboard-response","56","124204","0.0-3.0-0.32-0.32","<span style= ""font-size:30px; font-family: monospace"">+</span>","null","fixation","","","","",""
"","950","html-keyboard-response","57","125404","0.0-3.0-1.32","<span style=""font-size:30px; font-family: monospace"">Amanhã</span>"," ","","exp-sent","Amanhã","","",""
"","1285","html-keyboard-response","58","126940","0.0-3.0-1.33","<span style=""font-size:30px; font-family: monospace"">vai</span>"," ","","exp-sent","vai","","",""
"","677","html-keyboard-response","59","127868","0.0-3.0-1.34","<span style=""font-size:30px; font-family: monospace"">ter</span>"," ","","exp-sent","ter","","",""
"","740","html-keyboard-response","60","128860","0.0-3.0-1.35","<span style=""font-size:30px; font-family: monospace"">um</span>"," ","","exp-sent","um","","",""
"","757","html-keyboard-response","61","129868","0.0-3.0-1.36","<span style=""font-size:30px; font-family: monospace"">bazar</span>"," ","","exp-sent","bazar","","",""
"","837","html-keyboard-response","62","130956","0.0-3.0-1.37","<span style=""font-size:30px; font-family: monospace"">no</span>"," ","","exp-sent","no","","",""
"","774","html-keyboard-response","63","131981","0.0-3.0-1.38","<span style=""font-size:30px; font-family: monospace"">bairro.</span>"," ","","comp","bairro.","","",""
"","2148","html-keyboard-response","64","134380","0.0-3.0-2.38-0.38","<span style=""font-size:30px; font-family: monospace"">Amanhã vai acontecer um bazar no bairro?</span>","s","","comp","","Amanhã vai acontecer um bazar no bairro?","sim","false"
"","null","html-keyboard-response","65","135896","0.0-3.0-0.39-0.39","<span style= ""font-size:30px; font-family: monospace"">+</span>","null","fixation","","","","",""
"","761","html-keyboard-response","66","136908","0.0-3.0-1.39","<span style=""font-size:30px; font-family: monospace"">A</span>"," ","","exp-sent","A","","",""
"","645","html-keyboard-response","67","137804","0.0-3.0-1.40","<span style=""font-size:30px; font-family: monospace"">motorista</span>"," ","","exp-sent","motorista","","",""
"","805","html-keyboard-response","68","138860","0.0-3.0-1.41","<span style=""font-size:30px; font-family: monospace"">fez</span>"," ","","exp-sent","fez","","",""
"","645","html-keyboard-response","69","139756","0.0-3.0-1.42","<span style=""font-size:30px; font-family: monospace"">o</span>"," ","","exp-sent","o","","",""
"","613","html-keyboard-response","70","140620","0.0-3.0-1.43","<span style=""font-size:30px; font-family: monospace"">retorno</span>"," ","","exp-sent","retorno","","",""
"","629","html-keyboard-response","71","141500","0.0-3.0-1.44","<span style=""font-size:30px; font-family: monospace"">com</span>"," ","","exp-sent","com","","",""
"","709","html-keyboard-response","72","142460","0.0-3.0-1.45","<span style=""font-size:30px; font-family: monospace"">cuidado.</span>"," ","","exp-sent","cuidado.","","",""
"","null","html-keyboard-response","73","143712","0.0-3.0-0.46-0.46","<span style= ""font-size:30px; font-family: monospace"">+</span>","null","fixation","","","","",""
"","1393","html-keyboard-response","74","145356","0.0-3.0-1.46","<span style=""font-size:30px; font-family: monospace"">Contos</span>"," ","","exp-sent","Contos","","",""
"","613","html-keyboard-response","75","146220","0.0-3.0-1.47","<span style=""font-size:30px; font-family: monospace"">de</span>"," ","","exp-sent","de","","",""
"","612","html-keyboard-response","76","147084","0.0-3.0-1.48","<span style=""font-size:30px; font-family: monospace"">ação</span>"," ","","exp-sent","ação","","",""
"","837","html-keyboard-response","77","148172","0.0-3.0-1.49","<span style=""font-size:30px; font-family: monospace"">têm</span>"," ","","exp-sent","têm","","",""
"","1125","html-keyboard-response","78","149548","0.0-3.0-1.50","<span style=""font-size:30px; font-family: monospace"">chantagem</span>"," ","","exp-sent","chantagem","","",""
"","613","html-keyboard-response","79","150412","0.0-3.0-1.51","<span style=""font-size:30px; font-family: monospace"">e</span>"," ","","exp-sent","e","","",""
"","788","html-keyboard-response","80","151452","0.0-3.0-1.52","<span style=""font-size:30px; font-family: monospace"">muita</span>"," ","","exp-sent","muita","","",""
"","837","html-keyboard-response","81","152540","0.0-3.0-1.53","<span style=""font-size:30px; font-family: monospace"">luta.</span>"," ","","exp-sent","luta.","","",""
"","null","html-keyboard-response","82","153792","0.0-3.0-0.54-0.54","<span style= ""font-size:30px; font-family: monospace"">+</span>","null","fixation","","","","",""
"","706","html-keyboard-response","83","154748","0.0-3.0-1.54","<span style=""font-size:30px; font-family: monospace"">A</span>"," ","","exp-sent","A","","",""
"","873","html-keyboard-response","84","155884","0.0-3.0-1.55","<span style=""font-size:30px; font-family: monospace"">bisavó</span>"," ","","exp-sent","bisavó","","",""
"","613","html-keyboard-response","85","156748","0.0-3.0-1.56","<span style=""font-size:30px; font-family: monospace"">recebeu</span>"," ","","exp-sent","recebeu","","",""
"","533","html-keyboard-response","86","157532","0.0-3.0-1.57","<span style=""font-size:30px; font-family: monospace"">um</span>"," ","","exp-sent","um","","",""
"","789","html-keyboard-response","87","158572","0.0-3.0-1.58","<span style=""font-size:30px; font-family: monospace"">benefício</span>"," ","","exp-sent","benefício","","",""
"","772","html-keyboard-response","88","159596","0.0-3.0-1.59","<span style=""font-size:30px; font-family: monospace"">temporário</span>"," ","","exp-sent","temporário","","",""
"","645","html-keyboard-response","89","160492","0.0-3.0-1.60","<span style=""font-size:30px; font-family: monospace"">do</span>"," ","","exp-sent","do","","",""
"","885","html-keyboard-response","90","161628","0.0-3.0-1.61","<span style=""font-size:30px; font-family: monospace"">governo.</span>"," ","","exp-sent","governo.","","",""
"","null","html-keyboard-response","91","162880","0.0-3.0-0.62-0.62","<span style= ""font-size:30px; font-family: monospace"">+</span>","null","fixation","","","","",""
"","576","html-keyboard-response","92","163708","0.0-3.0-1.62","<span style=""font-size:30px; font-family: monospace"">As</span>"," ","","exp-sent","As","","",""
"","580","html-keyboard-response","93","164540","0.0-3.0-1.63","<span style=""font-size:30px; font-family: monospace"">crianças</span>"," ","","exp-sent","crianças","","",""
"","709","html-keyboard-response","94","165500","0.0-3.0-1.64","<span style=""font-size:30px; font-family: monospace"">brincaram</span>"," ","","exp-sent","brincaram","","",""
"","757","html-keyboard-response","95","166508","0.0-3.0-1.65","<span style=""font-size:30px; font-family: monospace"">no</span>"," ","","exp-sent","no","","",""
"","901","html-keyboard-response","96","167660","0.0-3.0-1.66","<span style=""font-size:30px; font-family: monospace"">balanço</span>"," ","","exp-sent","balanço","","",""
"","708","html-keyboard-response","97","168620","0.0-3.0-1.67","<span style=""font-size:30px; font-family: monospace"">a</span>"," ","","exp-sent","a","","",""
"","676","html-keyboard-response","98","169548","0.0-3.0-1.68","<span style=""font-size:30px; font-family: monospace"">tarde</span>"," ","","exp-sent","tarde","","",""
"","805","html-keyboard-response","99","170604","0.0-3.0-1.69","<span style=""font-size:30px; font-family: monospace"">toda.</span>"," ","","exp-sent","toda.","","",""
"","null","html-keyboard-response","100","171856","0.0-3.0-0.70-0.70","<span style= ""font-size:30px; font-family: monospace"">+</span>","null","fixation","","","","",""
"","657","html-keyboard-response","101","172764","0.0-3.0-1.70","<span style=""font-size:30px; font-family: monospace"">Ela</span>"," ","","exp-sent","Ela","","",""
"","805","html-keyboard-response","102","173820","0.0-3.0-1.71","<span style=""font-size:30px; font-family: monospace"">gosta</span>"," ","","exp-sent","gosta","","",""
"","853","html-keyboard-response","103","174924","0.0-3.0-1.72","<span style=""font-size:30px; font-family: monospace"">de</span>"," ","","exp-sent","de","","",""
"","917","html-keyboard-response","104","176092","0.0-3.0-1.73","<span style=""font-size:30px; font-family: monospace"">comida</span>"," ","","exp-sent","comida","","",""
"","773","html-keyboard-response","105","177116","0.0-3.0-1.74","<span style=""font-size:30px; font-family: monospace"">natural</span>"," ","","exp-sent","natural","","",""
"","644","html-keyboard-response","106","178012","0.0-3.0-1.75","<span style=""font-size:30px; font-family: monospace"">no</span>"," ","","exp-sent","no","","",""
"","2485","html-keyboard-response","107","180748","0.0-3.0-1.76","<span style=""font-size:30px; font-family: monospace"">almoço.</span>"," ","","comp","almoço.","","",""
"","1829","html-keyboard-response","108","182828","0.0-3.0-2.76-0.76","<span style=""font-size:30px; font-family: monospace"">Ela gosta de comida natural no almoço?</span>","s","","comp","","Ela gosta de comida natural no almoço?","sim","false"
"","null","html-keyboard-response","109","184345","0.0-3.0-0.77-0.77","<span style= ""font-size:30px; font-family: monospace"">+</span>","null","fixation","","","","",""
"","1720","html-keyboard-response","110","186316","0.0-3.0-1.77","<span style=""font-size:30px; font-family: monospace"">Minha</span>"," ","","exp-sent","Minha","","",""
"","533","html-keyboard-response","111","187100","0.0-3.0-1.78","<span style=""font-size:30px; font-family: monospace"">prima</span>"," ","","exp-sent","prima","","",""
"","468","html-keyboard-response","112","187820","0.0-3.0-1.79","<span style=""font-size:30px; font-family: monospace"">trocou</span>"," ","","exp-sent","trocou","","",""
"","645","html-keyboard-response","113","188716","0.0-3.0-1.80","<span style=""font-size:30px; font-family: monospace"">a</span>"," ","","exp-sent","a","","",""
"","516","html-keyboard-response","114","189484","0.0-3.0-1.81","<span style=""font-size:30px; font-family: monospace"">tela</span>"," ","","exp-sent","tela","","",""
"","516","html-keyboard-response","115","190251","0.0-3.0-1.82","<span style=""font-size:30px; font-family: monospace"">do</span>"," ","","exp-sent","do","","",""
"","517","html-keyboard-response","116","191020","0.0-3.0-1.83","<span style=""font-size:30px; font-family: monospace"">celular</span>"," ","","exp-sent","celular","","",""
"","565","html-keyboard-response","117","191836","0.0-3.0-1.84","<span style=""font-size:30px; font-family: monospace"">duas</span>"," ","","exp-sent","duas","","",""
"","981","html-keyboard-response","118","193068","0.0-3.0-1.85","<span style=""font-size:30px; font-family: monospace"">vezes.</span>"," ","","exp-sent","vezes.","","",""
"","null","html-keyboard-response","119","194320","0.0-3.0-0.86-0.86","<span style= ""font-size:30px; font-family: monospace"">+</span>","null","fixation","","","","",""
"","450","html-keyboard-response","120","195020","0.0-3.0-1.86","<span style=""font-size:30px; font-family: monospace"">Agora</span>"," ","","exp-sent","Agora","","",""
"","500","html-keyboard-response","121","195772","0.0-3.0-1.87","<span style=""font-size:30px; font-family: monospace"">a</span>"," ","","exp-sent","a","","",""
"","660","html-keyboard-response","122","196684","0.0-3.0-1.88","<span style=""font-size:30px; font-family: monospace"">minha</span>"," ","","exp-sent","minha","","",""
"","597","html-keyboard-response","123","197532","0.0-3.0-1.89","<span style=""font-size:30px; font-family: monospace"">única</span>"," ","","exp-sent","única","","",""
"","884","html-keyboard-response","124","198668","0.0-3.0-1.90","<span style=""font-size:30px; font-family: monospace"">preocupação</span>"," ","","exp-sent","preocupação","","",""
"","597","html-keyboard-response","125","199516","0.0-3.0-1.91","<span style=""font-size:30px; font-family: monospace"">é</span>"," ","","exp-sent","é","","",""
"","693","html-keyboard-response","126","200460","0.0-3.0-1.92","<span style=""font-size:30px; font-family: monospace"">um</span>"," ","","exp-sent","um","","",""
"","741","html-keyboard-response","127","201452","0.0-3.0-1.93","<span style=""font-size:30px; font-family: monospace"">descanso</span>"," ","","exp-sent","descanso","","",""
"","677","html-keyboard-response","128","202380","0.0-3.0-1.94","<span style=""font-size:30px; font-family: monospace"">tranquilo.</span>"," ","","exp-sent","tranquilo.","","",""
"","null","html-keyboard-response","129","203633","0.0-3.0-0.95-0.95","<span style= ""font-size:30px; font-family: monospace"">+</span>","null","fixation","","","","",""
"","447","html-keyboard-response","130","204332","0.0-3.0-1.95","<span style=""font-size:30px; font-family: monospace"">A</span>"," ","","exp-sent","A","","",""
"","656","html-keyboard-response","131","205244","0.0-3.0-1.96","<span style=""font-size:30px; font-family: monospace"">criança</span>"," ","","exp-sent","criança","","",""
"","998","html-keyboard-response","132","206492","0.0-3.0-1.97","<span style=""font-size:30px; font-family: monospace"">ganhou</span>"," ","","exp-sent","ganhou","","",""
"","708","html-keyboard-response","133","207452","0.0-3.0-1.98","<span style=""font-size:30px; font-family: monospace"">um</span>"," ","","exp-sent","um","","",""
"","660","html-keyboard-response","134","208364","0.0-3.0-1.99","<span style=""font-size:30px; font-family: monospace"">presente</span>"," ","","exp-sent","presente","","",""
"","725","html-keyboard-response","135","209340","0.0-3.0-1.100","<span style=""font-size:30px; font-family: monospace"">maravilhoso.</span>"," ","","exp-sent","maravilhoso.","","",""
"","null","html-keyboard-response","136","210591","0.0-3.0-0.101-0.101","<span style= ""font-size:30px; font-family: monospace"">+</span>","null","fixation","","","","",""
"","962","html-keyboard-response","137","211804","0.0-3.0-1.101","<span style=""font-size:30px; font-family: monospace"">Os</span>"," ","","exp-sent","Os","","",""
"","613","html-keyboard-response","138","212668","0.0-3.0-1.102","<span style=""font-size:30px; font-family: monospace"">bichos</span>"," ","","exp-sent","bichos","","",""
"","677","html-keyboard-response","139","213596","0.0-3.0-1.103","<span style=""font-size:30px; font-family: monospace"">têm</span>"," ","","exp-sent","têm","","",""
"","581","html-keyboard-response","140","214428","0.0-3.0-1.104","<span style=""font-size:30px; font-family: monospace"">um</span>"," ","","exp-sent","um","","",""
"","757","html-keyboard-response","141","215436","0.0-3.0-1.105","<span style=""font-size:30px; font-family: monospace"">instinto</span>"," ","","exp-sent","instinto","","",""
"","709","html-keyboard-response","142","216396","0.0-3.0-1.106","<span style=""font-size:30px; font-family: monospace"">de</span>"," ","","exp-sent","de","","",""
"","1109","html-keyboard-response","143","217756","0.0-3.0-1.107","<span style=""font-size:30px; font-family: monospace"">sobrevivência</span>"," ","","exp-sent","sobrevivência","","",""
"","533","html-keyboard-response","144","218540","0.0-3.0-1.108","<span style=""font-size:30px; font-family: monospace"">forte.</span>"," ","","exp-sent","forte.","","",""
"","null","html-keyboard-response","145","219792","0.0-3.0-0.109-0.109","<span style= ""font-size:30px; font-family: monospace"">+</span>","null","fixation","","","","",""
"","385","html-keyboard-response","146","220428","0.0-3.0-1.109","<span style=""font-size:30px; font-family: monospace"">Aquele</span>"," ","","exp-sent","Aquele","","",""
"","565","html-keyboard-response","147","221244","0.0-3.0-1.110","<span style=""font-size:30px; font-family: monospace"">menino</span>"," ","","exp-sent","menino","","",""
"","613","html-keyboard-response","148","222108","0.0-3.0-1.111","<span style=""font-size:30px; font-family: monospace"">alto</span>"," ","","exp-sent","alto","","",""
"","582","html-keyboard-response","149","222940","0.0-3.0-1.112","<span style=""font-size:30px; font-family: monospace"">é</span>"," ","","exp-sent","é","","",""
"","629","html-keyboard-response","150","223820","0.0-3.0-1.113","<span style=""font-size:30px; font-family: monospace"">exibido</span>"," ","","exp-sent","exibido","","",""
"","581","html-keyboard-response","151","224651","0.0-3.0-1.114","<span style=""font-size:30px; font-family: monospace"">e</span>"," ","","exp-sent","e","","",""
"","660","html-keyboard-response","152","225563","0.0-3.0-1.115","<span style=""font-size:30px; font-family: monospace"">sovina.</span>"," ","","comp","sovina.","","",""
"","1940","html-keyboard-response","153","227755","0.0-3.0-2.115-0.115","<span style=""font-size:30px; font-family: monospace"">Aquele menino é humilde?</span>","s","","comp","","Aquele menino é humilde?","não","false"
"","null","html-keyboard-response","154","229257","0.0-3.0-0.116-0.116","<span style= ""font-size:30px; font-family: monospace"">+</span>","null","fixation","","","","",""
"","1639","html-keyboard-response","155","231147","0.0-3.0-1.116","<span style=""font-size:30px; font-family: monospace"">Preciso</span>"," ","","exp-sent","Preciso","","",""
"","533","html-keyboard-response","156","231931","0.0-3.0-1.117","<span style=""font-size:30px; font-family: monospace"">de</span>"," ","","exp-sent","de","","",""
"","436","html-keyboard-response","157","232619","0.0-3.0-1.118","<span style=""font-size:30px; font-family: monospace"">um</span>"," ","","exp-sent","um","","",""
"","901","html-keyboard-response","158","233771","0.0-3.0-1.119","<span style=""font-size:30px; font-family: monospace"">relatório</span>"," ","","exp-sent","relatório","","",""
"","884","html-keyboard-response","159","234907","0.0-3.0-1.120","<span style=""font-size:30px; font-family: monospace"">oficial</span>"," ","","exp-sent","oficial","","",""
"","549","html-keyboard-response","160","235707","0.0-3.0-1.121","<span style=""font-size:30px; font-family: monospace"">para</span>"," ","","exp-sent","para","","",""
"","501","html-keyboard-response","161","236459","0.0-3.0-1.122","<span style=""font-size:30px; font-family: monospace"">amanhã.</span>"," ","","exp-sent","amanhã.","","",""
"","null","html-keyboard-response","162","237711","0.0-3.0-0.123-0.123","<span style= ""font-size:30px; font-family: monospace"">+</span>","null","fixation","","","","",""
"","449","html-keyboard-response","163","238411","0.0-3.0-1.123","<span style=""font-size:30px; font-family: monospace"">Ele</span>"," ","","exp-sent","Ele","","",""
"","453","html-keyboard-response","164","239115","0.0-3.0-1.124","<span style=""font-size:30px; font-family: monospace"">viu</span>"," ","","exp-sent","viu","","",""
"","453","html-keyboard-response","165","239819","0.0-3.0-1.125","<span style=""font-size:30px; font-family: monospace"">um</span>"," ","","exp-sent","um","","",""
"","500","html-keyboard-response","166","240571","0.0-3.0-1.126","<span style=""font-size:30px; font-family: monospace"">inseto</span>"," ","","exp-sent","inseto","","",""
"","596","html-keyboard-response","167","241420","0.0-3.0-1.127","<span style=""font-size:30px; font-family: monospace"">marrom</span>"," ","","exp-sent","marrom","","",""
"","564","html-keyboard-response","168","242235","0.0-3.0-1.128","<span style=""font-size:30px; font-family: monospace"">na</span>"," ","","exp-sent","na","","",""
"","725","html-keyboard-response","169","243211","0.0-3.0-1.129","<span style=""font-size:30px; font-family: monospace"">parede.</span>"," ","","exp-sent","parede.","","",""
"","null","html-keyboard-response","170","244464","0.0-3.0-0.130-0.130","<span style= ""font-size:30px; font-family: monospace"">+</span>","null","fixation","","","","",""
"","576","html-keyboard-response","171","245291","0.0-3.0-1.130","<span style=""font-size:30px; font-family: monospace"">O</span>"," ","","exp-sent","O","","",""
"","484","html-keyboard-response","172","246027","0.0-3.0-1.131","<span style=""font-size:30px; font-family: monospace"">avô</span>"," ","","exp-sent","avô","","",""
"","581","html-keyboard-response","173","246859","0.0-3.0-1.132","<span style=""font-size:30px; font-family: monospace"">fez</span>"," ","","exp-sent","fez","","",""
"","885","html-keyboard-response","174","247995","0.0-3.0-1.133","<span style=""font-size:30px; font-family: monospace"">uma</span>"," ","","exp-sent","uma","","",""
"","901","html-keyboard-response","175","249147","0.0-3.0-1.134","<span style=""font-size:30px; font-family: monospace"">lista</span>"," ","","exp-sent","lista","","",""
"","564","html-keyboard-response","176","249963","0.0-3.0-1.135","<span style=""font-size:30px; font-family: monospace"">de</span>"," ","","exp-sent","de","","",""
"","901","html-keyboard-response","177","251115","0.0-3.0-1.136","<span style=""font-size:30px; font-family: monospace"">compras</span>"," ","","exp-sent","compras","","",""
"","709","html-keyboard-response","178","252075","0.0-3.0-1.137","<span style=""font-size:30px; font-family: monospace"">do</span>"," ","","exp-sent","do","","",""
"","661","html-keyboard-response","179","252987","0.0-3.0-1.138","<span style=""font-size:30px; font-family: monospace"">mercado.</span>"," ","","exp-sent","mercado.","","",""
"","null","html-keyboard-response","180","254239","0.0-3.0-0.139-0.139","<span style= ""font-size:30px; font-family: monospace"">+</span>","null","fixation","","","","",""
"","498","html-keyboard-response","181","254987","0.0-3.0-1.139","<span style=""font-size:30px; font-family: monospace"">As</span>"," ","","exp-sent","As","","",""
"","549","html-keyboard-response","182","255787","0.0-3.0-1.140","<span style=""font-size:30px; font-family: monospace"">pessoas</span>"," ","","exp-sent","pessoas","","",""
"","549","html-keyboard-response","183","256587","0.0-3.0-1.141","<span style=""font-size:30px; font-family: monospace"">não</span>"," ","","exp-sent","não","","",""
"","933","html-keyboard-response","184","257771","0.0-3.0-1.142","<span style=""font-size:30px; font-family: monospace"">enviam</span>"," ","","exp-sent","enviam","","",""
"","1110","html-keyboard-response","185","259131","0.0-3.0-1.143","<span style=""font-size:30px; font-family: monospace"">telegrama</span>"," ","","exp-sent","telegrama","","",""
"","757","html-keyboard-response","186","260139","0.0-3.0-1.144","<span style=""font-size:30px; font-family: monospace"">nos</span>"," ","","exp-sent","nos","","",""
"","421","html-keyboard-response","187","260811","0.0-3.0-1.145","<span style=""font-size:30px; font-family: monospace"">dias</span>"," ","","exp-sent","dias","","",""
"","485","html-keyboard-response","188","261547","0.0-3.0-1.146","<span style=""font-size:30px; font-family: monospace"">de</span>"," ","","exp-sent","de","","",""
"","485","html-keyboard-response","189","262283","0.0-3.0-1.147","<span style=""font-size:30px; font-family: monospace"">hoje.</span>"," ","","exp-sent","hoje.","","",""
"","null","html-keyboard-response","190","263536","0.0-3.0-0.148-0.148","<span style= ""font-size:30px; font-family: monospace"">+</span>","null","fixation","","","","",""
"","769","html-keyboard-response","191","264555","0.0-3.0-1.148","<span style=""font-size:30px; font-family: monospace"">Ele</span>"," ","","exp-sent","Ele","","",""
"","517","html-keyboard-response","192","265323","0.0-3.0-1.149","<span style=""font-size:30px; font-family: monospace"">não</span>"," ","","exp-sent","não","","",""
"","453","html-keyboard-response","193","266027","0.0-3.0-1.150","<span style=""font-size:30px; font-family: monospace"">gosta</span>"," ","","exp-sent","gosta","","",""
"","469","html-keyboard-response","194","266747","0.0-3.0-1.151","<span style=""font-size:30px; font-family: monospace"">de</span>"," ","","exp-sent","de","","",""
"","1188","html-keyboard-response","195","268187","0.0-3.0-1.152","<span style=""font-size:30px; font-family: monospace"">tomate</span>"," ","","exp-sent","tomate","","",""
"","597","html-keyboard-response","196","269035","0.0-3.0-1.153","<span style=""font-size:30px; font-family: monospace"">misturado</span>"," ","","exp-sent","misturado","","",""
"","678","html-keyboard-response","197","269963","0.0-3.0-1.154","<span style=""font-size:30px; font-family: monospace"">na</span>"," ","","exp-sent","na","","",""
"","789","html-keyboard-response","198","271003","0.0-3.0-1.155","<span style=""font-size:30px; font-family: monospace"">comida.</span>"," ","","comp","comida.","","",""
"","1685","html-keyboard-response","199","272939","0.0-3.0-2.155-0.155","<span style=""font-size:30px; font-family: monospace"">Ele gosta de tomate na comida?</span>","n","","comp","","Ele gosta de tomate na comida?","não","false"
"","null","html-keyboard-response","200","274442","0.0-3.0-0.156-0.156","<span style= ""font-size:30px; font-family: monospace"">+</span>","null","fixation","","","","",""
"","838","html-keyboard-response","201","275531","0.0-3.0-1.156","<span style=""font-size:30px; font-family: monospace"">O</span>"," ","","exp-sent","O","","",""
"","549","html-keyboard-response","202","276331","0.0-3.0-1.157","<span style=""font-size:30px; font-family: monospace"">moço</span>"," ","","exp-sent","moço","","",""
"","548","html-keyboard-response","203","277131","0.0-3.0-1.158","<span style=""font-size:30px; font-family: monospace"">usou</span>"," ","","exp-sent","usou","","",""
"","709","html-keyboard-response","204","278091","0.0-3.0-1.159","<span style=""font-size:30px; font-family: monospace"">várias</span>"," ","","exp-sent","várias","","",""
"","741","html-keyboard-response","205","279083","0.0-3.0-1.160","<span style=""font-size:30px; font-family: monospace"">velas</span>"," ","","exp-sent","velas","","",""
"","613","html-keyboard-response","206","279947","0.0-3.0-1.161","<span style=""font-size:30px; font-family: monospace"">no</span>"," ","","exp-sent","no","","",""
"","597","html-keyboard-response","207","280795","0.0-3.0-1.162","<span style=""font-size:30px; font-family: monospace"">enfeite</span>"," ","","exp-sent","enfeite","","",""
"","709","html-keyboard-response","208","281755","0.0-3.0-1.163","<span style=""font-size:30px; font-family: monospace"">de</span>"," ","","exp-sent","de","","",""
"","613","html-keyboard-response","209","282619","0.0-3.0-1.164","<span style=""font-size:30px; font-family: monospace"">mesa.</span>"," ","","exp-sent","mesa.","","",""
"","null","html-keyboard-response","210","283872","0.0-3.0-0.165-0.165","<span style= ""font-size:30px; font-family: monospace"">+</span>","null","fixation","","","","",""
"","352","html-keyboard-response","211","284475","0.0-3.0-1.165","<span style=""font-size:30px; font-family: monospace"">Gostamos</span>"," ","","exp-sent","Gostamos","","",""
"","597","html-keyboard-response","212","285323","0.0-3.0-1.166","<span style=""font-size:30px; font-family: monospace"">de</span>"," ","","exp-sent","de","","",""
"","501","html-keyboard-response","213","286075","0.0-3.0-1.167","<span style=""font-size:30px; font-family: monospace"">suco</span>"," ","","exp-sent","suco","","",""
"","613","html-keyboard-response","214","286939","0.0-3.0-1.168","<span style=""font-size:30px; font-family: monospace"">em</span>"," ","","exp-sent","em","","",""
"","725","html-keyboard-response","215","287915","0.0-3.0-1.169","<span style=""font-size:30px; font-family: monospace"">garrafa</span>"," ","","exp-sent","garrafa","","",""
"","597","html-keyboard-response","216","288763","0.0-3.0-1.170","<span style=""font-size:30px; font-family: monospace"">de</span>"," ","","exp-sent","de","","",""
"","1189","html-keyboard-response","217","290203","0.0-3.0-1.171","<span style=""font-size:30px; font-family: monospace"">tamanho</span>"," ","","exp-sent","tamanho","","",""
"","901","html-keyboard-response","218","291355","0.0-3.0-1.172","<span style=""font-size:30px; font-family: monospace"">pequeno.</span>"," ","","exp-sent","pequeno.","","",""
"","null","html-keyboard-response","219","292608","0.0-3.0-0.173-0.173","<span style= ""font-size:30px; font-family: monospace"">+</span>","null","fixation","","","","",""
"","721","html-keyboard-response","220","293579","0.0-3.0-1.173","<span style=""font-size:30px; font-family: monospace"">Sua</span>"," ","","exp-sent","Sua","","",""
"","645","html-keyboard-response","221","294475","0.0-3.0-1.174","<span style=""font-size:30px; font-family: monospace"">filha</span>"," ","","exp-sent","filha","","",""
"","629","html-keyboard-response","222","295355","0.0-3.0-1.175","<span style=""font-size:30px; font-family: monospace"">é</span>"," ","","exp-sent","é","","",""
"","773","html-keyboard-response","223","296379","0.0-3.0-1.176","<span style=""font-size:30px; font-family: monospace"">muito</span>"," ","","exp-sent","muito","","",""
"","805","html-keyboard-response","224","297435","0.0-3.0-1.177","<span style=""font-size:30px; font-family: monospace"">capaz</span>"," ","","exp-sent","capaz","","",""
"","549","html-keyboard-response","225","298235","0.0-3.0-1.178","<span style=""font-size:30px; font-family: monospace"">e</span>"," ","","exp-sent","e","","",""
"","645","html-keyboard-response","226","299131","0.0-3.0-1.179","<span style=""font-size:30px; font-family: monospace"">esforçada.</span>"," ","","exp-sent","esforçada.","","",""
"","null","html-keyboard-response","227","300383","0.0-3.0-0.180-0.180","<span style= ""font-size:30px; font-family: monospace"">+</span>","null","fixation","","","","",""
"","849","html-keyboard-response","228","301483","0.0-3.0-1.180","<span style=""font-size:30px; font-family: monospace"">A</span>"," ","","exp-sent","A","","",""
"","1269","html-keyboard-response","229","303003","0.0-3.0-1.181","<span style=""font-size:30px; font-family: monospace"">batida</span>"," ","","exp-sent","batida","","",""
"","645","html-keyboard-response","230","303899","0.0-3.0-1.182","<span style=""font-size:30px; font-family: monospace"">causou</span>"," ","","exp-sent","causou","","",""
"","1189","html-keyboard-response","231","305339","0.0-3.0-1.183","<span style=""font-size:30px; font-family: monospace"">muita</span>"," ","","exp-sent","muita","","",""
"","660","html-keyboard-response","232","306251","0.0-3.0-1.184","<span style=""font-size:30px; font-family: monospace"">confusão</span>"," ","","exp-sent","confusão","","",""
"","660","html-keyboard-response","233","307163","0.0-3.0-1.185","<span style=""font-size:30px; font-family: monospace"">na</span>"," ","","exp-sent","na","","",""
"","1093","html-keyboard-response","234","308507","0.0-3.0-1.186","<span style=""font-size:30px; font-family: monospace"">estrada.</span>"," ","","exp-sent","estrada.","","",""
"","null","html-keyboard-response","235","309769","0.0-3.0-0.187-0.187","<span style= ""font-size:30px; font-family: monospace"">+</span>","null","fixation","","","","",""
"","504","html-keyboard-response","236","310539","0.0-3.0-1.187","<span style=""font-size:30px; font-family: monospace"">Eu</span>"," ","","exp-sent","Eu","","",""
"","613","html-keyboard-response","237","311403","0.0-3.0-1.188","<span style=""font-size:30px; font-family: monospace"">cozinhei</span>"," ","","exp-sent","cozinhei","","",""
"","1765","html-keyboard-response","238","313419","0.0-3.0-1.189","<span style=""font-size:30px; font-family: monospace"">um</span>"," ","","exp-sent","um","","",""
"","597","html-keyboard-response","239","314267","0.0-3.0-1.190","<span style=""font-size:30px; font-family: monospace"">almoço</span>"," ","","exp-sent","almoço","","",""
"","837","html-keyboard-response","240","315355","0.0-3.0-1.191","<span style=""font-size:30px; font-family: monospace"">nutritivo</span>"," ","","exp-sent","nutritivo","","",""
"","773","html-keyboard-response","241","316379","0.0-3.0-1.192","<span style=""font-size:30px; font-family: monospace"">para</span>"," ","","exp-sent","para","","",""
"","725","html-keyboard-response","242","317355","0.0-3.0-1.193","<span style=""font-size:30px; font-family: monospace"">hoje.</span>"," ","","comp","hoje.","","",""
"","1621","html-keyboard-response","243","319227","0.0-3.0-2.193-0.193","<span style=""font-size:30px; font-family: monospace"">O almoço era nutritivo?</span>","s","","comp","","O almoço era nutritivo?","sim","false"
"","null","html-keyboard-response","244","320729","0.0-3.0-0.194-0.194","<span style= ""font-size:30px; font-family: monospace"">+</span>","null","fixation","","","","",""
"","615","html-keyboard-response","245","321611","0.0-3.0-1.194","<span style=""font-size:30px; font-family: monospace"">Ursos</span>"," ","","exp-sent","Ursos","","",""
"","564","html-keyboard-response","246","322427","0.0-3.0-1.195","<span style=""font-size:30px; font-family: monospace"">têm</span>"," ","","exp-sent","têm","","",""
"","597","html-keyboard-response","247","323275","0.0-3.0-1.196","<span style=""font-size:30px; font-family: monospace"">uma</span>"," ","","exp-sent","uma","","",""
"","853","html-keyboard-response","248","324379","0.0-3.0-1.197","<span style=""font-size:30px; font-family: monospace"">patada</span>"," ","","exp-sent","patada","","",""
"","661","html-keyboard-response","249","325291","0.0-3.0-1.198","<span style=""font-size:30px; font-family: monospace"">brutal</span>"," ","","exp-sent","brutal","","",""
"","692","html-keyboard-response","250","326235","0.0-3.0-1.199","<span style=""font-size:30px; font-family: monospace"">e</span>"," ","","exp-sent","e","","",""
"","709","html-keyboard-response","251","327195","0.0-3.0-1.200","<span style=""font-size:30px; font-family: monospace"">poderosa.</span>"," ","","exp-sent","poderosa.","","",""
"","null","html-keyboard-response","252","328448","0.0-3.0-0.201-0.201","<span style= ""font-size:30px; font-family: monospace"">+</span>","null","fixation","","","","",""
"","480","html-keyboard-response","253","329179","0.0-3.0-1.201","<span style=""font-size:30px; font-family: monospace"">Eu</span>"," ","","exp-sent","Eu","","",""
"","549","html-keyboard-response","254","329979","0.0-3.0-1.202","<span style=""font-size:30px; font-family: monospace"">fiz</span>"," ","","exp-sent","fiz","","",""
"","725","html-keyboard-response","255","330955","0.0-3.0-1.203","<span style=""font-size:30px; font-family: monospace"">aulas</span>"," ","","exp-sent","aulas","","",""
"","629","html-keyboard-response","256","331835","0.0-3.0-1.204","<span style=""font-size:30px; font-family: monospace"">de</span>"," ","","exp-sent","de","","",""
"","837","html-keyboard-response","257","332923","0.0-3.0-1.205","<span style=""font-size:30px; font-family: monospace"">espanhol</span>"," ","","exp-sent","espanhol","","",""
"","677","html-keyboard-response","258","333851","0.0-3.0-1.206","<span style=""font-size:30px; font-family: monospace"">nesta</span>"," ","","exp-sent","nesta","","",""
"","645","html-keyboard-response","259","334747","0.0-3.0-1.207","<span style=""font-size:30px; font-family: monospace"">cidade.</span>"," ","","exp-sent","cidade.","","",""
"","null","html-keyboard-response","260","335999","0.0-3.0-0.208-0.208","<span style= ""font-size:30px; font-family: monospace"">+</span>","null","fixation","","","","",""
"","562","html-keyboard-response","261","336811","0.0-3.0-1.208","<span style=""font-size:30px; font-family: monospace"">Ele</span>"," ","","exp-sent","Ele","","",""
"","613","html-keyboard-response","262","337675","0.0-3.0-1.209","<span style=""font-size:30px; font-family: monospace"">comprou</span>"," ","","exp-sent","comprou","","",""
"","805","html-keyboard-response","263","338731","0.0-3.0-1.210","<span style=""font-size:30px; font-family: monospace"">mais</span>"," ","","exp-sent","mais","","",""
"","677","html-keyboard-response","264","339659","0.0-3.0-1.211","<span style=""font-size:30px; font-family: monospace"">uma</span>"," ","","exp-sent","uma","","",""
"","901","html-keyboard-response","265","340811","0.0-3.0-1.212","<span style=""font-size:30px; font-family: monospace"">esponja</span>"," ","","exp-sent","esponja","","",""
"","725","html-keyboard-response","266","341787","0.0-3.0-1.213","<span style=""font-size:30px; font-family: monospace"">para</span>"," ","","exp-sent","para","","",""
"","500","html-keyboard-response","267","342539","0.0-3.0-1.214","<span style=""font-size:30px; font-family: monospace"">a</span>"," ","","exp-sent","a","","",""
"","565","html-keyboard-response","268","343355","0.0-3.0-1.215","<span style=""font-size:30px; font-family: monospace"">cozinha.</span>"," ","","exp-sent","cozinha.","","",""
"","null","html-keyboard-response","269","344606","0.0-3.0-0.216-0.216","<span style= ""font-size:30px; font-family: monospace"">+</span>","null","fixation","","","","",""
"","609","html-keyboard-response","270","345466","0.0-3.0-1.216","<span style=""font-size:30px; font-family: monospace"">Ele</span>"," ","","exp-sent","Ele","","",""
"","566","html-keyboard-response","271","346283","0.0-3.0-1.217","<span style=""font-size:30px; font-family: monospace"">teve</span>"," ","","exp-sent","teve","","",""
"","677","html-keyboard-response","272","347211","0.0-3.0-1.218","<span style=""font-size:30px; font-family: monospace"">um</span>"," ","","exp-sent","um","","",""
"","708","html-keyboard-response","273","348171","0.0-3.0-1.219","<span style=""font-size:30px; font-family: monospace"">sono</span>"," ","","exp-sent","sono","","",""
"","1316","html-keyboard-response","274","349739","0.0-3.0-1.220","<span style=""font-size:30px; font-family: monospace"">bizarro</span>"," ","","exp-sent","bizarro","","",""
"","629","html-keyboard-response","275","350618","0.0-3.0-1.221","<span style=""font-size:30px; font-family: monospace"">sem</span>"," ","","exp-sent","sem","","",""
"","501","html-keyboard-response","276","351371","0.0-3.0-1.222","<span style=""font-size:30px; font-family: monospace"">nenhum</span>"," ","","exp-sent","nenhum","","",""
"","548","html-keyboard-response","277","352170","0.0-3.0-1.223","<span style=""font-size:30px; font-family: monospace"">motivo.</span>"," ","","exp-sent","motivo.","","",""
"","null","html-keyboard-response","278","353423","0.0-3.0-0.224-0.224","<span style= ""font-size:30px; font-family: monospace"">+</span>","null","fixation","","","","",""
"","625","html-keyboard-response","279","354299","0.0-3.0-1.224","<span style=""font-size:30px; font-family: monospace"">A</span>"," ","","exp-sent","A","","",""
"","533","html-keyboard-response","280","355083","0.0-3.0-1.225","<span style=""font-size:30px; font-family: monospace"">moça</span>"," ","","exp-sent","moça","","",""
"","759","html-keyboard-response","281","356106","0.0-3.0-1.226","<span style=""font-size:30px; font-family: monospace"">comprou</span>"," ","","exp-sent","comprou","","",""
"","726","html-keyboard-response","282","357083","0.0-3.0-1.227","<span style=""font-size:30px; font-family: monospace"">um</span>"," ","","exp-sent","um","","",""
"","725","html-keyboard-response","283","358059","0.0-3.0-1.228","<span style=""font-size:30px; font-family: monospace"">diamante</span>"," ","","exp-sent","diamante","","",""
"","516","html-keyboard-response","284","358827","0.0-3.0-1.229","<span style=""font-size:30px; font-family: monospace"">para</span>"," ","","exp-sent","para","","",""
"","549","html-keyboard-response","285","359627","0.0-3.0-1.230","<span style=""font-size:30px; font-family: monospace"">sua</span>"," ","","exp-sent","sua","","",""
"","565","html-keyboard-response","286","360443","0.0-3.0-1.231","<span style=""font-size:30px; font-family: monospace"">prima.</span>"," ","","comp","prima.","","",""
"","1428","html-keyboard-response","287","362123","0.0-3.0-2.231-0.231","<span style=""font-size:30px; font-family: monospace"">A moça comprou um diamante?</span>","s","","comp","","A moça comprou um diamante?","sim","false"
"","null","html-keyboard-response","288","363625","0.0-3.0-0.232-0.232","<span style= ""font-size:30px; font-family: monospace"">+</span>","null","fixation","","","","",""
"","1590","html-keyboard-response","289","365466","0.0-3.0-1.232","<span style=""font-size:30px; font-family: monospace"">Ganhamos</span>"," ","","exp-sent","Ganhamos","","",""
"","516","html-keyboard-response","290","366234","0.0-3.0-1.233","<span style=""font-size:30px; font-family: monospace"">passagem</span>"," ","","exp-sent","passagem","","",""
"","597","html-keyboard-response","291","367083","0.0-3.0-1.234","<span style=""font-size:30px; font-family: monospace"">para</span>"," ","","exp-sent","para","","",""
"","501","html-keyboard-response","292","367835","0.0-3.0-1.235","<span style=""font-size:30px; font-family: monospace"">uma</span>"," ","","exp-sent","uma","","",""
"","677","html-keyboard-response","293","368763","0.0-3.0-1.236","<span style=""font-size:30px; font-family: monospace"">viagem</span>"," ","","exp-sent","viagem","","",""
"","565","html-keyboard-response","294","369579","0.0-3.0-1.237","<span style=""font-size:30px; font-family: monospace"">de</span>"," ","","exp-sent","de","","",""
"","549","html-keyboard-response","295","370379","0.0-3.0-1.238","<span style=""font-size:30px; font-family: monospace"">férias.</span>"," ","","exp-sent","férias.","","",""
"","null","html-keyboard-response","296","371632","0.0-3.0-0.239-0.239","<span style= ""font-size:30px; font-family: monospace"">+</span>","null","fixation","","","","",""
"","335","html-keyboard-response","297","372219","0.0-3.0-1.239","<span style=""font-size:30px; font-family: monospace"">Caiu</span>"," ","","exp-sent","Caiu","","",""
"","821","html-keyboard-response","298","373291","0.0-3.0-1.240","<span style=""font-size:30px; font-family: monospace"">algo</span>"," ","","exp-sent","algo","","",""
"","709","html-keyboard-response","299","374251","0.0-3.0-1.241","<span style=""font-size:30px; font-family: monospace"">no</span>"," ","","exp-sent","no","","",""
"","612","html-keyboard-response","300","375115","0.0-3.0-1.242","<span style=""font-size:30px; font-family: monospace"">meu</span>"," ","","exp-sent","meu","","",""
"","597","html-keyboard-response","301","375963","0.0-3.0-1.243","<span style=""font-size:30px; font-family: monospace"">olho</span>"," ","","exp-sent","olho","","",""
"","660","html-keyboard-response","302","376875","0.0-3.0-1.244","<span style=""font-size:30px; font-family: monospace"">ontem</span>"," ","","exp-sent","ontem","","",""
"","629","html-keyboard-response","303","377755","0.0-3.0-1.245","<span style=""font-size:30px; font-family: monospace"">de</span>"," ","","exp-sent","de","","",""
"","725","html-keyboard-response","304","378730","0.0-3.0-1.246","<span style=""font-size:30px; font-family: monospace"">tarde.</span>"," ","","exp-sent","tarde.","","",""
"","null","html-keyboard-response","305","379983","0.0-3.0-0.247-0.247","<span style= ""font-size:30px; font-family: monospace"">+</span>","null","fixation","","","","",""
"","513","html-keyboard-response","306","380747","0.0-3.0-1.247","<span style=""font-size:30px; font-family: monospace"">Não</span>"," ","","exp-sent","Não","","",""
"","565","html-keyboard-response","307","381563","0.0-3.0-1.248","<span style=""font-size:30px; font-family: monospace"">havia</span>"," ","","exp-sent","havia","","",""
"","661","html-keyboard-response","308","382475","0.0-3.0-1.249","<span style=""font-size:30px; font-family: monospace"">mais</span>"," ","","exp-sent","mais","","",""
"","1156","html-keyboard-response","309","383883","0.0-3.0-1.250","<span style=""font-size:30px; font-family: monospace"">nenhum</span>"," ","","exp-sent","nenhum","","",""
"","1285","html-keyboard-response","310","385419","0.0-3.0-1.251","<span style=""font-size:30px; font-family: monospace"">ingresso</span>"," ","","exp-sent","ingresso","","",""
"","1189","html-keyboard-response","311","386859","0.0-3.0-1.252","<span style=""font-size:30px; font-family: monospace"">para</span>"," ","","exp-sent","para","","",""
"","821","html-keyboard-response","312","387931","0.0-3.0-1.253","<span style=""font-size:30px; font-family: monospace"">o</span>"," ","","exp-sent","o","","",""
"","613","html-keyboard-response","313","388794","0.0-3.0-1.254","<span style=""font-size:30px; font-family: monospace"">evento.</span>"," ","","exp-sent","evento.","","",""
"","null","html-keyboard-response","314","390047","0.0-3.0-0.255-0.255","<span style= ""font-size:30px; font-family: monospace"">+</span>","null","fixation","","","","",""
"","176","html-keyboard-response","315","390475","0.0-3.0-1.255","<span style=""font-size:30px; font-family: monospace"">A</span>"," ","","exp-sent","A","","",""
"","437","html-keyboard-response","316","391163","0.0-3.0-1.256","<span style=""font-size:30px; font-family: monospace"">médica</span>"," ","","exp-sent","médica","","",""
"","485","html-keyboard-response","317","391899","0.0-3.0-1.257","<span style=""font-size:30px; font-family: monospace"">descobriu</span>"," ","","exp-sent","descobriu","","",""
"","644","html-keyboard-response","318","392794","0.0-3.0-1.258","<span style=""font-size:30px; font-family: monospace"">uma</span>"," ","","exp-sent","uma","","",""
"","581","html-keyboard-response","319","393627","0.0-3.0-1.259","<span style=""font-size:30px; font-family: monospace"">cura</span>"," ","","exp-sent","cura","","",""
"","661","html-keyboard-response","320","394539","0.0-3.0-1.260","<span style=""font-size:30px; font-family: monospace"">para</span>"," ","","exp-sent","para","","",""
"","597","html-keyboard-response","321","395387","0.0-3.0-1.261","<span style=""font-size:30px; font-family: monospace"">a</span>"," ","","exp-sent","a","","",""
"","741","html-keyboard-response","322","396378","0.0-3.0-1.262","<span style=""font-size:30px; font-family: monospace"">doença.</span>"," ","","exp-sent","doença.","","",""
"","null","html-keyboard-response","323","397630","0.0-3.0-0.263-0.263","<span style= ""font-size:30px; font-family: monospace"">+</span>","null","fixation","","","","",""
"","1013","html-keyboard-response","324","398907","0.0-3.0-1.263","<span style=""font-size:30px; font-family: monospace"">O</span>"," ","","exp-sent","O","","",""
"","581","html-keyboard-response","325","399739","0.0-3.0-1.264","<span style=""font-size:30px; font-family: monospace"">menino</span>"," ","","exp-sent","menino","","",""
"","517","html-keyboard-response","326","400507","0.0-3.0-1.265","<span style=""font-size:30px; font-family: monospace"">riscou</span>"," ","","exp-sent","riscou","","",""
"","420","html-keyboard-response","327","401178","0.0-3.0-1.266","<span style=""font-size:30px; font-family: monospace"">o</span>"," ","","exp-sent","o","","",""
"","548","html-keyboard-response","328","401979","0.0-3.0-1.267","<span style=""font-size:30px; font-family: monospace"">caderno</span>"," ","","exp-sent","caderno","","",""
"","549","html-keyboard-response","329","402779","0.0-3.0-1.268","<span style=""font-size:30px; font-family: monospace"">com</span>"," ","","exp-sent","com","","",""
"","421","html-keyboard-response","330","403451","0.0-3.0-1.269","<span style=""font-size:30px; font-family: monospace"">a</span>"," ","","exp-sent","a","","",""
"","404","html-keyboard-response","331","404107","0.0-3.0-1.270","<span style=""font-size:30px; font-family: monospace"">caneta.</span>"," ","","comp","caneta.","","",""
"","1573","html-keyboard-response","332","405930","0.0-3.0-2.270-0.270","<span style=""font-size:30px; font-family: monospace"">O menino riscou a parede com a caneta?</span>","s","","comp","","O menino riscou a parede com a caneta?","não","false"
"","null","html-keyboard-response","333","407433","0.0-3.0-0.271-0.271","<span style= ""font-size:30px; font-family: monospace"">+</span>","null","fixation","","","","",""
"","1078","html-keyboard-response","334","408762","0.0-3.0-1.271","<span style=""font-size:30px; font-family: monospace"">No</span>"," ","","exp-sent","No","","",""
"","725","html-keyboard-response","335","409738","0.0-3.0-1.272","<span style=""font-size:30px; font-family: monospace"">passado</span>"," ","","exp-sent","passado","","",""
"","613","html-keyboard-response","336","410602","0.0-3.0-1.273","<span style=""font-size:30px; font-family: monospace"">houve</span>"," ","","exp-sent","houve","","",""
"","581","html-keyboard-response","337","411434","0.0-3.0-1.274","<span style=""font-size:30px; font-family: monospace"">uma</span>"," ","","exp-sent","uma","","",""
"","981","html-keyboard-response","338","412666","0.0-3.0-1.275","<span style=""font-size:30px; font-family: monospace"">rebelião</span>"," ","","exp-sent","rebelião","","",""
"","677","html-keyboard-response","339","413594","0.0-3.0-1.276","<span style=""font-size:30px; font-family: monospace"">nesta</span>"," ","","exp-sent","nesta","","",""
"","597","html-keyboard-response","340","414442","0.0-3.0-1.277","<span style=""font-size:30px; font-family: monospace"">cidade.</span>"," ","","exp-sent","cidade.","","",""
"","null","html-keyboard-response","341","415694","0.0-3.0-0.278-0.278","<span style= ""font-size:30px; font-family: monospace"">+</span>","null","fixation","","","","",""
"","353","html-keyboard-response","342","416298","0.0-3.0-1.278","<span style=""font-size:30px; font-family: monospace"">Ele</span>"," ","","exp-sent","Ele","","",""
"","693","html-keyboard-response","343","417242","0.0-3.0-1.279","<span style=""font-size:30px; font-family: monospace"">fundou</span>"," ","","exp-sent","fundou","","",""
"","725","html-keyboard-response","344","418218","0.0-3.0-1.280","<span style=""font-size:30px; font-family: monospace"">uma</span>"," ","","exp-sent","uma","","",""
"","852","html-keyboard-response","345","419322","0.0-3.0-1.281","<span style=""font-size:30px; font-family: monospace"">empresa</span>"," ","","exp-sent","empresa","","",""
"","1813","html-keyboard-response","346","421386","0.0-3.0-1.282","<span style=""font-size:30px; font-family: monospace"">privada</span>"," ","","exp-sent","privada","","",""
"","661","html-keyboard-response","347","422298","0.0-3.0-1.283","<span style=""font-size:30px; font-family: monospace"">sem</span>"," ","","exp-sent","sem","","",""
"","869","html-keyboard-response","348","423418","0.0-3.0-1.284","<span style=""font-size:30px; font-family: monospace"">ajuda.</span>"," ","","exp-sent","ajuda.","","",""
"","null","html-keyboard-response","349","424670","0.0-3.0-0.285-0.285","<span style= ""font-size:30px; font-family: monospace"">+</span>","null","fixation","","","","",""
"","733","html-keyboard-response","350","425658","0.0-3.0-1.285","<span style=""font-size:30px; font-family: monospace"">As</span>"," ","","exp-sent","As","","",""
"","565","html-keyboard-response","351","426474","0.0-3.0-1.286","<span style=""font-size:30px; font-family: monospace"">meninas</span>"," ","","exp-sent","meninas","","",""
"","869","html-keyboard-response","352","427594","0.0-3.0-1.287","<span style=""font-size:30px; font-family: monospace"">encontraram</span>"," ","","exp-sent","encontraram","","",""
"","580","html-keyboard-response","353","428426","0.0-3.0-1.288","<span style=""font-size:30px; font-family: monospace"">um</span>"," ","","exp-sent","um","","",""
"","549","html-keyboard-response","354","429226","0.0-3.0-1.289","<span style=""font-size:30px; font-family: monospace"">rato</span>"," ","","exp-sent","rato","","",""
"","645","html-keyboard-response","355","430122","0.0-3.0-1.290","<span style=""font-size:30px; font-family: monospace"">dentro</span>"," ","","exp-sent","dentro","","",""
"","517","html-keyboard-response","356","430890","0.0-3.0-1.291","<span style=""font-size:30px; font-family: monospace"">de</span>"," ","","exp-sent","de","","",""
"","581","html-keyboard-response","357","431722","0.0-3.0-1.292","<span style=""font-size:30px; font-family: monospace"">casa.</span>"," ","","exp-sent","casa.","","",""
"","null","html-keyboard-response","358","432974","0.0-3.0-0.293-0.293","<span style= ""font-size:30px; font-family: monospace"">+</span>","null","fixation","","","","",""
"","642","html-keyboard-response","359","433866","0.0-3.0-1.293","<span style=""font-size:30px; font-family: monospace"">O</span>"," ","","exp-sent","O","","",""
"","613","html-keyboard-response","360","434730","0.0-3.0-1.294","<span style=""font-size:30px; font-family: monospace"">texto</span>"," ","","exp-sent","texto","","",""
"","756","html-keyboard-response","361","435738","0.0-3.0-1.295","<span style=""font-size:30px; font-family: monospace"">tinha</span>"," ","","exp-sent","tinha","","",""
"","646","html-keyboard-response","362","436634","0.0-3.0-1.296","<span style=""font-size:30px; font-family: monospace"">ideias</span>"," ","","exp-sent","ideias","","",""
"","837","html-keyboard-response","363","437722","0.0-3.0-1.297","<span style=""font-size:30px; font-family: monospace"">vagas</span>"," ","","exp-sent","vagas","","",""
"","501","html-keyboard-response","364","438474","0.0-3.0-1.298","<span style=""font-size:30px; font-family: monospace"">e</span>"," ","","exp-sent","e","","",""
"","597","html-keyboard-response","365","439322","0.0-3.0-1.299","<span style=""font-size:30px; font-family: monospace"">confusas.</span>"," ","","exp-sent","confusas.","","",""
"","null","html-keyboard-response","366","440579","0.0-3.0-0.300-0.300","<span style= ""font-size:30px; font-family: monospace"">+</span>","null","fixation","","","","",""
"","588","html-keyboard-response","367","441418","0.0-3.0-1.300","<span style=""font-size:30px; font-family: monospace"">As</span>"," ","","exp-sent","As","","",""
"","501","html-keyboard-response","368","442170","0.0-3.0-1.301","<span style=""font-size:30px; font-family: monospace"">crianças</span>"," ","","exp-sent","crianças","","",""
"","565","html-keyboard-response","369","442986","0.0-3.0-1.302","<span style=""font-size:30px; font-family: monospace"">viram</span>"," ","","exp-sent","viram","","",""
"","597","html-keyboard-response","370","443834","0.0-3.0-1.303","<span style=""font-size:30px; font-family: monospace"">a</span>"," ","","exp-sent","a","","",""
"","661","html-keyboard-response","371","444746","0.0-3.0-1.304","<span style=""font-size:30px; font-family: monospace"">acrobata</span>"," ","","exp-sent","acrobata","","",""
"","677","html-keyboard-response","372","445674","0.0-3.0-1.305","<span style=""font-size:30px; font-family: monospace"">talentosa</span>"," ","","exp-sent","talentosa","","",""
"","485","html-keyboard-response","373","446410","0.0-3.0-1.306","<span style=""font-size:30px; font-family: monospace"">no</span>"," ","","exp-sent","no","","",""
"","532","html-keyboard-response","374","447194","0.0-3.0-1.307","<span style=""font-size:30px; font-family: monospace"">circo.</span>"," ","","comp","circo.","","",""
"","1941","html-keyboard-response","375","449386","0.0-3.0-2.307-0.307","<span style=""font-size:30px; font-family: monospace"">As crianças viram o palhaço no circo?</span>","s","","comp","","As crianças viram o palhaço no circo?","não","false"
"","null","html-keyboard-response","376","450888","0.0-3.0-0.308-0.308","<span style= ""font-size:30px; font-family: monospace"">+</span>","null","fixation","","","","",""
"","1335","html-keyboard-response","377","452474","0.0-3.0-1.308","<span style=""font-size:30px; font-family: monospace"">Este</span>"," ","","exp-sent","Este","","",""
"","453","html-keyboard-response","378","453178","0.0-3.0-1.309","<span style=""font-size:30px; font-family: monospace"">conto</span>"," ","","exp-sent","conto","","",""
"","485","html-keyboard-response","379","453914","0.0-3.0-1.310","<span style=""font-size:30px; font-family: monospace"">tem</span>"," ","","exp-sent","tem","","",""
"","469","html-keyboard-response","380","454634","0.0-3.0-1.311","<span style=""font-size:30px; font-family: monospace"">um</span>"," ","","exp-sent","um","","",""
"","405","html-keyboard-response","381","455290","0.0-3.0-1.312","<span style=""font-size:30px; font-family: monospace"">final</span>"," ","","exp-sent","final","","",""
"","661","html-keyboard-response","382","456202","0.0-3.0-1.313","<span style=""font-size:30px; font-family: monospace"">perfeito.</span>"," ","","exp-sent","perfeito.","","",""
"","null","html-keyboard-response","383","457454","0.0-3.0-0.314-0.314","<span style= ""font-size:30px; font-family: monospace"">+</span>","null","fixation","","","","",""
"","530","html-keyboard-response","384","458234","0.0-3.0-1.314","<span style=""font-size:30px; font-family: monospace"">Ele</span>"," ","","exp-sent","Ele","","",""
"","837","html-keyboard-response","385","459322","0.0-3.0-1.315","<span style=""font-size:30px; font-family: monospace"">precisa</span>"," ","","exp-sent","precisa","","",""
"","805","html-keyboard-response","386","460378","0.0-3.0-1.316","<span style=""font-size:30px; font-family: monospace"">de</span>"," ","","exp-sent","de","","",""
"","1030","html-keyboard-response","387","461659","0.0-3.0-1.317","<span style=""font-size:30px; font-family: monospace"">um</span>"," ","","exp-sent","um","","",""
"","2101","html-keyboard-response","388","464010","0.0-3.0-1.318","<span style=""font-size:30px; font-family: monospace"">protetor</span>"," ","","exp-sent","protetor","","",""
"","496","html-keyboard-response","389","464762","0.0-3.0-1.319","<span style=""font-size:30px; font-family: monospace"">de</span>"," ","","exp-sent","de","","",""
"","629","html-keyboard-response","390","465642","0.0-3.0-1.320","<span style=""font-size:30px; font-family: monospace"">ouvido.</span>"," ","","exp-sent","ouvido.","","",""
"","null","html-keyboard-response","391","466894","0.0-3.0-0.321-0.321","<span style= ""font-size:30px; font-family: monospace"">+</span>","null","fixation","","","","",""
"","801","html-keyboard-response","392","467946","0.0-3.0-1.321","<span style=""font-size:30px; font-family: monospace"">Os</span>"," ","","exp-sent","Os","","",""
"","949","html-keyboard-response","393","469146","0.0-3.0-1.322","<span style=""font-size:30px; font-family: monospace"">hábitos</span>"," ","","exp-sent","hábitos","","",""
"","1205","html-keyboard-response","394","470602","0.0-3.0-1.323","<span style=""font-size:30px; font-family: monospace"">de</span>"," ","","exp-sent","de","","",""
"","645","html-keyboard-response","395","471498","0.0-3.0-1.324","<span style=""font-size:30px; font-family: monospace"">lugares</span>"," ","","exp-sent","lugares","","",""
"","1317","html-keyboard-response","396","473066","0.0-3.0-1.325","<span style=""font-size:30px; font-family: monospace"">diferentes</span>"," ","","exp-sent","diferentes","","",""
"","773","html-keyboard-response","397","474090","0.0-3.0-1.326","<span style=""font-size:30px; font-family: monospace"">são</span>"," ","","exp-sent","são","","",""
"","709","html-keyboard-response","398","475050","0.0-3.0-1.327","<span style=""font-size:30px; font-family: monospace"">muito</span>"," ","","exp-sent","muito","","",""
"","789","html-keyboard-response","399","476090","0.0-3.0-1.328","<span style=""font-size:30px; font-family: monospace"">lindos.</span>"," ","","exp-sent","lindos.","","",""
"","null","html-keyboard-response","400","477342","0.0-3.0-0.329-0.329","<span style= ""font-size:30px; font-family: monospace"">+</span>","null","fixation","","","","",""
"","656","html-keyboard-response","401","478250","0.0-3.0-1.329","<span style=""font-size:30px; font-family: monospace"">O</span>"," ","","exp-sent","O","","",""
"","468","html-keyboard-response","402","478970","0.0-3.0-1.330","<span style=""font-size:30px; font-family: monospace"">médico</span>"," ","","exp-sent","médico","","",""
"","485","html-keyboard-response","403","479706","0.0-3.0-1.331","<span style=""font-size:30px; font-family: monospace"">corrigiu</span>"," ","","exp-sent","corrigiu","","",""
"","612","html-keyboard-response","404","480570","0.0-3.0-1.332","<span style=""font-size:30px; font-family: monospace"">a</span>"," ","","exp-sent","a","","",""
"","516","html-keyboard-response","405","481338","0.0-3.0-1.333","<span style=""font-size:30px; font-family: monospace"">postura</span>"," ","","exp-sent","postura","","",""
"","805","html-keyboard-response","406","482394","0.0-3.0-1.334","<span style=""font-size:30px; font-family: monospace"">das</span>"," ","","exp-sent","das","","",""
"","629","html-keyboard-response","407","483274","0.0-3.0-1.335","<span style=""font-size:30px; font-family: monospace"">costas</span>"," ","","exp-sent","costas","","",""
"","581","html-keyboard-response","408","484106","0.0-3.0-1.336","<span style=""font-size:30px; font-family: monospace"">da</span>"," ","","exp-sent","da","","",""
"","885","html-keyboard-response","409","485242","0.0-3.0-1.337","<span style=""font-size:30px; font-family: monospace"">pessoa.</span>"," ","","exp-sent","pessoa.","","",""
"","null","html-keyboard-response","410","486493","0.0-3.0-0.338-0.338","<span style= ""font-size:30px; font-family: monospace"">+</span>","null","fixation","","","","",""
"","530","html-keyboard-response","411","487274","0.0-3.0-1.338","<span style=""font-size:30px; font-family: monospace"">Aquele</span>"," ","","exp-sent","Aquele","","",""
"","789","html-keyboard-response","412","488314","0.0-3.0-1.339","<span style=""font-size:30px; font-family: monospace"">era</span>"," ","","exp-sent","era","","",""
"","661","html-keyboard-response","413","489226","0.0-3.0-1.340","<span style=""font-size:30px; font-family: monospace"">um</span>"," ","","exp-sent","um","","",""
"","885","html-keyboard-response","414","490362","0.0-3.0-1.341","<span style=""font-size:30px; font-family: monospace"">caso</span>"," ","","exp-sent","caso","","",""
"","917","html-keyboard-response","415","491530","0.0-3.0-1.342","<span style=""font-size:30px; font-family: monospace"">real</span>"," ","","exp-sent","real","","",""
"","1029","html-keyboard-response","416","492810","0.0-3.0-1.343","<span style=""font-size:30px; font-family: monospace"">de</span>"," ","","exp-sent","de","","",""
"","1349","html-keyboard-response","417","494410","0.0-3.0-1.344","<span style=""font-size:30px; font-family: monospace"">sequestro</span>"," ","","exp-sent","sequestro","","",""
"","1717","html-keyboard-response","418","496378","0.0-3.0-1.345","<span style=""font-size:30px; font-family: monospace"">premeditado.</span>"," ","","comp","premeditado.","","",""
"","2181","html-keyboard-response","419","498810","0.0-3.0-2.345-0.345","<span style=""font-size:30px; font-family: monospace"">Aquele era um caso real de roubo?</span>","s","","comp","","Aquele era um caso real de roubo?","não","false"
"","null","html-keyboard-response","420","500312","0.0-3.0-0.346-0.346","<span style= ""font-size:30px; font-family: monospace"">+</span>","null","fixation","","","","",""
"","1286","html-keyboard-response","421","501850","0.0-3.0-1.346","<span style=""font-size:30px; font-family: monospace"">As</span>"," ","","exp-sent","As","","",""
"","581","html-keyboard-response","422","502682","0.0-3.0-1.347","<span style=""font-size:30px; font-family: monospace"">crianças</span>"," ","","exp-sent","crianças","","",""
"","421","html-keyboard-response","423","503354","0.0-3.0-1.348","<span style=""font-size:30px; font-family: monospace"">viram</span>"," ","","exp-sent","viram","","",""
"","437","html-keyboard-response","424","504042","0.0-3.0-1.349","<span style=""font-size:30px; font-family: monospace"">um</span>"," ","","exp-sent","um","","",""
"","405","html-keyboard-response","425","504698","0.0-3.0-1.350","<span style=""font-size:30px; font-family: monospace"">vaga-lume</span>"," ","","exp-sent","vaga-lume","","",""
"","469","html-keyboard-response","426","505418","0.0-3.0-1.351","<span style=""font-size:30px; font-family: monospace"">nos</span>"," ","","exp-sent","nos","","",""
"","469","html-keyboard-response","427","506138","0.0-3.0-1.352","<span style=""font-size:30px; font-family: monospace"">arbustos.</span>"," ","","exp-sent","arbustos.","","",""
"","null","html-keyboard-response","428","507389","0.0-3.0-0.353-0.353","<span style= ""font-size:30px; font-family: monospace"">+</span>","null","fixation","","","","",""
"","35","html-keyboard-response","429","507675","0.0-3.0-1.353","<span style=""font-size:30px; font-family: monospace"">Ontem</span>"," ","","exp-sent","Ontem","","",""
"","980","html-keyboard-response","430","508906","0.0-3.0-1.354","<span style=""font-size:30px; font-family: monospace"">o</span>"," ","","exp-sent","o","","",""
"","693","html-keyboard-response","431","509850","0.0-3.0-1.355","<span style=""font-size:30px; font-family: monospace"">funcionário</span>"," ","","exp-sent","funcionário","","",""
"","550","html-keyboard-response","432","510650","0.0-3.0-1.356","<span style=""font-size:30px; font-family: monospace"">pediu</span>"," ","","exp-sent","pediu","","",""
"","517","html-keyboard-response","433","511418","0.0-3.0-1.357","<span style=""font-size:30px; font-family: monospace"">autorização</span>"," ","","exp-sent","autorização","","",""
"","709","html-keyboard-response","434","512378","0.0-3.0-1.358","<span style=""font-size:30px; font-family: monospace"">para</span>"," ","","exp-sent","para","","",""
"","501","html-keyboard-response","435","513130","0.0-3.0-1.359","<span style=""font-size:30px; font-family: monospace"">a</span>"," ","","exp-sent","a","","",""
"","629","html-keyboard-response","436","514010","0.0-3.0-1.360","<span style=""font-size:30px; font-family: monospace"">colega.</span>"," ","","exp-sent","colega.","","",""
"","null","html-keyboard-response","437","515262","0.0-3.0-0.361-0.361","<span style= ""font-size:30px; font-family: monospace"">+</span>","null","fixation","","","","",""
"","161","html-keyboard-response","438","515674","0.0-3.0-1.361","<span style=""font-size:30px; font-family: monospace"">Eu</span>"," ","","exp-sent","Eu","","",""
"","933","html-keyboard-response","439","516858","0.0-3.0-1.362","<span style=""font-size:30px; font-family: monospace"">sempre</span>"," ","","exp-sent","sempre","","",""
"","549","html-keyboard-response","440","517658","0.0-3.0-1.363","<span style=""font-size:30px; font-family: monospace"">fujo</span>"," ","","exp-sent","fujo","","",""
"","613","html-keyboard-response","441","518522","0.0-3.0-1.364","<span style=""font-size:30px; font-family: monospace"">de</span>"," ","","exp-sent","de","","",""
"","597","html-keyboard-response","442","519370","0.0-3.0-1.365","<span style=""font-size:30px; font-family: monospace"">conflito</span>"," ","","exp-sent","conflito","","",""
"","516","html-keyboard-response","443","520137","0.0-3.0-1.366","<span style=""font-size:30px; font-family: monospace"">com</span>"," ","","exp-sent","com","","",""
"","597","html-keyboard-response","444","520986","0.0-3.0-1.367","<span style=""font-size:30px; font-family: monospace"">as</span>"," ","","exp-sent","as","","",""
"","613","html-keyboard-response","445","521850","0.0-3.0-1.368","<span style=""font-size:30px; font-family: monospace"">pessoas.</span>"," ","","exp-sent","pessoas.","","",""
"","null","html-keyboard-response","446","523102","0.0-3.0-0.369-0.369","<span style= ""font-size:30px; font-family: monospace"">+</span>","null","fixation","","","","",""
"","576","html-keyboard-response","447","523930","0.0-3.0-1.369","<span style=""font-size:30px; font-family: monospace"">O</span>"," ","","exp-sent","O","","",""
"","452","html-keyboard-response","448","524633","0.0-3.0-1.370","<span style=""font-size:30px; font-family: monospace"">bolo</span>"," ","","exp-sent","bolo","","",""
"","437","html-keyboard-response","449","525322","0.0-3.0-1.371","<span style=""font-size:30px; font-family: monospace"">era</span>"," ","","exp-sent","era","","",""
"","453","html-keyboard-response","450","526026","0.0-3.0-1.372","<span style=""font-size:30px; font-family: monospace"">de</span>"," ","","exp-sent","de","","",""
"","453","html-keyboard-response","451","526729","0.0-3.0-1.373","<span style=""font-size:30px; font-family: monospace"">abacaxi</span>"," ","","exp-sent","abacaxi","","",""
"","549","html-keyboard-response","452","527529","0.0-3.0-1.374","<span style=""font-size:30px; font-family: monospace"">e</span>"," ","","exp-sent","e","","",""
"","388","html-keyboard-response","453","528169","0.0-3.0-1.375","<span style=""font-size:30px; font-family: monospace"">creme</span>"," ","","exp-sent","creme","","",""
"","420","html-keyboard-response","454","528841","0.0-3.0-1.376","<span style=""font-size:30px; font-family: monospace"">de</span>"," ","","exp-sent","de","","",""
"","613","html-keyboard-response","455","529706","0.0-3.0-1.377","<span style=""font-size:30px; font-family: monospace"">coco.</span>"," ","","exp-sent","coco.","","",""
"","null","html-keyboard-response","456","530958","0.0-3.0-0.378-0.378","<span style= ""font-size:30px; font-family: monospace"">+</span>","null","fixation","","","","",""
"","353","html-keyboard-response","457","531561","0.0-3.0-1.378","<span style=""font-size:30px; font-family: monospace"">As</span>"," ","","exp-sent","As","","",""
"","805","html-keyboard-response","458","532617","0.0-3.0-1.379","<span style=""font-size:30px; font-family: monospace"">crianças</span>"," ","","exp-sent","crianças","","",""
"","981","html-keyboard-response","459","533850","0.0-3.0-1.380","<span style=""font-size:30px; font-family: monospace"">brincaram</span>"," ","","exp-sent","brincaram","","",""
"","661","html-keyboard-response","460","534761","0.0-3.0-1.381","<span style=""font-size:30px; font-family: monospace"">com</span>"," ","","exp-sent","com","","",""
"","709","html-keyboard-response","461","535721","0.0-3.0-1.382","<span style=""font-size:30px; font-family: monospace"">bolhas</span>"," ","","exp-sent","bolhas","","",""
"","581","html-keyboard-response","462","536553","0.0-3.0-1.383","<span style=""font-size:30px; font-family: monospace"">no</span>"," ","","exp-sent","no","","",""
"","645","html-keyboard-response","463","537449","0.0-3.0-1.384","<span style=""font-size:30px; font-family: monospace"">banho.</span>"," ","","comp","banho.","","",""
"","1556","html-keyboard-response","464","539257","0.0-3.0-2.384-0.384","<span style=""font-size:30px; font-family: monospace"">As crianças brincaram com bolhas?</span>","n","","comp","","As crianças brincaram com bolhas?","sim","false"
"","null","html-keyboard-response","465","540765","0.0-3.0-0.385-0.385","<span style= ""font-size:30px; font-family: monospace"">+</span>","null","fixation","","","","",""
"","2513","html-keyboard-response","466","543530","0.0-3.0-1.385","<span style=""font-size:30px; font-family: monospace"">O</span>"," ","","exp-sent","O","","",""
"","437","html-keyboard-response","467","544217","0.0-3.0-1.386","<span style=""font-size:30px; font-family: monospace"">travesseiro</span>"," ","","exp-sent","travesseiro","","",""
"","677","html-keyboard-response","468","545145","0.0-3.0-1.387","<span style=""font-size:30px; font-family: monospace"">era</span>"," ","","exp-sent","era","","",""
"","517","html-keyboard-response","469","545913","0.0-3.0-1.388","<span style=""font-size:30px; font-family: monospace"">muito</span>"," ","","exp-sent","muito","","",""
"","469","html-keyboard-response","470","546633","0.0-3.0-1.389","<span style=""font-size:30px; font-family: monospace"">macio</span>"," ","","exp-sent","macio","","",""
"","581","html-keyboard-response","471","547465","0.0-3.0-1.390","<span style=""font-size:30px; font-family: monospace"">e</span>"," ","","exp-sent","e","","",""
"","837","html-keyboard-response","472","548553","0.0-3.0-1.391","<span style=""font-size:30px; font-family: monospace"">confortável.</span>"," ","","exp-sent","confortável.","","",""
"","null","html-keyboard-response","473","549805","0.0-3.0-0.392-0.392","<span style= ""font-size:30px; font-family: monospace"">+</span>","null","fixation","","","","",""
"","354","html-keyboard-response","474","550409","0.0-3.0-1.392","<span style=""font-size:30px; font-family: monospace"">Hoje</span>"," ","","exp-sent","Hoje","","",""
"","453","html-keyboard-response","475","551114","0.0-3.0-1.393","<span style=""font-size:30px; font-family: monospace"">a</span>"," ","","exp-sent","a","","",""
"","453","html-keyboard-response","476","551818","0.0-3.0-1.394","<span style=""font-size:30px; font-family: monospace"">atendente</span>"," ","","exp-sent","atendente","","",""
"","564","html-keyboard-response","477","552633","0.0-3.0-1.395","<span style=""font-size:30px; font-family: monospace"">estava</span>"," ","","exp-sent","estava","","",""
"","517","html-keyboard-response","478","553401","0.0-3.0-1.396","<span style=""font-size:30px; font-family: monospace"">furiosa</span>"," ","","exp-sent","furiosa","","",""
"","501","html-keyboard-response","479","554154","0.0-3.0-1.397","<span style=""font-size:30px; font-family: monospace"">com</span>"," ","","exp-sent","com","","",""
"","532","html-keyboard-response","480","554938","0.0-3.0-1.398","<span style=""font-size:30px; font-family: monospace"">o</span>"," ","","exp-sent","o","","",""
"","612","html-keyboard-response","481","555801","0.0-3.0-1.399","<span style=""font-size:30px; font-family: monospace"">cliente.</span>"," ","","exp-sent","cliente.","","",""
"","null","html-keyboard-response","482","557053","0.0-3.0-0.400-0.400","<span style= ""font-size:30px; font-family: monospace"">+</span>","null","fixation","","","","",""
"","546","html-keyboard-response","483","557850","0.0-3.0-1.400","<span style=""font-size:30px; font-family: monospace"">O</span>"," ","","exp-sent","O","","",""
"","436","html-keyboard-response","484","558537","0.0-3.0-1.401","<span style=""font-size:30px; font-family: monospace"">vizinho</span>"," ","","exp-sent","vizinho","","",""
"","549","html-keyboard-response","485","559337","0.0-3.0-1.402","<span style=""font-size:30px; font-family: monospace"">é</span>"," ","","exp-sent","é","","",""
"","501","html-keyboard-response","486","560089","0.0-3.0-1.403","<span style=""font-size:30px; font-family: monospace"">um</span>"," ","","exp-sent","um","","",""
"","564","html-keyboard-response","487","560905","0.0-3.0-1.404","<span style=""font-size:30px; font-family: monospace"">arquiteto</span>"," ","","exp-sent","arquiteto","","",""
"","485","html-keyboard-response","488","561641","0.0-3.0-1.405","<span style=""font-size:30px; font-family: monospace"">muito</span>"," ","","exp-sent","muito","","",""
"","437","html-keyboard-response","489","562329","0.0-3.0-1.406","<span style=""font-size:30px; font-family: monospace"">excêntrico.</span>"," ","","exp-sent","excêntrico.","","",""
"","null","html-keyboard-response","490","563582","0.0-3.0-0.407-0.407","<span style= ""font-size:30px; font-family: monospace"">+</span>","null","fixation","","","","",""
"","641","html-keyboard-response","491","564473","0.0-3.0-1.407","<span style=""font-size:30px; font-family: monospace"">A</span>"," ","","exp-sent","A","","",""
"","405","html-keyboard-response","492","565129","0.0-3.0-1.408","<span style=""font-size:30px; font-family: monospace"">nossa</span>"," ","","exp-sent","nossa","","",""
"","453","html-keyboard-response","493","565833","0.0-3.0-1.409","<span style=""font-size:30px; font-family: monospace"">colega</span>"," ","","exp-sent","colega","","",""
"","469","html-keyboard-response","494","566553","0.0-3.0-1.410","<span style=""font-size:30px; font-family: monospace"">foi</span>"," ","","exp-sent","foi","","",""
"","533","html-keyboard-response","495","567338","0.0-3.0-1.411","<span style=""font-size:30px; font-family: monospace"">má</span>"," ","","exp-sent","má","","",""
"","565","html-keyboard-response","496","568153","0.0-3.0-1.412","<span style=""font-size:30px; font-family: monospace"">com</span>"," ","","exp-sent","com","","",""
"","437","html-keyboard-response","497","568841","0.0-3.0-1.413","<span style=""font-size:30px; font-family: monospace"">as</span>"," ","","exp-sent","as","","",""
"","613","html-keyboard-response","498","569705","0.0-3.0-1.414","<span style=""font-size:30px; font-family: monospace"">crianças.</span>"," ","","exp-sent","crianças.","","",""
"","null","html-keyboard-response","499","570957","0.0-3.0-0.415-0.415","<span style= ""font-size:30px; font-family: monospace"">+</span>","null","fixation","","","","",""
"","2064","html-keyboard-response","500","573273","0.0-3.0-1.415","<span style=""font-size:30px; font-family: monospace"">Virtudes</span>"," ","","exp-sent","Virtudes","","",""
"","677","html-keyboard-response","501","574201","0.0-3.0-1.416","<span style=""font-size:30px; font-family: monospace"">não</span>"," ","","exp-sent","não","","",""
"","665","html-keyboard-response","502","575130","0.0-3.0-1.417","<span style=""font-size:30px; font-family: monospace"">são</span>"," ","","exp-sent","são","","",""
"","677","html-keyboard-response","503","576057","0.0-3.0-1.418","<span style=""font-size:30px; font-family: monospace"">preguiça,</span>"," ","","exp-sent","preguiça,","","",""
"","565","html-keyboard-response","504","576873","0.0-3.0-1.419","<span style=""font-size:30px; font-family: monospace"">gula</span>"," ","","exp-sent","gula","","",""
"","437","html-keyboard-response","505","577561","0.0-3.0-1.420","<span style=""font-size:30px; font-family: monospace"">nem</span>"," ","","exp-sent","nem","","",""
"","805","html-keyboard-response","506","578617","0.0-3.0-1.421","<span style=""font-size:30px; font-family: monospace"">ganância.</span>"," ","","comp","ganância.","","",""
"","1477","html-keyboard-response","507","580346","0.0-3.0-2.421-0.421","<span style=""font-size:30px; font-family: monospace"">Preguiça é uma virtude?</span>","n","","comp","","Preguiça é uma virtude?","não","false"
"","null","html-keyboard-response","508","581847","0.0-3.0-0.422-0.422","<span style= ""font-size:30px; font-family: monospace"">+</span>","null","fixation","","","","",""
"","1432","html-keyboard-response","509","583529","0.0-3.0-1.422","<span style=""font-size:30px; font-family: monospace"">A</span>"," ","","exp-sent","A","","",""
"","565","html-keyboard-response","510","584345","0.0-3.0-1.423","<span style=""font-size:30px; font-family: monospace"">força</span>"," ","","exp-sent","força","","",""
"","1125","html-keyboard-response","511","585721","0.0-3.0-1.424","<span style=""font-size:30px; font-family: monospace"">d'água</span>"," ","","exp-sent","d'água","","",""
"","741","html-keyboard-response","512","586713","0.0-3.0-1.425","<span style=""font-size:30px; font-family: monospace"">estava</span>"," ","","exp-sent","estava","","",""
"","549","html-keyboard-response","513","587513","0.0-3.0-1.426","<span style=""font-size:30px; font-family: monospace"">normal</span>"," ","","exp-sent","normal","","",""
"","373","html-keyboard-response","514","588137","0.0-3.0-1.427","<span style=""font-size:30px; font-family: monospace"">naquele</span>"," ","","exp-sent","naquele","","",""
"","420","html-keyboard-response","515","588809","0.0-3.0-1.428","<span style=""font-size:30px; font-family: monospace"">dia.</span>"," ","","exp-sent","dia.","","",""
"","null","html-keyboard-response","516","590061","0.0-3.0-0.429-0.429","<span style= ""font-size:30px; font-family: monospace"">+</span>","null","fixation","","","","",""
"","577","html-keyboard-response","517","590889","0.0-3.0-1.429","<span style=""font-size:30px; font-family: monospace"">A</span>"," ","","exp-sent","A","","",""
"","389","html-keyboard-response","518","591529","0.0-3.0-1.430","<span style=""font-size:30px; font-family: monospace"">médica</span>"," ","","exp-sent","médica","","",""
"","373","html-keyboard-response","519","592153","0.0-3.0-1.431","<span style=""font-size:30px; font-family: monospace"">ofereceu</span>"," ","","exp-sent","ofereceu","","",""
"","405","html-keyboard-response","520","592809","0.0-3.0-1.432","<span style=""font-size:30px; font-family: monospace"">a</span>"," ","","exp-sent","a","","",""
"","405","html-keyboard-response","521","593465","0.0-3.0-1.433","<span style=""font-size:30px; font-family: monospace"">pomada</span>"," ","","exp-sent","pomada","","",""
"","437","html-keyboard-response","522","594153","0.0-3.0-1.434","<span style=""font-size:30px; font-family: monospace"">para</span>"," ","","exp-sent","para","","",""
"","485","html-keyboard-response","523","594889","0.0-3.0-1.435","<span style=""font-size:30px; font-family: monospace"">o</span>"," ","","exp-sent","o","","",""
"","500","html-keyboard-response","524","595641","0.0-3.0-1.436","<span style=""font-size:30px; font-family: monospace"">avô.</span>"," ","","exp-sent","avô.","","",""
"","null","html-keyboard-response","525","596892","0.0-3.0-0.437-0.437","<span style= ""font-size:30px; font-family: monospace"">+</span>","null","fixation","","","","",""
"","514","html-keyboard-response","526","597657","0.0-3.0-1.437","<span style=""font-size:30px; font-family: monospace"">Ele</span>"," ","","exp-sent","Ele","","",""
"","527","html-keyboard-response","527","598441","0.0-3.0-1.438","<span style=""font-size:30px; font-family: monospace"">conversou</span>"," ","","exp-sent","conversou","","",""
"","581","html-keyboard-response","528","599273","0.0-3.0-1.439","<span style=""font-size:30px; font-family: monospace"">com</span>"," ","","exp-sent","com","","",""
"","661","html-keyboard-response","529","600185","0.0-3.0-1.440","<span style=""font-size:30px; font-family: monospace"">o</span>"," ","","exp-sent","o","","",""
"","645","html-keyboard-response","530","601081","0.0-3.0-1.441","<span style=""font-size:30px; font-family: monospace"">patrão</span>"," ","","exp-sent","patrão","","",""
"","645","html-keyboard-response","531","601977","0.0-3.0-1.442","<span style=""font-size:30px; font-family: monospace"">durante</span>"," ","","exp-sent","durante","","",""
"","629","html-keyboard-response","532","602857","0.0-3.0-1.443","<span style=""font-size:30px; font-family: monospace"">a</span>"," ","","exp-sent","a","","",""
"","452","html-keyboard-response","533","603561","0.0-3.0-1.444","<span style=""font-size:30px; font-family: monospace"">tarde.</span>"," ","","exp-sent","tarde.","","",""
"","null","html-keyboard-response","534","604813","0.0-3.0-0.445-0.445","<span style= ""font-size:30px; font-family: monospace"">+</span>","null","fixation","","","","",""
"","465","html-keyboard-response","535","605529","0.0-3.0-1.445","<span style=""font-size:30px; font-family: monospace"">Algumas</span>"," ","","exp-sent","Algumas","","",""
"","565","html-keyboard-response","536","606345","0.0-3.0-1.446","<span style=""font-size:30px; font-family: monospace"">pessoas</span>"," ","","exp-sent","pessoas","","",""
"","773","html-keyboard-response","537","607369","0.0-3.0-1.447","<span style=""font-size:30px; font-family: monospace"">acreditam</span>"," ","","exp-sent","acreditam","","",""
"","516","html-keyboard-response","538","608137","0.0-3.0-1.448","<span style=""font-size:30px; font-family: monospace"">em</span>"," ","","exp-sent","em","","",""
"","581","html-keyboard-response","539","608969","0.0-3.0-1.449","<span style=""font-size:30px; font-family: monospace"">espíritos</span>"," ","","exp-sent","espíritos","","",""
"","501","html-keyboard-response","540","609721","0.0-3.0-1.450","<span style=""font-size:30px; font-family: monospace"">e</span>"," ","","exp-sent","e","","",""
"","661","html-keyboard-response","541","610633","0.0-3.0-1.451","<span style=""font-size:30px; font-family: monospace"">em</span>"," ","","exp-sent","em","","",""
"","581","html-keyboard-response","542","611465","0.0-3.0-1.452","<span style=""font-size:30px; font-family: monospace"">outras</span>"," ","","exp-sent","outras","","",""
"","805","html-keyboard-response","543","612521","0.0-3.0-1.453","<span style=""font-size:30px; font-family: monospace"">vidas.</span>"," ","","exp-sent","vidas.","","",""
"","null","html-keyboard-response","544","613773","0.0-3.0-0.454-0.454","<span style= ""font-size:30px; font-family: monospace"">+</span>","null","fixation","","","","",""
"","337","html-keyboard-response","545","614361","0.0-3.0-1.454","<span style=""font-size:30px; font-family: monospace"">Ela</span>"," ","","exp-sent","Ela","","",""
"","501","html-keyboard-response","546","615113","0.0-3.0-1.455","<span style=""font-size:30px; font-family: monospace"">gosta</span>"," ","","exp-sent","gosta","","",""
"","1285","html-keyboard-response","547","616649","0.0-3.0-1.456","<span style=""font-size:30px; font-family: monospace"">de</span>"," ","","exp-sent","de","","",""
"","2324","html-keyboard-response","548","619225","0.0-3.0-1.457","<span style=""font-size:30px; font-family: monospace"">estudar</span>"," ","","exp-sent","estudar","","",""
"","629","html-keyboard-response","549","620105","0.0-3.0-1.458","<span style=""font-size:30px; font-family: monospace"">matemática</span>"," ","","exp-sent","matemática","","",""
"","853","html-keyboard-response","550","621209","0.0-3.0-1.459","<span style=""font-size:30px; font-family: monospace"">com</span>"," ","","exp-sent","com","","",""
"","628","html-keyboard-response","551","622089","0.0-3.0-1.460","<span style=""font-size:30px; font-family: monospace"">colegas.</span>"," ","","comp","colegas.","","",""
"","2181","html-keyboard-response","552","624521","0.0-3.0-2.460-0.460","<span style=""font-size:30px; font-family: monospace"">Ela gosta de estudar física?</span>","s","","comp","","Ela gosta de estudar física?","não","false"
"","null","html-keyboard-response","553","626023","0.0-3.0-0.461-0.461","<span style= ""font-size:30px; font-family: monospace"">+</span>","null","fixation","","","","",""
"","38","html-keyboard-response","554","626313","0.0-3.0-1.461","<span style=""font-size:30px; font-family: monospace"">O</span>"," ","","exp-sent","O","","",""
"","501","html-keyboard-response","555","627065","0.0-3.0-1.462","<span style=""font-size:30px; font-family: monospace"">texto</span>"," ","","exp-sent","texto","","",""
"","453","html-keyboard-response","556","627769","0.0-3.0-1.463","<span style=""font-size:30px; font-family: monospace"">trazia</span>"," ","","exp-sent","trazia","","",""
"","596","html-keyboard-response","557","628617","0.0-3.0-1.464","<span style=""font-size:30px; font-family: monospace"">um</span>"," ","","exp-sent","um","","",""
"","1013","html-keyboard-response","558","629881","0.0-3.0-1.465","<span style=""font-size:30px; font-family: monospace"">argumento</span>"," ","","exp-sent","argumento","","",""
"","677","html-keyboard-response","559","630809","0.0-3.0-1.466","<span style=""font-size:30px; font-family: monospace"">central</span>"," ","","exp-sent","central","","",""
"","660","html-keyboard-response","560","631721","0.0-3.0-1.467","<span style=""font-size:30px; font-family: monospace"">para</span>"," ","","exp-sent","para","","",""
"","1268","html-keyboard-response","561","633241","0.0-3.0-1.468","<span style=""font-size:30px; font-family: monospace"">a</span>"," ","","exp-sent","a","","",""
"","453","html-keyboard-response","562","633945","0.0-3.0-1.469","<span style=""font-size:30px; font-family: monospace"">conversa.</span>"," ","","exp-sent","conversa.","","",""
"","null","html-keyboard-response","563","635197","0.0-3.0-0.470-0.470","<span style= ""font-size:30px; font-family: monospace"">+</span>","null","fixation","","","","",""
"","657","html-keyboard-response","564","636105","0.0-3.0-1.470","<span style=""font-size:30px; font-family: monospace"">Ontem</span>"," ","","exp-sent","Ontem","","",""
"","549","html-keyboard-response","565","636905","0.0-3.0-1.471","<span style=""font-size:30px; font-family: monospace"">a</span>"," ","","exp-sent","a","","",""
"","498","html-keyboard-response","566","637657","0.0-3.0-1.472","<span style=""font-size:30px; font-family: monospace"">temperatura</span>"," ","","exp-sent","temperatura","","",""
"","480","html-keyboard-response","567","638393","0.0-3.0-1.473","<span style=""font-size:30px; font-family: monospace"">estava</span>"," ","","exp-sent","estava","","",""
"","453","html-keyboard-response","568","639097","0.0-3.0-1.474","<span style=""font-size:30px; font-family: monospace"">amena</span>"," ","","exp-sent","amena","","",""
"","372","html-keyboard-response","569","639721","0.0-3.0-1.475","<span style=""font-size:30px; font-family: monospace"">durante</span>"," ","","exp-sent","durante","","",""
"","1637","html-keyboard-response","570","641609","0.0-3.0-1.476","<span style=""font-size:30px; font-family: monospace"">o</span>"," ","","exp-sent","o","","",""
"","437","html-keyboard-response","571","642297","0.0-3.0-1.477","<span style=""font-size:30px; font-family: monospace"">dia.</span>"," ","","exp-sent","dia.","","",""
"","null","html-keyboard-response","572","643549","0.0-3.0-0.478-0.478","<span style= ""font-size:30px; font-family: monospace"">+</span>","null","fixation","","","","",""
"","577","html-keyboard-response","573","644377","0.0-3.0-1.478","<span style=""font-size:30px; font-family: monospace"">Havia</span>"," ","","exp-sent","Havia","","",""
"","436","html-keyboard-response","574","645065","0.0-3.0-1.479","<span style=""font-size:30px; font-family: monospace"">um</span>"," ","","exp-sent","um","","",""
"","405","html-keyboard-response","575","645721","0.0-3.0-1.480","<span style=""font-size:30px; font-family: monospace"">machucado</span>"," ","","exp-sent","machucado","","",""
"","821","html-keyboard-response","576","646793","0.0-3.0-1.481","<span style=""font-size:30px; font-family: monospace"">no</span>"," ","","exp-sent","no","","",""
"","629","html-keyboard-response","577","647673","0.0-3.0-1.482","<span style=""font-size:30px; font-family: monospace"">dedo</span>"," ","","exp-sent","dedo","","",""
"","533","html-keyboard-response","578","648457","0.0-3.0-1.483","<span style=""font-size:30px; font-family: monospace"">da</span>"," ","","exp-sent","da","","",""
"","597","html-keyboard-response","579","649305","0.0-3.0-1.484","<span style=""font-size:30px; font-family: monospace"">criança.</span>"," ","","exp-sent","criança.","","",""
"","null","html-keyboard-response","580","650558","0.0-3.0-0.485-0.485","<span style= ""font-size:30px; font-family: monospace"">+</span>","null","fixation","","","","",""
"","319","html-keyboard-response","581","651129","0.0-3.0-1.485","<span style=""font-size:30px; font-family: monospace"">A</span>"," ","","exp-sent","A","","",""
"","837","html-keyboard-response","582","652217","0.0-3.0-1.486","<span style=""font-size:30px; font-family: monospace"">borboleta</span>"," ","","exp-sent","borboleta","","",""
"","677","html-keyboard-response","583","653145","0.0-3.0-1.487","<span style=""font-size:30px; font-family: monospace"">pousou</span>"," ","","exp-sent","pousou","","",""
"","645","html-keyboard-response","584","654041","0.0-3.0-1.488","<span style=""font-size:30px; font-family: monospace"">no</span>"," ","","exp-sent","no","","",""
