[
	{
		"view_history": [
			{
				"page_index": 0,
				"viewing_time": 1001
			}
		],
		"rt": 1001,
		"trial_type": "instructions",
		"trial_index": 0,
		"time_elapsed": 1002,
		"internal_node_id": "0.0-0.0"
	},
	{
		"rt": 106577,
		"response": {
			"reading_habits_printed_magazines": "Nunca",
			"reading_habits_printed_newspapers": "Nunca",
			"reading_habits_books": "Alguns dias da semana",
			"reading_habits_printed_socialmedias": "Todos os dias"
		},
		"question_order": [
			0,
			1,
			2,
			3
		],
		"trial_type": "survey-multi-choice",
		"trial_index": 1,
		"time_elapsed": 107682,
		"internal_node_id": "0.0-1.0"
	},
	{
		"rt": 37354,
		"response": {
			"reading_habits_virtual_magazines": "Todos os dias",
			"reading_habits_virtual_newspapers": "Todos os dias",
			"reading_habits_books": "Uma vez por semana",
			"reading_habits_virtual_socialmedias": "Todos os dias"
		},
		"question_order": [
			0,
			1,
			2,
			3
		],
		"trial_type": "survey-multi-choice",
		"trial_index": 2,
		"time_elapsed": 145137,
		"internal_node_id": "0.0-2.0"
	},
	{
		"rt": 10673,
		"response": {
			"reading_habits_other_which": "",
			"reading_habits_other_frequency": ""
		},
		"trial_type": "survey-text",
		"trial_index": 3,
		"time_elapsed": 155913,
		"internal_node_id": "0.0-3.0"
	}
]