"view_history","rt","trial_type","trial_index","time_elapsed","internal_node_id","stimulus","response","class","status","answer","correct","trial","letters"
"[{""page_index"":0,""viewing_time"":7946}]","7947","instructions","0","7947","0.0-0.0","","","","","","","",""
"","null","html-keyboard-response","1","8575","0.0-1.0-0.0","+","null","","","","","",""
"","5995","html-keyboard-response","2","14572","0.0-1.0-1.0","órgão","s","null","noncog","word","S","prac","null"
"","null","html-keyboard-response","3","15076","0.0-1.0-0.1","+","null","","","","","",""
"","2854","html-keyboard-response","4","17925","0.0-1.0-1.1","chassi","n","null","cog","word","S","prac","null"
"","null","html-keyboard-response","5","18430","0.0-1.0-0.2","+","null","","","","","",""
"","3478","html-keyboard-response","6","21909","0.0-1.0-1.2","plibar","n","null","noncog","pseudo","N","prac","null"
"","null","html-keyboard-response","7","22429","0.0-1.0-0.3","+","null","","","","","",""
"","2263","html-keyboard-response","8","24693","0.0-1.0-1.3","oliva","n","null","cog","word","S","prac","null"
"","null","html-keyboard-response","9","25199","0.0-1.0-0.4","+","null","","","","","",""
"","1589","html-keyboard-response","10","26789","0.0-1.0-1.4","calmaria","s","null","noncog","word","S","prac","null"
"","null","html-keyboard-response","11","27290","0.0-1.0-0.5","+","null","","","","","",""
"","2234","html-keyboard-response","12","29525","0.0-1.0-1.5","crante","s","null","noncog","pseudo","N","prac","null"
"","null","html-keyboard-response","13","30040","0.0-1.0-0.6","+","null","","","","","",""
"","2637","html-keyboard-response","14","32677","0.0-1.0-1.6","daja","n","null","noncog","pseudo","N","prac","null"
"[{""page_index"":0,""viewing_time"":9808}]","9808","instructions","15","42486","0.0-2.0","","","","","","","",""
"","null","html-keyboard-response","16","43088","0.0-3.0-0.0","+","null","","","","","",""
"","2357","html-keyboard-response","17","45445","0.0-3.0-1.0","mabras","n","null","noncog","pseudo","N","exp","null"
"","null","html-keyboard-response","18","45947","0.0-3.0-0.1","+","null","","","","","",""
"","3402","html-keyboard-response","19","49349","0.0-3.0-1.1","ronronar","n","v","cog","word","S","exp","8"
"","null","html-keyboard-response","20","49850","0.0-3.0-0.2","+","null","","","","","",""
"","1466","html-keyboard-response","21","51317","0.0-3.0-1.2","comércio","s","n","noncog","word","S","exp","8"
"","null","html-keyboard-response","22","51819","0.0-3.0-0.3","+","null","","","","","",""
"","1178","html-keyboard-response","23","52997","0.0-3.0-1.3","areia","s","n","noncog","word","S","exp","5"
"","null","html-keyboard-response","24","53498","0.0-3.0-0.4","+","null","","","","","",""
"","1498","html-keyboard-response","25","54997","0.0-3.0-1.4","avenas","s","null","noncog","pseudo","N","exp","null"
"","null","html-keyboard-response","26","55498","0.0-3.0-0.5","+","null","","","","","",""
"","1147","html-keyboard-response","27","56645","0.0-3.0-1.5","espinho","s","n","noncog","word","S","exp","7"
"","null","html-keyboard-response","28","57146","0.0-3.0-0.6","+","null","","","","","",""
"","939","html-keyboard-response","29","58085","0.0-3.0-1.6","quenzina","s","null","noncog","pseudo","N","exp","null"
"","null","html-keyboard-response","30","58587","0.0-3.0-0.7","+","null","","","","","",""
"","1610","html-keyboard-response","31","60197","0.0-3.0-1.7","cenada","s","null","noncog","pseudo","N","exp","null"
"","null","html-keyboard-response","32","60698","0.0-3.0-0.8","+","null","","","","","",""
"","955","html-keyboard-response","33","61653","0.0-3.0-1.8","glória","s","n","cog","word","S","exp","6"
"","null","html-keyboard-response","34","62154","0.0-3.0-0.9","+","null","","","","","",""
"","2651","html-keyboard-response","35","64805","0.0-3.0-1.9","dilheira","n","null","noncog","pseudo","N","exp","null"
"","null","html-keyboard-response","36","65306","0.0-3.0-0.10","+","null","","","","","",""
"","1467","html-keyboard-response","37","66773","0.0-3.0-1.10","país","s","n","noncog","word","S","exp","4"
"","null","html-keyboard-response","38","67273","0.0-3.0-0.11","+","null","","","","","",""
"","2187","html-keyboard-response","39","69461","0.0-3.0-1.11","beima","s","null","noncog","pseudo","N","exp","null"
"","null","html-keyboard-response","40","69962","0.0-3.0-0.12","+","null","","","","","",""
"","1882","html-keyboard-response","41","71845","0.0-3.0-1.12","planalto","n","n","cog","word","S","exp","8"
"","null","html-keyboard-response","42","72346","0.0-3.0-0.13","+","null","","","","","",""
"","1755","html-keyboard-response","43","74101","0.0-3.0-1.13","bancada","s","n","noncog","word","S","exp","7"
"","null","html-keyboard-response","44","74602","0.0-3.0-0.14","+","null","","","","","",""
"","1131","html-keyboard-response","45","75733","0.0-3.0-1.14","atrasar","s","v","noncog","word","S","exp","7"
"","null","html-keyboard-response","46","76234","0.0-3.0-0.15","+","null","","","","","",""
"","1835","html-keyboard-response","47","78074","0.0-3.0-1.15","detative","s","null","noncog","pseudo","N","exp","null"
"","null","html-keyboard-response","48","78575","0.0-3.0-0.16","+","null","","","","","",""
"","986","html-keyboard-response","49","79562","0.0-3.0-1.16","filme","s","n","cog","word","S","exp","5"
"","null","html-keyboard-response","50","80064","0.0-3.0-0.17","+","null","","","","","",""
"","1786","html-keyboard-response","51","81850","0.0-3.0-1.17","montanha","s","n","cog","word","S","exp","8"
"","null","html-keyboard-response","52","82352","0.0-3.0-0.18","+","null","","","","","",""
"","1018","html-keyboard-response","53","83370","0.0-3.0-1.18","cerca","s","n","noncog","word","S","exp","5"
"","null","html-keyboard-response","54","83871","0.0-3.0-0.19","+","null","","","","","",""
"","923","html-keyboard-response","55","84794","0.0-3.0-1.19","especial","s","a","cog","word","S","exp","8"
"","null","html-keyboard-response","56","85295","0.0-3.0-0.20","+","null","","","","","",""
"","970","html-keyboard-response","57","86266","0.0-3.0-1.20","brincar","s","v","noncog","word","S","exp","7"
"","null","html-keyboard-response","58","86767","0.0-3.0-0.21","+","null","","","","","",""
"","1162","html-keyboard-response","59","87930","0.0-3.0-1.21","socorro","s","n","noncog","word","S","exp","7"
"","null","html-keyboard-response","60","88431","0.0-3.0-0.22","+","null","","","","","",""
"","1482","html-keyboard-response","61","89914","0.0-3.0-1.22","crolatário","s","null","noncog","pseudo","N","exp","null"
"","null","html-keyboard-response","62","90423","0.0-3.0-0.23","+","null","","","","","",""
"","899","html-keyboard-response","63","91322","0.0-3.0-1.23","civil","s","a","cog","word","S","exp","5"
"","null","html-keyboard-response","64","91824","0.0-3.0-0.24","+","null","","","","","",""
"","1162","html-keyboard-response","65","92986","0.0-3.0-1.24","pantufa","s","n","cog","word","S","exp","7"
"","null","html-keyboard-response","66","93494","0.0-3.0-0.25","+","null","","","","","",""
"","1859","html-keyboard-response","67","95354","0.0-3.0-1.25","rédesa","s","null","noncog","pseudo","N","exp","null"
"","null","html-keyboard-response","68","95856","0.0-3.0-0.26","+","null","","","","","",""
"","1658","html-keyboard-response","69","97514","0.0-3.0-1.26","deselegante","s","a","noncog","word","S","exp","11"
"","null","html-keyboard-response","70","98015","0.0-3.0-0.27","+","null","","","","","",""
"","1610","html-keyboard-response","71","99626","0.0-3.0-1.27","boreta","s","null","noncog","pseudo","N","exp","null"
"","null","html-keyboard-response","72","100132","0.0-3.0-0.28","+","null","","","","","",""
"","2198","html-keyboard-response","73","102330","0.0-3.0-1.28","usfiga","n","null","noncog","pseudo","N","exp","null"
"","null","html-keyboard-response","74","102831","0.0-3.0-0.29","+","null","","","","","",""
"","970","html-keyboard-response","75","103802","0.0-3.0-1.29","verde","s","a","noncog","word","S","exp","5"
"","null","html-keyboard-response","76","104303","0.0-3.0-0.30","+","null","","","","","",""
"","1466","html-keyboard-response","77","105770","0.0-3.0-1.30","apontar","s","v","noncog","word","S","exp","7"
"","null","html-keyboard-response","78","106272","0.0-3.0-0.31","+","null","","","","","",""
"","842","html-keyboard-response","79","107114","0.0-3.0-1.31","grátis","s","a","cog","word","S","exp","6"
"","null","html-keyboard-response","80","107626","0.0-3.0-0.32","+","null","","","","","",""
"","2975","html-keyboard-response","81","110602","0.0-3.0-1.32","uchães","n","null","noncog","pseudo","N","exp","null"
"","null","html-keyboard-response","82","111103","0.0-3.0-0.33","+","null","","","","","",""
"","1978","html-keyboard-response","83","113082","0.0-3.0-1.33","alfabeto","s","n","cog","word","S","exp","8"
"","null","html-keyboard-response","84","113583","0.0-3.0-0.34","+","null","","","","","",""
"","2027","html-keyboard-response","85","115610","0.0-3.0-1.34","nivelado","s","a","cog","word","S","exp","8"
"","null","html-keyboard-response","86","116111","0.0-3.0-0.35","+","null","","","","","",""
"","2507","html-keyboard-response","87","118618","0.0-3.0-1.35","garastia","s","null","noncog","pseudo","N","exp","null"
"","null","html-keyboard-response","88","119119","0.0-3.0-0.36","+","null","","","","","",""
"","2187","html-keyboard-response","89","121306","0.0-3.0-1.36","propaganda","s","n","cog","word","S","exp","10"
"","null","html-keyboard-response","90","121807","0.0-3.0-0.37","+","null","","","","","",""
"","1883","html-keyboard-response","91","123690","0.0-3.0-1.37","esprotiar","s","null","noncog","pseudo","N","exp","null"
"","null","html-keyboard-response","92","124191","0.0-3.0-0.38","+","null","","","","","",""
"","2874","html-keyboard-response","93","127066","0.0-3.0-1.38","vitrive","s","null","noncog","pseudo","N","exp","null"
"","null","html-keyboard-response","94","127568","0.0-3.0-0.39","+","null","","","","","",""
"","1530","html-keyboard-response","95","129098","0.0-3.0-1.39","prantal","s","null","noncog","pseudo","N","exp","null"
"","null","html-keyboard-response","96","129599","0.0-3.0-0.40","+","null","","","","","",""
"","1115","html-keyboard-response","97","130714","0.0-3.0-1.40","preferir","s","v","cog","word","S","exp","8"
"","null","html-keyboard-response","98","131216","0.0-3.0-0.41","+","null","","","","","",""
"","1274","html-keyboard-response","99","132490","0.0-3.0-1.41","candifência","s","null","noncog","pseudo","N","exp","null"
"","null","html-keyboard-response","100","132991","0.0-3.0-0.42","+","null","","","","","",""
"","1018","html-keyboard-response","101","134010","0.0-3.0-1.42","gilha","s","null","noncog","pseudo","N","exp","null"
"","null","html-keyboard-response","102","134512","0.0-3.0-0.43","+","null","","","","","",""
"","1018","html-keyboard-response","103","135530","0.0-3.0-1.43","perbas","s","null","noncog","pseudo","N","exp","null"
"","null","html-keyboard-response","104","136032","0.0-3.0-0.44","+","null","","","","","",""
"","1546","html-keyboard-response","105","137578","0.0-3.0-1.44","francês","s","a","cog","word","S","exp","7"
"","null","html-keyboard-response","106","138079","0.0-3.0-0.45","+","null","","","","","",""
"","2458","html-keyboard-response","107","140537","0.0-3.0-1.45","telafonir","s","null","noncog","pseudo","N","exp","null"
"","null","html-keyboard-response","108","141038","0.0-3.0-0.46","+","null","","","","","",""
"","2171","html-keyboard-response","109","143210","0.0-3.0-1.46","ilhure","n","null","noncog","pseudo","N","exp","null"
"","null","html-keyboard-response","110","143711","0.0-3.0-0.47","+","null","","","","","",""
"","1322","html-keyboard-response","111","145033","0.0-3.0-1.47","hedoru","n","null","noncog","pseudo","N","exp","null"
"","null","html-keyboard-response","112","145535","0.0-3.0-0.48","+","null","","","","","",""
"","1450","html-keyboard-response","113","146985","0.0-3.0-1.48","liso","s","n","noncog","word","S","exp","4"
"","null","html-keyboard-response","114","147487","0.0-3.0-0.49","+","null","","","","","",""
"","874","html-keyboard-response","115","148361","0.0-3.0-1.49","anjo","s","n","cog","word","S","exp","4"
"","null","html-keyboard-response","116","148863","0.0-3.0-0.50","+","null","","","","","",""
"","1145","html-keyboard-response","117","150009","0.0-3.0-1.50","raspar","s","v","noncog","word","S","exp","6"
"","null","html-keyboard-response","118","150510","0.0-3.0-0.51","+","null","","","","","",""
"","1803","html-keyboard-response","119","152313","0.0-3.0-1.51","animado","s","a","noncog","word","S","exp","7"
"","null","html-keyboard-response","120","152815","0.0-3.0-0.52","+","null","","","","","",""
"","938","html-keyboard-response","121","153754","0.0-3.0-1.52","chato","s","n","noncog","word","S","exp","5"
"","null","html-keyboard-response","122","154255","0.0-3.0-0.53","+","null","","","","","",""
"","2922","html-keyboard-response","123","157177","0.0-3.0-1.53","delirar","s","v","noncog","word","S","exp","7"
"","null","html-keyboard-response","124","157679","0.0-3.0-0.54","+","null","","","","","",""
"","2522","html-keyboard-response","125","160201","0.0-3.0-1.54","fusbão","s","null","noncog","pseudo","N","exp","null"
"","null","html-keyboard-response","126","160702","0.0-3.0-0.55","+","null","","","","","",""
"","2267","html-keyboard-response","127","162969","0.0-3.0-1.55","dacada","s","null","noncog","pseudo","N","exp","null"
"","null","html-keyboard-response","128","163471","0.0-3.0-0.56","+","null","","","","","",""
"","2106","html-keyboard-response","129","165578","0.0-3.0-1.56","matinal","s","a","cog","word","S","exp","7"
"","null","html-keyboard-response","130","166078","0.0-3.0-0.57","+","null","","","","","",""
"","3419","html-keyboard-response","131","169497","0.0-3.0-1.57","berquesa","s","null","noncog","pseudo","N","exp","null"
"","null","html-keyboard-response","132","169998","0.0-3.0-0.58","+","null","","","","","",""
"","1035","html-keyboard-response","133","171034","0.0-3.0-1.58","independente","s","a","noncog","word","S","exp","12"
"","null","html-keyboard-response","134","171534","0.0-3.0-0.59","+","null","","","","","",""
"","3034","html-keyboard-response","135","174569","0.0-3.0-1.59","lapestra","s","null","noncog","pseudo","N","exp","null"
"","null","html-keyboard-response","136","175070","0.0-3.0-0.60","+","null","","","","","",""
"","1707","html-keyboard-response","137","176778","0.0-3.0-1.60","sustentar","s","v","noncog","word","S","exp","9"
"","null","html-keyboard-response","138","177279","0.0-3.0-0.61","+","null","","","","","",""
"","1146","html-keyboard-response","139","178425","0.0-3.0-1.61","motros","s","null","noncog","pseudo","N","exp","null"
"","null","html-keyboard-response","140","178927","0.0-3.0-0.62","+","null","","","","","",""
"","954","html-keyboard-response","141","179881","0.0-3.0-1.62","trenos","s","null","noncog","pseudo","N","exp","null"
"","null","html-keyboard-response","142","180384","0.0-3.0-0.63","+","null","","","","","",""
"","1353","html-keyboard-response","143","181737","0.0-3.0-1.63","pulmão","s","n","noncog","word","S","exp","6"
"","null","html-keyboard-response","144","182247","0.0-3.0-0.64","+","null","","","","","",""
"","3458","html-keyboard-response","145","185706","0.0-3.0-1.64","pimada","n","null","noncog","pseudo","N","exp","null"
"","null","html-keyboard-response","146","186214","0.0-3.0-0.65","+","null","","","","","",""
"","2691","html-keyboard-response","147","188906","0.0-3.0-1.65","risbos","n","null","noncog","pseudo","N","exp","null"
"","null","html-keyboard-response","148","189413","0.0-3.0-0.66","+","null","","","","","",""
"","2148","html-keyboard-response","149","191561","0.0-3.0-1.66","morno","s","a","noncog","word","S","exp","5"
"","null","html-keyboard-response","150","192062","0.0-3.0-0.67","+","null","","","","","",""
"","1931","html-keyboard-response","151","193993","0.0-3.0-1.67","enxarto","n","null","noncog","pseudo","N","exp","null"
"","null","html-keyboard-response","152","194494","0.0-3.0-0.68","+","null","","","","","",""
"","2683","html-keyboard-response","153","197177","0.0-3.0-1.68","pritas","n","null","noncog","pseudo","N","exp","null"
"","null","html-keyboard-response","154","197678","0.0-3.0-0.69","+","null","","","","","",""
"","2443","html-keyboard-response","155","200121","0.0-3.0-1.69","taberia","s","null","noncog","pseudo","N","exp","null"
"","null","html-keyboard-response","156","200622","0.0-3.0-0.70","+","null","","","","","",""
"","1274","html-keyboard-response","157","201897","0.0-3.0-1.70","telefone","s","n","cog","word","S","exp","8"
"","null","html-keyboard-response","158","202398","0.0-3.0-0.71","+","null","","","","","",""
"","1595","html-keyboard-response","159","203993","0.0-3.0-1.71","hipócrita","s","a","noncog","word","S","exp","9"
"","null","html-keyboard-response","160","204494","0.0-3.0-0.72","+","null","","","","","",""
"","3067","html-keyboard-response","161","207561","0.0-3.0-1.72","fasdas","s","null","noncog","pseudo","N","exp","null"
"","null","html-keyboard-response","162","208063","0.0-3.0-0.73","+","null","","","","","",""
"","1226","html-keyboard-response","163","209289","0.0-3.0-1.73","papai","s","n","cog","word","S","exp","5"
"","null","html-keyboard-response","164","209790","0.0-3.0-0.74","+","null","","","","","",""
"","2442","html-keyboard-response","165","212233","0.0-3.0-1.74","salpicado","s","a","noncog","word","S","exp","9"
"","null","html-keyboard-response","166","212734","0.0-3.0-0.75","+","null","","","","","",""
"","954","html-keyboard-response","167","213689","0.0-3.0-1.75","gruja","s","null","noncog","pseudo","N","exp","null"
"","null","html-keyboard-response","168","214190","0.0-3.0-0.76","+","null","","","","","",""
"","987","html-keyboard-response","169","215177","0.0-3.0-1.76","grave","s","a","cog","word","S","exp","5"
"","null","html-keyboard-response","170","215678","0.0-3.0-0.77","+","null","","","","","",""
"","2123","html-keyboard-response","171","217801","0.0-3.0-1.77","lorfaz","n","null","noncog","pseudo","N","exp","null"
"","null","html-keyboard-response","172","218302","0.0-3.0-0.78","+","null","","","","","",""
"","1195","html-keyboard-response","173","219497","0.0-3.0-1.78","rovaz","s","null","noncog","pseudo","N","exp","null"
"","null","html-keyboard-response","174","219998","0.0-3.0-0.79","+","null","","","","","",""
"","1611","html-keyboard-response","175","221609","0.0-3.0-1.79","oper","s","null","noncog","pseudo","N","exp","null"
"","null","html-keyboard-response","176","222116","0.0-3.0-0.80","+","null","","","","","",""
"","1445","html-keyboard-response","177","223561","0.0-3.0-1.80","farcas","s","null","noncog","pseudo","N","exp","null"
"","null","html-keyboard-response","178","224062","0.0-3.0-0.81","+","null","","","","","",""
"","699","html-keyboard-response","179","224761","0.0-3.0-1.81","liberal","s","a","cog","word","S","exp","7"
"","null","html-keyboard-response","180","225263","0.0-3.0-0.82","+","null","","","","","",""
"","1194","html-keyboard-response","181","226457","0.0-3.0-1.82","tímido","s","a","cog","word","S","exp","6"
"","null","html-keyboard-response","182","226959","0.0-3.0-0.83","+","null","","","","","",""
"","922","html-keyboard-response","183","227881","0.0-3.0-1.83","livro","s","n","cog","word","S","exp","5"
"","null","html-keyboard-response","184","228383","0.0-3.0-0.84","+","null","","","","","",""
"","2410","html-keyboard-response","185","230793","0.0-3.0-1.84","cápsula","s","n","noncog","word","S","exp","7"
"","null","html-keyboard-response","186","231294","0.0-3.0-0.85","+","null","","","","","",""
"","1131","html-keyboard-response","187","232425","0.0-3.0-1.85","bambu","s","n","cog","word","S","exp","5"
"","null","html-keyboard-response","188","232926","0.0-3.0-0.86","+","null","","","","","",""
"","5307","html-keyboard-response","189","238233","0.0-3.0-1.86","tatear","s","v","cog","word","S","exp","6"
"","null","html-keyboard-response","190","238734","0.0-3.0-0.87","+","null","","","","","",""
"","1931","html-keyboard-response","191","240665","0.0-3.0-1.87","enxerido","s","a","noncog","word","S","exp","8"
"","null","html-keyboard-response","192","241166","0.0-3.0-0.88","+","null","","","","","",""
"","2123","html-keyboard-response","193","243289","0.0-3.0-1.88","pitada","n","n","noncog","word","S","exp","6"
"","null","html-keyboard-response","194","243791","0.0-3.0-0.89","+","null","","","","","",""
"","1434","html-keyboard-response","195","245225","0.0-3.0-1.89","tela","s","n","noncog","word","S","exp","4"
"","null","html-keyboard-response","196","245738","0.0-3.0-0.90","+","null","","","","","",""
"","2463","html-keyboard-response","197","248201","0.0-3.0-1.90","nervoso","s","a","noncog","word","S","exp","7"
"","null","html-keyboard-response","198","248703","0.0-3.0-0.91","+","null","","","","","",""
"","922","html-keyboard-response","199","249625","0.0-3.0-1.91","tênis","s","n","cog","word","S","exp","5"
"","null","html-keyboard-response","200","250126","0.0-3.0-0.92","+","null","","","","","",""
"","1242","html-keyboard-response","201","251369","0.0-3.0-1.92","cravo","s","n","noncog","word","S","exp","5"
"","null","html-keyboard-response","202","251871","0.0-3.0-0.93","+","null","","","","","",""
"","938","html-keyboard-response","203","252809","0.0-3.0-1.93","prever","s","v","cog","word","S","exp","6"
"","null","html-keyboard-response","204","253311","0.0-3.0-0.94","+","null","","","","","",""
"","1258","html-keyboard-response","205","254569","0.0-3.0-1.94","mudança","s","n","noncog","word","S","exp","7"
"","null","html-keyboard-response","206","255071","0.0-3.0-0.95","+","null","","","","","",""
"","2154","html-keyboard-response","207","257225","0.0-3.0-1.95","euorpa","n","null","noncog","pseudo","N","exp","null"
"","null","html-keyboard-response","208","257726","0.0-3.0-0.96","+","null","","","","","",""
"","1211","html-keyboard-response","209","258937","0.0-3.0-1.96","multiplicar","s","v","cog","word","S","exp","11"
"","null","html-keyboard-response","210","259438","0.0-3.0-0.97","+","null","","","","","",""
"","923","html-keyboard-response","211","260361","0.0-3.0-1.97","destino","s","n","cog","word","S","exp","7"
"","null","html-keyboard-response","212","260862","0.0-3.0-0.98","+","null","","","","","",""
"","4986","html-keyboard-response","213","265849","0.0-3.0-1.98","adoçar","s","v","noncog","word","S","exp","6"
"","null","html-keyboard-response","214","266350","0.0-3.0-0.99","+","null","","","","","",""
"","4986","html-keyboard-response","215","271337","0.0-3.0-1.99","dencosto","s","null","noncog","pseudo","N","exp","null"
"","null","html-keyboard-response","216","271841","0.0-3.0-0.100","+","null","","","","","",""
"","1463","html-keyboard-response","217","273305","0.0-3.0-1.100","ótimo","s","a","noncog","word","S","exp","5"
"","null","html-keyboard-response","218","273805","0.0-3.0-0.101","+","null","","","","","",""
"","4203","html-keyboard-response","219","278009","0.0-3.0-1.101","plinta","n","null","noncog","pseudo","N","exp","null"
"","null","html-keyboard-response","220","278510","0.0-3.0-0.102","+","null","","","","","",""
"","4762","html-keyboard-response","221","283273","0.0-3.0-1.102","fofo","s","a","noncog","word","S","exp","4"
"","null","html-keyboard-response","222","283774","0.0-3.0-0.103","+","null","","","","","",""
"","778","html-keyboard-response","223","284553","0.0-3.0-1.103","tio","s","n","noncog","word","S","exp","3"
"","null","html-keyboard-response","224","285054","0.0-3.0-0.104","+","null","","","","","",""
"","939","html-keyboard-response","225","285992","0.0-3.0-1.104","fratos","s","null","noncog","pseudo","N","exp","null"
"","null","html-keyboard-response","226","286494","0.0-3.0-0.105","+","null","","","","","",""
"","4043","html-keyboard-response","227","290537","0.0-3.0-1.105","ideisa","n","null","noncog","pseudo","N","exp","null"
"","null","html-keyboard-response","228","291038","0.0-3.0-0.106","+","null","","","","","",""
"","1210","html-keyboard-response","229","292248","0.0-3.0-1.106","melão","s","n","cog","word","S","exp","5"
"","null","html-keyboard-response","230","292750","0.0-3.0-0.107","+","null","","","","","",""
"","2651","html-keyboard-response","231","295401","0.0-3.0-1.107","pega-pega","s","n","noncog","word","S","exp","8"
"","null","html-keyboard-response","232","295903","0.0-3.0-0.108","+","null","","","","","",""
"","2937","html-keyboard-response","233","298841","0.0-3.0-1.108","bachir","n","null","noncog","pseudo","N","exp","null"
"","null","html-keyboard-response","234","299342","0.0-3.0-0.109","+","null","","","","","",""
"","1642","html-keyboard-response","235","300985","0.0-3.0-1.109","distraído","s","a","cog","word","S","exp","9"
"","null","html-keyboard-response","236","301486","0.0-3.0-0.110","+","null","","","","","",""
"","3515","html-keyboard-response","237","305001","0.0-3.0-1.110","pneucania","n","null","noncog","pseudo","N","exp","null"
"","null","html-keyboard-response","238","305502","0.0-3.0-0.111","+","null","","","","","",""
"","2555","html-keyboard-response","239","308057","0.0-3.0-1.111","trair","s","v","cog","word","S","exp","5"
"","null","html-keyboard-response","240","308558","0.0-3.0-0.112","+","null","","","","","",""
"","730","html-keyboard-response","241","309289","0.0-3.0-1.112","esperar","s","v","cog","word","S","exp","7"
"","null","html-keyboard-response","242","309790","0.0-3.0-0.113","+","null","","","","","",""
"","1450","html-keyboard-response","243","311241","0.0-3.0-1.113","memória","s","n","cog","word","S","exp","7"
"","null","html-keyboard-response","244","311742","0.0-3.0-0.114","+","null","","","","","",""
"","1627","html-keyboard-response","245","313369","0.0-3.0-1.114","cinema","s","n","cog","word","S","exp","6"
"","null","html-keyboard-response","246","313870","0.0-3.0-0.115","+","null","","","","","",""
"","3290","html-keyboard-response","247","317161","0.0-3.0-1.115","senareta","n","null","noncog","pseudo","N","exp","null"
"","null","html-keyboard-response","248","317662","0.0-3.0-0.116","+","null","","","","","",""
"","1243","html-keyboard-response","249","318905","0.0-3.0-1.116","aemaça","n","null","noncog","pseudo","N","exp","null"
"","null","html-keyboard-response","250","319405","0.0-3.0-0.117","+","null","","","","","",""
"","811","html-keyboard-response","251","320216","0.0-3.0-1.117","bandido","s","n","cog","word","S","exp","7"
"","null","html-keyboard-response","252","320717","0.0-3.0-0.118","+","null","","","","","",""
"","2554","html-keyboard-response","253","323272","0.0-3.0-1.118","âgnulo","s","null","noncog","pseudo","N","exp","null"
"","null","html-keyboard-response","254","323773","0.0-3.0-0.119","+","null","","","","","",""
"","2971","html-keyboard-response","255","326744","0.0-3.0-1.119","usnado","n","null","noncog","pseudo","N","exp","null"
"","null","html-keyboard-response","256","327246","0.0-3.0-0.120","+","null","","","","","",""
"","1482","html-keyboard-response","257","328728","0.0-3.0-1.120","fino","s","a","cog","word","S","exp","4"
"","null","html-keyboard-response","258","329229","0.0-3.0-0.121","+","null","","","","","",""
"","843","html-keyboard-response","259","330073","0.0-3.0-1.121","promeção","s","null","noncog","pseudo","N","exp","null"
"","null","html-keyboard-response","260","330574","0.0-3.0-0.122","+","null","","","","","",""
"","2106","html-keyboard-response","261","332680","0.0-3.0-1.122","ejerro","n","null","noncog","pseudo","N","exp","null"
"","null","html-keyboard-response","262","333182","0.0-3.0-0.123","+","null","","","","","",""
"","1098","html-keyboard-response","263","334280","0.0-3.0-1.123","faínas","n","null","noncog","pseudo","N","exp","null"
"","null","html-keyboard-response","264","334782","0.0-3.0-0.124","+","null","","","","","",""
"","2346","html-keyboard-response","265","337128","0.0-3.0-1.124","mania","s","n","cog","word","S","exp","5"
"","null","html-keyboard-response","266","337629","0.0-3.0-0.125","+","null","","","","","",""
"","2011","html-keyboard-response","267","339640","0.0-3.0-1.125","drama","s","n","cog","word","S","exp","5"
"","null","html-keyboard-response","268","340142","0.0-3.0-0.126","+","null","","","","","",""
"","3066","html-keyboard-response","269","343209","0.0-3.0-1.126","burtos","n","null","noncog","pseudo","N","exp","null"
"","null","html-keyboard-response","270","343710","0.0-3.0-0.127","+","null","","","","","",""
"","1418","html-keyboard-response","271","345128","0.0-3.0-1.127","chorão","s","a","noncog","word","S","exp","6"
"","null","html-keyboard-response","272","345630","0.0-3.0-0.128","+","null","","","","","",""
"","1994","html-keyboard-response","273","347624","0.0-3.0-1.128","parceter","n","null","noncog","pseudo","N","exp","null"
"","null","html-keyboard-response","274","348125","0.0-3.0-0.129","+","null","","","","","",""
"","2763","html-keyboard-response","275","350889","0.0-3.0-1.129","grótis","s","null","noncog","pseudo","N","exp","null"
"","null","html-keyboard-response","276","351390","0.0-3.0-0.130","+","null","","","","","",""
"","906","html-keyboard-response","277","352296","0.0-3.0-1.130","tartos","s","null","noncog","pseudo","N","exp","null"
"","null","html-keyboard-response","278","352797","0.0-3.0-0.131","+","null","","","","","",""
"","1835","html-keyboard-response","279","354633","0.0-3.0-1.131","ênclio","s","null","noncog","pseudo","N","exp","null"
"","null","html-keyboard-response","280","355134","0.0-3.0-0.132","+","null","","","","","",""
"","778","html-keyboard-response","281","355912","0.0-3.0-1.132","nevela","s","null","noncog","pseudo","N","exp","null"
"","null","html-keyboard-response","282","356413","0.0-3.0-0.133","+","null","","","","","",""
"","2779","html-keyboard-response","283","359192","0.0-3.0-1.133","aitrou","s","null","noncog","pseudo","N","exp","null"
"","null","html-keyboard-response","284","359700","0.0-3.0-0.134","+","null","","","","","",""
"","2596","html-keyboard-response","285","362296","0.0-3.0-1.134","afual","s","null","noncog","pseudo","N","exp","null"
"","null","html-keyboard-response","286","362799","0.0-3.0-0.135","+","null","","","","","",""
"","697","html-keyboard-response","287","363496","0.0-3.0-1.135","uçar","s","null","noncog","pseudo","N","exp","null"
"","null","html-keyboard-response","288","363998","0.0-3.0-0.136","+","null","","","","","",""
"","1658","html-keyboard-response","289","365656","0.0-3.0-1.136","incomodar","s","v","noncog","word","S","exp","9"
"","null","html-keyboard-response","290","366158","0.0-3.0-0.137","+","null","","","","","",""
"","1434","html-keyboard-response","291","367592","0.0-3.0-1.137","loaco","s","null","noncog","pseudo","N","exp","null"
"","null","html-keyboard-response","292","368094","0.0-3.0-0.138","+","null","","","","","",""
"","1914","html-keyboard-response","293","370008","0.0-3.0-1.138","delomir","s","null","noncog","pseudo","N","exp","null"
"","null","html-keyboard-response","294","370511","0.0-3.0-0.139","+","null","","","","","",""
"","3161","html-keyboard-response","295","373672","0.0-3.0-1.139","bracos","s","null","noncog","pseudo","N","exp","null"
"","null","html-keyboard-response","296","374174","0.0-3.0-0.140","+","null","","","","","",""
"","3258","html-keyboard-response","297","377433","0.0-3.0-1.140","pedaço","s","n","noncog","word","S","exp","6"
"","null","html-keyboard-response","298","377935","0.0-3.0-0.141","+","null","","","","","",""
"","2185","html-keyboard-response","299","380120","0.0-3.0-1.141","filosofia","s","n","cog","word","S","exp","9"
"","null","html-keyboard-response","300","380622","0.0-3.0-0.142","+","null","","","","","",""
"","1194","html-keyboard-response","301","381816","0.0-3.0-1.142","selir","s","null","noncog","pseudo","N","exp","null"
"","null","html-keyboard-response","302","382317","0.0-3.0-0.143","+","null","","","","","",""
"","859","html-keyboard-response","303","383176","0.0-3.0-1.143","dia","s","n","noncog","word","S","exp","3"
"","null","html-keyboard-response","304","383677","0.0-3.0-0.144","+","null","","","","","",""
"","3851","html-keyboard-response","305","387528","0.0-3.0-1.144","cirado","s","null","noncog","pseudo","N","exp","null"
"","null","html-keyboard-response","306","388030","0.0-3.0-0.145","+","null","","","","","",""
"","2282","html-keyboard-response","307","390312","0.0-3.0-1.145","refletir","s","v","cog","word","S","exp","8"
"","null","html-keyboard-response","308","390813","0.0-3.0-0.146","+","null","","","","","",""
"","1690","html-keyboard-response","309","392504","0.0-3.0-1.146","vervas","s","null","noncog","pseudo","N","exp","null"
"","null","html-keyboard-response","310","393011","0.0-3.0-0.147","+","null","","","","","",""
"","757","html-keyboard-response","311","393768","0.0-3.0-1.147","morar","s","v","noncog","word","S","exp","5"
"","null","html-keyboard-response","312","394270","0.0-3.0-0.148","+","null","","","","","",""
"","1114","html-keyboard-response","313","395384","0.0-3.0-1.148","oricia","s","null","noncog","pseudo","N","exp","null"
"","null","html-keyboard-response","314","395885","0.0-3.0-0.149","+","null","","","","","",""
"","3979","html-keyboard-response","315","399864","0.0-3.0-1.149","bibarconato","s","null","noncog","pseudo","N","exp","null"
"","null","html-keyboard-response","316","400381","0.0-3.0-0.150","+","null","","","","","",""
"","1883","html-keyboard-response","317","402264","0.0-3.0-1.150","carona","s","n","noncog","word","S","exp","6"
"","null","html-keyboard-response","318","402765","0.0-3.0-0.151","+","null","","","","","",""
"","1915","html-keyboard-response","319","404680","0.0-3.0-1.151","esfoce","s","null","noncog","pseudo","N","exp","null"
"","null","html-keyboard-response","320","405181","0.0-3.0-0.152","+","null","","","","","",""
"","970","html-keyboard-response","321","406152","0.0-3.0-1.152","espionar","s","v","cog","word","S","exp","8"
"","null","html-keyboard-response","322","406654","0.0-3.0-0.153","+","null","","","","","",""
"","778","html-keyboard-response","323","407432","0.0-3.0-1.153","trabalhar","s","v","noncog","word","S","exp","9"
"","null","html-keyboard-response","324","407933","0.0-3.0-0.154","+","null","","","","","",""
"","3627","html-keyboard-response","325","411560","0.0-3.0-1.154","manais","n","null","noncog","pseudo","N","exp","null"
"","null","html-keyboard-response","326","412062","0.0-3.0-0.155","+","null","","","","","",""
"","1962","html-keyboard-response","327","414024","0.0-3.0-1.155","terdia","n","null","noncog","pseudo","N","exp","null"
"","null","html-keyboard-response","328","414525","0.0-3.0-0.156","+","null","","","","","",""
"","2555","html-keyboard-response","329","417080","0.0-3.0-1.156","árovre","s","null","noncog","pseudo","N","exp","null"
"","null","html-keyboard-response","330","417581","0.0-3.0-0.157","+","null","","","","","",""
"","1835","html-keyboard-response","331","419416","0.0-3.0-1.157","bagunceira","s","a","noncog","word","S","exp","10"
"","null","html-keyboard-response","332","419917","0.0-3.0-0.158","+","null","","","","","",""
"","3739","html-keyboard-response","333","423656","0.0-3.0-1.158","ofreta","s","null","noncog","pseudo","N","exp","null"
"","null","html-keyboard-response","334","424161","0.0-3.0-0.159","+","null","","","","","",""
"","3622","html-keyboard-response","335","427784","0.0-3.0-1.159","motre","n","null","noncog","pseudo","N","exp","null"
"","null","html-keyboard-response","336","428286","0.0-3.0-0.160","+","null","","","","","",""
"","4778","html-keyboard-response","337","433064","0.0-3.0-1.160","agravar","s","v","cog","word","S","exp","7"
"","null","html-keyboard-response","338","433566","0.0-3.0-0.161","+","null","","","","","",""
"","4442","html-keyboard-response","339","438008","0.0-3.0-1.161","ocinto","s","null","noncog","pseudo","N","exp","null"
"","null","html-keyboard-response","340","438509","0.0-3.0-0.162","+","null","","","","","",""
"","5050","html-keyboard-response","341","443560","0.0-3.0-1.162","oecano","n","null","noncog","pseudo","N","exp","null"
"","null","html-keyboard-response","342","444061","0.0-3.0-0.163","+","null","","","","","",""
"","3722","html-keyboard-response","343","447784","0.0-3.0-1.163","alpica","n","null","noncog","pseudo","N","exp","null"
"","null","html-keyboard-response","344","448292","0.0-3.0-0.164","+","null","","","","","",""
"","3155","html-keyboard-response","345","451448","0.0-3.0-1.164","aparme","n","null","noncog","pseudo","N","exp","null"
"","null","html-keyboard-response","346","451949","0.0-3.0-0.165","+","null","","","","","",""
"","2858","html-keyboard-response","347","454808","0.0-3.0-1.165","franda","n","null","noncog","pseudo","N","exp","null"
"","null","html-keyboard-response","348","455321","0.0-3.0-0.166","+","null","","","","","",""
"","1262","html-keyboard-response","349","456584","0.0-3.0-1.166","mal","s","a","cog","word","S","exp","3"
"","null","html-keyboard-response","350","457084","0.0-3.0-0.167","+","null","","","","","",""
"","1371","html-keyboard-response","351","458456","0.0-3.0-1.167","enedro","n","null","noncog","pseudo","N","exp","null"
"","null","html-keyboard-response","352","458957","0.0-3.0-0.168","+","null","","","","","",""
"","1994","html-keyboard-response","353","460952","0.0-3.0-1.168","perdão","s","n","noncog","word","S","exp","6"
"","null","html-keyboard-response","354","461453","0.0-3.0-0.169","+","null","","","","","",""
"","954","html-keyboard-response","355","462408","0.0-3.0-1.169","nacional","s","a","cog","word","S","exp","8"
"","null","html-keyboard-response","356","462909","0.0-3.0-0.170","+","null","","","","","",""
"","3610","html-keyboard-response","357","466520","0.0-3.0-1.170","irratinte","n","null","noncog","pseudo","N","exp","null"
"","null","html-keyboard-response","358","467021","0.0-3.0-0.171","+","null","","","","","",""
"","3194","html-keyboard-response","359","470216","0.0-3.0-1.171","afonher","n","null","noncog","pseudo","N","exp","null"
"","null","html-keyboard-response","360","470724","0.0-3.0-0.172","+","null","","","","","",""
"","2851","html-keyboard-response","361","473576","0.0-3.0-1.172","aperor","s","null","noncog","pseudo","N","exp","null"
"","null","html-keyboard-response","362","474077","0.0-3.0-0.173","+","null","","","","","",""
"","2186","html-keyboard-response","363","476264","0.0-3.0-1.173","traduzir","s","v","cog","word","S","exp","8"
"","null","html-keyboard-response","364","476776","0.0-3.0-0.174","+","null","","","","","",""
"","3935","html-keyboard-response","365","480712","0.0-3.0-1.174","revear","s","null","noncog","pseudo","N","exp","null"
"","null","html-keyboard-response","366","481214","0.0-3.0-0.175","+","null","","","","","",""
"","4473","html-keyboard-response","367","485688","0.0-3.0-1.175","medalha","s","n","cog","word","S","exp","7"
"","null","html-keyboard-response","368","486189","0.0-3.0-0.176","+","null","","","","","",""
"","2154","html-keyboard-response","369","488343","0.0-3.0-1.176","braras","n","null","noncog","pseudo","N","exp","null"
"","null","html-keyboard-response","370","488845","0.0-3.0-0.177","+","null","","","","","",""
"","3946","html-keyboard-response","371","492792","0.0-3.0-1.177","escumo","n","null","noncog","pseudo","N","exp","null"
"","null","html-keyboard-response","372","493292","0.0-3.0-0.178","+","null","","","","","",""
"","1723","html-keyboard-response","373","495016","0.0-3.0-1.178","revista","s","n","cog","word","S","exp","7"
"","null","html-keyboard-response","374","495517","0.0-3.0-0.179","+","null","","","","","",""
"","955","html-keyboard-response","375","496472","0.0-3.0-1.179","viver","s","v","cog","word","S","exp","5"
"","null","html-keyboard-response","376","496972","0.0-3.0-0.180","+","null","","","","","",""
"","1115","html-keyboard-response","377","498087","0.0-3.0-1.180","reduzir","s","v","cog","word","S","exp","7"
"","null","html-keyboard-response","378","498588","0.0-3.0-0.181","+","null","","","","","",""
"","923","html-keyboard-response","379","499511","0.0-3.0-1.181","fogão","s","n","noncog","word","S","exp","5"
"","null","html-keyboard-response","380","500026","0.0-3.0-0.182","+","null","","","","","",""
"","1613","html-keyboard-response","381","501639","0.0-3.0-1.182","conjerto","s","null","noncog","pseudo","N","exp","null"
"","null","html-keyboard-response","382","502141","0.0-3.0-0.183","+","null","","","","","",""
"","2266","html-keyboard-response","383","504407","0.0-3.0-1.183","ensuas","s","null","noncog","pseudo","N","exp","null"
"","null","html-keyboard-response","384","504908","0.0-3.0-0.184","+","null","","","","","",""
"","1339","html-keyboard-response","385","506247","0.0-3.0-1.184","agressivo","s","a","cog","word","S","exp","9"
"","null","html-keyboard-response","386","506749","0.0-3.0-0.185","+","null","","","","","",""
"","746","html-keyboard-response","387","507495","0.0-3.0-1.185","açúcar","s","n","noncog","word","S","exp","6"
"","null","html-keyboard-response","388","507997","0.0-3.0-0.186","+","null","","","","","",""
"","666","html-keyboard-response","389","508663","0.0-3.0-1.186","verdade","s","n","cog","word","S","exp","7"
"","null","html-keyboard-response","390","509170","0.0-3.0-0.187","+","null","","","","","",""
"","1669","html-keyboard-response","391","510839","0.0-3.0-1.187","atitro","s","null","noncog","pseudo","N","exp","null"
"","null","html-keyboard-response","392","511343","0.0-3.0-0.188","+","null","","","","","",""
"","967","html-keyboard-response","393","512311","0.0-3.0-1.188","azul","s","n","noncog","word","S","exp","4"
"","null","html-keyboard-response","394","512812","0.0-3.0-0.189","+","null","","","","","",""
"","3707","html-keyboard-response","395","516519","0.0-3.0-1.189","gertas","n","null","noncog","pseudo","N","exp","null"
"","null","html-keyboard-response","396","517021","0.0-3.0-0.190","+","null","","","","","",""
"","1370","html-keyboard-response","397","518391","0.0-3.0-1.190","aivões","n","null","noncog","pseudo","N","exp","null"
"","null","html-keyboard-response","398","518893","0.0-3.0-0.191","+","null","","","","","",""
"","1226","html-keyboard-response","399","520119","0.0-3.0-1.191","carro","s","n","noncog","word","S","exp","5"
"","null","html-keyboard-response","400","520621","0.0-3.0-0.192","+","null","","","","","",""
"","5050","html-keyboard-response","401","525671","0.0-3.0-1.192","disbrituir","n","null","noncog","pseudo","N","exp","null"
"","null","html-keyboard-response","402","526173","0.0-3.0-0.193","+","null","","","","","",""
"","3338","html-keyboard-response","403","529512","0.0-3.0-1.193","sintonizar","s","v","noncog","word","S","exp","10"
"","null","html-keyboard-response","404","530013","0.0-3.0-0.194","+","null","","","","","",""
"","7674","html-keyboard-response","405","537687","0.0-3.0-1.194","crutas","s","null","noncog","pseudo","N","exp","null"
"","null","html-keyboard-response","406","538189","0.0-3.0-0.195","+","null","","","","","",""
"","5002","html-keyboard-response","407","543192","0.0-3.0-1.195","barco","s","n","cog","word","S","exp","5"
"","null","html-keyboard-response","408","543692","0.0-3.0-0.196","+","null","","","","","",""
"","3739","html-keyboard-response","409","547431","0.0-3.0-1.196","costra","s","null","noncog","pseudo","N","exp","null"
"","null","html-keyboard-response","410","547946","0.0-3.0-0.197","+","null","","","","","",""
"","765","html-keyboard-response","411","548711","0.0-3.0-1.197","nome","s","n","cog","word","S","exp","4"
"","null","html-keyboard-response","412","549212","0.0-3.0-0.198","+","null","","","","","",""
"","4523","html-keyboard-response","413","553735","0.0-3.0-1.198","cascata","s","n","noncog","word","S","exp","7"
"","null","html-keyboard-response","414","554236","0.0-3.0-0.199","+","null","","","","","",""
"","1931","html-keyboard-response","415","556167","0.0-3.0-1.199","sábio","s","n","noncog","word","S","exp","5"
"","null","html-keyboard-response","416","556668","0.0-3.0-0.200","+","null","","","","","",""
"","2203","html-keyboard-response","417","558871","0.0-3.0-1.200","verceja","s","null","noncog","pseudo","N","exp","null"
"","null","html-keyboard-response","418","559372","0.0-3.0-0.201","+","null","","","","","",""
"","9195","html-keyboard-response","419","568567","0.0-3.0-1.201","suipestar","n","null","noncog","pseudo","N","exp","null"
"","null","html-keyboard-response","420","569069","0.0-3.0-0.202","+","null","","","","","",""
"","4538","html-keyboard-response","421","573607","0.0-3.0-1.202","casuas","s","null","noncog","pseudo","N","exp","null"
"","null","html-keyboard-response","422","574109","0.0-3.0-0.203","+","null","","","","","",""
"","922","html-keyboard-response","423","575031","0.0-3.0-1.203","extravagante","s","a","cog","word","S","exp","12"
"","null","html-keyboard-response","424","575533","0.0-3.0-0.204","+","null","","","","","",""
"","986","html-keyboard-response","425","576519","0.0-3.0-1.204","tinta","s","n","cog","word","S","exp","5"
"","null","html-keyboard-response","426","577020","0.0-3.0-0.205","+","null","","","","","",""
"","5915","html-keyboard-response","427","582935","0.0-3.0-1.205","prenas","n","null","noncog","pseudo","N","exp","null"
"","null","html-keyboard-response","428","583436","0.0-3.0-0.206","+","null","","","","","",""
"","1514","html-keyboard-response","429","584951","0.0-3.0-1.206","lagras","n","null","noncog","pseudo","N","exp","null"
"","null","html-keyboard-response","430","585458","0.0-3.0-0.207","+","null","","","","","",""
"","3701","html-keyboard-response","431","589159","0.0-3.0-1.207","sanque","n","null","noncog","pseudo","N","exp","null"
"","null","html-keyboard-response","432","589660","0.0-3.0-0.208","+","null","","","","","",""
"","2907","html-keyboard-response","433","592567","0.0-3.0-1.208","lagoa","s","n","cog","word","S","exp","5"
"","null","html-keyboard-response","434","593069","0.0-3.0-0.209","+","null","","","","","",""
"","1610","html-keyboard-response","435","594679","0.0-3.0-1.209","instruído","s","a","noncog","word","S","exp","9"
"","null","html-keyboard-response","436","595180","0.0-3.0-0.210","+","null","","","","","",""
"","3674","html-keyboard-response","437","598855","0.0-3.0-1.210","orupas","s","null","noncog","pseudo","N","exp","null"
"","null","html-keyboard-response","438","599356","0.0-3.0-0.211","+","null","","","","","",""
"","1515","html-keyboard-response","439","600871","0.0-3.0-1.211","frotes","s","null","noncog","pseudo","N","exp","null"
"","null","html-keyboard-response","440","601372","0.0-3.0-0.212","+","null","","","","","",""
"","1146","html-keyboard-response","441","602519","0.0-3.0-1.212","protas","s","null","noncog","pseudo","N","exp","null"
"","null","html-keyboard-response","442","603034","0.0-3.0-0.213","+","null","","","","","",""
"","3020","html-keyboard-response","443","606055","0.0-3.0-1.213","atapdar","s","null","noncog","pseudo","N","exp","null"
"","null","html-keyboard-response","444","606556","0.0-3.0-0.214","+","null","","","","","",""
"","5179","html-keyboard-response","445","611735","0.0-3.0-1.214","podilo","n","null","noncog","pseudo","N","exp","null"
"","null","html-keyboard-response","446","612236","0.0-3.0-0.215","+","null","","","","","",""
"","1707","html-keyboard-response","447","613943","0.0-3.0-1.215","arranjar","s","v","cog","word","S","exp","8"
"","null","html-keyboard-response","448","614444","0.0-3.0-0.216","+","null","","","","","",""
"","1306","html-keyboard-response","449","615751","0.0-3.0-1.216","abieso","n","null","noncog","pseudo","N","exp","null"
"","null","html-keyboard-response","450","616252","0.0-3.0-0.217","+","null","","","","","",""
"","2027","html-keyboard-response","451","618279","0.0-3.0-1.217","pangos","s","null","noncog","pseudo","N","exp","null"
"","null","html-keyboard-response","452","618780","0.0-3.0-0.218","+","null","","","","","",""
"","1547","html-keyboard-response","453","620327","0.0-3.0-1.218","hébies","n","null","noncog","pseudo","N","exp","null"
"","null","html-keyboard-response","454","620828","0.0-3.0-0.219","+","null","","","","","",""
"","922","html-keyboard-response","455","621751","0.0-3.0-1.219","undivídio","s","null","noncog","pseudo","N","exp","null"
"","null","html-keyboard-response","456","622252","0.0-3.0-0.220","+","null","","","","","",""
"","2378","html-keyboard-response","457","624631","0.0-3.0-1.220","dipata","n","null","noncog","pseudo","N","exp","null"
"","null","html-keyboard-response","458","625132","0.0-3.0-0.221","+","null","","","","","",""
"","1258","html-keyboard-response","459","626391","0.0-3.0-1.221","carregar","s","v","noncog","word","S","exp","8"
"","null","html-keyboard-response","460","626891","0.0-3.0-0.222","+","null","","","","","",""
"","3595","html-keyboard-response","461","630487","0.0-3.0-1.222","dobradiça","s","n","noncog","word","S","exp","9"
"","null","html-keyboard-response","462","630988","0.0-3.0-0.223","+","null","","","","","",""
"","2297","html-keyboard-response","463","633287","0.0-3.0-1.223","jastor","s","null","noncog","pseudo","N","exp","null"
"","null","html-keyboard-response","464","633788","0.0-3.0-0.224","+","null","","","","","",""
"","2426","html-keyboard-response","465","636215","0.0-3.0-1.224","gordo","n","a","noncog","word","S","exp","5"
"","null","html-keyboard-response","466","636716","0.0-3.0-0.225","+","null","","","","","",""
"","1242","html-keyboard-response","467","637958","0.0-3.0-1.225","temperar","s","v","noncog","word","S","exp","8"
"","null","html-keyboard-response","468","638460","0.0-3.0-0.226","+","null","","","","","",""
"","2811","html-keyboard-response","469","641271","0.0-3.0-1.226","manfa","n","null","noncog","pseudo","N","exp","null"
"","null","html-keyboard-response","470","641772","0.0-3.0-0.227","+","null","","","","","",""
"","1546","html-keyboard-response","471","643319","0.0-3.0-1.227","promessa","s","n","noncog","word","S","exp","8"
"","null","html-keyboard-response","472","643820","0.0-3.0-0.228","+","null","","","","","",""
"","1771","html-keyboard-response","473","645591","0.0-3.0-1.228","aletiê","n","null","noncog","pseudo","N","exp","null"
"","null","html-keyboard-response","474","646092","0.0-3.0-0.229","+","null","","","","","",""
"","1515","html-keyboard-response","475","647607","0.0-3.0-1.229","macras","n","null","noncog","pseudo","N","exp","null"
"","null","html-keyboard-response","476","648107","0.0-3.0-0.230","+","null","","","","","",""
"","1307","html-keyboard-response","477","649414","0.0-3.0-1.230","encelhor","n","null","noncog","pseudo","N","exp","null"
"","null","html-keyboard-response","478","649916","0.0-3.0-0.231","+","null","","","","","",""
"","2699","html-keyboard-response","479","652615","0.0-3.0-1.231","morija","s","null","noncog","pseudo","N","exp","null"
"","null","html-keyboard-response","480","653116","0.0-3.0-0.232","+","null","","","","","",""
"","2586","html-keyboard-response","481","655703","0.0-3.0-1.232","mua","s","null","noncog","pseudo","N","exp","null"
"","null","html-keyboard-response","482","656203","0.0-3.0-0.233","+","null","","","","","",""
"","811","html-keyboard-response","483","657014","0.0-3.0-1.233","cristal","s","n","cog","word","S","exp","7"
"","null","html-keyboard-response","484","657516","0.0-3.0-0.234","+","null","","","","","",""
"","730","html-keyboard-response","485","658247","0.0-3.0-1.234","jantar","s","v","noncog","word","S","exp","6"
"","null","html-keyboard-response","486","658747","0.0-3.0-0.235","+","null","","","","","",""
"","2251","html-keyboard-response","487","660998","0.0-3.0-1.235","tronca","s","null","noncog","pseudo","N","exp","null"
"","null","html-keyboard-response","488","661499","0.0-3.0-0.236","+","null","","","","","",""
"","715","html-keyboard-response","489","662215","0.0-3.0-1.236","espaço","s","n","cog","word","S","exp","6"
"","null","html-keyboard-response","490","662726","0.0-3.0-0.237","+","null","","","","","",""
"","976","html-keyboard-response","491","663703","0.0-3.0-1.237","convidado","s","n","noncog","word","S","exp","9"
"","null","html-keyboard-response","492","664205","0.0-3.0-0.238","+","null","","","","","",""
"","1754","html-keyboard-response","493","665959","0.0-3.0-1.238","resmungar","s","v","noncog","word","S","exp","9"
"","null","html-keyboard-response","494","666460","0.0-3.0-0.239","+","null","","","","","",""
"","810","html-keyboard-response","495","667270","0.0-3.0-1.239","imitar","s","v","cog","word","S","exp","6"
