[
	{
		"view_history": [
			{
				"page_index": 0,
				"viewing_time": 32485
			}
		],
		"rt": 32485,
		"trial_type": "instructions",
		"trial_index": 0,
		"time_elapsed": 32524,
		"internal_node_id": "0.0-0.0"
	},
	{
		"rt": 495364,
		"response": {
			"tcle": "Concordo voluntariamente em participar da pesquisa conforme texto acima."
		},
		"question_order": [
			0
		],
		"trial_type": "survey-multi-choice",
		"trial_index": 1,
		"time_elapsed": 528088,
		"internal_node_id": "0.0-1.0"
	},
	{
		"rt": 45910,
		"response": {
			"email": "KCKOS"
		},
		"trial_type": "survey-text",
		"trial_index": 2,
		"time_elapsed": 575048,
		"internal_node_id": "0.0-2.0"
	}
]