[
	{
		"view_history": [
			{
				"page_index": 0,
				"viewing_time": 27139
			},
			{
				"page_index": 1,
				"viewing_time": 1800
			}
		],
		"rt": 28940,
		"trial_type": "instructions",
		"trial_index": 0,
		"time_elapsed": 28941,
		"internal_node_id": "0.0-0.0"
	},
	{
		"rt": null,
		"stimulus": "<span style= \"font-size:30px; font-family: monospace\">+</span>",
		"response": null,
		"trial_part": "fixation",
		"trial_type": "html-keyboard-response",
		"trial_index": 1,
		"time_elapsed": 30080,
		"internal_node_id": "0.0-1.0-0.0-0.0"
	},
	{
		"rt": 6655,
		"stimulus": "<span style=\"font-size:30px; font-family: monospace\">O</span>",
		"response": " ",
		"trial": "prac-sent",
		"word": "O",
		"trial_type": "html-keyboard-response",
		"trial_index": 2,
		"time_elapsed": 37005,
		"internal_node_id": "0.0-1.0-1.0"
	},
	{
		"rt": 3492,
		"stimulus": "<span style=\"font-size:30px; font-family: monospace\">dia</span>",
		"response": " ",
		"trial": "prac-sent",
		"word": "dia",
		"trial_type": "html-keyboard-response",
		"trial_index": 3,
		"time_elapsed": 40748,
		"internal_node_id": "0.0-1.0-1.1"
	},
	{
		"rt": 1637,
		"stimulus": "<span style=\"font-size:30px; font-family: monospace\">estará</span>",
		"response": " ",
		"trial": "prac-sent",
		"word": "estará",
		"trial_type": "html-keyboard-response",
		"trial_index": 4,
		"time_elapsed": 42636,
		"internal_node_id": "0.0-1.0-1.2"
	},
	{
		"rt": 1925,
		"stimulus": "<span style=\"font-size:30px; font-family: monospace\">cheio</span>",
		"response": " ",
		"trial": "prac-sent",
		"word": "cheio",
		"trial_type": "html-keyboard-response",
		"trial_index": 5,
		"time_elapsed": 44813,
		"internal_node_id": "0.0-1.0-1.3"
	},
	{
		"rt": 1765,
		"stimulus": "<span style=\"font-size:30px; font-family: monospace\">de</span>",
		"response": " ",
		"trial": "prac-sent",
		"word": "de",
		"trial_type": "html-keyboard-response",
		"trial_index": 6,
		"time_elapsed": 46829,
		"internal_node_id": "0.0-1.0-1.4"
	},
	{
		"rt": 1253,
		"stimulus": "<span style=\"font-size:30px; font-family: monospace\">nuvens</span>",
		"response": " ",
		"trial": "prac-sent",
		"word": "nuvens",
		"trial_type": "html-keyboard-response",
		"trial_index": 7,
		"time_elapsed": 48333,
		"internal_node_id": "0.0-1.0-1.5"
	},
	{
		"rt": 1285,
		"stimulus": "<span style=\"font-size:30px; font-family: monospace\">hoje.</span>",
		"response": " ",
		"trial": "prac-sent",
		"word": "hoje.",
		"trial_type": "html-keyboard-response",
		"trial_index": 8,
		"time_elapsed": 49869,
		"internal_node_id": "0.0-1.0-1.6"
	},
	{
		"rt": null,
		"stimulus": "<span style= \"font-size:30px; font-family: monospace\">+</span>",
		"response": null,
		"trial_part": "fixation",
		"trial_type": "html-keyboard-response",
		"trial_index": 9,
		"time_elapsed": 51120,
		"internal_node_id": "0.0-1.0-0.7-0.7"
	},
	{
		"rt": 1218,
		"stimulus": "<span style=\"font-size:30px; font-family: monospace\">A</span>",
		"response": " ",
		"trial": "prac-sent",
		"word": "A",
		"trial_type": "html-keyboard-response",
		"trial_index": 10,
		"time_elapsed": 52589,
		"internal_node_id": "0.0-1.0-1.7"
	},
	{
		"rt": 1507,
		"stimulus": "<span style=\"font-size:30px; font-family: monospace\">caneca</span>",
		"response": " ",
		"trial": "prac-sent",
		"word": "caneca",
		"trial_type": "html-keyboard-response",
		"trial_index": 11,
		"time_elapsed": 54348,
		"internal_node_id": "0.0-1.0-1.8"
	},
	{
		"rt": 1318,
		"stimulus": "<span style=\"font-size:30px; font-family: monospace\">colorida</span>",
		"response": " ",
		"trial": "prac-sent",
		"word": "colorida",
		"trial_type": "html-keyboard-response",
		"trial_index": 12,
		"time_elapsed": 55917,
		"internal_node_id": "0.0-1.0-1.9"
	},
	{
		"rt": 1013,
		"stimulus": "<span style=\"font-size:30px; font-family: monospace\">caiu</span>",
		"response": " ",
		"trial": "prac-sent",
		"word": "caiu",
		"trial_type": "html-keyboard-response",
		"trial_index": 13,
		"time_elapsed": 57181,
		"internal_node_id": "0.0-1.0-1.10"
	},
	{
		"rt": 1221,
		"stimulus": "<span style=\"font-size:30px; font-family: monospace\">da</span>",
		"response": " ",
		"trial": "prac-sent",
		"word": "da",
		"trial_type": "html-keyboard-response",
		"trial_index": 14,
		"time_elapsed": 58653,
		"internal_node_id": "0.0-1.0-1.11"
	},
	{
		"rt": 948,
		"stimulus": "<span style=\"font-size:30px; font-family: monospace\">mesa</span>",
		"response": " ",
		"trial": "prac-sent",
		"word": "mesa",
		"trial_type": "html-keyboard-response",
		"trial_index": 15,
		"time_elapsed": 59853,
		"internal_node_id": "0.0-1.0-1.12"
	},
	{
		"rt": 821,
		"stimulus": "<span style=\"font-size:30px; font-family: monospace\">de</span>",
		"response": " ",
		"trial": "prac-sent",
		"word": "de",
		"trial_type": "html-keyboard-response",
		"trial_index": 16,
		"time_elapsed": 60925,
		"internal_node_id": "0.0-1.0-1.13"
	},
	{
		"rt": 997,
		"stimulus": "<span style=\"font-size:30px; font-family: monospace\">jantar.</span>",
		"response": " ",
		"trial": "prac-comp",
		"word": "jantar.",
		"trial_type": "html-keyboard-response",
		"trial_index": 17,
		"time_elapsed": 62173,
		"internal_node_id": "0.0-1.0-1.14"
	},
	{
		"rt": 3621,
		"stimulus": "<span style=\"font-size:30px; font-family: monospace\">A caneca permaneceu na mesa?</span>",
		"response": "s",
		"question": "A caneca permaneceu na mesa?",
		"answer": "não",
		"trial": "prac-comp",
		"trial_type": "html-keyboard-response",
		"trial_index": 18,
		"time_elapsed": 66044,
		"internal_node_id": "0.0-1.0-2.14-0.14",
		"accuracy": false
	},
	{
		"view_history": [
			{
				"page_index": 0,
				"viewing_time": 16452
			}
		],
		"rt": 16452,
		"trial_type": "instructions",
		"trial_index": 19,
		"time_elapsed": 82997,
		"internal_node_id": "0.0-2.0"
	},
	{
		"rt": null,
		"stimulus": "<span style= \"font-size:30px; font-family: monospace\">+</span>",
		"response": null,
		"trial_part": "fixation",
		"trial_type": "html-keyboard-response",
		"trial_index": 20,
		"time_elapsed": 84100,
		"internal_node_id": "0.0-3.0-0.0-0.0"
	},
	{
		"rt": 926,
		"stimulus": "<span style=\"font-size:30px; font-family: monospace\">A</span>",
		"response": " ",
		"trial": "exp-sent",
		"word": "A",
		"trial_type": "html-keyboard-response",
		"trial_index": 21,
		"time_elapsed": 85277,
		"internal_node_id": "0.0-3.0-1.0"
	},
	{
		"rt": 1205,
		"stimulus": "<span style=\"font-size:30px; font-family: monospace\">senhora</span>",
		"response": " ",
		"trial": "exp-sent",
		"word": "senhora",
		"trial_type": "html-keyboard-response",
		"trial_index": 22,
		"time_elapsed": 86733,
		"internal_node_id": "0.0-3.0-1.1"
	},
	{
		"rt": 1029,
		"stimulus": "<span style=\"font-size:30px; font-family: monospace\">cumprimentou</span>",
		"response": " ",
		"trial": "exp-sent",
		"word": "cumprimentou",
		"trial_type": "html-keyboard-response",
		"trial_index": 23,
		"time_elapsed": 88013,
		"internal_node_id": "0.0-3.0-1.2"
	},
	{
		"rt": 869,
		"stimulus": "<span style=\"font-size:30px; font-family: monospace\">o</span>",
		"response": " ",
		"trial": "exp-sent",
		"word": "o",
		"trial_type": "html-keyboard-response",
		"trial_index": 24,
		"time_elapsed": 89133,
		"internal_node_id": "0.0-3.0-1.3"
	},
	{
		"rt": 822,
		"stimulus": "<span style=\"font-size:30px; font-family: monospace\">operador</span>",
		"response": " ",
		"trial": "exp-sent",
		"word": "operador",
		"trial_type": "html-keyboard-response",
		"trial_index": 25,
		"time_elapsed": 90221,
		"internal_node_id": "0.0-3.0-1.4"
	},
	{
		"rt": 1205,
		"stimulus": "<span style=\"font-size:30px; font-family: monospace\">de</span>",
		"response": " ",
		"trial": "exp-sent",
		"word": "de",
		"trial_type": "html-keyboard-response",
		"trial_index": 26,
		"time_elapsed": 91677,
		"internal_node_id": "0.0-3.0-1.5"
	},
	{
		"rt": 773,
		"stimulus": "<span style=\"font-size:30px; font-family: monospace\">caixa.</span>",
		"response": " ",
		"trial": "exp-sent",
		"word": "caixa.",
		"trial_type": "html-keyboard-response",
		"trial_index": 27,
		"time_elapsed": 92701,
		"internal_node_id": "0.0-3.0-1.6"
	},
	{
		"rt": null,
		"stimulus": "<span style= \"font-size:30px; font-family: monospace\">+</span>",
		"response": null,
		"trial_part": "fixation",
		"trial_type": "html-keyboard-response",
		"trial_index": 28,
		"time_elapsed": 93953,
		"internal_node_id": "0.0-3.0-0.7-0.7"
	},
	{
		"rt": 1873,
		"stimulus": "<span style=\"font-size:30px; font-family: monospace\">A</span>",
		"response": " ",
		"trial": "exp-sent",
		"word": "A",
		"trial_type": "html-keyboard-response",
		"trial_index": 29,
		"time_elapsed": 96077,
		"internal_node_id": "0.0-3.0-1.7"
	},
	{
		"rt": 869,
		"stimulus": "<span style=\"font-size:30px; font-family: monospace\">gente</span>",
		"response": " ",
		"trial": "exp-sent",
		"word": "gente",
		"trial_type": "html-keyboard-response",
		"trial_index": 30,
		"time_elapsed": 97197,
		"internal_node_id": "0.0-3.0-1.8"
	},
	{
		"rt": 741,
		"stimulus": "<span style=\"font-size:30px; font-family: monospace\">viu</span>",
		"response": " ",
		"trial": "exp-sent",
		"word": "viu",
		"trial_type": "html-keyboard-response",
		"trial_index": 31,
		"time_elapsed": 98189,
		"internal_node_id": "0.0-3.0-1.9"
	},
	{
		"rt": 597,
		"stimulus": "<span style=\"font-size:30px; font-family: monospace\">o</span>",
		"response": " ",
		"trial": "exp-sent",
		"word": "o",
		"trial_type": "html-keyboard-response",
		"trial_index": 32,
		"time_elapsed": 99036,
		"internal_node_id": "0.0-3.0-1.10"
	},
	{
		"rt": 758,
		"stimulus": "<span style=\"font-size:30px; font-family: monospace\">eclipse</span>",
		"response": " ",
		"trial": "exp-sent",
		"word": "eclipse",
		"trial_type": "html-keyboard-response",
		"trial_index": 33,
		"time_elapsed": 100045,
		"internal_node_id": "0.0-3.0-1.11"
	},
	{
		"rt": 581,
		"stimulus": "<span style=\"font-size:30px; font-family: monospace\">lunar</span>",
		"response": " ",
		"trial": "exp-sent",
		"word": "lunar",
		"trial_type": "html-keyboard-response",
		"trial_index": 34,
		"time_elapsed": 100877,
		"internal_node_id": "0.0-3.0-1.12"
	},
	{
		"rt": 644,
		"stimulus": "<span style=\"font-size:30px; font-family: monospace\">durante</span>",
		"response": " ",
		"trial": "exp-sent",
		"word": "durante",
		"trial_type": "html-keyboard-response",
		"trial_index": 35,
		"time_elapsed": 101772,
		"internal_node_id": "0.0-3.0-1.13"
	},
	{
		"rt": 597,
		"stimulus": "<span style=\"font-size:30px; font-family: monospace\">o</span>",
		"response": " ",
		"trial": "exp-sent",
		"word": "o",
		"trial_type": "html-keyboard-response",
		"trial_index": 36,
		"time_elapsed": 102621,
		"internal_node_id": "0.0-3.0-1.14"
	},
	{
		"rt": 757,
		"stimulus": "<span style=\"font-size:30px; font-family: monospace\">dia.</span>",
		"response": " ",
		"trial": "exp-sent",
		"word": "dia.",
		"trial_type": "html-keyboard-response",
		"trial_index": 37,
		"time_elapsed": 103628,
		"internal_node_id": "0.0-3.0-1.15"
	},
	{
		"rt": null,
		"stimulus": "<span style= \"font-size:30px; font-family: monospace\">+</span>",
		"response": null,
		"trial_part": "fixation",
		"trial_type": "html-keyboard-response",
		"trial_index": 38,
		"time_elapsed": 104880,
		"internal_node_id": "0.0-3.0-0.16-0.16"
	},
	{
		"rt": 512,
		"stimulus": "<span style=\"font-size:30px; font-family: monospace\">A</span>",
		"response": " ",
		"trial": "exp-sent",
		"word": "A",
		"trial_type": "html-keyboard-response",
		"trial_index": 39,
		"time_elapsed": 105644,
		"internal_node_id": "0.0-3.0-1.16"
	},
	{
		"rt": 661,
		"stimulus": "<span style=\"font-size:30px; font-family: monospace\">mordida</span>",
		"response": " ",
		"trial": "exp-sent",
		"word": "mordida",
		"trial_type": "html-keyboard-response",
		"trial_index": 40,
		"time_elapsed": 106556,
		"internal_node_id": "0.0-3.0-1.17"
	},
	{
		"rt": 661,
		"stimulus": "<span style=\"font-size:30px; font-family: monospace\">do</span>",
		"response": " ",
		"trial": "exp-sent",
		"word": "do",
		"trial_type": "html-keyboard-response",
		"trial_index": 41,
		"time_elapsed": 107468,
		"internal_node_id": "0.0-3.0-1.18"
	},
	{
		"rt": 965,
		"stimulus": "<span style=\"font-size:30px; font-family: monospace\">cachorro</span>",
		"response": " ",
		"trial": "exp-sent",
		"word": "cachorro",
		"trial_type": "html-keyboard-response",
		"trial_index": 42,
		"time_elapsed": 108684,
		"internal_node_id": "0.0-3.0-1.19"
	},
	{
		"rt": 837,
		"stimulus": "<span style=\"font-size:30px; font-family: monospace\">voraz</span>",
		"response": " ",
		"trial": "exp-sent",
		"word": "voraz",
		"trial_type": "html-keyboard-response",
		"trial_index": 43,
		"time_elapsed": 109772,
		"internal_node_id": "0.0-3.0-1.20"
	},
	{
		"rt": 709,
		"stimulus": "<span style=\"font-size:30px; font-family: monospace\">causou</span>",
		"response": " ",
		"trial": "exp-sent",
		"word": "causou",
		"trial_type": "html-keyboard-response",
		"trial_index": 44,
		"time_elapsed": 110732,
		"internal_node_id": "0.0-3.0-1.21"
	},
	{
		"rt": 661,
		"stimulus": "<span style=\"font-size:30px; font-family: monospace\">uma</span>",
		"response": " ",
		"trial": "exp-sent",
		"word": "uma",
		"trial_type": "html-keyboard-response",
		"trial_index": 45,
		"time_elapsed": 111644,
		"internal_node_id": "0.0-3.0-1.22"
	},
	{
		"rt": 1269,
		"stimulus": "<span style=\"font-size:30px; font-family: monospace\">cicatriz.</span>",
		"response": " ",
		"trial": "exp-sent",
		"word": "cicatriz.",
		"trial_type": "html-keyboard-response",
		"trial_index": 46,
		"time_elapsed": 113164,
		"internal_node_id": "0.0-3.0-1.23"
	},
	{
		"rt": null,
		"stimulus": "<span style= \"font-size:30px; font-family: monospace\">+</span>",
		"response": null,
		"trial_part": "fixation",
		"trial_type": "html-keyboard-response",
		"trial_index": 47,
		"time_elapsed": 114416,
		"internal_node_id": "0.0-3.0-0.24-0.24"
	},
	{
		"rt": 481,
		"stimulus": "<span style=\"font-size:30px; font-family: monospace\">Elas</span>",
		"response": " ",
		"trial": "exp-sent",
		"word": "Elas",
		"trial_type": "html-keyboard-response",
		"trial_index": 48,
		"time_elapsed": 115148,
		"internal_node_id": "0.0-3.0-1.24"
	},
	{
		"rt": 1263,
		"stimulus": "<span style=\"font-size:30px; font-family: monospace\">não</span>",
		"response": " ",
		"trial": "exp-sent",
		"word": "não",
		"trial_type": "html-keyboard-response",
		"trial_index": 49,
		"time_elapsed": 116668,
		"internal_node_id": "0.0-3.0-1.25"
	},
	{
		"rt": 837,
		"stimulus": "<span style=\"font-size:30px; font-family: monospace\">viram</span>",
		"response": " ",
		"trial": "exp-sent",
		"word": "viram",
		"trial_type": "html-keyboard-response",
		"trial_index": 50,
		"time_elapsed": 117756,
		"internal_node_id": "0.0-3.0-1.26"
	},
	{
		"rt": 1045,
		"stimulus": "<span style=\"font-size:30px; font-family: monospace\">nenhuma</span>",
		"response": " ",
		"trial": "exp-sent",
		"word": "nenhuma",
		"trial_type": "html-keyboard-response",
		"trial_index": 51,
		"time_elapsed": 119052,
		"internal_node_id": "0.0-3.0-1.27"
	},
	{
		"rt": 853,
		"stimulus": "<span style=\"font-size:30px; font-family: monospace\">diferença</span>",
		"response": " ",
		"trial": "exp-sent",
		"word": "diferença",
		"trial_type": "html-keyboard-response",
		"trial_index": 52,
		"time_elapsed": 120156,
		"internal_node_id": "0.0-3.0-1.28"
	},
	{
		"rt": 710,
		"stimulus": "<span style=\"font-size:30px; font-family: monospace\">entre</span>",
		"response": " ",
		"trial": "exp-sent",
		"word": "entre",
		"trial_type": "html-keyboard-response",
		"trial_index": 53,
		"time_elapsed": 121116,
		"internal_node_id": "0.0-3.0-1.29"
	},
	{
		"rt": 676,
		"stimulus": "<span style=\"font-size:30px; font-family: monospace\">os</span>",
		"response": " ",
		"trial": "exp-sent",
		"word": "os",
		"trial_type": "html-keyboard-response",
		"trial_index": 54,
		"time_elapsed": 122044,
		"internal_node_id": "0.0-3.0-1.30"
	},
	{
		"rt": 645,
		"stimulus": "<span style=\"font-size:30px; font-family: monospace\">textos.</span>",
		"response": " ",
		"trial": "exp-sent",
		"word": "textos.",
		"trial_type": "html-keyboard-response",
		"trial_index": 55,
		"time_elapsed": 122940,
		"internal_node_id": "0.0-3.0-1.31"
	},
	{
		"rt": null,
		"stimulus": "<span style= \"font-size:30px; font-family: monospace\">+</span>",
		"response": null,
		"trial_part": "fixation",
		"trial_type": "html-keyboard-response",
		"trial_index": 56,
		"time_elapsed": 124204,
		"internal_node_id": "0.0-3.0-0.32-0.32"
	},
	{
		"rt": 950,
		"stimulus": "<span style=\"font-size:30px; font-family: monospace\">Amanhã</span>",
		"response": " ",
		"trial": "exp-sent",
		"word": "Amanhã",
		"trial_type": "html-keyboard-response",
		"trial_index": 57,
		"time_elapsed": 125404,
		"internal_node_id": "0.0-3.0-1.32"
	},
	{
		"rt": 1285,
		"stimulus": "<span style=\"font-size:30px; font-family: monospace\">vai</span>",
		"response": " ",
		"trial": "exp-sent",
		"word": "vai",
		"trial_type": "html-keyboard-response",
		"trial_index": 58,
		"time_elapsed": 126940,
		"internal_node_id": "0.0-3.0-1.33"
	},
	{
		"rt": 677,
		"stimulus": "<span style=\"font-size:30px; font-family: monospace\">ter</span>",
		"response": " ",
		"trial": "exp-sent",
		"word": "ter",
		"trial_type": "html-keyboard-response",
		"trial_index": 59,
		"time_elapsed": 127868,
		"internal_node_id": "0.0-3.0-1.34"
	},
	{
		"rt": 740,
		"stimulus": "<span style=\"font-size:30px; font-family: monospace\">um</span>",
		"response": " ",
		"trial": "exp-sent",
		"word": "um",
		"trial_type": "html-keyboard-response",
		"trial_index": 60,
		"time_elapsed": 128860,
		"internal_node_id": "0.0-3.0-1.35"
	},
	{
		"rt": 757,
		"stimulus": "<span style=\"font-size:30px; font-family: monospace\">bazar</span>",
		"response": " ",
		"trial": "exp-sent",
		"word": "bazar",
		"trial_type": "html-keyboard-response",
		"trial_index": 61,
		"time_elapsed": 129868,
		"internal_node_id": "0.0-3.0-1.36"
	},
	{
		"rt": 837,
		"stimulus": "<span style=\"font-size:30px; font-family: monospace\">no</span>",
		"response": " ",
		"trial": "exp-sent",
		"word": "no",
		"trial_type": "html-keyboard-response",
		"trial_index": 62,
		"time_elapsed": 130956,
		"internal_node_id": "0.0-3.0-1.37"
	},
	{
		"rt": 774,
		"stimulus": "<span style=\"font-size:30px; font-family: monospace\">bairro.</span>",
		"response": " ",
		"trial": "comp",
		"word": "bairro.",
		"trial_type": "html-keyboard-response",
		"trial_index": 63,
		"time_elapsed": 131981,
		"internal_node_id": "0.0-3.0-1.38"
	},
	{
		"rt": 2148,
		"stimulus": "<span style=\"font-size:30px; font-family: monospace\">Amanhã vai acontecer um bazar no bairro?</span>",
		"response": "s",
		"question": "Amanhã vai acontecer um bazar no bairro?",
		"answer": "sim",
		"trial": "comp",
		"trial_type": "html-keyboard-response",
		"trial_index": 64,
		"time_elapsed": 134380,
		"internal_node_id": "0.0-3.0-2.38-0.38",
		"accuracy": false
	},
	{
		"rt": null,
		"stimulus": "<span style= \"font-size:30px; font-family: monospace\">+</span>",
		"response": null,
		"trial_part": "fixation",
		"trial_type": "html-keyboard-response",
		"trial_index": 65,
		"time_elapsed": 135896,
		"internal_node_id": "0.0-3.0-0.39-0.39"
	},
	{
		"rt": 761,
		"stimulus": "<span style=\"font-size:30px; font-family: monospace\">A</span>",
		"response": " ",
		"trial": "exp-sent",
		"word": "A",
		"trial_type": "html-keyboard-response",
		"trial_index": 66,
		"time_elapsed": 136908,
		"internal_node_id": "0.0-3.0-1.39"
	},
	{
		"rt": 645,
		"stimulus": "<span style=\"font-size:30px; font-family: monospace\">motorista</span>",
		"response": " ",
		"trial": "exp-sent",
		"word": "motorista",
		"trial_type": "html-keyboard-response",
		"trial_index": 67,
		"time_elapsed": 137804,
		"internal_node_id": "0.0-3.0-1.40"
	},
	{
		"rt": 805,
		"stimulus": "<span style=\"font-size:30px; font-family: monospace\">fez</span>",
		"response": " ",
		"trial": "exp-sent",
		"word": "fez",
		"trial_type": "html-keyboard-response",
		"trial_index": 68,
		"time_elapsed": 138860,
		"internal_node_id": "0.0-3.0-1.41"
	},
	{
		"rt": 645,
		"stimulus": "<span style=\"font-size:30px; font-family: monospace\">o</span>",
		"response": " ",
		"trial": "exp-sent",
		"word": "o",
		"trial_type": "html-keyboard-response",
		"trial_index": 69,
		"time_elapsed": 139756,
		"internal_node_id": "0.0-3.0-1.42"
	},
	{
		"rt": 613,
		"stimulus": "<span style=\"font-size:30px; font-family: monospace\">retorno</span>",
		"response": " ",
		"trial": "exp-sent",
		"word": "retorno",
		"trial_type": "html-keyboard-response",
		"trial_index": 70,
		"time_elapsed": 140620,
		"internal_node_id": "0.0-3.0-1.43"
	},
	{
		"rt": 629,
		"stimulus": "<span style=\"font-size:30px; font-family: monospace\">com</span>",
		"response": " ",
		"trial": "exp-sent",
		"word": "com",
		"trial_type": "html-keyboard-response",
		"trial_index": 71,
		"time_elapsed": 141500,
		"internal_node_id": "0.0-3.0-1.44"
	},
	{
		"rt": 709,
		"stimulus": "<span style=\"font-size:30px; font-family: monospace\">cuidado.</span>",
		"response": " ",
		"trial": "exp-sent",
		"word": "cuidado.",
		"trial_type": "html-keyboard-response",
		"trial_index": 72,
		"time_elapsed": 142460,
		"internal_node_id": "0.0-3.0-1.45"
	},
	{
		"rt": null,
		"stimulus": "<span style= \"font-size:30px; font-family: monospace\">+</span>",
		"response": null,
		"trial_part": "fixation",
		"trial_type": "html-keyboard-response",
		"trial_index": 73,
		"time_elapsed": 143712,
		"internal_node_id": "0.0-3.0-0.46-0.46"
	},
	{
		"rt": 1393,
		"stimulus": "<span style=\"font-size:30px; font-family: monospace\">Contos</span>",
		"response": " ",
		"trial": "exp-sent",
		"word": "Contos",
		"trial_type": "html-keyboard-response",
		"trial_index": 74,
		"time_elapsed": 145356,
		"internal_node_id": "0.0-3.0-1.46"
	},
	{
		"rt": 613,
		"stimulus": "<span style=\"font-size:30px; font-family: monospace\">de</span>",
		"response": " ",
		"trial": "exp-sent",
		"word": "de",
		"trial_type": "html-keyboard-response",
		"trial_index": 75,
		"time_elapsed": 146220,
		"internal_node_id": "0.0-3.0-1.47"
	},
	{
		"rt": 612,
		"stimulus": "<span style=\"font-size:30px; font-family: monospace\">ação</span>",
		"response": " ",
		"trial": "exp-sent",
		"word": "ação",
		"trial_type": "html-keyboard-response",
		"trial_index": 76,
		"time_elapsed": 147084,
		"internal_node_id": "0.0-3.0-1.48"
	},
	{
		"rt": 837,
		"stimulus": "<span style=\"font-size:30px; font-family: monospace\">têm</span>",
		"response": " ",
		"trial": "exp-sent",
		"word": "têm",
		"trial_type": "html-keyboard-response",
		"trial_index": 77,
		"time_elapsed": 148172,
		"internal_node_id": "0.0-3.0-1.49"
	},
	{
		"rt": 1125,
		"stimulus": "<span style=\"font-size:30px; font-family: monospace\">chantagem</span>",
		"response": " ",
		"trial": "exp-sent",
		"word": "chantagem",
		"trial_type": "html-keyboard-response",
		"trial_index": 78,
		"time_elapsed": 149548,
		"internal_node_id": "0.0-3.0-1.50"
	},
	{
		"rt": 613,
		"stimulus": "<span style=\"font-size:30px; font-family: monospace\">e</span>",
		"response": " ",
		"trial": "exp-sent",
		"word": "e",
		"trial_type": "html-keyboard-response",
		"trial_index": 79,
		"time_elapsed": 150412,
		"internal_node_id": "0.0-3.0-1.51"
	},
	{
		"rt": 788,
		"stimulus": "<span style=\"font-size:30px; font-family: monospace\">muita</span>",
		"response": " ",
		"trial": "exp-sent",
		"word": "muita",
		"trial_type": "html-keyboard-response",
		"trial_index": 80,
		"time_elapsed": 151452,
		"internal_node_id": "0.0-3.0-1.52"
	},
	{
		"rt": 837,
		"stimulus": "<span style=\"font-size:30px; font-family: monospace\">luta.</span>",
		"response": " ",
		"trial": "exp-sent",
		"word": "luta.",
		"trial_type": "html-keyboard-response",
		"trial_index": 81,
		"time_elapsed": 152540,
		"internal_node_id": "0.0-3.0-1.53"
	},
	{
		"rt": null,
		"stimulus": "<span style= \"font-size:30px; font-family: monospace\">+</span>",
		"response": null,
		"trial_part": "fixation",
		"trial_type": "html-keyboard-response",
		"trial_index": 82,
		"time_elapsed": 153792,
		"internal_node_id": "0.0-3.0-0.54-0.54"
	},
	{
		"rt": 706,
		"stimulus": "<span style=\"font-size:30px; font-family: monospace\">A</span>",
		"response": " ",
		"trial": "exp-sent",
		"word": "A",
		"trial_type": "html-keyboard-response",
		"trial_index": 83,
		"time_elapsed": 154748,
		"internal_node_id": "0.0-3.0-1.54"
	},
	{
		"rt": 873,
		"stimulus": "<span style=\"font-size:30px; font-family: monospace\">bisavó</span>",
		"response": " ",
		"trial": "exp-sent",
		"word": "bisavó",
		"trial_type": "html-keyboard-response",
		"trial_index": 84,
		"time_elapsed": 155884,
		"internal_node_id": "0.0-3.0-1.55"
	},
	{
		"rt": 613,
		"stimulus": "<span style=\"font-size:30px; font-family: monospace\">recebeu</span>",
		"response": " ",
		"trial": "exp-sent",
		"word": "recebeu",
		"trial_type": "html-keyboard-response",
		"trial_index": 85,
		"time_elapsed": 156748,
		"internal_node_id": "0.0-3.0-1.56"
	},
	{
		"rt": 533,
		"stimulus": "<span style=\"font-size:30px; font-family: monospace\">um</span>",
		"response": " ",
		"trial": "exp-sent",
		"word": "um",
		"trial_type": "html-keyboard-response",
		"trial_index": 86,
		"time_elapsed": 157532,
		"internal_node_id": "0.0-3.0-1.57"
	},
	{
		"rt": 789,
		"stimulus": "<span style=\"font-size:30px; font-family: monospace\">benefício</span>",
		"response": " ",
		"trial": "exp-sent",
		"word": "benefício",
		"trial_type": "html-keyboard-response",
		"trial_index": 87,
		"time_elapsed": 158572,
		"internal_node_id": "0.0-3.0-1.58"
	},
	{
		"rt": 772,
		"stimulus": "<span style=\"font-size:30px; font-family: monospace\">temporário</span>",
		"response": " ",
		"trial": "exp-sent",
		"word": "temporário",
		"trial_type": "html-keyboard-response",
		"trial_index": 88,
		"time_elapsed": 159596,
		"internal_node_id": "0.0-3.0-1.59"
	},
	{
		"rt": 645,
		"stimulus": "<span style=\"font-size:30px; font-family: monospace\">do</span>",
		"response": " ",
		"trial": "exp-sent",
		"word": "do",
		"trial_type": "html-keyboard-response",
		"trial_index": 89,
		"time_elapsed": 160492,
		"internal_node_id": "0.0-3.0-1.60"
	},
	{
		"rt": 885,
		"stimulus": "<span style=\"font-size:30px; font-family: monospace\">governo.</span>",
		"response": " ",
		"trial": "exp-sent",
		"word": "governo.",
		"trial_type": "html-keyboard-response",
		"trial_index": 90,
		"time_elapsed": 161628,
		"internal_node_id": "0.0-3.0-1.61"
	},
	{
		"rt": null,
		"stimulus": "<span style= \"font-size:30px; font-family: monospace\">+</span>",
		"response": null,
		"trial_part": "fixation",
		"trial_type": "html-keyboard-response",
		"trial_index": 91,
		"time_elapsed": 162880,
		"internal_node_id": "0.0-3.0-0.62-0.62"
	},
	{
		"rt": 576,
		"stimulus": "<span style=\"font-size:30px; font-family: monospace\">As</span>",
		"response": " ",
		"trial": "exp-sent",
		"word": "As",
		"trial_type": "html-keyboard-response",
		"trial_index": 92,
		"time_elapsed": 163708,
		"internal_node_id": "0.0-3.0-1.62"
	},
	{
		"rt": 580,
		"stimulus": "<span style=\"font-size:30px; font-family: monospace\">crianças</span>",
		"response": " ",
		"trial": "exp-sent",
		"word": "crianças",
		"trial_type": "html-keyboard-response",
		"trial_index": 93,
		"time_elapsed": 164540,
		"internal_node_id": "0.0-3.0-1.63"
	},
	{
		"rt": 709,
		"stimulus": "<span style=\"font-size:30px; font-family: monospace\">brincaram</span>",
		"response": " ",
		"trial": "exp-sent",
		"word": "brincaram",
		"trial_type": "html-keyboard-response",
		"trial_index": 94,
		"time_elapsed": 165500,
		"internal_node_id": "0.0-3.0-1.64"
	},
	{
		"rt": 757,
		"stimulus": "<span style=\"font-size:30px; font-family: monospace\">no</span>",
		"response": " ",
		"trial": "exp-sent",
		"word": "no",
		"trial_type": "html-keyboard-response",
		"trial_index": 95,
		"time_elapsed": 166508,
		"internal_node_id": "0.0-3.0-1.65"
	},
	{
		"rt": 901,
		"stimulus": "<span style=\"font-size:30px; font-family: monospace\">balanço</span>",
		"response": " ",
		"trial": "exp-sent",
		"word": "balanço",
		"trial_type": "html-keyboard-response",
		"trial_index": 96,
		"time_elapsed": 167660,
		"internal_node_id": "0.0-3.0-1.66"
	},
	{
		"rt": 708,
		"stimulus": "<span style=\"font-size:30px; font-family: monospace\">a</span>",
		"response": " ",
		"trial": "exp-sent",
		"word": "a",
		"trial_type": "html-keyboard-response",
		"trial_index": 97,
		"time_elapsed": 168620,
		"internal_node_id": "0.0-3.0-1.67"
	},
	{
		"rt": 676,
		"stimulus": "<span style=\"font-size:30px; font-family: monospace\">tarde</span>",
		"response": " ",
		"trial": "exp-sent",
		"word": "tarde",
		"trial_type": "html-keyboard-response",
		"trial_index": 98,
		"time_elapsed": 169548,
		"internal_node_id": "0.0-3.0-1.68"
	},
	{
		"rt": 805,
		"stimulus": "<span style=\"font-size:30px; font-family: monospace\">toda.</span>",
		"response": " ",
		"trial": "exp-sent",
		"word": "toda.",
		"trial_type": "html-keyboard-response",
		"trial_index": 99,
		"time_elapsed": 170604,
		"internal_node_id": "0.0-3.0-1.69"
	},
	{
		"rt": null,
		"stimulus": "<span style= \"font-size:30px; font-family: monospace\">+</span>",
		"response": null,
		"trial_part": "fixation",
		"trial_type": "html-keyboard-response",
		"trial_index": 100,
		"time_elapsed": 171856,
		"internal_node_id": "0.0-3.0-0.70-0.70"
	},
	{
		"rt": 657,
		"stimulus": "<span style=\"font-size:30px; font-family: monospace\">Ela</span>",
		"response": " ",
		"trial": "exp-sent",
		"word": "Ela",
		"trial_type": "html-keyboard-response",
		"trial_index": 101,
		"time_elapsed": 172764,
		"internal_node_id": "0.0-3.0-1.70"
	},
	{
		"rt": 805,
		"stimulus": "<span style=\"font-size:30px; font-family: monospace\">gosta</span>",
		"response": " ",
		"trial": "exp-sent",
		"word": "gosta",
		"trial_type": "html-keyboard-response",
		"trial_index": 102,
		"time_elapsed": 173820,
		"internal_node_id": "0.0-3.0-1.71"
	},
	{
		"rt": 853,
		"stimulus": "<span style=\"font-size:30px; font-family: monospace\">de</span>",
		"response": " ",
		"trial": "exp-sent",
		"word": "de",
		"trial_type": "html-keyboard-response",
		"trial_index": 103,
		"time_elapsed": 174924,
		"internal_node_id": "0.0-3.0-1.72"
	},
	{
		"rt": 917,
		"stimulus": "<span style=\"font-size:30px; font-family: monospace\">comida</span>",
		"response": " ",
		"trial": "exp-sent",
		"word": "comida",
		"trial_type": "html-keyboard-response",
		"trial_index": 104,
		"time_elapsed": 176092,
		"internal_node_id": "0.0-3.0-1.73"
	},
	{
		"rt": 773,
		"stimulus": "<span style=\"font-size:30px; font-family: monospace\">natural</span>",
		"response": " ",
		"trial": "exp-sent",
		"word": "natural",
		"trial_type": "html-keyboard-response",
		"trial_index": 105,
		"time_elapsed": 177116,
		"internal_node_id": "0.0-3.0-1.74"
	},
	{
		"rt": 644,
		"stimulus": "<span style=\"font-size:30px; font-family: monospace\">no</span>",
		"response": " ",
		"trial": "exp-sent",
		"word": "no",
		"trial_type": "html-keyboard-response",
		"trial_index": 106,
		"time_elapsed": 178012,
		"internal_node_id": "0.0-3.0-1.75"
	},
	{
		"rt": 2485,
		"stimulus": "<span style=\"font-size:30px; font-family: monospace\">almoço.</span>",
		"response": " ",
		"trial": "comp",
		"word": "almoço.",
		"trial_type": "html-keyboard-response",
		"trial_index": 107,
		"time_elapsed": 180748,
		"internal_node_id": "0.0-3.0-1.76"
	},
	{
		"rt": 1829,
		"stimulus": "<span style=\"font-size:30px; font-family: monospace\">Ela gosta de comida natural no almoço?</span>",
		"response": "s",
		"question": "Ela gosta de comida natural no almoço?",
		"answer": "sim",
		"trial": "comp",
		"trial_type": "html-keyboard-response",
		"trial_index": 108,
		"time_elapsed": 182828,
		"internal_node_id": "0.0-3.0-2.76-0.76",
		"accuracy": false
	},
	{
		"rt": null,
		"stimulus": "<span style= \"font-size:30px; font-family: monospace\">+</span>",
		"response": null,
		"trial_part": "fixation",
		"trial_type": "html-keyboard-response",
		"trial_index": 109,
		"time_elapsed": 184345,
		"internal_node_id": "0.0-3.0-0.77-0.77"
	},
	{
		"rt": 1720,
		"stimulus": "<span style=\"font-size:30px; font-family: monospace\">Minha</span>",
		"response": " ",
		"trial": "exp-sent",
		"word": "Minha",
		"trial_type": "html-keyboard-response",
		"trial_index": 110,
		"time_elapsed": 186316,
		"internal_node_id": "0.0-3.0-1.77"
	},
	{
		"rt": 533,
		"stimulus": "<span style=\"font-size:30px; font-family: monospace\">prima</span>",
		"response": " ",
		"trial": "exp-sent",
		"word": "prima",
		"trial_type": "html-keyboard-response",
		"trial_index": 111,
		"time_elapsed": 187100,
		"internal_node_id": "0.0-3.0-1.78"
	},
	{
		"rt": 468,
		"stimulus": "<span style=\"font-size:30px; font-family: monospace\">trocou</span>",
		"response": " ",
		"trial": "exp-sent",
		"word": "trocou",
		"trial_type": "html-keyboard-response",
		"trial_index": 112,
		"time_elapsed": 187820,
		"internal_node_id": "0.0-3.0-1.79"
	},
	{
		"rt": 645,
		"stimulus": "<span style=\"font-size:30px; font-family: monospace\">a</span>",
		"response": " ",
		"trial": "exp-sent",
		"word": "a",
		"trial_type": "html-keyboard-response",
		"trial_index": 113,
		"time_elapsed": 188716,
		"internal_node_id": "0.0-3.0-1.80"
	},
	{
		"rt": 516,
		"stimulus": "<span style=\"font-size:30px; font-family: monospace\">tela</span>",
		"response": " ",
		"trial": "exp-sent",
		"word": "tela",
		"trial_type": "html-keyboard-response",
		"trial_index": 114,
		"time_elapsed": 189484,
		"internal_node_id": "0.0-3.0-1.81"
	},
	{
		"rt": 516,
		"stimulus": "<span style=\"font-size:30px; font-family: monospace\">do</span>",
		"response": " ",
		"trial": "exp-sent",
		"word": "do",
		"trial_type": "html-keyboard-response",
		"trial_index": 115,
		"time_elapsed": 190251,
		"internal_node_id": "0.0-3.0-1.82"
	},
	{
		"rt": 517,
		"stimulus": "<span style=\"font-size:30px; font-family: monospace\">celular</span>",
		"response": " ",
		"trial": "exp-sent",
		"word": "celular",
		"trial_type": "html-keyboard-response",
		"trial_index": 116,
		"time_elapsed": 191020,
		"internal_node_id": "0.0-3.0-1.83"
	},
	{
		"rt": 565,
		"stimulus": "<span style=\"font-size:30px; font-family: monospace\">duas</span>",
		"response": " ",
		"trial": "exp-sent",
		"word": "duas",
		"trial_type": "html-keyboard-response",
		"trial_index": 117,
		"time_elapsed": 191836,
		"internal_node_id": "0.0-3.0-1.84"
	},
	{
		"rt": 981,
		"stimulus": "<span style=\"font-size:30px; font-family: monospace\">vezes.</span>",
		"response": " ",
		"trial": "exp-sent",
		"word": "vezes.",
		"trial_type": "html-keyboard-response",
		"trial_index": 118,
		"time_elapsed": 193068,
		"internal_node_id": "0.0-3.0-1.85"
	},
	{
		"rt": null,
		"stimulus": "<span style= \"font-size:30px; font-family: monospace\">+</span>",
		"response": null,
		"trial_part": "fixation",
		"trial_type": "html-keyboard-response",
		"trial_index": 119,
		"time_elapsed": 194320,
		"internal_node_id": "0.0-3.0-0.86-0.86"
	},
	{
		"rt": 450,
		"stimulus": "<span style=\"font-size:30px; font-family: monospace\">Agora</span>",
		"response": " ",
		"trial": "exp-sent",
		"word": "Agora",
		"trial_type": "html-keyboard-response",
		"trial_index": 120,
		"time_elapsed": 195020,
		"internal_node_id": "0.0-3.0-1.86"
	},
	{
		"rt": 500,
		"stimulus": "<span style=\"font-size:30px; font-family: monospace\">a</span>",
		"response": " ",
		"trial": "exp-sent",
		"word": "a",
		"trial_type": "html-keyboard-response",
		"trial_index": 121,
		"time_elapsed": 195772,
		"internal_node_id": "0.0-3.0-1.87"
	},
	{
		"rt": 660,
		"stimulus": "<span style=\"font-size:30px; font-family: monospace\">minha</span>",
		"response": " ",
		"trial": "exp-sent",
		"word": "minha",
		"trial_type": "html-keyboard-response",
		"trial_index": 122,
		"time_elapsed": 196684,
		"internal_node_id": "0.0-3.0-1.88"
	},
	{
		"rt": 597,
		"stimulus": "<span style=\"font-size:30px; font-family: monospace\">única</span>",
		"response": " ",
		"trial": "exp-sent",
		"word": "única",
		"trial_type": "html-keyboard-response",
		"trial_index": 123,
		"time_elapsed": 197532,
		"internal_node_id": "0.0-3.0-1.89"
	},
	{
		"rt": 884,
		"stimulus": "<span style=\"font-size:30px; font-family: monospace\">preocupação</span>",
		"response": " ",
		"trial": "exp-sent",
		"word": "preocupação",
		"trial_type": "html-keyboard-response",
		"trial_index": 124,
		"time_elapsed": 198668,
		"internal_node_id": "0.0-3.0-1.90"
	},
	{
		"rt": 597,
		"stimulus": "<span style=\"font-size:30px; font-family: monospace\">é</span>",
		"response": " ",
		"trial": "exp-sent",
		"word": "é",
		"trial_type": "html-keyboard-response",
		"trial_index": 125,
		"time_elapsed": 199516,
		"internal_node_id": "0.0-3.0-1.91"
	},
	{
		"rt": 693,
		"stimulus": "<span style=\"font-size:30px; font-family: monospace\">um</span>",
		"response": " ",
		"trial": "exp-sent",
		"word": "um",
		"trial_type": "html-keyboard-response",
		"trial_index": 126,
		"time_elapsed": 200460,
		"internal_node_id": "0.0-3.0-1.92"
	},
	{
		"rt": 741,
		"stimulus": "<span style=\"font-size:30px; font-family: monospace\">descanso</span>",
		"response": " ",
		"trial": "exp-sent",
		"word": "descanso",
		"trial_type": "html-keyboard-response",
		"trial_index": 127,
		"time_elapsed": 201452,
		"internal_node_id": "0.0-3.0-1.93"
	},
	{
		"rt": 677,
		"stimulus": "<span style=\"font-size:30px; font-family: monospace\">tranquilo.</span>",
		"response": " ",
		"trial": "exp-sent",
		"word": "tranquilo.",
		"trial_type": "html-keyboard-response",
		"trial_index": 128,
		"time_elapsed": 202380,
		"internal_node_id": "0.0-3.0-1.94"
	},
	{
		"rt": null,
		"stimulus": "<span style= \"font-size:30px; font-family: monospace\">+</span>",
		"response": null,
		"trial_part": "fixation",
		"trial_type": "html-keyboard-response",
		"trial_index": 129,
		"time_elapsed": 203633,
		"internal_node_id": "0.0-3.0-0.95-0.95"
	},
	{
		"rt": 447,
		"stimulus": "<span style=\"font-size:30px; font-family: monospace\">A</span>",
		"response": " ",
		"trial": "exp-sent",
		"word": "A",
		"trial_type": "html-keyboard-response",
		"trial_index": 130,
		"time_elapsed": 204332,
		"internal_node_id": "0.0-3.0-1.95"
	},
	{
		"rt": 656,
		"stimulus": "<span style=\"font-size:30px; font-family: monospace\">criança</span>",
		"response": " ",
		"trial": "exp-sent",
		"word": "criança",
		"trial_type": "html-keyboard-response",
		"trial_index": 131,
		"time_elapsed": 205244,
		"internal_node_id": "0.0-3.0-1.96"
	},
	{
		"rt": 998,
		"stimulus": "<span style=\"font-size:30px; font-family: monospace\">ganhou</span>",
		"response": " ",
		"trial": "exp-sent",
		"word": "ganhou",
		"trial_type": "html-keyboard-response",
		"trial_index": 132,
		"time_elapsed": 206492,
		"internal_node_id": "0.0-3.0-1.97"
	},
	{
		"rt": 708,
		"stimulus": "<span style=\"font-size:30px; font-family: monospace\">um</span>",
		"response": " ",
		"trial": "exp-sent",
		"word": "um",
		"trial_type": "html-keyboard-response",
		"trial_index": 133,
		"time_elapsed": 207452,
		"internal_node_id": "0.0-3.0-1.98"
	},
	{
		"rt": 660,
		"stimulus": "<span style=\"font-size:30px; font-family: monospace\">presente</span>",
		"response": " ",
		"trial": "exp-sent",
		"word": "presente",
		"trial_type": "html-keyboard-response",
		"trial_index": 134,
		"time_elapsed": 208364,
		"internal_node_id": "0.0-3.0-1.99"
	},
	{
		"rt": 725,
		"stimulus": "<span style=\"font-size:30px; font-family: monospace\">maravilhoso.</span>",
		"response": " ",
		"trial": "exp-sent",
		"word": "maravilhoso.",
		"trial_type": "html-keyboard-response",
		"trial_index": 135,
		"time_elapsed": 209340,
		"internal_node_id": "0.0-3.0-1.100"
	},
	{
		"rt": null,
		"stimulus": "<span style= \"font-size:30px; font-family: monospace\">+</span>",
		"response": null,
		"trial_part": "fixation",
		"trial_type": "html-keyboard-response",
		"trial_index": 136,
		"time_elapsed": 210591,
		"internal_node_id": "0.0-3.0-0.101-0.101"
	},
	{
		"rt": 962,
		"stimulus": "<span style=\"font-size:30px; font-family: monospace\">Os</span>",
		"response": " ",
		"trial": "exp-sent",
		"word": "Os",
		"trial_type": "html-keyboard-response",
		"trial_index": 137,
		"time_elapsed": 211804,
		"internal_node_id": "0.0-3.0-1.101"
	},
	{
		"rt": 613,
		"stimulus": "<span style=\"font-size:30px; font-family: monospace\">bichos</span>",
		"response": " ",
		"trial": "exp-sent",
		"word": "bichos",
		"trial_type": "html-keyboard-response",
		"trial_index": 138,
		"time_elapsed": 212668,
		"internal_node_id": "0.0-3.0-1.102"
	},
	{
		"rt": 677,
		"stimulus": "<span style=\"font-size:30px; font-family: monospace\">têm</span>",
		"response": " ",
		"trial": "exp-sent",
		"word": "têm",
		"trial_type": "html-keyboard-response",
		"trial_index": 139,
		"time_elapsed": 213596,
		"internal_node_id": "0.0-3.0-1.103"
	},
	{
		"rt": 581,
		"stimulus": "<span style=\"font-size:30px; font-family: monospace\">um</span>",
		"response": " ",
		"trial": "exp-sent",
		"word": "um",
		"trial_type": "html-keyboard-response",
		"trial_index": 140,
		"time_elapsed": 214428,
		"internal_node_id": "0.0-3.0-1.104"
	},
	{
		"rt": 757,
		"stimulus": "<span style=\"font-size:30px; font-family: monospace\">instinto</span>",
		"response": " ",
		"trial": "exp-sent",
		"word": "instinto",
		"trial_type": "html-keyboard-response",
		"trial_index": 141,
		"time_elapsed": 215436,
		"internal_node_id": "0.0-3.0-1.105"
	},
	{
		"rt": 709,
		"stimulus": "<span style=\"font-size:30px; font-family: monospace\">de</span>",
		"response": " ",
		"trial": "exp-sent",
		"word": "de",
		"trial_type": "html-keyboard-response",
		"trial_index": 142,
		"time_elapsed": 216396,
		"internal_node_id": "0.0-3.0-1.106"
	},
	{
		"rt": 1109,
		"stimulus": "<span style=\"font-size:30px; font-family: monospace\">sobrevivência</span>",
		"response": " ",
		"trial": "exp-sent",
		"word": "sobrevivência",
		"trial_type": "html-keyboard-response",
		"trial_index": 143,
		"time_elapsed": 217756,
		"internal_node_id": "0.0-3.0-1.107"
	},
	{
		"rt": 533,
		"stimulus": "<span style=\"font-size:30px; font-family: monospace\">forte.</span>",
		"response": " ",
		"trial": "exp-sent",
		"word": "forte.",
		"trial_type": "html-keyboard-response",
		"trial_index": 144,
		"time_elapsed": 218540,
		"internal_node_id": "0.0-3.0-1.108"
	},
	{
		"rt": null,
		"stimulus": "<span style= \"font-size:30px; font-family: monospace\">+</span>",
		"response": null,
		"trial_part": "fixation",
		"trial_type": "html-keyboard-response",
		"trial_index": 145,
		"time_elapsed": 219792,
		"internal_node_id": "0.0-3.0-0.109-0.109"
	},
	{
		"rt": 385,
		"stimulus": "<span style=\"font-size:30px; font-family: monospace\">Aquele</span>",
		"response": " ",
		"trial": "exp-sent",
		"word": "Aquele",
		"trial_type": "html-keyboard-response",
		"trial_index": 146,
		"time_elapsed": 220428,
		"internal_node_id": "0.0-3.0-1.109"
	},
	{
		"rt": 565,
		"stimulus": "<span style=\"font-size:30px; font-family: monospace\">menino</span>",
		"response": " ",
		"trial": "exp-sent",
		"word": "menino",
		"trial_type": "html-keyboard-response",
		"trial_index": 147,
		"time_elapsed": 221244,
		"internal_node_id": "0.0-3.0-1.110"
	},
	{
		"rt": 613,
		"stimulus": "<span style=\"font-size:30px; font-family: monospace\">alto</span>",
		"response": " ",
		"trial": "exp-sent",
		"word": "alto",
		"trial_type": "html-keyboard-response",
		"trial_index": 148,
		"time_elapsed": 222108,
		"internal_node_id": "0.0-3.0-1.111"
	},
	{
		"rt": 582,
		"stimulus": "<span style=\"font-size:30px; font-family: monospace\">é</span>",
		"response": " ",
		"trial": "exp-sent",
		"word": "é",
		"trial_type": "html-keyboard-response",
		"trial_index": 149,
		"time_elapsed": 222940,
		"internal_node_id": "0.0-3.0-1.112"
	},
	{
		"rt": 629,
		"stimulus": "<span style=\"font-size:30px; font-family: monospace\">exibido</span>",
		"response": " ",
		"trial": "exp-sent",
		"word": "exibido",
		"trial_type": "html-keyboard-response",
		"trial_index": 150,
		"time_elapsed": 223820,
		"internal_node_id": "0.0-3.0-1.113"
	},
	{
		"rt": 581,
		"stimulus": "<span style=\"font-size:30px; font-family: monospace\">e</span>",
		"response": " ",
		"trial": "exp-sent",
		"word": "e",
		"trial_type": "html-keyboard-response",
		"trial_index": 151,
		"time_elapsed": 224651,
		"internal_node_id": "0.0-3.0-1.114"
	},
	{
		"rt": 660,
		"stimulus": "<span style=\"font-size:30px; font-family: monospace\">sovina.</span>",
		"response": " ",
		"trial": "comp",
		"word": "sovina.",
		"trial_type": "html-keyboard-response",
		"trial_index": 152,
		"time_elapsed": 225563,
		"internal_node_id": "0.0-3.0-1.115"
	},
	{
		"rt": 1940,
		"stimulus": "<span style=\"font-size:30px; font-family: monospace\">Aquele menino é humilde?</span>",
		"response": "s",
		"question": "Aquele menino é humilde?",
		"answer": "não",
		"trial": "comp",
		"trial_type": "html-keyboard-response",
		"trial_index": 153,
		"time_elapsed": 227755,
		"internal_node_id": "0.0-3.0-2.115-0.115",
		"accuracy": false
	},
	{
		"rt": null,
		"stimulus": "<span style= \"font-size:30px; font-family: monospace\">+</span>",
		"response": null,
		"trial_part": "fixation",
		"trial_type": "html-keyboard-response",
		"trial_index": 154,
		"time_elapsed": 229257,
		"internal_node_id": "0.0-3.0-0.116-0.116"
	},
	{
		"rt": 1639,
		"stimulus": "<span style=\"font-size:30px; font-family: monospace\">Preciso</span>",
		"response": " ",
		"trial": "exp-sent",
		"word": "Preciso",
		"trial_type": "html-keyboard-response",
		"trial_index": 155,
		"time_elapsed": 231147,
		"internal_node_id": "0.0-3.0-1.116"
	},
	{
		"rt": 533,
		"stimulus": "<span style=\"font-size:30px; font-family: monospace\">de</span>",
		"response": " ",
		"trial": "exp-sent",
		"word": "de",
		"trial_type": "html-keyboard-response",
		"trial_index": 156,
		"time_elapsed": 231931,
		"internal_node_id": "0.0-3.0-1.117"
	},
	{
		"rt": 436,
		"stimulus": "<span style=\"font-size:30px; font-family: monospace\">um</span>",
		"response": " ",
		"trial": "exp-sent",
		"word": "um",
		"trial_type": "html-keyboard-response",
		"trial_index": 157,
		"time_elapsed": 232619,
		"internal_node_id": "0.0-3.0-1.118"
	},
	{
		"rt": 901,
		"stimulus": "<span style=\"font-size:30px; font-family: monospace\">relatório</span>",
		"response": " ",
		"trial": "exp-sent",
		"word": "relatório",
		"trial_type": "html-keyboard-response",
		"trial_index": 158,
		"time_elapsed": 233771,
		"internal_node_id": "0.0-3.0-1.119"
	},
	{
		"rt": 884,
		"stimulus": "<span style=\"font-size:30px; font-family: monospace\">oficial</span>",
		"response": " ",
		"trial": "exp-sent",
		"word": "oficial",
		"trial_type": "html-keyboard-response",
		"trial_index": 159,
		"time_elapsed": 234907,
		"internal_node_id": "0.0-3.0-1.120"
	},
	{
		"rt": 549,
		"stimulus": "<span style=\"font-size:30px; font-family: monospace\">para</span>",
		"response": " ",
		"trial": "exp-sent",
		"word": "para",
		"trial_type": "html-keyboard-response",
		"trial_index": 160,
		"time_elapsed": 235707,
		"internal_node_id": "0.0-3.0-1.121"
	},
	{
		"rt": 501,
		"stimulus": "<span style=\"font-size:30px; font-family: monospace\">amanhã.</span>",
		"response": " ",
		"trial": "exp-sent",
		"word": "amanhã.",
		"trial_type": "html-keyboard-response",
		"trial_index": 161,
		"time_elapsed": 236459,
		"internal_node_id": "0.0-3.0-1.122"
	},
	{
		"rt": null,
		"stimulus": "<span style= \"font-size:30px; font-family: monospace\">+</span>",
		"response": null,
		"trial_part": "fixation",
		"trial_type": "html-keyboard-response",
		"trial_index": 162,
		"time_elapsed": 237711,
		"internal_node_id": "0.0-3.0-0.123-0.123"
	},
	{
		"rt": 449,
		"stimulus": "<span style=\"font-size:30px; font-family: monospace\">Ele</span>",
		"response": " ",
		"trial": "exp-sent",
		"word": "Ele",
		"trial_type": "html-keyboard-response",
		"trial_index": 163,
		"time_elapsed": 238411,
		"internal_node_id": "0.0-3.0-1.123"
	},
	{
		"rt": 453,
		"stimulus": "<span style=\"font-size:30px; font-family: monospace\">viu</span>",
		"response": " ",
		"trial": "exp-sent",
		"word": "viu",
		"trial_type": "html-keyboard-response",
		"trial_index": 164,
		"time_elapsed": 239115,
		"internal_node_id": "0.0-3.0-1.124"
	},
	{
		"rt": 453,
		"stimulus": "<span style=\"font-size:30px; font-family: monospace\">um</span>",
		"response": " ",
		"trial": "exp-sent",
		"word": "um",
		"trial_type": "html-keyboard-response",
		"trial_index": 165,
		"time_elapsed": 239819,
		"internal_node_id": "0.0-3.0-1.125"
	},
	{
		"rt": 500,
		"stimulus": "<span style=\"font-size:30px; font-family: monospace\">inseto</span>",
		"response": " ",
		"trial": "exp-sent",
		"word": "inseto",
		"trial_type": "html-keyboard-response",
		"trial_index": 166,
		"time_elapsed": 240571,
		"internal_node_id": "0.0-3.0-1.126"
	},
	{
		"rt": 596,
		"stimulus": "<span style=\"font-size:30px; font-family: monospace\">marrom</span>",
		"response": " ",
		"trial": "exp-sent",
		"word": "marrom",
		"trial_type": "html-keyboard-response",
		"trial_index": 167,
		"time_elapsed": 241420,
		"internal_node_id": "0.0-3.0-1.127"
	},
	{
		"rt": 564,
		"stimulus": "<span style=\"font-size:30px; font-family: monospace\">na</span>",
		"response": " ",
		"trial": "exp-sent",
		"word": "na",
		"trial_type": "html-keyboard-response",
		"trial_index": 168,
		"time_elapsed": 242235,
		"internal_node_id": "0.0-3.0-1.128"
	},
	{
		"rt": 725,
		"stimulus": "<span style=\"font-size:30px; font-family: monospace\">parede.</span>",
		"response": " ",
		"trial": "exp-sent",
		"word": "parede.",
		"trial_type": "html-keyboard-response",
		"trial_index": 169,
		"time_elapsed": 243211,
		"internal_node_id": "0.0-3.0-1.129"
	},
	{
		"rt": null,
		"stimulus": "<span style= \"font-size:30px; font-family: monospace\">+</span>",
		"response": null,
		"trial_part": "fixation",
		"trial_type": "html-keyboard-response",
		"trial_index": 170,
		"time_elapsed": 244464,
		"internal_node_id": "0.0-3.0-0.130-0.130"
	},
	{
		"rt": 576,
		"stimulus": "<span style=\"font-size:30px; font-family: monospace\">O</span>",
		"response": " ",
		"trial": "exp-sent",
		"word": "O",
		"trial_type": "html-keyboard-response",
		"trial_index": 171,
		"time_elapsed": 245291,
		"internal_node_id": "0.0-3.0-1.130"
	},
	{
		"rt": 484,
		"stimulus": "<span style=\"font-size:30px; font-family: monospace\">avô</span>",
		"response": " ",
		"trial": "exp-sent",
		"word": "avô",
		"trial_type": "html-keyboard-response",
		"trial_index": 172,
		"time_elapsed": 246027,
		"internal_node_id": "0.0-3.0-1.131"
	},
	{
		"rt": 581,
		"stimulus": "<span style=\"font-size:30px; font-family: monospace\">fez</span>",
		"response": " ",
		"trial": "exp-sent",
		"word": "fez",
		"trial_type": "html-keyboard-response",
		"trial_index": 173,
		"time_elapsed": 246859,
		"internal_node_id": "0.0-3.0-1.132"
	},
	{
		"rt": 885,
		"stimulus": "<span style=\"font-size:30px; font-family: monospace\">uma</span>",
		"response": " ",
		"trial": "exp-sent",
		"word": "uma",
		"trial_type": "html-keyboard-response",
		"trial_index": 174,
		"time_elapsed": 247995,
		"internal_node_id": "0.0-3.0-1.133"
	},
	{
		"rt": 901,
		"stimulus": "<span style=\"font-size:30px; font-family: monospace\">lista</span>",
		"response": " ",
		"trial": "exp-sent",
		"word": "lista",
		"trial_type": "html-keyboard-response",
		"trial_index": 175,
		"time_elapsed": 249147,
		"internal_node_id": "0.0-3.0-1.134"
	},
	{
		"rt": 564,
		"stimulus": "<span style=\"font-size:30px; font-family: monospace\">de</span>",
		"response": " ",
		"trial": "exp-sent",
		"word": "de",
		"trial_type": "html-keyboard-response",
		"trial_index": 176,
		"time_elapsed": 249963,
		"internal_node_id": "0.0-3.0-1.135"
	},
	{
		"rt": 901,
		"stimulus": "<span style=\"font-size:30px; font-family: monospace\">compras</span>",
		"response": " ",
		"trial": "exp-sent",
		"word": "compras",
		"trial_type": "html-keyboard-response",
		"trial_index": 177,
		"time_elapsed": 251115,
		"internal_node_id": "0.0-3.0-1.136"
	},
	{
		"rt": 709,
		"stimulus": "<span style=\"font-size:30px; font-family: monospace\">do</span>",
		"response": " ",
		"trial": "exp-sent",
		"word": "do",
		"trial_type": "html-keyboard-response",
		"trial_index": 178,
		"time_elapsed": 252075,
		"internal_node_id": "0.0-3.0-1.137"
	},
	{
		"rt": 661,
		"stimulus": "<span style=\"font-size:30px; font-family: monospace\">mercado.</span>",
		"response": " ",
		"trial": "exp-sent",
		"word": "mercado.",
		"trial_type": "html-keyboard-response",
		"trial_index": 179,
		"time_elapsed": 252987,
		"internal_node_id": "0.0-3.0-1.138"
	},
	{
		"rt": null,
		"stimulus": "<span style= \"font-size:30px; font-family: monospace\">+</span>",
		"response": null,
		"trial_part": "fixation",
		"trial_type": "html-keyboard-response",
		"trial_index": 180,
		"time_elapsed": 254239,
		"internal_node_id": "0.0-3.0-0.139-0.139"
	},
	{
		"rt": 498,
		"stimulus": "<span style=\"font-size:30px; font-family: monospace\">As</span>",
		"response": " ",
		"trial": "exp-sent",
		"word": "As",
		"trial_type": "html-keyboard-response",
		"trial_index": 181,
		"time_elapsed": 254987,
		"internal_node_id": "0.0-3.0-1.139"
	},
	{
		"rt": 549,
		"stimulus": "<span style=\"font-size:30px; font-family: monospace\">pessoas</span>",
		"response": " ",
		"trial": "exp-sent",
		"word": "pessoas",
		"trial_type": "html-keyboard-response",
		"trial_index": 182,
		"time_elapsed": 255787,
		"internal_node_id": "0.0-3.0-1.140"
	},
	{
		"rt": 549,
		"stimulus": "<span style=\"font-size:30px; font-family: monospace\">não</span>",
		"response": " ",
		"trial": "exp-sent",
		"word": "não",
		"trial_type": "html-keyboard-response",
		"trial_index": 183,
		"time_elapsed": 256587,
		"internal_node_id": "0.0-3.0-1.141"
	},
	{
		"rt": 933,
		"stimulus": "<span style=\"font-size:30px; font-family: monospace\">enviam</span>",
		"response": " ",
		"trial": "exp-sent",
		"word": "enviam",
		"trial_type": "html-keyboard-response",
		"trial_index": 184,
		"time_elapsed": 257771,
		"internal_node_id": "0.0-3.0-1.142"
	},
	{
		"rt": 1110,
		"stimulus": "<span style=\"font-size:30px; font-family: monospace\">telegrama</span>",
		"response": " ",
		"trial": "exp-sent",
		"word": "telegrama",
		"trial_type": "html-keyboard-response",
		"trial_index": 185,
		"time_elapsed": 259131,
		"internal_node_id": "0.0-3.0-1.143"
	},
	{
		"rt": 757,
		"stimulus": "<span style=\"font-size:30px; font-family: monospace\">nos</span>",
		"response": " ",
		"trial": "exp-sent",
		"word": "nos",
		"trial_type": "html-keyboard-response",
		"trial_index": 186,
		"time_elapsed": 260139,
		"internal_node_id": "0.0-3.0-1.144"
	},
	{
		"rt": 421,
		"stimulus": "<span style=\"font-size:30px; font-family: monospace\">dias</span>",
		"response": " ",
		"trial": "exp-sent",
		"word": "dias",
		"trial_type": "html-keyboard-response",
		"trial_index": 187,
		"time_elapsed": 260811,
		"internal_node_id": "0.0-3.0-1.145"
	},
	{
		"rt": 485,
		"stimulus": "<span style=\"font-size:30px; font-family: monospace\">de</span>",
		"response": " ",
		"trial": "exp-sent",
		"word": "de",
		"trial_type": "html-keyboard-response",
		"trial_index": 188,
		"time_elapsed": 261547,
		"internal_node_id": "0.0-3.0-1.146"
	},
	{
		"rt": 485,
		"stimulus": "<span style=\"font-size:30px; font-family: monospace\">hoje.</span>",
		"response": " ",
		"trial": "exp-sent",
		"word": "hoje.",
		"trial_type": "html-keyboard-response",
		"trial_index": 189,
		"time_elapsed": 262283,
		"internal_node_id": "0.0-3.0-1.147"
	},
	{
		"rt": null,
		"stimulus": "<span style= \"font-size:30px; font-family: monospace\">+</span>",
		"response": null,
		"trial_part": "fixation",
		"trial_type": "html-keyboard-response",
		"trial_index": 190,
		"time_elapsed": 263536,
		"internal_node_id": "0.0-3.0-0.148-0.148"
	},
	{
		"rt": 769,
		"stimulus": "<span style=\"font-size:30px; font-family: monospace\">Ele</span>",
		"response": " ",
		"trial": "exp-sent",
		"word": "Ele",
		"trial_type": "html-keyboard-response",
		"trial_index": 191,
		"time_elapsed": 264555,
		"internal_node_id": "0.0-3.0-1.148"
	},
	{
		"rt": 517,
		"stimulus": "<span style=\"font-size:30px; font-family: monospace\">não</span>",
		"response": " ",
		"trial": "exp-sent",
		"word": "não",
		"trial_type": "html-keyboard-response",
		"trial_index": 192,
		"time_elapsed": 265323,
		"internal_node_id": "0.0-3.0-1.149"
	},
	{
		"rt": 453,
		"stimulus": "<span style=\"font-size:30px; font-family: monospace\">gosta</span>",
		"response": " ",
		"trial": "exp-sent",
		"word": "gosta",
		"trial_type": "html-keyboard-response",
		"trial_index": 193,
		"time_elapsed": 266027,
		"internal_node_id": "0.0-3.0-1.150"
	},
	{
		"rt": 469,
		"stimulus": "<span style=\"font-size:30px; font-family: monospace\">de</span>",
		"response": " ",
		"trial": "exp-sent",
		"word": "de",
		"trial_type": "html-keyboard-response",
		"trial_index": 194,
		"time_elapsed": 266747,
		"internal_node_id": "0.0-3.0-1.151"
	},
	{
		"rt": 1188,
		"stimulus": "<span style=\"font-size:30px; font-family: monospace\">tomate</span>",
		"response": " ",
		"trial": "exp-sent",
		"word": "tomate",
		"trial_type": "html-keyboard-response",
		"trial_index": 195,
		"time_elapsed": 268187,
		"internal_node_id": "0.0-3.0-1.152"
	},
	{
		"rt": 597,
		"stimulus": "<span style=\"font-size:30px; font-family: monospace\">misturado</span>",
		"response": " ",
		"trial": "exp-sent",
		"word": "misturado",
		"trial_type": "html-keyboard-response",
		"trial_index": 196,
		"time_elapsed": 269035,
		"internal_node_id": "0.0-3.0-1.153"
	},
	{
		"rt": 678,
		"stimulus": "<span style=\"font-size:30px; font-family: monospace\">na</span>",
		"response": " ",
		"trial": "exp-sent",
		"word": "na",
		"trial_type": "html-keyboard-response",
		"trial_index": 197,
		"time_elapsed": 269963,
		"internal_node_id": "0.0-3.0-1.154"
	},
	{
		"rt": 789,
		"stimulus": "<span style=\"font-size:30px; font-family: monospace\">comida.</span>",
		"response": " ",
		"trial": "comp",
		"word": "comida.",
		"trial_type": "html-keyboard-response",
		"trial_index": 198,
		"time_elapsed": 271003,
		"internal_node_id": "0.0-3.0-1.155"
	},
	{
		"rt": 1685,
		"stimulus": "<span style=\"font-size:30px; font-family: monospace\">Ele gosta de tomate na comida?</span>",
		"response": "n",
		"question": "Ele gosta de tomate na comida?",
		"answer": "não",
		"trial": "comp",
		"trial_type": "html-keyboard-response",
		"trial_index": 199,
		"time_elapsed": 272939,
		"internal_node_id": "0.0-3.0-2.155-0.155",
		"accuracy": false
	},
	{
		"rt": null,
		"stimulus": "<span style= \"font-size:30px; font-family: monospace\">+</span>",
		"response": null,
		"trial_part": "fixation",
		"trial_type": "html-keyboard-response",
		"trial_index": 200,
		"time_elapsed": 274442,
		"internal_node_id": "0.0-3.0-0.156-0.156"
	},
	{
		"rt": 838,
		"stimulus": "<span style=\"font-size:30px; font-family: monospace\">O</span>",
		"response": " ",
		"trial": "exp-sent",
		"word": "O",
		"trial_type": "html-keyboard-response",
		"trial_index": 201,
		"time_elapsed": 275531,
		"internal_node_id": "0.0-3.0-1.156"
	},
	{
		"rt": 549,
		"stimulus": "<span style=\"font-size:30px; font-family: monospace\">moço</span>",
		"response": " ",
		"trial": "exp-sent",
		"word": "moço",
		"trial_type": "html-keyboard-response",
		"trial_index": 202,
		"time_elapsed": 276331,
		"internal_node_id": "0.0-3.0-1.157"
	},
	{
		"rt": 548,
		"stimulus": "<span style=\"font-size:30px; font-family: monospace\">usou</span>",
		"response": " ",
		"trial": "exp-sent",
		"word": "usou",
		"trial_type": "html-keyboard-response",
		"trial_index": 203,
		"time_elapsed": 277131,
		"internal_node_id": "0.0-3.0-1.158"
	},
	{
		"rt": 709,
		"stimulus": "<span style=\"font-size:30px; font-family: monospace\">várias</span>",
		"response": " ",
		"trial": "exp-sent",
		"word": "várias",
		"trial_type": "html-keyboard-response",
		"trial_index": 204,
		"time_elapsed": 278091,
		"internal_node_id": "0.0-3.0-1.159"
	},
	{
		"rt": 741,
		"stimulus": "<span style=\"font-size:30px; font-family: monospace\">velas</span>",
		"response": " ",
		"trial": "exp-sent",
		"word": "velas",
		"trial_type": "html-keyboard-response",
		"trial_index": 205,
		"time_elapsed": 279083,
		"internal_node_id": "0.0-3.0-1.160"
	},
	{
		"rt": 613,
		"stimulus": "<span style=\"font-size:30px; font-family: monospace\">no</span>",
		"response": " ",
		"trial": "exp-sent",
		"word": "no",
		"trial_type": "html-keyboard-response",
		"trial_index": 206,
		"time_elapsed": 279947,
		"internal_node_id": "0.0-3.0-1.161"
	},
	{
		"rt": 597,
		"stimulus": "<span style=\"font-size:30px; font-family: monospace\">enfeite</span>",
		"response": " ",
		"trial": "exp-sent",
		"word": "enfeite",
		"trial_type": "html-keyboard-response",
		"trial_index": 207,
		"time_elapsed": 280795,
		"internal_node_id": "0.0-3.0-1.162"
	},
	{
		"rt": 709,
		"stimulus": "<span style=\"font-size:30px; font-family: monospace\">de</span>",
		"response": " ",
		"trial": "exp-sent",
		"word": "de",
		"trial_type": "html-keyboard-response",
		"trial_index": 208,
		"time_elapsed": 281755,
		"internal_node_id": "0.0-3.0-1.163"
	},
	{
		"rt": 613,
		"stimulus": "<span style=\"font-size:30px; font-family: monospace\">mesa.</span>",
		"response": " ",
		"trial": "exp-sent",
		"word": "mesa.",
		"trial_type": "html-keyboard-response",
		"trial_index": 209,
		"time_elapsed": 282619,
		"internal_node_id": "0.0-3.0-1.164"
	},
	{
		"rt": null,
		"stimulus": "<span style= \"font-size:30px; font-family: monospace\">+</span>",
		"response": null,
		"trial_part": "fixation",
		"trial_type": "html-keyboard-response",
		"trial_index": 210,
		"time_elapsed": 283872,
		"internal_node_id": "0.0-3.0-0.165-0.165"
	},
	{
		"rt": 352,
		"stimulus": "<span style=\"font-size:30px; font-family: monospace\">Gostamos</span>",
		"response": " ",
		"trial": "exp-sent",
		"word": "Gostamos",
		"trial_type": "html-keyboard-response",
		"trial_index": 211,
		"time_elapsed": 284475,
		"internal_node_id": "0.0-3.0-1.165"
	},
	{
		"rt": 597,
		"stimulus": "<span style=\"font-size:30px; font-family: monospace\">de</span>",
		"response": " ",
		"trial": "exp-sent",
		"word": "de",
		"trial_type": "html-keyboard-response",
		"trial_index": 212,
		"time_elapsed": 285323,
		"internal_node_id": "0.0-3.0-1.166"
	},
	{
		"rt": 501,
		"stimulus": "<span style=\"font-size:30px; font-family: monospace\">suco</span>",
		"response": " ",
		"trial": "exp-sent",
		"word": "suco",
		"trial_type": "html-keyboard-response",
		"trial_index": 213,
		"time_elapsed": 286075,
		"internal_node_id": "0.0-3.0-1.167"
	},
	{
		"rt": 613,
		"stimulus": "<span style=\"font-size:30px; font-family: monospace\">em</span>",
		"response": " ",
		"trial": "exp-sent",
		"word": "em",
		"trial_type": "html-keyboard-response",
		"trial_index": 214,
		"time_elapsed": 286939,
		"internal_node_id": "0.0-3.0-1.168"
	},
	{
		"rt": 725,
		"stimulus": "<span style=\"font-size:30px; font-family: monospace\">garrafa</span>",
		"response": " ",
		"trial": "exp-sent",
		"word": "garrafa",
		"trial_type": "html-keyboard-response",
		"trial_index": 215,
		"time_elapsed": 287915,
		"internal_node_id": "0.0-3.0-1.169"
	},
	{
		"rt": 597,
		"stimulus": "<span style=\"font-size:30px; font-family: monospace\">de</span>",
		"response": " ",
		"trial": "exp-sent",
		"word": "de",
		"trial_type": "html-keyboard-response",
		"trial_index": 216,
		"time_elapsed": 288763,
		"internal_node_id": "0.0-3.0-1.170"
	},
	{
		"rt": 1189,
		"stimulus": "<span style=\"font-size:30px; font-family: monospace\">tamanho</span>",
		"response": " ",
		"trial": "exp-sent",
		"word": "tamanho",
		"trial_type": "html-keyboard-response",
		"trial_index": 217,
		"time_elapsed": 290203,
		"internal_node_id": "0.0-3.0-1.171"
	},
	{
		"rt": 901,
		"stimulus": "<span style=\"font-size:30px; font-family: monospace\">pequeno.</span>",
		"response": " ",
		"trial": "exp-sent",
		"word": "pequeno.",
		"trial_type": "html-keyboard-response",
		"trial_index": 218,
		"time_elapsed": 291355,
		"internal_node_id": "0.0-3.0-1.172"
	},
	{
		"rt": null,
		"stimulus": "<span style= \"font-size:30px; font-family: monospace\">+</span>",
		"response": null,
		"trial_part": "fixation",
		"trial_type": "html-keyboard-response",
		"trial_index": 219,
		"time_elapsed": 292608,
		"internal_node_id": "0.0-3.0-0.173-0.173"
	},
	{
		"rt": 721,
		"stimulus": "<span style=\"font-size:30px; font-family: monospace\">Sua</span>",
		"response": " ",
		"trial": "exp-sent",
		"word": "Sua",
		"trial_type": "html-keyboard-response",
		"trial_index": 220,
		"time_elapsed": 293579,
		"internal_node_id": "0.0-3.0-1.173"
	},
	{
		"rt": 645,
		"stimulus": "<span style=\"font-size:30px; font-family: monospace\">filha</span>",
		"response": " ",
		"trial": "exp-sent",
		"word": "filha",
		"trial_type": "html-keyboard-response",
		"trial_index": 221,
		"time_elapsed": 294475,
		"internal_node_id": "0.0-3.0-1.174"
	},
	{
		"rt": 629,
		"stimulus": "<span style=\"font-size:30px; font-family: monospace\">é</span>",
		"response": " ",
		"trial": "exp-sent",
		"word": "é",
		"trial_type": "html-keyboard-response",
		"trial_index": 222,
		"time_elapsed": 295355,
		"internal_node_id": "0.0-3.0-1.175"
	},
	{
		"rt": 773,
		"stimulus": "<span style=\"font-size:30px; font-family: monospace\">muito</span>",
		"response": " ",
		"trial": "exp-sent",
		"word": "muito",
		"trial_type": "html-keyboard-response",
		"trial_index": 223,
		"time_elapsed": 296379,
		"internal_node_id": "0.0-3.0-1.176"
	},
	{
		"rt": 805,
		"stimulus": "<span style=\"font-size:30px; font-family: monospace\">capaz</span>",
		"response": " ",
		"trial": "exp-sent",
		"word": "capaz",
		"trial_type": "html-keyboard-response",
		"trial_index": 224,
		"time_elapsed": 297435,
		"internal_node_id": "0.0-3.0-1.177"
	},
	{
		"rt": 549,
		"stimulus": "<span style=\"font-size:30px; font-family: monospace\">e</span>",
		"response": " ",
		"trial": "exp-sent",
		"word": "e",
		"trial_type": "html-keyboard-response",
		"trial_index": 225,
		"time_elapsed": 298235,
		"internal_node_id": "0.0-3.0-1.178"
	},
	{
		"rt": 645,
		"stimulus": "<span style=\"font-size:30px; font-family: monospace\">esforçada.</span>",
		"response": " ",
		"trial": "exp-sent",
		"word": "esforçada.",
		"trial_type": "html-keyboard-response",
		"trial_index": 226,
		"time_elapsed": 299131,
		"internal_node_id": "0.0-3.0-1.179"
	},
	{
		"rt": null,
		"stimulus": "<span style= \"font-size:30px; font-family: monospace\">+</span>",
		"response": null,
		"trial_part": "fixation",
		"trial_type": "html-keyboard-response",
		"trial_index": 227,
		"time_elapsed": 300383,
		"internal_node_id": "0.0-3.0-0.180-0.180"
	},
	{
		"rt": 849,
		"stimulus": "<span style=\"font-size:30px; font-family: monospace\">A</span>",
		"response": " ",
		"trial": "exp-sent",
		"word": "A",
		"trial_type": "html-keyboard-response",
		"trial_index": 228,
		"time_elapsed": 301483,
		"internal_node_id": "0.0-3.0-1.180"
	},
	{
		"rt": 1269,
		"stimulus": "<span style=\"font-size:30px; font-family: monospace\">batida</span>",
		"response": " ",
		"trial": "exp-sent",
		"word": "batida",
		"trial_type": "html-keyboard-response",
		"trial_index": 229,
		"time_elapsed": 303003,
		"internal_node_id": "0.0-3.0-1.181"
	},
	{
		"rt": 645,
		"stimulus": "<span style=\"font-size:30px; font-family: monospace\">causou</span>",
		"response": " ",
		"trial": "exp-sent",
		"word": "causou",
		"trial_type": "html-keyboard-response",
		"trial_index": 230,
		"time_elapsed": 303899,
		"internal_node_id": "0.0-3.0-1.182"
	},
	{
		"rt": 1189,
		"stimulus": "<span style=\"font-size:30px; font-family: monospace\">muita</span>",
		"response": " ",
		"trial": "exp-sent",
		"word": "muita",
		"trial_type": "html-keyboard-response",
		"trial_index": 231,
		"time_elapsed": 305339,
		"internal_node_id": "0.0-3.0-1.183"
	},
	{
		"rt": 660,
		"stimulus": "<span style=\"font-size:30px; font-family: monospace\">confusão</span>",
		"response": " ",
		"trial": "exp-sent",
		"word": "confusão",
		"trial_type": "html-keyboard-response",
		"trial_index": 232,
		"time_elapsed": 306251,
		"internal_node_id": "0.0-3.0-1.184"
	},
	{
		"rt": 660,
		"stimulus": "<span style=\"font-size:30px; font-family: monospace\">na</span>",
		"response": " ",
		"trial": "exp-sent",
		"word": "na",
		"trial_type": "html-keyboard-response",
		"trial_index": 233,
		"time_elapsed": 307163,
		"internal_node_id": "0.0-3.0-1.185"
	},
	{
		"rt": 1093,
		"stimulus": "<span style=\"font-size:30px; font-family: monospace\">estrada.</span>",
		"response": " ",
		"trial": "exp-sent",
		"word": "estrada.",
		"trial_type": "html-keyboard-response",
		"trial_index": 234,
		"time_elapsed": 308507,
		"internal_node_id": "0.0-3.0-1.186"
	},
	{
		"rt": null,
		"stimulus": "<span style= \"font-size:30px; font-family: monospace\">+</span>",
		"response": null,
		"trial_part": "fixation",
		"trial_type": "html-keyboard-response",
		"trial_index": 235,
		"time_elapsed": 309769,
		"internal_node_id": "0.0-3.0-0.187-0.187"
	},
	{
		"rt": 504,
		"stimulus": "<span style=\"font-size:30px; font-family: monospace\">Eu</span>",
		"response": " ",
		"trial": "exp-sent",
		"word": "Eu",
		"trial_type": "html-keyboard-response",
		"trial_index": 236,
		"time_elapsed": 310539,
		"internal_node_id": "0.0-3.0-1.187"
	},
	{
		"rt": 613,
		"stimulus": "<span style=\"font-size:30px; font-family: monospace\">cozinhei</span>",
		"response": " ",
		"trial": "exp-sent",
		"word": "cozinhei",
		"trial_type": "html-keyboard-response",
		"trial_index": 237,
		"time_elapsed": 311403,
		"internal_node_id": "0.0-3.0-1.188"
	},
	{
		"rt": 1765,
		"stimulus": "<span style=\"font-size:30px; font-family: monospace\">um</span>",
		"response": " ",
		"trial": "exp-sent",
		"word": "um",
		"trial_type": "html-keyboard-response",
		"trial_index": 238,
		"time_elapsed": 313419,
		"internal_node_id": "0.0-3.0-1.189"
	},
	{
		"rt": 597,
		"stimulus": "<span style=\"font-size:30px; font-family: monospace\">almoço</span>",
		"response": " ",
		"trial": "exp-sent",
		"word": "almoço",
		"trial_type": "html-keyboard-response",
		"trial_index": 239,
		"time_elapsed": 314267,
		"internal_node_id": "0.0-3.0-1.190"
	},
	{
		"rt": 837,
		"stimulus": "<span style=\"font-size:30px; font-family: monospace\">nutritivo</span>",
		"response": " ",
		"trial": "exp-sent",
		"word": "nutritivo",
		"trial_type": "html-keyboard-response",
		"trial_index": 240,
		"time_elapsed": 315355,
		"internal_node_id": "0.0-3.0-1.191"
	},
	{
		"rt": 773,
		"stimulus": "<span style=\"font-size:30px; font-family: monospace\">para</span>",
		"response": " ",
		"trial": "exp-sent",
		"word": "para",
		"trial_type": "html-keyboard-response",
		"trial_index": 241,
		"time_elapsed": 316379,
		"internal_node_id": "0.0-3.0-1.192"
	},
	{
		"rt": 725,
		"stimulus": "<span style=\"font-size:30px; font-family: monospace\">hoje.</span>",
		"response": " ",
		"trial": "comp",
		"word": "hoje.",
		"trial_type": "html-keyboard-response",
		"trial_index": 242,
		"time_elapsed": 317355,
		"internal_node_id": "0.0-3.0-1.193"
	},
	{
		"rt": 1621,
		"stimulus": "<span style=\"font-size:30px; font-family: monospace\">O almoço era nutritivo?</span>",
		"response": "s",
		"question": "O almoço era nutritivo?",
		"answer": "sim",
		"trial": "comp",
		"trial_type": "html-keyboard-response",
		"trial_index": 243,
		"time_elapsed": 319227,
		"internal_node_id": "0.0-3.0-2.193-0.193",
		"accuracy": false
	},
	{
		"rt": null,
		"stimulus": "<span style= \"font-size:30px; font-family: monospace\">+</span>",
		"response": null,
		"trial_part": "fixation",
		"trial_type": "html-keyboard-response",
		"trial_index": 244,
		"time_elapsed": 320729,
		"internal_node_id": "0.0-3.0-0.194-0.194"
	},
	{
		"rt": 615,
		"stimulus": "<span style=\"font-size:30px; font-family: monospace\">Ursos</span>",
		"response": " ",
		"trial": "exp-sent",
		"word": "Ursos",
		"trial_type": "html-keyboard-response",
		"trial_index": 245,
		"time_elapsed": 321611,
		"internal_node_id": "0.0-3.0-1.194"
	},
	{
		"rt": 564,
		"stimulus": "<span style=\"font-size:30px; font-family: monospace\">têm</span>",
		"response": " ",
		"trial": "exp-sent",
		"word": "têm",
		"trial_type": "html-keyboard-response",
		"trial_index": 246,
		"time_elapsed": 322427,
		"internal_node_id": "0.0-3.0-1.195"
	},
	{
		"rt": 597,
		"stimulus": "<span style=\"font-size:30px; font-family: monospace\">uma</span>",
		"response": " ",
		"trial": "exp-sent",
		"word": "uma",
		"trial_type": "html-keyboard-response",
		"trial_index": 247,
		"time_elapsed": 323275,
		"internal_node_id": "0.0-3.0-1.196"
	},
	{
		"rt": 853,
		"stimulus": "<span style=\"font-size:30px; font-family: monospace\">patada</span>",
		"response": " ",
		"trial": "exp-sent",
		"word": "patada",
		"trial_type": "html-keyboard-response",
		"trial_index": 248,
		"time_elapsed": 324379,
		"internal_node_id": "0.0-3.0-1.197"
	},
	{
		"rt": 661,
		"stimulus": "<span style=\"font-size:30px; font-family: monospace\">brutal</span>",
		"response": " ",
		"trial": "exp-sent",
		"word": "brutal",
		"trial_type": "html-keyboard-response",
		"trial_index": 249,
		"time_elapsed": 325291,
		"internal_node_id": "0.0-3.0-1.198"
	},
	{
		"rt": 692,
		"stimulus": "<span style=\"font-size:30px; font-family: monospace\">e</span>",
		"response": " ",
		"trial": "exp-sent",
		"word": "e",
		"trial_type": "html-keyboard-response",
		"trial_index": 250,
		"time_elapsed": 326235,
		"internal_node_id": "0.0-3.0-1.199"
	},
	{
		"rt": 709,
		"stimulus": "<span style=\"font-size:30px; font-family: monospace\">poderosa.</span>",
		"response": " ",
		"trial": "exp-sent",
		"word": "poderosa.",
		"trial_type": "html-keyboard-response",
		"trial_index": 251,
		"time_elapsed": 327195,
		"internal_node_id": "0.0-3.0-1.200"
	},
	{
		"rt": null,
		"stimulus": "<span style= \"font-size:30px; font-family: monospace\">+</span>",
		"response": null,
		"trial_part": "fixation",
		"trial_type": "html-keyboard-response",
		"trial_index": 252,
		"time_elapsed": 328448,
		"internal_node_id": "0.0-3.0-0.201-0.201"
	},
	{
		"rt": 480,
		"stimulus": "<span style=\"font-size:30px; font-family: monospace\">Eu</span>",
		"response": " ",
		"trial": "exp-sent",
		"word": "Eu",
		"trial_type": "html-keyboard-response",
		"trial_index": 253,
		"time_elapsed": 329179,
		"internal_node_id": "0.0-3.0-1.201"
	},
	{
		"rt": 549,
		"stimulus": "<span style=\"font-size:30px; font-family: monospace\">fiz</span>",
		"response": " ",
		"trial": "exp-sent",
		"word": "fiz",
		"trial_type": "html-keyboard-response",
		"trial_index": 254,
		"time_elapsed": 329979,
		"internal_node_id": "0.0-3.0-1.202"
	},
	{
		"rt": 725,
		"stimulus": "<span style=\"font-size:30px; font-family: monospace\">aulas</span>",
		"response": " ",
		"trial": "exp-sent",
		"word": "aulas",
		"trial_type": "html-keyboard-response",
		"trial_index": 255,
		"time_elapsed": 330955,
		"internal_node_id": "0.0-3.0-1.203"
	},
	{
		"rt": 629,
		"stimulus": "<span style=\"font-size:30px; font-family: monospace\">de</span>",
		"response": " ",
		"trial": "exp-sent",
		"word": "de",
		"trial_type": "html-keyboard-response",
		"trial_index": 256,
		"time_elapsed": 331835,
		"internal_node_id": "0.0-3.0-1.204"
	},
	{
		"rt": 837,
		"stimulus": "<span style=\"font-size:30px; font-family: monospace\">espanhol</span>",
		"response": " ",
		"trial": "exp-sent",
		"word": "espanhol",
		"trial_type": "html-keyboard-response",
		"trial_index": 257,
		"time_elapsed": 332923,
		"internal_node_id": "0.0-3.0-1.205"
	},
	{
		"rt": 677,
		"stimulus": "<span style=\"font-size:30px; font-family: monospace\">nesta</span>",
		"response": " ",
		"trial": "exp-sent",
		"word": "nesta",
		"trial_type": "html-keyboard-response",
		"trial_index": 258,
		"time_elapsed": 333851,
		"internal_node_id": "0.0-3.0-1.206"
	},
	{
		"rt": 645,
		"stimulus": "<span style=\"font-size:30px; font-family: monospace\">cidade.</span>",
		"response": " ",
		"trial": "exp-sent",
		"word": "cidade.",
		"trial_type": "html-keyboard-response",
		"trial_index": 259,
		"time_elapsed": 334747,
		"internal_node_id": "0.0-3.0-1.207"
	},
	{
		"rt": null,
		"stimulus": "<span style= \"font-size:30px; font-family: monospace\">+</span>",
		"response": null,
		"trial_part": "fixation",
		"trial_type": "html-keyboard-response",
		"trial_index": 260,
		"time_elapsed": 335999,
		"internal_node_id": "0.0-3.0-0.208-0.208"
	},
	{
		"rt": 562,
		"stimulus": "<span style=\"font-size:30px; font-family: monospace\">Ele</span>",
		"response": " ",
		"trial": "exp-sent",
		"word": "Ele",
		"trial_type": "html-keyboard-response",
		"trial_index": 261,
		"time_elapsed": 336811,
		"internal_node_id": "0.0-3.0-1.208"
	},
	{
		"rt": 613,
		"stimulus": "<span style=\"font-size:30px; font-family: monospace\">comprou</span>",
		"response": " ",
		"trial": "exp-sent",
		"word": "comprou",
		"trial_type": "html-keyboard-response",
		"trial_index": 262,
		"time_elapsed": 337675,
		"internal_node_id": "0.0-3.0-1.209"
	},
	{
		"rt": 805,
		"stimulus": "<span style=\"font-size:30px; font-family: monospace\">mais</span>",
		"response": " ",
		"trial": "exp-sent",
		"word": "mais",
		"trial_type": "html-keyboard-response",
		"trial_index": 263,
		"time_elapsed": 338731,
		"internal_node_id": "0.0-3.0-1.210"
	},
	{
		"rt": 677,
		"stimulus": "<span style=\"font-size:30px; font-family: monospace\">uma</span>",
		"response": " ",
		"trial": "exp-sent",
		"word": "uma",
		"trial_type": "html-keyboard-response",
		"trial_index": 264,
		"time_elapsed": 339659,
		"internal_node_id": "0.0-3.0-1.211"
	},
	{
		"rt": 901,
		"stimulus": "<span style=\"font-size:30px; font-family: monospace\">esponja</span>",
		"response": " ",
		"trial": "exp-sent",
		"word": "esponja",
		"trial_type": "html-keyboard-response",
		"trial_index": 265,
		"time_elapsed": 340811,
		"internal_node_id": "0.0-3.0-1.212"
	},
	{
		"rt": 725,
		"stimulus": "<span style=\"font-size:30px; font-family: monospace\">para</span>",
		"response": " ",
		"trial": "exp-sent",
		"word": "para",
		"trial_type": "html-keyboard-response",
		"trial_index": 266,
		"time_elapsed": 341787,
		"internal_node_id": "0.0-3.0-1.213"
	},
	{
		"rt": 500,
		"stimulus": "<span style=\"font-size:30px; font-family: monospace\">a</span>",
		"response": " ",
		"trial": "exp-sent",
		"word": "a",
		"trial_type": "html-keyboard-response",
		"trial_index": 267,
		"time_elapsed": 342539,
		"internal_node_id": "0.0-3.0-1.214"
	},
	{
		"rt": 565,
		"stimulus": "<span style=\"font-size:30px; font-family: monospace\">cozinha.</span>",
		"response": " ",
		"trial": "exp-sent",
		"word": "cozinha.",
		"trial_type": "html-keyboard-response",
		"trial_index": 268,
		"time_elapsed": 343355,
		"internal_node_id": "0.0-3.0-1.215"
	},
	{
		"rt": null,
		"stimulus": "<span style= \"font-size:30px; font-family: monospace\">+</span>",
		"response": null,
		"trial_part": "fixation",
		"trial_type": "html-keyboard-response",
		"trial_index": 269,
		"time_elapsed": 344606,
		"internal_node_id": "0.0-3.0-0.216-0.216"
	},
	{
		"rt": 609,
		"stimulus": "<span style=\"font-size:30px; font-family: monospace\">Ele</span>",
		"response": " ",
		"trial": "exp-sent",
		"word": "Ele",
		"trial_type": "html-keyboard-response",
		"trial_index": 270,
		"time_elapsed": 345466,
		"internal_node_id": "0.0-3.0-1.216"
	},
	{
		"rt": 566,
		"stimulus": "<span style=\"font-size:30px; font-family: monospace\">teve</span>",
		"response": " ",
		"trial": "exp-sent",
		"word": "teve",
		"trial_type": "html-keyboard-response",
		"trial_index": 271,
		"time_elapsed": 346283,
		"internal_node_id": "0.0-3.0-1.217"
	},
	{
		"rt": 677,
		"stimulus": "<span style=\"font-size:30px; font-family: monospace\">um</span>",
		"response": " ",
		"trial": "exp-sent",
		"word": "um",
		"trial_type": "html-keyboard-response",
		"trial_index": 272,
		"time_elapsed": 347211,
		"internal_node_id": "0.0-3.0-1.218"
	},
	{
		"rt": 708,
		"stimulus": "<span style=\"font-size:30px; font-family: monospace\">sono</span>",
		"response": " ",
		"trial": "exp-sent",
		"word": "sono",
		"trial_type": "html-keyboard-response",
		"trial_index": 273,
		"time_elapsed": 348171,
		"internal_node_id": "0.0-3.0-1.219"
	},
	{
		"rt": 1316,
		"stimulus": "<span style=\"font-size:30px; font-family: monospace\">bizarro</span>",
		"response": " ",
		"trial": "exp-sent",
		"word": "bizarro",
		"trial_type": "html-keyboard-response",
		"trial_index": 274,
		"time_elapsed": 349739,
		"internal_node_id": "0.0-3.0-1.220"
	},
	{
		"rt": 629,
		"stimulus": "<span style=\"font-size:30px; font-family: monospace\">sem</span>",
		"response": " ",
		"trial": "exp-sent",
		"word": "sem",
		"trial_type": "html-keyboard-response",
		"trial_index": 275,
		"time_elapsed": 350618,
		"internal_node_id": "0.0-3.0-1.221"
	},
	{
		"rt": 501,
		"stimulus": "<span style=\"font-size:30px; font-family: monospace\">nenhum</span>",
		"response": " ",
		"trial": "exp-sent",
		"word": "nenhum",
		"trial_type": "html-keyboard-response",
		"trial_index": 276,
		"time_elapsed": 351371,
		"internal_node_id": "0.0-3.0-1.222"
	},
	{
		"rt": 548,
		"stimulus": "<span style=\"font-size:30px; font-family: monospace\">motivo.</span>",
		"response": " ",
		"trial": "exp-sent",
		"word": "motivo.",
		"trial_type": "html-keyboard-response",
		"trial_index": 277,
		"time_elapsed": 352170,
		"internal_node_id": "0.0-3.0-1.223"
	},
	{
		"rt": null,
		"stimulus": "<span style= \"font-size:30px; font-family: monospace\">+</span>",
		"response": null,
		"trial_part": "fixation",
		"trial_type": "html-keyboard-response",
		"trial_index": 278,
		"time_elapsed": 353423,
		"internal_node_id": "0.0-3.0-0.224-0.224"
	},
	{
		"rt": 625,
		"stimulus": "<span style=\"font-size:30px; font-family: monospace\">A</span>",
		"response": " ",
		"trial": "exp-sent",
		"word": "A",
		"trial_type": "html-keyboard-response",
		"trial_index": 279,
		"time_elapsed": 354299,
		"internal_node_id": "0.0-3.0-1.224"
	},
	{
		"rt": 533,
		"stimulus": "<span style=\"font-size:30px; font-family: monospace\">moça</span>",
		"response": " ",
		"trial": "exp-sent",
		"word": "moça",
		"trial_type": "html-keyboard-response",
		"trial_index": 280,
		"time_elapsed": 355083,
		"internal_node_id": "0.0-3.0-1.225"
	},
	{
		"rt": 759,
		"stimulus": "<span style=\"font-size:30px; font-family: monospace\">comprou</span>",
		"response": " ",
		"trial": "exp-sent",
		"word": "comprou",
		"trial_type": "html-keyboard-response",
		"trial_index": 281,
		"time_elapsed": 356106,
		"internal_node_id": "0.0-3.0-1.226"
	},
	{
		"rt": 726,
		"stimulus": "<span style=\"font-size:30px; font-family: monospace\">um</span>",
		"response": " ",
		"trial": "exp-sent",
		"word": "um",
		"trial_type": "html-keyboard-response",
		"trial_index": 282,
		"time_elapsed": 357083,
		"internal_node_id": "0.0-3.0-1.227"
	},
	{
		"rt": 725,
		"stimulus": "<span style=\"font-size:30px; font-family: monospace\">diamante</span>",
		"response": " ",
		"trial": "exp-sent",
		"word": "diamante",
		"trial_type": "html-keyboard-response",
		"trial_index": 283,
		"time_elapsed": 358059,
		"internal_node_id": "0.0-3.0-1.228"
	},
	{
		"rt": 516,
		"stimulus": "<span style=\"font-size:30px; font-family: monospace\">para</span>",
		"response": " ",
		"trial": "exp-sent",
		"word": "para",
		"trial_type": "html-keyboard-response",
		"trial_index": 284,
		"time_elapsed": 358827,
		"internal_node_id": "0.0-3.0-1.229"
	},
	{
		"rt": 549,
		"stimulus": "<span style=\"font-size:30px; font-family: monospace\">sua</span>",
		"response": " ",
		"trial": "exp-sent",
		"word": "sua",
		"trial_type": "html-keyboard-response",
		"trial_index": 285,
		"time_elapsed": 359627,
		"internal_node_id": "0.0-3.0-1.230"
	},
	{
		"rt": 565,
		"stimulus": "<span style=\"font-size:30px; font-family: monospace\">prima.</span>",
		"response": " ",
		"trial": "comp",
		"word": "prima.",
		"trial_type": "html-keyboard-response",
		"trial_index": 286,
		"time_elapsed": 360443,
		"internal_node_id": "0.0-3.0-1.231"
	},
	{
		"rt": 1428,
		"stimulus": "<span style=\"font-size:30px; font-family: monospace\">A moça comprou um diamante?</span>",
		"response": "s",
		"question": "A moça comprou um diamante?",
		"answer": "sim",
		"trial": "comp",
		"trial_type": "html-keyboard-response",
		"trial_index": 287,
		"time_elapsed": 362123,
		"internal_node_id": "0.0-3.0-2.231-0.231",
		"accuracy": false
	},
	{
		"rt": null,
		"stimulus": "<span style= \"font-size:30px; font-family: monospace\">+</span>",
		"response": null,
		"trial_part": "fixation",
		"trial_type": "html-keyboard-response",
		"trial_index": 288,
		"time_elapsed": 363625,
		"internal_node_id": "0.0-3.0-0.232-0.232"
	},
	{
		"rt": 1590,
		"stimulus": "<span style=\"font-size:30px; font-family: monospace\">Ganhamos</span>",
		"response": " ",
		"trial": "exp-sent",
		"word": "Ganhamos",
		"trial_type": "html-keyboard-response",
		"trial_index": 289,
		"time_elapsed": 365466,
		"internal_node_id": "0.0-3.0-1.232"
	},
	{
		"rt": 516,
		"stimulus": "<span style=\"font-size:30px; font-family: monospace\">passagem</span>",
		"response": " ",
		"trial": "exp-sent",
		"word": "passagem",
		"trial_type": "html-keyboard-response",
		"trial_index": 290,
		"time_elapsed": 366234,
		"internal_node_id": "0.0-3.0-1.233"
	},
	{
		"rt": 597,
		"stimulus": "<span style=\"font-size:30px; font-family: monospace\">para</span>",
		"response": " ",
		"trial": "exp-sent",
		"word": "para",
		"trial_type": "html-keyboard-response",
		"trial_index": 291,
		"time_elapsed": 367083,
		"internal_node_id": "0.0-3.0-1.234"
	},
	{
		"rt": 501,
		"stimulus": "<span style=\"font-size:30px; font-family: monospace\">uma</span>",
		"response": " ",
		"trial": "exp-sent",
		"word": "uma",
		"trial_type": "html-keyboard-response",
		"trial_index": 292,
		"time_elapsed": 367835,
		"internal_node_id": "0.0-3.0-1.235"
	},
	{
		"rt": 677,
		"stimulus": "<span style=\"font-size:30px; font-family: monospace\">viagem</span>",
		"response": " ",
		"trial": "exp-sent",
		"word": "viagem",
		"trial_type": "html-keyboard-response",
		"trial_index": 293,
		"time_elapsed": 368763,
		"internal_node_id": "0.0-3.0-1.236"
	},
	{
		"rt": 565,
		"stimulus": "<span style=\"font-size:30px; font-family: monospace\">de</span>",
		"response": " ",
		"trial": "exp-sent",
		"word": "de",
		"trial_type": "html-keyboard-response",
		"trial_index": 294,
		"time_elapsed": 369579,
		"internal_node_id": "0.0-3.0-1.237"
	},
	{
		"rt": 549,
		"stimulus": "<span style=\"font-size:30px; font-family: monospace\">férias.</span>",
		"response": " ",
		"trial": "exp-sent",
		"word": "férias.",
		"trial_type": "html-keyboard-response",
		"trial_index": 295,
		"time_elapsed": 370379,
		"internal_node_id": "0.0-3.0-1.238"
	},
	{
		"rt": null,
		"stimulus": "<span style= \"font-size:30px; font-family: monospace\">+</span>",
		"response": null,
		"trial_part": "fixation",
		"trial_type": "html-keyboard-response",
		"trial_index": 296,
		"time_elapsed": 371632,
		"internal_node_id": "0.0-3.0-0.239-0.239"
	},
	{
		"rt": 335,
		"stimulus": "<span style=\"font-size:30px; font-family: monospace\">Caiu</span>",
		"response": " ",
		"trial": "exp-sent",
		"word": "Caiu",
		"trial_type": "html-keyboard-response",
		"trial_index": 297,
		"time_elapsed": 372219,
		"internal_node_id": "0.0-3.0-1.239"
	},
	{
		"rt": 821,
		"stimulus": "<span style=\"font-size:30px; font-family: monospace\">algo</span>",
		"response": " ",
		"trial": "exp-sent",
		"word": "algo",
		"trial_type": "html-keyboard-response",
		"trial_index": 298,
		"time_elapsed": 373291,
		"internal_node_id": "0.0-3.0-1.240"
	},
	{
		"rt": 709,
		"stimulus": "<span style=\"font-size:30px; font-family: monospace\">no</span>",
		"response": " ",
		"trial": "exp-sent",
		"word": "no",
		"trial_type": "html-keyboard-response",
		"trial_index": 299,
		"time_elapsed": 374251,
		"internal_node_id": "0.0-3.0-1.241"
	},
	{
		"rt": 612,
		"stimulus": "<span style=\"font-size:30px; font-family: monospace\">meu</span>",
		"response": " ",
		"trial": "exp-sent",
		"word": "meu",
		"trial_type": "html-keyboard-response",
		"trial_index": 300,
		"time_elapsed": 375115,
		"internal_node_id": "0.0-3.0-1.242"
	},
	{
		"rt": 597,
		"stimulus": "<span style=\"font-size:30px; font-family: monospace\">olho</span>",
		"response": " ",
		"trial": "exp-sent",
		"word": "olho",
		"trial_type": "html-keyboard-response",
		"trial_index": 301,
		"time_elapsed": 375963,
		"internal_node_id": "0.0-3.0-1.243"
	},
	{
		"rt": 660,
		"stimulus": "<span style=\"font-size:30px; font-family: monospace\">ontem</span>",
		"response": " ",
		"trial": "exp-sent",
		"word": "ontem",
		"trial_type": "html-keyboard-response",
		"trial_index": 302,
		"time_elapsed": 376875,
		"internal_node_id": "0.0-3.0-1.244"
	},
	{
		"rt": 629,
		"stimulus": "<span style=\"font-size:30px; font-family: monospace\">de</span>",
		"response": " ",
		"trial": "exp-sent",
		"word": "de",
		"trial_type": "html-keyboard-response",
		"trial_index": 303,
		"time_elapsed": 377755,
		"internal_node_id": "0.0-3.0-1.245"
	},
	{
		"rt": 725,
		"stimulus": "<span style=\"font-size:30px; font-family: monospace\">tarde.</span>",
		"response": " ",
		"trial": "exp-sent",
		"word": "tarde.",
		"trial_type": "html-keyboard-response",
		"trial_index": 304,
		"time_elapsed": 378730,
		"internal_node_id": "0.0-3.0-1.246"
	},
	{
		"rt": null,
		"stimulus": "<span style= \"font-size:30px; font-family: monospace\">+</span>",
		"response": null,
		"trial_part": "fixation",
		"trial_type": "html-keyboard-response",
		"trial_index": 305,
		"time_elapsed": 379983,
		"internal_node_id": "0.0-3.0-0.247-0.247"
	},
	{
		"rt": 513,
		"stimulus": "<span style=\"font-size:30px; font-family: monospace\">Não</span>",
		"response": " ",
		"trial": "exp-sent",
		"word": "Não",
		"trial_type": "html-keyboard-response",
		"trial_index": 306,
		"time_elapsed": 380747,
		"internal_node_id": "0.0-3.0-1.247"
	},
	{
		"rt": 565,
		"stimulus": "<span style=\"font-size:30px; font-family: monospace\">havia</span>",
		"response": " ",
		"trial": "exp-sent",
		"word": "havia",
		"trial_type": "html-keyboard-response",
		"trial_index": 307,
		"time_elapsed": 381563,
		"internal_node_id": "0.0-3.0-1.248"
	},
	{
		"rt": 661,
		"stimulus": "<span style=\"font-size:30px; font-family: monospace\">mais</span>",
		"response": " ",
		"trial": "exp-sent",
		"word": "mais",
		"trial_type": "html-keyboard-response",
		"trial_index": 308,
		"time_elapsed": 382475,
		"internal_node_id": "0.0-3.0-1.249"
	},
	{
		"rt": 1156,
		"stimulus": "<span style=\"font-size:30px; font-family: monospace\">nenhum</span>",
		"response": " ",
		"trial": "exp-sent",
		"word": "nenhum",
		"trial_type": "html-keyboard-response",
		"trial_index": 309,
		"time_elapsed": 383883,
		"internal_node_id": "0.0-3.0-1.250"
	},
	{
		"rt": 1285,
		"stimulus": "<span style=\"font-size:30px; font-family: monospace\">ingresso</span>",
		"response": " ",
		"trial": "exp-sent",
		"word": "ingresso",
		"trial_type": "html-keyboard-response",
		"trial_index": 310,
		"time_elapsed": 385419,
		"internal_node_id": "0.0-3.0-1.251"
	},
	{
		"rt": 1189,
		"stimulus": "<span style=\"font-size:30px; font-family: monospace\">para</span>",
		"response": " ",
		"trial": "exp-sent",
		"word": "para",
		"trial_type": "html-keyboard-response",
		"trial_index": 311,
		"time_elapsed": 386859,
		"internal_node_id": "0.0-3.0-1.252"
	},
	{
		"rt": 821,
		"stimulus": "<span style=\"font-size:30px; font-family: monospace\">o</span>",
		"response": " ",
		"trial": "exp-sent",
		"word": "o",
		"trial_type": "html-keyboard-response",
		"trial_index": 312,
		"time_elapsed": 387931,
		"internal_node_id": "0.0-3.0-1.253"
	},
	{
		"rt": 613,
		"stimulus": "<span style=\"font-size:30px; font-family: monospace\">evento.</span>",
		"response": " ",
		"trial": "exp-sent",
		"word": "evento.",
		"trial_type": "html-keyboard-response",
		"trial_index": 313,
		"time_elapsed": 388794,
		"internal_node_id": "0.0-3.0-1.254"
	},
	{
		"rt": null,
		"stimulus": "<span style= \"font-size:30px; font-family: monospace\">+</span>",
		"response": null,
		"trial_part": "fixation",
		"trial_type": "html-keyboard-response",
		"trial_index": 314,
		"time_elapsed": 390047,
		"internal_node_id": "0.0-3.0-0.255-0.255"
	},
	{
		"rt": 176,
		"stimulus": "<span style=\"font-size:30px; font-family: monospace\">A</span>",
		"response": " ",
		"trial": "exp-sent",
		"word": "A",
		"trial_type": "html-keyboard-response",
		"trial_index": 315,
		"time_elapsed": 390475,
		"internal_node_id": "0.0-3.0-1.255"
	},
	{
		"rt": 437,
		"stimulus": "<span style=\"font-size:30px; font-family: monospace\">médica</span>",
		"response": " ",
		"trial": "exp-sent",
		"word": "médica",
		"trial_type": "html-keyboard-response",
		"trial_index": 316,
		"time_elapsed": 391163,
		"internal_node_id": "0.0-3.0-1.256"
	},
	{
		"rt": 485,
		"stimulus": "<span style=\"font-size:30px; font-family: monospace\">descobriu</span>",
		"response": " ",
		"trial": "exp-sent",
		"word": "descobriu",
		"trial_type": "html-keyboard-response",
		"trial_index": 317,
		"time_elapsed": 391899,
		"internal_node_id": "0.0-3.0-1.257"
	},
	{
		"rt": 644,
		"stimulus": "<span style=\"font-size:30px; font-family: monospace\">uma</span>",
		"response": " ",
		"trial": "exp-sent",
		"word": "uma",
		"trial_type": "html-keyboard-response",
		"trial_index": 318,
		"time_elapsed": 392794,
		"internal_node_id": "0.0-3.0-1.258"
	},
	{
		"rt": 581,
		"stimulus": "<span style=\"font-size:30px; font-family: monospace\">cura</span>",
		"response": " ",
		"trial": "exp-sent",
		"word": "cura",
		"trial_type": "html-keyboard-response",
		"trial_index": 319,
		"time_elapsed": 393627,
		"internal_node_id": "0.0-3.0-1.259"
	},
	{
		"rt": 661,
		"stimulus": "<span style=\"font-size:30px; font-family: monospace\">para</span>",
		"response": " ",
		"trial": "exp-sent",
		"word": "para",
		"trial_type": "html-keyboard-response",
		"trial_index": 320,
		"time_elapsed": 394539,
		"internal_node_id": "0.0-3.0-1.260"
	},
	{
		"rt": 597,
		"stimulus": "<span style=\"font-size:30px; font-family: monospace\">a</span>",
		"response": " ",
		"trial": "exp-sent",
		"word": "a",
		"trial_type": "html-keyboard-response",
		"trial_index": 321,
		"time_elapsed": 395387,
		"internal_node_id": "0.0-3.0-1.261"
	},
	{
		"rt": 741,
		"stimulus": "<span style=\"font-size:30px; font-family: monospace\">doença.</span>",
		"response": " ",
		"trial": "exp-sent",
		"word": "doença.",
		"trial_type": "html-keyboard-response",
		"trial_index": 322,
		"time_elapsed": 396378,
		"internal_node_id": "0.0-3.0-1.262"
	},
	{
		"rt": null,
		"stimulus": "<span style= \"font-size:30px; font-family: monospace\">+</span>",
		"response": null,
		"trial_part": "fixation",
		"trial_type": "html-keyboard-response",
		"trial_index": 323,
		"time_elapsed": 397630,
		"internal_node_id": "0.0-3.0-0.263-0.263"
	},
	{
		"rt": 1013,
		"stimulus": "<span style=\"font-size:30px; font-family: monospace\">O</span>",
		"response": " ",
		"trial": "exp-sent",
		"word": "O",
		"trial_type": "html-keyboard-response",
		"trial_index": 324,
		"time_elapsed": 398907,
		"internal_node_id": "0.0-3.0-1.263"
	},
	{
		"rt": 581,
		"stimulus": "<span style=\"font-size:30px; font-family: monospace\">menino</span>",
		"response": " ",
		"trial": "exp-sent",
		"word": "menino",
		"trial_type": "html-keyboard-response",
		"trial_index": 325,
		"time_elapsed": 399739,
		"internal_node_id": "0.0-3.0-1.264"
	},
	{
		"rt": 517,
		"stimulus": "<span style=\"font-size:30px; font-family: monospace\">riscou</span>",
		"response": " ",
		"trial": "exp-sent",
		"word": "riscou",
		"trial_type": "html-keyboard-response",
		"trial_index": 326,
		"time_elapsed": 400507,
		"internal_node_id": "0.0-3.0-1.265"
	},
	{
		"rt": 420,
		"stimulus": "<span style=\"font-size:30px; font-family: monospace\">o</span>",
		"response": " ",
		"trial": "exp-sent",
		"word": "o",
		"trial_type": "html-keyboard-response",
		"trial_index": 327,
		"time_elapsed": 401178,
		"internal_node_id": "0.0-3.0-1.266"
	},
	{
		"rt": 548,
		"stimulus": "<span style=\"font-size:30px; font-family: monospace\">caderno</span>",
		"response": " ",
		"trial": "exp-sent",
		"word": "caderno",
		"trial_type": "html-keyboard-response",
		"trial_index": 328,
		"time_elapsed": 401979,
		"internal_node_id": "0.0-3.0-1.267"
	},
	{
		"rt": 549,
		"stimulus": "<span style=\"font-size:30px; font-family: monospace\">com</span>",
		"response": " ",
		"trial": "exp-sent",
		"word": "com",
		"trial_type": "html-keyboard-response",
		"trial_index": 329,
		"time_elapsed": 402779,
		"internal_node_id": "0.0-3.0-1.268"
	},
	{
		"rt": 421,
		"stimulus": "<span style=\"font-size:30px; font-family: monospace\">a</span>",
		"response": " ",
		"trial": "exp-sent",
		"word": "a",
		"trial_type": "html-keyboard-response",
		"trial_index": 330,
		"time_elapsed": 403451,
		"internal_node_id": "0.0-3.0-1.269"
	},
	{
		"rt": 404,
		"stimulus": "<span style=\"font-size:30px; font-family: monospace\">caneta.</span>",
		"response": " ",
		"trial": "comp",
		"word": "caneta.",
		"trial_type": "html-keyboard-response",
		"trial_index": 331,
		"time_elapsed": 404107,
		"internal_node_id": "0.0-3.0-1.270"
	},
	{
		"rt": 1573,
		"stimulus": "<span style=\"font-size:30px; font-family: monospace\">O menino riscou a parede com a caneta?</span>",
		"response": "s",
		"question": "O menino riscou a parede com a caneta?",
		"answer": "não",
		"trial": "comp",
		"trial_type": "html-keyboard-response",
		"trial_index": 332,
		"time_elapsed": 405930,
		"internal_node_id": "0.0-3.0-2.270-0.270",
		"accuracy": false
	},
	{
		"rt": null,
		"stimulus": "<span style= \"font-size:30px; font-family: monospace\">+</span>",
		"response": null,
		"trial_part": "fixation",
		"trial_type": "html-keyboard-response",
		"trial_index": 333,
		"time_elapsed": 407433,
		"internal_node_id": "0.0-3.0-0.271-0.271"
	},
	{
		"rt": 1078,
		"stimulus": "<span style=\"font-size:30px; font-family: monospace\">No</span>",
		"response": " ",
		"trial": "exp-sent",
		"word": "No",
		"trial_type": "html-keyboard-response",
		"trial_index": 334,
		"time_elapsed": 408762,
		"internal_node_id": "0.0-3.0-1.271"
	},
	{
		"rt": 725,
		"stimulus": "<span style=\"font-size:30px; font-family: monospace\">passado</span>",
		"response": " ",
		"trial": "exp-sent",
		"word": "passado",
		"trial_type": "html-keyboard-response",
		"trial_index": 335,
		"time_elapsed": 409738,
		"internal_node_id": "0.0-3.0-1.272"
	},
	{
		"rt": 613,
		"stimulus": "<span style=\"font-size:30px; font-family: monospace\">houve</span>",
		"response": " ",
		"trial": "exp-sent",
		"word": "houve",
		"trial_type": "html-keyboard-response",
		"trial_index": 336,
		"time_elapsed": 410602,
		"internal_node_id": "0.0-3.0-1.273"
	},
	{
		"rt": 581,
		"stimulus": "<span style=\"font-size:30px; font-family: monospace\">uma</span>",
		"response": " ",
		"trial": "exp-sent",
		"word": "uma",
		"trial_type": "html-keyboard-response",
		"trial_index": 337,
		"time_elapsed": 411434,
		"internal_node_id": "0.0-3.0-1.274"
	},
	{
		"rt": 981,
		"stimulus": "<span style=\"font-size:30px; font-family: monospace\">rebelião</span>",
		"response": " ",
		"trial": "exp-sent",
		"word": "rebelião",
		"trial_type": "html-keyboard-response",
		"trial_index": 338,
		"time_elapsed": 412666,
		"internal_node_id": "0.0-3.0-1.275"
	},
	{
		"rt": 677,
		"stimulus": "<span style=\"font-size:30px; font-family: monospace\">nesta</span>",
		"response": " ",
		"trial": "exp-sent",
		"word": "nesta",
		"trial_type": "html-keyboard-response",
		"trial_index": 339,
		"time_elapsed": 413594,
		"internal_node_id": "0.0-3.0-1.276"
	},
	{
		"rt": 597,
		"stimulus": "<span style=\"font-size:30px; font-family: monospace\">cidade.</span>",
		"response": " ",
		"trial": "exp-sent",
		"word": "cidade.",
