"view_history","rt","trial_type","trial_index","time_elapsed","internal_node_id","response","question_order"
"[{""page_index"":0,""viewing_time"":1066}]","1066","instructions","0","1068","0.0-0.0","",""
"","35174","survey-text","1","36363","0.0-1.0","{""age"":""30""}",""
"","5041","survey-multi-choice","2","41507","0.0-2.0","{""sex"":""Masculino""}","[0]"
"","26378","survey-multi-choice","3","67987","0.0-3.0","{""own_schooling"":""Ensino Médio completo""}","[0]"
"","32514","survey-multi-choice","4","100602","0.0-4.0","{""mother_schooling"":""Ensino Fundamental""}","[0]"
"","6994","survey-multi-choice","5","107698","0.0-5.0","{""father_schooling"":""Ensino Fundamental""}","[0]"
"","311634","survey-html-form","6","419434","0.0-6.0","{""language_0"":""CRIOULO"",""listening_0"":""1"",""speaking_0"":""1"",""reading_0"":""1"",""writing_0"":""1"",""language_1"":""FRANCES"",""listening_1"":""11"",""speaking_1"":""11"",""reading_1"":""11"",""writing_1"":""11"",""language_2"":""PORT"",""listening_2"":""25"",""speaking_2"":""25"",""reading_2"":""25"",""writing_2"":""25"",""language_3"":"""",""listening_3"":"""",""speaking_3"":"""",""reading_3"":"""",""writing_3"":""""}",""
"","344682","survey-html-form","7","764215","0.0-7.0","{""language_3"":"""",""listening_3"":"""",""speaking_3"":"""",""reading_3"":"""",""writing_3"":"""",""language_1"":""FRANCES"",""listening_1"":""11"",""speaking_1"":""11"",""reading_1"":""11"",""writing_1"":""11"",""language_2"":""PORTUGUES"",""listening_2"":""25"",""speaking_2"":""25"",""reading_2"":""25"",""writing_2"":""25""}",""
"","33313","survey-text","8","797630","0.0-8.0","{""country_of_origin"":""HAITI""}",""
"","13178","survey-text","9","810910","0.0-9.0","{""country_of_residence"":""BRASIL""}",""
"","103154","survey-html-form","10","914166","0.0-10.0","{""country_0"":"""",""duration_0"":"""",""language_0"":"""",""frequency_0"":"""",""country_1"":"""",""duration_1"":"""",""language_1"":"""",""frequency_1"":"""",""country_2"":"""",""duration_2"":"""",""language_2"":"""",""frequency_2"":"""",""country_3"":"""",""duration_3"":"""",""language_3"":"""",""frequency_3"":""""}",""
"","71842","survey-html-form","11","986109","0.0-11.0","{""language_0"":""PORTUGUES"",""context_0"":""2"",""language_1"":"""",""context_1"":"""",""language_2"":"""",""context_2"":"""",""language_3"":"""",""context_3"":""""}",""
"","114547","survey-html-form","12","1100758","0.0-12.0","{""language_0"":""PORTUGUES"",""home_0"":""25"",""friends_0"":""25"",""school_0"":""25"",""work_0"":""25"",""computer_0"":""25"",""games_0"":""25"",""language_1"":"""",""home_1"":"""",""friends_1"":"""",""school_1"":"""",""work_1"":"""",""computer_1"":"""",""games_1"":"""",""language_2"":"""",""home_2"":"""",""friends_2"":"""",""school_2"":"""",""work_2"":"""",""computer_2"":"""",""games_2"":"""",""language_3"":"""",""home_3"":"""",""friends_3"":"""",""school_3"":"""",""work_3"":"""",""computer_3"":"""",""games_3"":""""}",""
"","90216","survey-likert","13","1191077","0.0-13.0","{""new_languages"":6}","[0]"
"","233683","survey-html-form","14","1424860","0.0-14.0","{""language_0"":""CRIOLO"",""listen_0"":""7"",""talk_0"":""7"",""read_0"":""7"",""write_0"":""7"",""language_1"":""FRANCES"",""listen_1"":""7"",""talk_1"":""7"",""read_1"":""7"",""write_1"":""7"",""language_2"":""PORTUGUES"",""listen_2"":""7"",""talk_2"":""7"",""read_2"":""7"",""write_2"":""7"",""language_3"":"""",""listen_3"":"""",""talk_3"":"""",""read_3"":"""",""write_3"":""""}",""
"","523610","survey-html-form","15","1948569","0.0-15.0","{""language_0"":""CRIOLO"",""tv_0"":""0"",""radio_0"":""0"",""read_fun_0"":""3"",""read_work_0"":""2"",""write_0"":""0"",""social_nets_0"":""03"",""language_1"":""FRANCES"",""tv_1"":""3"",""radio_1"":""0"",""read_fun_1"":""0"",""read_work_1"":""0"",""write_1"":""0"",""social_nets_1"":""1"",""language_2"":""PORTUGUES"",""tv_2"":""3"",""radio_2"":""3"",""read_fun_2"":""6"",""read_work_2"":""8"",""write_2"":""3"",""social_nets_2"":""5"",""language_3"":"""",""tv_3"":"""",""radio_3"":"""",""read_fun_3"":"""",""read_work_3"":"""",""write_3"":"""",""social_nets_3"":""""}",""
"","325933","survey-html-form","16","2274607","0.0-16.0","{""language_0"":""CRIOLO"",""family_0"":""2"",""friends_0"":""3"",""work_0"":""0"",""school_0"":""5"",""language_1"":""FRANCES"",""family_1"":""2"",""friends_1"":""3"",""work_1"":""0"",""school_1"":""5"",""language_2"":""PORTUGUES"",""family_2"":""0"",""friends_2"":""5"",""work_2"":""8"",""school_2"":""5"",""language_3"":"""",""family_3"":"""",""friends_3"":"""",""work_3"":"""",""school_3"":""""}",""
"","346361","survey-html-form","17","2621069","0.0-17.0","{""language_0_0"":""CRIOLO"",""language_0_1"":""CRIOLO"",""language_0_2"":""PORTUGUES"",""language_0_3"":""PORTUGUESPO"",""language_1_0"":""PORTUGUES"",""language_1_1"":""PORTUGUES"",""language_1_2"":""PORTUGUES"",""language_1_3"":""PORTUGUES"",""language_2_0"":""PORTUGUES"",""language_2_1"":""PORTUGUES"",""language_2_2"":""PORTUGUGES"",""language_2_3"":""PORTUGUES"",""language_3_0"":""PORTUGUES"",""language_3_1"":""PORTUGUES"",""language_3_2"":""PORTUGUES"",""language_3_3"":""PORTUGUES""}",""
"","675059","survey-html-form","18","3296226","0.0-18.0","{""language_2"":""PORTUGUES"",""think_2"":""7"",""selftalk_2"":""7"",""emotions_2"":""3"",""dream_2"":""3"",""math_2"":""7"",""remember_2"":""7"",""pray_2"":""6"",""language_1"":""FRANCES"",""think_1"":""2"",""selftalk_1"":""7"",""emotions_1"":""2"",""dream_1"":""3"",""math_1"":""4"",""remember_1"":""3"",""pray_1"":""4"",""language_3"":"""",""think_3"":"""",""selftalk_3"":"""",""emotions_3"":"""",""dream_3"":"""",""math_3"":"""",""remember_3"":"""",""pray_3"":""""}",""
"","28905","survey-multi-choice","19","3325233","0.0-19.0","{""dificuldade_visao_ou_audicao"":""Não""}","[0]"
"","19958","survey-text","20","3345297","0.0-20.0","{""detalhes_dificuldades_audicao_ou_visao"":""""}",""
"","22002","survey-text","21","3367401","0.0-21.0","{""additional_info"":""""}",""
