[
	{
		"view_history": [
			{
				"page_index": 0,
				"viewing_time": 1066
			}
		],
		"rt": 1066,
		"trial_type": "instructions",
		"trial_index": 0,
		"time_elapsed": 1068,
		"internal_node_id": "0.0-0.0"
	},
	{
		"rt": 35174,
		"response": {
			"age": "30"
		},
		"trial_type": "survey-text",
		"trial_index": 1,
		"time_elapsed": 36363,
		"internal_node_id": "0.0-1.0"
	},
	{
		"rt": 5041,
		"response": {
			"sex": "Masculino"
		},
		"question_order": [
			0
		],
		"trial_type": "survey-multi-choice",
		"trial_index": 2,
		"time_elapsed": 41507,
		"internal_node_id": "0.0-2.0"
	},
	{
		"rt": 26378,
		"response": {
			"own_schooling": "Ensino Médio completo"
		},
		"question_order": [
			0
		],
		"trial_type": "survey-multi-choice",
		"trial_index": 3,
		"time_elapsed": 67987,
		"internal_node_id": "0.0-3.0"
	},
	{
		"rt": 32514,
		"response": {
			"mother_schooling": "Ensino Fundamental"
		},
		"question_order": [
			0
		],
		"trial_type": "survey-multi-choice",
		"trial_index": 4,
		"time_elapsed": 100602,
		"internal_node_id": "0.0-4.0"
	},
	{
		"rt": 6994,
		"response": {
			"father_schooling": "Ensino Fundamental"
		},
		"question_order": [
			0
		],
		"trial_type": "survey-multi-choice",
		"trial_index": 5,
		"time_elapsed": 107698,
		"internal_node_id": "0.0-5.0"
	},
	{
		"rt": 311634,
		"response": {
			"language_0": "CRIOULO",
			"listening_0": "1",
			"speaking_0": "1",
			"reading_0": "1",
			"writing_0": "1",
			"language_1": "FRANCES",
			"listening_1": "11",
			"speaking_1": "11",
			"reading_1": "11",
			"writing_1": "11",
			"language_2": "PORT",
			"listening_2": "25",
			"speaking_2": "25",
			"reading_2": "25",
			"writing_2": "25",
			"language_3": "",
			"listening_3": "",
			"speaking_3": "",
			"reading_3": "",
			"writing_3": ""
		},
		"trial_type": "survey-html-form",
		"trial_index": 6,
		"time_elapsed": 419434,
		"internal_node_id": "0.0-6.0"
	},
	{
		"rt": 344682,
		"response": {
			"language_3": "",
			"listening_3": "",
			"speaking_3": "",
			"reading_3": "",
			"writing_3": "",
			"language_1": "FRANCES",
			"listening_1": "11",
			"speaking_1": "11",
			"reading_1": "11",
			"writing_1": "11",
			"language_2": "PORTUGUES",
			"listening_2": "25",
			"speaking_2": "25",
			"reading_2": "25",
			"writing_2": "25"
		},
		"trial_type": "survey-html-form",
		"trial_index": 7,
		"time_elapsed": 764215,
		"internal_node_id": "0.0-7.0"
	},
	{
		"rt": 33313,
		"response": {
			"country_of_origin": "HAITI"
		},
		"trial_type": "survey-text",
		"trial_index": 8,
		"time_elapsed": 797630,
		"internal_node_id": "0.0-8.0"
	},
	{
		"rt": 13178,
		"response": {
			"country_of_residence": "BRASIL"
		},
		"trial_type": "survey-text",
		"trial_index": 9,
		"time_elapsed": 810910,
		"internal_node_id": "0.0-9.0"
	},
	{
		"rt": 103154,
		"response": {
			"country_0": "",
			"duration_0": "",
			"language_0": "",
			"frequency_0": "",
			"country_1": "",
			"duration_1": "",
			"language_1": "",
			"frequency_1": "",
			"country_2": "",
			"duration_2": "",
			"language_2": "",
			"frequency_2": "",
			"country_3": "",
			"duration_3": "",
			"language_3": "",
			"frequency_3": ""
		},
		"trial_type": "survey-html-form",
		"trial_index": 10,
		"time_elapsed": 914166,
		"internal_node_id": "0.0-10.0"
	},
	{
		"rt": 71842,
		"response": {
			"language_0": "PORTUGUES",
			"context_0": "2",
			"language_1": "",
			"context_1": "",
			"language_2": "",
			"context_2": "",
			"language_3": "",
			"context_3": ""
		},
		"trial_type": "survey-html-form",
		"trial_index": 11,
		"time_elapsed": 986109,
		"internal_node_id": "0.0-11.0"
	},
	{
		"rt": 114547,
		"response": {
			"language_0": "PORTUGUES",
			"home_0": "25",
			"friends_0": "25",
			"school_0": "25",
			"work_0": "25",
			"computer_0": "25",
			"games_0": "25",
			"language_1": "",
			"home_1": "",
			"friends_1": "",
			"school_1": "",
			"work_1": "",
			"computer_1": "",
			"games_1": "",
			"language_2": "",
			"home_2": "",
			"friends_2": "",
			"school_2": "",
			"work_2": "",
			"computer_2": "",
			"games_2": "",
			"language_3": "",
			"home_3": "",
			"friends_3": "",
			"school_3": "",
			"work_3": "",
			"computer_3": "",
			"games_3": ""
		},
		"trial_type": "survey-html-form",
		"trial_index": 12,
		"time_elapsed": 1100758,
		"internal_node_id": "0.0-12.0"
	},
	{
		"rt": 90216,
		"response": {
			"new_languages": 6
		},
		"question_order": [
			0
		],
		"trial_type": "survey-likert",
		"trial_index": 13,
		"time_elapsed": 1191077,
		"internal_node_id": "0.0-13.0"
	},
	{
		"rt": 233683,
		"response": {
			"language_0": "CRIOLO",
			"listen_0": "7",
			"talk_0": "7",
			"read_0": "7",
			"write_0": "7",
			"language_1": "FRANCES",
			"listen_1": "7",
			"talk_1": "7",
			"read_1": "7",
			"write_1": "7",
			"language_2": "PORTUGUES",
			"listen_2": "7",
			"talk_2": "7",
			"read_2": "7",
			"write_2": "7",
			"language_3": "",
			"listen_3": "",
			"talk_3": "",
			"read_3": "",
			"write_3": ""
		},
		"trial_type": "survey-html-form",
		"trial_index": 14,
		"time_elapsed": 1424860,
		"internal_node_id": "0.0-14.0"
	},
	{
		"rt": 523610,
		"response": {
			"language_0": "CRIOLO",
			"tv_0": "0",
			"radio_0": "0",
			"read_fun_0": "3",
			"read_work_0": "2",
			"write_0": "0",
			"social_nets_0": "03",
			"language_1": "FRANCES",
			"tv_1": "3",
			"radio_1": "0",
			"read_fun_1": "0",
			"read_work_1": "0",
			"write_1": "0",
			"social_nets_1": "1",
			"language_2": "PORTUGUES",
			"tv_2": "3",
			"radio_2": "3",
			"read_fun_2": "6",
			"read_work_2": "8",
			"write_2": "3",
			"social_nets_2": "5",
			"language_3": "",
			"tv_3": "",
			"radio_3": "",
			"read_fun_3": "",
			"read_work_3": "",
			"write_3": "",
			"social_nets_3": ""
		},
		"trial_type": "survey-html-form",
		"trial_index": 15,
		"time_elapsed": 1948569,
		"internal_node_id": "0.0-15.0"
	},
	{
		"rt": 325933,
		"response": {
			"language_0": "CRIOLO",
			"family_0": "2",
			"friends_0": "3",
			"work_0": "0",
			"school_0": "5",
			"language_1": "FRANCES",
			"family_1": "2",
			"friends_1": "3",
			"work_1": "0",
			"school_1": "5",
			"language_2": "PORTUGUES",
			"family_2": "0",
			"friends_2": "5",
			"work_2": "8",
			"school_2": "5",
			"language_3": "",
			"family_3": "",
			"friends_3": "",
			"work_3": "",
			"school_3": ""
		},
		"trial_type": "survey-html-form",
		"trial_index": 16,
		"time_elapsed": 2274607,
		"internal_node_id": "0.0-16.0"
	},
	{
		"rt": 346361,
		"response": {
			"language_0_0": "CRIOLO",
			"language_0_1": "CRIOLO",
			"language_0_2": "PORTUGUES",
			"language_0_3": "PORTUGUESPO",
			"language_1_0": "PORTUGUES",
			"language_1_1": "PORTUGUES",
			"language_1_2": "PORTUGUES",
			"language_1_3": "PORTUGUES",
			"language_2_0": "PORTUGUES",
			"language_2_1": "PORTUGUES",
			"language_2_2": "PORTUGUGES",
			"language_2_3": "PORTUGUES",
			"language_3_0": "PORTUGUES",
			"language_3_1": "PORTUGUES",
			"language_3_2": "PORTUGUES",
			"language_3_3": "PORTUGUES"
		},
		"trial_type": "survey-html-form",
		"trial_index": 17,
		"time_elapsed": 2621069,
		"internal_node_id": "0.0-17.0"
	},
	{
		"rt": 675059,
		"response": {
			"language_2": "PORTUGUES",
			"think_2": "7",
			"selftalk_2": "7",
			"emotions_2": "3",
			"dream_2": "3",
			"math_2": "7",
			"remember_2": "7",
			"pray_2": "6",
			"language_1": "FRANCES",
			"think_1": "2",
			"selftalk_1": "7",
			"emotions_1": "2",
			"dream_1": "3",
			"math_1": "4",
			"remember_1": "3",
			"pray_1": "4",
			"language_3": "",
			"think_3": "",
			"selftalk_3": "",
			"emotions_3": "",
			"dream_3": "",
			"math_3": "",
			"remember_3": "",
			"pray_3": ""
		},
		"trial_type": "survey-html-form",
		"trial_index": 18,
		"time_elapsed": 3296226,
		"internal_node_id": "0.0-18.0"
	},
	{
		"rt": 28905,
		"response": {
			"dificuldade_visao_ou_audicao": "Não"
		},
		"question_order": [
			0
		],
		"trial_type": "survey-multi-choice",
		"trial_index": 19,
		"time_elapsed": 3325233,
		"internal_node_id": "0.0-19.0"
	},
	{
		"rt": 19958,
		"response": {
			"detalhes_dificuldades_audicao_ou_visao": ""
		},
		"trial_type": "survey-text",
		"trial_index": 20,
		"time_elapsed": 3345297,
		"internal_node_id": "0.0-20.0"
	},
	{
		"rt": 22002,
		"response": {
			"additional_info": ""
		},
		"trial_type": "survey-text",
		"trial_index": 21,
		"time_elapsed": 3367401,
		"internal_node_id": "0.0-21.0"
	}
]