[
	{
		"view_history": [
			{
				"page_index": 0,
				"viewing_time": 1536
			},
			{
				"page_index": 1,
				"viewing_time": 6228
			}
		],
		"rt": 7764,
		"trial_type": "instructions",
		"trial_index": 0,
		"time_elapsed": 7768,
		"internal_node_id": "0.0-0.0"
	},
	{
		"rt": null,
		"stimulus": "<span style= \"font-size:30px; font-family: monospace\">+</span>",
		"response": null,
		"trial_part": "fixation",
		"trial_type": "html-keyboard-response",
		"trial_index": 1,
		"time_elapsed": 8895,
		"internal_node_id": "0.0-1.0-0.0-0.0"
	},
	{
		"rt": 3592,
		"stimulus": "../audio/prac-question-1-1.mp3",
		"response": " ",
		"word": "O",
		"trial_type": "audio-keyboard-response",
		"trial_index": 2,
		"time_elapsed": 13281,
		"internal_node_id": "0.0-1.0-1.0"
	},
	{
		"rt": 1371,
		"stimulus": "../audio/prac-question-1-2.mp3",
		"response": " ",
		"word": "dia",
		"trial_type": "audio-keyboard-response",
		"trial_index": 3,
		"time_elapsed": 14957,
		"internal_node_id": "0.0-1.0-1.1"
	},
	{
		"rt": 1499,
		"stimulus": "../audio/prac-question-1-3.mp3",
		"response": " ",
		"word": "estará",
		"trial_type": "audio-keyboard-response",
		"trial_index": 4,
		"time_elapsed": 16773,
		"internal_node_id": "0.0-1.0-1.2"
	},
	{
		"rt": 1549,
		"stimulus": "../audio/prac-question-1-4.mp3",
		"response": " ",
		"word": "cheio",
		"trial_type": "audio-keyboard-response",
		"trial_index": 5,
		"time_elapsed": 18627,
		"internal_node_id": "0.0-1.0-1.3"
	},
	{
		"rt": 1448,
		"stimulus": "../audio/prac-question-1-5.mp3",
		"response": " ",
		"word": "de",
		"trial_type": "audio-keyboard-response",
		"trial_index": 6,
		"time_elapsed": 20371,
		"internal_node_id": "0.0-1.0-1.4"
	},
	{
		"rt": 1429,
		"stimulus": "../audio/prac-question-1-6.mp3",
		"response": " ",
		"word": "nuvens",
		"trial_type": "audio-keyboard-response",
		"trial_index": 7,
		"time_elapsed": 22099,
		"internal_node_id": "0.0-1.0-1.5"
	},
	{
		"rt": 1200,
		"stimulus": "../audio/prac-question-1-7.mp3",
		"response": " ",
		"word": "hoje.",
		"trial_type": "audio-keyboard-response",
		"trial_index": 8,
		"time_elapsed": 23602,
		"internal_node_id": "0.0-1.0-1.6"
	},
	{
		"rt": null,
		"stimulus": "<span style= \"font-size:30px; font-family: monospace\">+</span>",
		"response": null,
		"trial_part": "fixation",
		"trial_type": "html-keyboard-response",
		"trial_index": 9,
		"time_elapsed": 24876,
		"internal_node_id": "0.0-1.0-0.7-0.7"
	},
	{
		"rt": 949,
		"stimulus": "../audio/prac-question-2-1.mp3",
		"response": " ",
		"word": "A",
		"trial_type": "audio-keyboard-response",
		"trial_index": 10,
		"time_elapsed": 26136,
		"internal_node_id": "0.0-1.0-1.7"
	},
	{
		"rt": 1320,
		"stimulus": "../audio/prac-question-2-2.mp3",
		"response": " ",
		"word": "caneca",
		"trial_type": "audio-keyboard-response",
		"trial_index": 11,
		"time_elapsed": 27761,
		"internal_node_id": "0.0-1.0-1.8"
	},
	{
		"rt": 1149,
		"stimulus": "../audio/prac-question-2-3.mp3",
		"response": " ",
		"word": "colorida",
		"trial_type": "audio-keyboard-response",
		"trial_index": 12,
		"time_elapsed": 29223,
		"internal_node_id": "0.0-1.0-1.9"
	},
	{
		"rt": 1139,
		"stimulus": "../audio/prac-question-2-4.mp3",
		"response": " ",
		"word": "caiu",
		"trial_type": "audio-keyboard-response",
		"trial_index": 13,
		"time_elapsed": 30668,
		"internal_node_id": "0.0-1.0-1.10"
	},
	{
		"rt": 1032,
		"stimulus": "../audio/prac-question-2-5.mp3",
		"response": " ",
		"word": "da",
		"trial_type": "audio-keyboard-response",
		"trial_index": 14,
		"time_elapsed": 32000,
		"internal_node_id": "0.0-1.0-1.11"
	},
	{
		"rt": 1181,
		"stimulus": "../audio/prac-question-2-6.mp3",
		"response": " ",
		"word": "mesa",
		"trial_type": "audio-keyboard-response",
		"trial_index": 15,
		"time_elapsed": 33477,
		"internal_node_id": "0.0-1.0-1.12"
	},
	{
		"rt": 1000,
		"stimulus": "../audio/prac-question-2-7.mp3",
		"response": " ",
		"word": "de",
		"trial_type": "audio-keyboard-response",
		"trial_index": 16,
		"time_elapsed": 34777,
		"internal_node_id": "0.0-1.0-1.13"
	},
	{
		"rt": 1141,
		"stimulus": "../audio/prac-question-2-8.mp3",
		"response": " ",
		"word": "jantar.",
		"trial_type": "audio-keyboard-response",
		"trial_index": 17,
		"time_elapsed": 36233,
		"internal_node_id": "0.0-1.0-1.14"
	},
	{
		"rt": 3887,
		"stimulus": "<span style=\"font-size:25px; font-family: monospace\">A caneca era colorida?</span>",
		"response": "s",
		"question": "A caneca era colorida?",
		"answer": "null",
		"trial": "prac-sent",
		"trial_type": "html-keyboard-response",
		"trial_index": 18,
		"time_elapsed": 40374,
		"internal_node_id": "0.0-1.0-2.14-0.14",
		"accuracy": false
	},
	{
		"view_history": [
			{
				"page_index": 0,
				"viewing_time": 6243
			}
		],
		"rt": 6243,
		"trial_type": "instructions",
		"trial_index": 19,
		"time_elapsed": 47134,
		"internal_node_id": "0.0-2.0"
	},
	{
		"rt": null,
		"stimulus": "<span style= \"font-size:30px; font-family: monospace\">+</span>",
		"response": null,
		"trial_part": "fixation",
		"trial_type": "html-keyboard-response",
		"trial_index": 20,
		"time_elapsed": 48259,
		"internal_node_id": "0.0-3.0-0.0-0.0"
	},
	{
		"rt": 1291,
		"stimulus": "../audio/47-1-masc.mp3",
		"response": " ",
		"word": "O",
		"trial_type": "audio-keyboard-response",
		"trial_index": 21,
		"time_elapsed": 52308,
		"internal_node_id": "0.0-3.0-1.0"
	},
	{
		"rt": 1131,
		"stimulus": "../audio/47-2-masc.mp3",
		"response": " ",
		"word": "tio",
		"trial_type": "audio-keyboard-response",
		"trial_index": 22,
		"time_elapsed": 56642,
		"internal_node_id": "0.0-3.0-1.1"
	},
	{
		"rt": 1120,
		"stimulus": "../audio/47-3-masc.mp3",
		"response": " ",
		"word": "recusou",
		"trial_type": "audio-keyboard-response",
		"trial_index": 23,
		"time_elapsed": 62123,
		"internal_node_id": "0.0-3.0-1.2"
	},
	{
		"rt": 840,
		"stimulus": "../audio/47-4-masc.mp3",
		"response": " ",
		"word": "a",
		"trial_type": "audio-keyboard-response",
		"trial_index": 24,
		"time_elapsed": 66254,
		"internal_node_id": "0.0-3.0-1.3"
	},
	{
		"rt": 1349,
		"stimulus": "../audio/47-5-masc.mp3",
		"response": " ",
		"word": "sobremesa",
		"trial_type": "audio-keyboard-response",
		"trial_index": 25,
		"time_elapsed": 68750,
		"internal_node_id": "0.0-3.0-1.4"
	},
	{
		"rt": 1099,
		"stimulus": "../audio/47-6-masc.mp3",
		"response": " ",
		"word": "no",
		"trial_type": "audio-keyboard-response",
		"trial_index": 26,
		"time_elapsed": 73094,
		"internal_node_id": "0.0-3.0-1.5"
	},
	{
		"rt": 1189,
		"stimulus": "../audio/47-7-masc.mp3",
		"response": " ",
		"word": "almoço.",
		"trial_type": "audio-keyboard-response",
		"trial_index": 27,
		"time_elapsed": 77650,
		"internal_node_id": "0.0-3.0-1.6"
	},
	{
		"rt": null,
		"stimulus": "<span style= \"font-size:30px; font-family: monospace\">+</span>",
		"response": null,
		"trial_part": "fixation",
		"trial_type": "html-keyboard-response",
		"trial_index": 28,
		"time_elapsed": 78914,
		"internal_node_id": "0.0-3.0-0.7-0.7"
	},
	{
		"rt": 1109,
		"stimulus": "../audio/48-1-fem.mp3",
		"response": " ",
		"word": "Ela",
		"trial_type": "audio-keyboard-response",
		"trial_index": 29,
		"time_elapsed": 82890,
		"internal_node_id": "0.0-3.0-1.7"
	},
	{
		"rt": 1259,
		"stimulus": "../audio/48-2-fem.mp3",
		"response": " ",
		"word": "come",
		"trial_type": "audio-keyboard-response",
		"trial_index": 30,
		"time_elapsed": 87543,
		"internal_node_id": "0.0-3.0-1.8"
	},
	{
		"rt": 1251,
		"stimulus": "../audio/48-3-fem.mp3",
		"response": " ",
		"word": "feijão",
		"trial_type": "audio-keyboard-response",
		"trial_index": 31,
		"time_elapsed": 92390,
		"internal_node_id": "0.0-3.0-1.9"
	},
	{
		"rt": 1280,
		"stimulus": "../audio/48-4-fem.mp3",
		"response": " ",
		"word": "com",
		"trial_type": "audio-keyboard-response",
		"trial_index": 32,
		"time_elapsed": 96396,
		"internal_node_id": "0.0-3.0-1.10"
	},
	{
		"rt": 1221,
		"stimulus": "../audio/48-5-fem.mp3",
		"response": " ",
		"word": "arroz",
		"trial_type": "audio-keyboard-response",
		"trial_index": 33,
		"time_elapsed": 100948,
		"internal_node_id": "0.0-3.0-1.11"
	},
	{
		"rt": 1541,
		"stimulus": "../audio/48-6-fem.mp3",
		"response": " ",
		"word": "todos",
		"trial_type": "audio-keyboard-response",
		"trial_index": 34,
		"time_elapsed": 105595,
		"internal_node_id": "0.0-3.0-1.12"
	},
	{
		"rt": 992,
		"stimulus": "../audio/48-7-fem.mp3",
		"response": " ",
		"word": "os",
		"trial_type": "audio-keyboard-response",
		"trial_index": 35,
		"time_elapsed": 109563,
		"internal_node_id": "0.0-3.0-1.13"
	},
	{
		"rt": 1251,
		"stimulus": "../audio/48-8-fem.mp3",
		"response": " ",
		"word": "dias.",
		"trial_type": "audio-keyboard-response",
		"trial_index": 36,
		"time_elapsed": 114357,
		"internal_node_id": "0.0-3.0-1.14"
	},
	{
		"rt": null,
		"stimulus": "<span style= \"font-size:30px; font-family: monospace\">+</span>",
		"response": null,
		"trial_part": "fixation",
		"trial_type": "html-keyboard-response",
		"trial_index": 37,
		"time_elapsed": 115635,
		"internal_node_id": "0.0-3.0-0.15-0.15"
	},
	{
		"rt": 1299,
		"stimulus": "../audio/46-1-masc.mp3",
		"response": " ",
		"word": "Meu",
		"trial_type": "audio-keyboard-response",
		"trial_index": 38,
		"time_elapsed": 119727,
		"internal_node_id": "0.0-3.0-1.15"
	},
	{
		"rt": 1200,
		"stimulus": "../audio/46-2-masc.mp3",
		"response": " ",
		"word": "primo",
		"trial_type": "audio-keyboard-response",
		"trial_index": 39,
		"time_elapsed": 124204,
		"internal_node_id": "0.0-3.0-1.16"
	},
	{
		"rt": 1120,
		"stimulus": "../audio/46-3-masc.mp3",
		"response": " ",
		"word": "estava",
		"trial_type": "audio-keyboard-response",
		"trial_index": 40,
		"time_elapsed": 128744,
		"internal_node_id": "0.0-3.0-1.17"
	},
	{
		"rt": 1099,
		"stimulus": "../audio/46-4-masc.mp3",
		"response": " ",
		"word": "muito",
		"trial_type": "audio-keyboard-response",
		"trial_index": 41,
		"time_elapsed": 133330,
		"internal_node_id": "0.0-3.0-1.18"
	},
	{
		"rt": 1381,
		"stimulus": "../audio/46-5-masc.mp3",
		"response": " ",
		"word": "deprimido",
		"trial_type": "audio-keyboard-response",
		"trial_index": 42,
		"time_elapsed": 138034,
		"internal_node_id": "0.0-3.0-1.19"
	},
	{
		"rt": 971,
		"stimulus": "../audio/46-6-masc.mp3",
		"response": " ",
		"word": "no",
		"trial_type": "audio-keyboard-response",
		"trial_index": 43,
		"time_elapsed": 142181,
		"internal_node_id": "0.0-3.0-1.20"
	},
	{
		"rt": 1731,
		"stimulus": "../audio/46-7-masc.mp3",
		"response": " ",
		"word": "inverno.",
		"trial_type": "audio-keyboard-response",
		"trial_index": 44,
		"time_elapsed": 148043,
		"internal_node_id": "0.0-3.0-1.21"
	},
	{
		"rt": null,
		"stimulus": "<span style= \"font-size:30px; font-family: monospace\">+</span>",
		"response": null,
		"trial_part": "fixation",
		"trial_type": "html-keyboard-response",
		"trial_index": 45,
		"time_elapsed": 149312,
		"internal_node_id": "0.0-3.0-0.22-0.22"
	},
	{
		"rt": 1171,
		"stimulus": "../audio/49-1-fem.mp3",
		"response": " ",
		"word": "Eu",
		"trial_type": "audio-keyboard-response",
		"trial_index": 46,
		"time_elapsed": 153262,
		"internal_node_id": "0.0-3.0-1.22"
	},
	{
		"rt": 1272,
		"stimulus": "../audio/49-2-fem.mp3",
		"response": " ",
		"word": "quero",
		"trial_type": "audio-keyboard-response",
		"trial_index": 47,
		"time_elapsed": 157926,
		"internal_node_id": "0.0-3.0-1.23"
	},
	{
		"rt": 1312,
		"stimulus": "../audio/49-3-fem.mp3",
		"response": " ",
		"word": "um",
		"trial_type": "audio-keyboard-response",
		"trial_index": 48,
		"time_elapsed": 162365,
		"internal_node_id": "0.0-3.0-1.24"
	},
	{
		"rt": 1480,
		"stimulus": "../audio/49-4-fem.mp3",
		"response": " ",
		"word": "lanche",
		"trial_type": "audio-keyboard-response",
		"trial_index": 49,
		"time_elapsed": 166977,
		"internal_node_id": "0.0-3.0-1.25"
	},
	{
		"rt": 1211,
		"stimulus": "../audio/49-5-fem.mp3",
		"response": " ",
		"word": "duplo",
		"trial_type": "audio-keyboard-response",
		"trial_index": 50,
		"time_elapsed": 171224,
		"internal_node_id": "0.0-3.0-1.26"
	},
	{
		"rt": 1301,
		"stimulus": "../audio/49-6-fem.mp3",
		"response": " ",
		"word": "e",
		"trial_type": "audio-keyboard-response",
		"trial_index": 51,
		"time_elapsed": 177795,
		"internal_node_id": "0.0-3.0-1.27"
	},
	{
		"rt": 949,
		"stimulus": "../audio/49-7-fem.mp3",
		"response": " ",
		"word": "um",
		"trial_type": "audio-keyboard-response",
		"trial_index": 52,
		"time_elapsed": 182138,
		"internal_node_id": "0.0-3.0-1.28"
	},
	{
		"rt": 1280,
		"stimulus": "../audio/49-8-fem.mp3",
		"response": " ",
		"word": "suco.",
		"trial_type": "audio-keyboard-response",
		"trial_index": 53,
		"time_elapsed": 187549,
		"internal_node_id": "0.0-3.0-1.29"
	},
	{
		"rt": null,
		"stimulus": "<span style= \"font-size:30px; font-family: monospace\">+</span>",
		"response": null,
		"trial_part": "fixation",
		"trial_type": "html-keyboard-response",
		"trial_index": 54,
		"time_elapsed": 188804,
		"internal_node_id": "0.0-3.0-0.30-0.30"
	},
	{
		"rt": 1240,
		"stimulus": "../audio/50-1-masc.mp3",
		"response": " ",
		"word": "O",
		"trial_type": "audio-keyboard-response",
		"trial_index": 55,
		"time_elapsed": 193725,
		"internal_node_id": "0.0-3.0-1.30"
	},
	{
		"rt": 1061,
		"stimulus": "../audio/50-2-masc.mp3",
		"response": " ",
		"word": "pássaro",
		"trial_type": "audio-keyboard-response",
		"trial_index": 56,
		"time_elapsed": 198354,
		"internal_node_id": "0.0-3.0-1.31"
	},
	{
		"rt": 971,
		"stimulus": "../audio/50-3-masc.mp3",
		"response": " ",
		"word": "fugiu",
		"trial_type": "audio-keyboard-response",
		"trial_index": 57,
		"time_elapsed": 202549,
		"internal_node_id": "0.0-3.0-1.32"
	},
	{
		"rt": 1251,
		"stimulus": "../audio/50-4-masc.mp3",
		"response": " ",
		"word": "da",
		"trial_type": "audio-keyboard-response",
		"trial_index": 58,
		"time_elapsed": 207362,
		"internal_node_id": "0.0-3.0-1.33"
	},
	{
		"rt": 1109,
		"stimulus": "../audio/50-5-masc.mp3",
		"response": " ",
		"word": "gaiola",
		"trial_type": "audio-keyboard-response",
		"trial_index": 59,
		"time_elapsed": 211936,
		"internal_node_id": "0.0-3.0-1.34"
	},
	{
		"rt": 1251,
		"stimulus": "../audio/50-6-masc.mp3",
		"response": " ",
		"word": "pela",
		"trial_type": "audio-keyboard-response",
		"trial_index": 60,
		"time_elapsed": 216268,
		"internal_node_id": "0.0-3.0-1.35"
	},
	{
		"rt": 1600,
		"stimulus": "../audio/50-7-masc.mp3",
		"response": " ",
		"word": "portinhola.",
		"trial_type": "audio-keyboard-response",
		"trial_index": 61,
		"time_elapsed": 221406,
		"internal_node_id": "0.0-3.0-1.36"
	},
	{
		"rt": 3383,
		"stimulus": "<span style=\"font-size:25px; font-family: monospace\">O pássaro fugiu da gaiola?</span>",
		"response": "s",
		"question": "O pássaro fugiu da gaiola?",
		"answer": "null",
		"trial": "exp-sent",
		"trial_type": "html-keyboard-response",
		"trial_index": 62,
		"time_elapsed": 225057,
		"internal_node_id": "0.0-3.0-2.36-0.36",
		"accuracy": false
	},
	{
		"rt": null,
		"stimulus": "<span style= \"font-size:30px; font-family: monospace\">+</span>",
		"response": null,
		"trial_part": "fixation",
		"trial_type": "html-keyboard-response",
		"trial_index": 63,
		"time_elapsed": 226584,
		"internal_node_id": "0.0-3.0-0.37-0.37"
	},
	{
		"rt": 1069,
		"stimulus": "../audio/03-1-fem.mp3",
		"response": " ",
		"word": "O",
		"trial_type": "audio-keyboard-response",
		"trial_index": 64,
		"time_elapsed": 227937,
		"internal_node_id": "0.0-3.0-1.37"
	},
	{
		"rt": 2019,
		"stimulus": "../audio/03-2-fem.mp3",
		"response": " ",
		"word": "coelho",
		"trial_type": "audio-keyboard-response",
		"trial_index": 65,
		"time_elapsed": 230266,
		"internal_node_id": "0.0-3.0-1.38"
	},
	{
		"rt": 1589,
		"stimulus": "../audio/03-3-fem.mp3",
		"response": " ",
		"word": "foi",
		"trial_type": "audio-keyboard-response",
		"trial_index": 66,
		"time_elapsed": 232175,
		"internal_node_id": "0.0-3.0-1.39"
	},
	{
		"rt": 1800,
		"stimulus": "../audio/03-4-fem.mp3",
		"response": " ",
		"word": "bastante",
		"trial_type": "audio-keyboard-response",
		"trial_index": 67,
		"time_elapsed": 234300,
		"internal_node_id": "0.0-3.0-1.40"
	},
	{
		"rt": 2008,
		"stimulus": "../audio/03-5-fem.mp3",
		"response": " ",
		"word": "dócil",
		"trial_type": "audio-keyboard-response",
		"trial_index": 68,
		"time_elapsed": 236608,
		"internal_node_id": "0.0-3.0-1.41"
	},
	{
		"rt": 1899,
		"stimulus": "../audio/03-6-fem.mp3",
		"response": " ",
		"word": "com",
		"trial_type": "audio-keyboard-response",
		"trial_index": 69,
		"time_elapsed": 238816,
		"internal_node_id": "0.0-3.0-1.42"
	},
	{
		"rt": 2109,
		"stimulus": "../audio/03-7-fem.mp3",
		"response": " ",
		"word": "as",
		"trial_type": "audio-keyboard-response",
		"trial_index": 70,
		"time_elapsed": 241230,
		"internal_node_id": "0.0-3.0-1.43"
	},
	{
		"rt": 1909,
		"stimulus": "../audio/03-8-fem.mp3",
		"response": " ",
		"word": "crianças.",
		"trial_type": "audio-keyboard-response",
		"trial_index": 71,
		"time_elapsed": 243449,
		"internal_node_id": "0.0-3.0-1.44"
	},
	{
		"rt": null,
		"stimulus": "<span style= \"font-size:30px; font-family: monospace\">+</span>",
		"response": null,
		"trial_part": "fixation",
		"trial_type": "html-keyboard-response",
		"trial_index": 72,
		"time_elapsed": 244724,
		"internal_node_id": "0.0-3.0-0.45-0.45"
	},
	{
		"rt": 960,
		"stimulus": "../audio/01-1-fem.mp3",
		"response": " ",
		"word": "O",
		"trial_type": "audio-keyboard-response",
		"trial_index": 73,
		"time_elapsed": 246848,
		"internal_node_id": "0.0-3.0-1.45"
	},
	{
		"rt": 1651,
		"stimulus": "../audio/01-2-fem.mp3",
		"response": " ",
		"word": "menino",
		"trial_type": "audio-keyboard-response",
		"trial_index": 74,
		"time_elapsed": 252037,
		"internal_node_id": "0.0-3.0-1.46"
	},
	{
		"rt": 1400,
		"stimulus": "../audio/01-3-fem.mp3",
		"response": " ",
		"word": "derrubou",
		"trial_type": "audio-keyboard-response",
		"trial_index": 75,
		"time_elapsed": 257230,
		"internal_node_id": "0.0-3.0-1.47"
	},
	{
		"rt": 971,
		"stimulus": "../audio/01-4-fem.mp3",
		"response": " ",
		"word": "a",
		"trial_type": "audio-keyboard-response",
		"trial_index": 76,
		"time_elapsed": 261314,
		"internal_node_id": "0.0-3.0-1.48"
	},
	{
		"rt": 1139,
		"stimulus": "../audio/01-5-fem.mp3",
		"response": " ",
		"word": "guitarra",
		"trial_type": "audio-keyboard-response",
		"trial_index": 77,
		"time_elapsed": 265973,
		"internal_node_id": "0.0-3.0-1.49"
	},
	{
		"rt": 1131,
		"stimulus": "../audio/01-6-fem.mp3",
		"response": " ",
		"word": "no",
		"trial_type": "audio-keyboard-response",
		"trial_index": 78,
		"time_elapsed": 270356,
		"internal_node_id": "0.0-3.0-1.50"
	},
	{
		"rt": 2720,
		"stimulus": "../audio/01-7-fem.mp3",
		"response": " ",
		"word": "chão.",
		"trial_type": "audio-keyboard-response",
		"trial_index": 79,
		"time_elapsed": 276802,
		"internal_node_id": "0.0-3.0-1.51"
	},
	{
		"rt": null,
		"stimulus": "<span style= \"font-size:30px; font-family: monospace\">+</span>",
		"response": null,
		"trial_part": "fixation",
		"trial_type": "html-keyboard-response",
		"trial_index": 80,
		"time_elapsed": 278061,
		"internal_node_id": "0.0-3.0-0.52-0.52"
	},
	{
		"rt": 1720,
		"stimulus": "../audio/04-1-fem.mp3",
		"response": " ",
		"word": "Duzentos",
		"trial_type": "audio-keyboard-response",
		"trial_index": 81,
		"time_elapsed": 280097,
		"internal_node_id": "0.0-3.0-1.52"
	},
	{
		"rt": 1040,
		"stimulus": "../audio/04-2-fem.mp3",
		"response": " ",
		"word": "carros",
		"trial_type": "audio-keyboard-response",
		"trial_index": 82,
		"time_elapsed": 281437,
		"internal_node_id": "0.0-3.0-1.53"
	},
	{
		"rt": 1051,
		"stimulus": "../audio/04-3-fem.mp3",
		"response": " ",
		"word": "passaram",
		"trial_type": "audio-keyboard-response",
		"trial_index": 83,
		"time_elapsed": 282796,
		"internal_node_id": "0.0-3.0-1.54"
	},
	{
		"rt": 1480,
		"stimulus": "../audio/04-4-fem.mp3",
		"response": " ",
		"word": "pela",
		"trial_type": "audio-keyboard-response",
		"trial_index": 84,
		"time_elapsed": 284557,
		"internal_node_id": "0.0-3.0-1.55"
	},
	{
		"rt": 1360,
		"stimulus": "../audio/04-5-fem.mp3",
		"response": " ",
		"word": "ponte",
		"trial_type": "audio-keyboard-response",
		"trial_index": 85,
		"time_elapsed": 286223,
		"internal_node_id": "0.0-3.0-1.56"
	},
	{
		"rt": 1589,
		"stimulus": "../audio/04-6-fem.mp3",
		"response": " ",
		"word": "hoje",
		"trial_type": "audio-keyboard-response",
		"trial_index": 86,
		"time_elapsed": 288102,
		"internal_node_id": "0.0-3.0-1.57"
	},
	{
		"rt": 1160,
		"stimulus": "../audio/04-7-fem.mp3",
		"response": " ",
		"word": "de",
		"trial_type": "audio-keyboard-response",
		"trial_index": 87,
		"time_elapsed": 289564,
		"internal_node_id": "0.0-3.0-1.58"
	},
	{
		"rt": 1229,
		"stimulus": "../audio/04-8-fem.mp3",
		"response": " ",
		"word": "tarde.",
		"trial_type": "audio-keyboard-response",
		"trial_index": 88,
		"time_elapsed": 291087,
		"internal_node_id": "0.0-3.0-1.59"
	},
	{
		"rt": null,
		"stimulus": "<span style= \"font-size:30px; font-family: monospace\">+</span>",
		"response": null,
		"trial_part": "fixation",
		"trial_type": "html-keyboard-response",
		"trial_index": 89,
		"time_elapsed": 292359,
		"internal_node_id": "0.0-3.0-0.60-0.60"
	},
	{
		"rt": 1109,
		"stimulus": "../audio/02-2-masc.mp3",
		"response": " ",
		"word": "Havia",
		"trial_type": "audio-keyboard-response",
		"trial_index": 90,
		"time_elapsed": 296307,
		"internal_node_id": "0.0-3.0-1.60"
	},
	{
		"rt": 1331,
		"stimulus": "../audio/02-2-masc.mp3",
		"response": " ",
		"word": "um",
		"trial_type": "audio-keyboard-response",
		"trial_index": 91,
		"time_elapsed": 297905,
		"internal_node_id": "0.0-3.0-1.61"
	},
	{
		"rt": 3939,
		"stimulus": "../audio/02-3-masc.mp3",
		"response": " ",
		"word": "cheiro",
		"trial_type": "audio-keyboard-response",
		"trial_index": 92,
		"time_elapsed": 304663,
		"internal_node_id": "0.0-3.0-1.62"
	},
	{
		"rt": 131,
		"stimulus": "../audio/02-4-masc.mp3",
		"response": " ",
		"word": "de",
		"trial_type": "audio-keyboard-response",
		"trial_index": 93,
		"time_elapsed": 308560,
		"internal_node_id": "0.0-3.0-1.63"
	},
	{
		"rt": 1891,
		"stimulus": "../audio/02-5-masc.mp3",
		"response": " ",
		"word": "gasolina",
		"trial_type": "audio-keyboard-response",
		"trial_index": 94,
		"time_elapsed": 311627,
		"internal_node_id": "0.0-3.0-1.64"
	},
	{
		"rt": 1099,
		"stimulus": "../audio/02-6-masc.mp3",
		"response": " ",
		"word": "na",
		"trial_type": "audio-keyboard-response",
		"trial_index": 95,
		"time_elapsed": 315946,
		"internal_node_id": "0.0-3.0-1.65"
	},
	{
		"rt": 1029,
		"stimulus": "../audio/02-7-masc.mp3",
		"response": " ",
		"word": "garagem.",
		"trial_type": "audio-keyboard-response",
		"trial_index": 96,
		"time_elapsed": 320410,
		"internal_node_id": "0.0-3.0-1.66"
	},
	{
		"rt": null,
		"stimulus": "<span style= \"font-size:30px; font-family: monospace\">+</span>",
		"response": null,
		"trial_part": "fixation",
		"trial_type": "html-keyboard-response",
		"trial_index": 97,
		"time_elapsed": 321679,
		"internal_node_id": "0.0-3.0-0.67-0.67"
	},
	{
		"rt": 1320,
		"stimulus": "../audio/05-1-masc.mp3",
		"response": " ",
		"word": "A",
		"trial_type": "audio-keyboard-response",
		"trial_index": 98,
		"time_elapsed": 326091,
		"internal_node_id": "0.0-3.0-1.67"
	},
	{
		"rt": 1651,
		"stimulus": "../audio/05-2-masc.mp3",
		"response": " ",
		"word": "vendedora",
		"trial_type": "audio-keyboard-response",
		"trial_index": 99,
		"time_elapsed": 330521,
		"internal_node_id": "0.0-3.0-1.68"
	},
	{
		"rt": 1088,
		"stimulus": "../audio/05-3-masc.mp3",
		"response": " ",
		"word": "ajudou",
		"trial_type": "audio-keyboard-response",
		"trial_index": 100,
		"time_elapsed": 334450,
		"internal_node_id": "0.0-3.0-1.69"
	},
	{
		"rt": 1179,
		"stimulus": "../audio/05-4-masc.mp3",
		"response": " ",
		"word": "um",
		"trial_type": "audio-keyboard-response",
		"trial_index": 101,
		"time_elapsed": 339981,
		"internal_node_id": "0.0-3.0-1.70"
	},
	{
		"rt": 941,
		"stimulus": "../audio/05-5-masc.mp3",
		"response": " ",
		"word": "turista",
		"trial_type": "audio-keyboard-response",
		"trial_index": 102,
		"time_elapsed": 344117,
		"internal_node_id": "0.0-3.0-1.71"
	},
	{
		"rt": 1728,
		"stimulus": "../audio/05-6-masc.mp3",
		"response": " ",
		"word": "na",
		"trial_type": "audio-keyboard-response",
		"trial_index": 103,
		"time_elapsed": 349335,
		"internal_node_id": "0.0-3.0-1.72"
	},
	{
		"rt": 1179,
		"stimulus": "../audio/05-7-masc.mp3",
		"response": " ",
		"word": "loja.",
		"trial_type": "audio-keyboard-response",
		"trial_index": 104,
		"time_elapsed": 353224,
		"internal_node_id": "0.0-3.0-1.73"
	},
	{
		"rt": 3145,
		"stimulus": "<span style=\"font-size:25px; font-family: monospace\">A vendedora ajudou um turista?</span>",
		"response": "s",
		"question": "A vendedora ajudou um turista?",
		"answer": "null",
		"trial": "exp-sent",
		"trial_type": "html-keyboard-response",
		"trial_index": 105,
		"time_elapsed": 356629,
		"internal_node_id": "0.0-3.0-2.73-0.73",
		"accuracy": false
	},
	{
		"rt": null,
		"stimulus": "<span style= \"font-size:30px; font-family: monospace\">+</span>",
		"response": null,
		"trial_part": "fixation",
		"trial_type": "html-keyboard-response",
		"trial_index": 106,
		"time_elapsed": 358154,
		"internal_node_id": "0.0-3.0-0.74-0.74"
	},
	{
		"rt": 2971,
		"stimulus": "../audio/14-1-masc.mp3",
		"response": " ",
		"word": "O",
		"trial_type": "audio-keyboard-response",
		"trial_index": 107,
		"time_elapsed": 363978,
		"internal_node_id": "0.0-3.0-1.74"
	},
	{
		"rt": 1789,
		"stimulus": "../audio/14-2-masc.mp3",
		"response": " ",
		"word": "cachorro",
		"trial_type": "audio-keyboard-response",
		"trial_index": 108,
		"time_elapsed": 368583,
		"internal_node_id": "0.0-3.0-1.75"
	},
	{
		"rt": 1789,
		"stimulus": "../audio/14-3-masc.mp3",
		"response": " ",
		"word": "é",
		"trial_type": "audio-keyboard-response",
		"trial_index": 109,
		"time_elapsed": 373109,
		"internal_node_id": "0.0-3.0-1.76"
	},
	{
		"rt": 1379,
		"stimulus": "../audio/14-4-masc.mp3",
		"response": " ",
		"word": "muito",
		"trial_type": "audio-keyboard-response",
		"trial_index": 110,
		"time_elapsed": 377289,
		"internal_node_id": "0.0-3.0-1.77"
	},
	{
		"rt": 2659,
		"stimulus": "../audio/14-5-masc.mp3",
		"response": " ",
		"word": "fiel",
		"trial_type": "audio-keyboard-response",
		"trial_index": 111,
		"time_elapsed": 383052,
		"internal_node_id": "0.0-3.0-1.78"
	},
	{
		"rt": 1472,
		"stimulus": "../audio/14-6-masc.mp3",
		"response": " ",
		"word": "a",
		"trial_type": "audio-keyboard-response",
		"trial_index": 112,
		"time_elapsed": 387279,
		"internal_node_id": "0.0-3.0-1.79"
	},
	{
		"rt": 2821,
		"stimulus": "../audio/14-7-masc.mp3",
		"response": " ",
		"word": "seus",
		"trial_type": "audio-keyboard-response",
		"trial_index": 113,
		"time_elapsed": 393121,
		"internal_node_id": "0.0-3.0-1.80"
	},
	{
		"rt": 1261,
		"stimulus": "../audio/14-8-masc.mp3",
		"response": " ",
		"word": "donos.",
		"trial_type": "audio-keyboard-response",
		"trial_index": 114,
		"time_elapsed": 397157,
		"internal_node_id": "0.0-3.0-1.81"
	},
	{
		"rt": null,
		"stimulus": "<span style= \"font-size:30px; font-family: monospace\">+</span>",
		"response": null,
		"trial_part": "fixation",
		"trial_type": "html-keyboard-response",
		"trial_index": 115,
		"time_elapsed": 398426,
		"internal_node_id": "0.0-3.0-0.82-0.82"
	},
	{
		"rt": 1259,
		"stimulus": "../audio/11-1-masc.mp3",
		"response": " ",
		"word": "Elas",
		"trial_type": "audio-keyboard-response",
		"trial_index": 116,
		"time_elapsed": 402651,
		"internal_node_id": "0.0-3.0-1.82"
	},
	{
		"rt": 1291,
		"stimulus": "../audio/11-2-masc.mp3",
		"response": " ",
		"word": "gostam",
		"trial_type": "audio-keyboard-response",
		"trial_index": 117,
		"time_elapsed": 407102,
		"internal_node_id": "0.0-3.0-1.83"
	},
	{
		"rt": 1301,
		"stimulus": "../audio/11-3-masc.mp3",
		"response": " ",
		"word": "muito",
		"trial_type": "audio-keyboard-response",
		"trial_index": 118,
		"time_elapsed": 412667,
		"internal_node_id": "0.0-3.0-1.84"
	},
	{
		"rt": 1168,
		"stimulus": "../audio/11-4-masc.mp3",
		"response": " ",
		"word": "de",
		"trial_type": "audio-keyboard-response",
		"trial_index": 119,
		"time_elapsed": 416768,
		"internal_node_id": "0.0-3.0-1.85"
	},
	{
		"rt": 1632,
		"stimulus": "../audio/11-5-masc.mp3",
		"response": " ",
		"word": "aritmética",
		"trial_type": "audio-keyboard-response",
		"trial_index": 120,
		"time_elapsed": 421918,
		"internal_node_id": "0.0-3.0-1.86"
	},
	{
		"rt": 1291,
		"stimulus": "../audio/11-6-masc.mp3",
		"response": " ",
		"word": "e",
		"trial_type": "audio-keyboard-response",
		"trial_index": 121,
		"time_elapsed": 425923,
		"internal_node_id": "0.0-3.0-1.87"
	},
	{
		"rt": 1011,
		"stimulus": "../audio/11-7-masc.mp3",
		"response": " ",
		"word": "de",
		"trial_type": "audio-keyboard-response",
		"trial_index": 122,
		"time_elapsed": 430040,
		"internal_node_id": "0.0-3.0-1.88"
	},
	{
		"rt": 1600,
		"stimulus": "../audio/11-8-masc.mp3",
		"response": " ",
		"word": "leitura.",
		"trial_type": "audio-keyboard-response",
		"trial_index": 123,
		"time_elapsed": 435348,
		"internal_node_id": "0.0-3.0-1.89"
	},
	{
		"rt": null,
		"stimulus": "<span style= \"font-size:30px; font-family: monospace\">+</span>",
		"response": null,
		"trial_part": "fixation",
		"trial_type": "html-keyboard-response",
		"trial_index": 124,
		"time_elapsed": 436609,
		"internal_node_id": "0.0-3.0-0.90-0.90"
	},
	{
		"rt": 1171,
		"stimulus": "../audio/12-1-masc.mp3",
		"response": " ",
		"word": "O",
		"trial_type": "audio-keyboard-response",
		"trial_index": 125,
		"time_elapsed": 441428,
		"internal_node_id": "0.0-3.0-1.90"
	},
	{
		"rt": 1880,
		"stimulus": "../audio/12-2-masc.mp3",
		"response": " ",
		"word": "dia",
		"trial_type": "audio-keyboard-response",
		"trial_index": 126,
		"time_elapsed": 446330,
		"internal_node_id": "0.0-3.0-1.91"
	},
	{
		"rt": 1299,
		"stimulus": "../audio/12-3-masc.mp3",
		"response": " ",
		"word": "estava",
		"trial_type": "audio-keyboard-response",
		"trial_index": 127,
		"time_elapsed": 450662,
		"internal_node_id": "0.0-3.0-1.92"
	},
	{
		"rt": 1651,
		"stimulus": "../audio/12-4-masc.mp3",
		"response": " ",
		"word": "quente,",
		"trial_type": "audio-keyboard-response",
		"trial_index": 128,
		"time_elapsed": 455222,
		"internal_node_id": "0.0-3.0-1.93"
	},
	{
		"rt": 2621,
		"stimulus": "../audio/12-5-masc.mp3",
		"response": " ",
		"word": "tranquilo",
		"trial_type": "audio-keyboard-response",
		"trial_index": 129,
		"time_elapsed": 460644,
		"internal_node_id": "0.0-3.0-1.94"
	},
	{
		"rt": 1480,
		"stimulus": "../audio/12-6-masc.mp3",
		"response": " ",
		"word": "e",
		"trial_type": "audio-keyboard-response",
		"trial_index": 130,
		"time_elapsed": 464913,
		"internal_node_id": "0.0-3.0-1.95"
	},
	{
		"rt": 2019,
		"stimulus": "../audio/12-7-masc.mp3",
		"response": " ",
		"word": "ensolarado.",
		"trial_type": "audio-keyboard-response",
		"trial_index": 131,
		"time_elapsed": 470094,
		"internal_node_id": "0.0-3.0-1.96"
	},
	{
		"rt": null,
		"stimulus": "<span style= \"font-size:30px; font-family: monospace\">+</span>",
		"response": null,
		"trial_part": "fixation",
		"trial_type": "html-keyboard-response",
		"trial_index": 132,
		"time_elapsed": 471374,
		"internal_node_id": "0.0-3.0-0.97-0.97"
	},
	{
		"rt": 1368,
		"stimulus": "../audio/13-1-fem.mp3",
		"response": " ",
		"word": "Para",
		"trial_type": "audio-keyboard-response",
		"trial_index": 133,
		"time_elapsed": 475615,
		"internal_node_id": "0.0-3.0-1.97"
	},
	{
		"rt": 360,
		"stimulus": "../audio/13-2-fem.mp3",
		"response": " ",
		"word": "mim",
		"trial_type": "audio-keyboard-response",
		"trial_index": 134,
		"time_elapsed": 479094,
		"internal_node_id": "0.0-3.0-1.98"
	},
	{
		"rt": 1592,
		"stimulus": "../audio/13-3-fem.mp3",
		"response": " ",
		"word": "é",
		"trial_type": "audio-keyboard-response",
		"trial_index": 135,
		"time_elapsed": 481884,
		"internal_node_id": "0.0-3.0-1.99"
	},
	{
		"rt": 1328,
		"stimulus": "../audio/13-4-fem.mp3",
		"response": " ",
		"word": "muito",
		"trial_type": "audio-keyboard-response",
		"trial_index": 136,
		"time_elapsed": 486167,
		"internal_node_id": "0.0-3.0-1.100"
	},
	{
		"rt": 1461,
		"stimulus": "../audio/13-5-fem.mp3",
		"response": " ",
		"word": "difícil",
		"trial_type": "audio-keyboard-response",
		"trial_index": 137,
		"time_elapsed": 490726,
		"internal_node_id": "0.0-3.0-1.101"
	},
	{
		"rt": 3312,
		"stimulus": "../audio/13-6-fem.mp3",
		"response": " ",
		"word": "acordar",
		"trial_type": "audio-keyboard-response",
		"trial_index": 138,
		"time_elapsed": 497044,
		"internal_node_id": "0.0-3.0-1.102"
	},
	{
		"rt": 1331,
		"stimulus": "../audio/13-7-fem.mp3",
		"response": " ",
		"word": "cedo.",
		"trial_type": "audio-keyboard-response",
		"trial_index": 139,
		"time_elapsed": 501513,
		"internal_node_id": "0.0-3.0-1.103"
	},
	{
		"rt": null,
		"stimulus": "<span style= \"font-size:30px; font-family: monospace\">+</span>",
		"response": null,
		"trial_part": "fixation",
		"trial_type": "html-keyboard-response",
		"trial_index": 140,
		"time_elapsed": 502769,
		"internal_node_id": "0.0-3.0-0.104-0.104"
	},
	{
		"rt": 1269,
		"stimulus": "../audio/15-1-masc.mp3",
		"response": " ",
		"word": "Meu",
		"trial_type": "audio-keyboard-response",
		"trial_index": 141,
		"time_elapsed": 506868,
		"internal_node_id": "0.0-3.0-1.104"
	},
	{
		"rt": 3552,
		"stimulus": "../audio/15-2-masc.mp3",
		"response": " ",
		"word": "primo",
		"trial_type": "audio-keyboard-response",
		"trial_index": 142,
		"time_elapsed": 513524,
		"internal_node_id": "0.0-3.0-1.105"
	},
	{
		"rt": 2992,
		"stimulus": "../audio/15-3-masc.mp3",
		"response": " ",
		"word": "é",
		"trial_type": "audio-keyboard-response",
		"trial_index": 143,
		"time_elapsed": 519445,
		"internal_node_id": "0.0-3.0-1.106"
	},
	{
		"rt": 1331,
		"stimulus": "../audio/15-4-masc.mp3",
		"response": " ",
		"word": "um",
		"trial_type": "audio-keyboard-response",
		"trial_index": 144,
		"time_elapsed": 523637,
		"internal_node_id": "0.0-3.0-1.107"
	},
	{
		"rt": 1259,
		"stimulus": "../audio/15-5-masc.mp3",
		"response": " ",
		"word": "grande",
		"trial_type": "audio-keyboard-response",
		"trial_index": 145,
		"time_elapsed": 528058,
		"internal_node_id": "0.0-3.0-1.108"
	},
	{
		"rt": 1421,
		"stimulus": "../audio/15-6-masc.mp3",
		"response": " ",
		"word": "vendedor",
		"trial_type": "audio-keyboard-response",
		"trial_index": 146,
		"time_elapsed": 532685,
		"internal_node_id": "0.0-3.0-1.109"
	},
	{
		"rt": 1360,
		"stimulus": "../audio/15-7-masc.mp3",
		"response": " ",
		"word": "de",
		"trial_type": "audio-keyboard-response",
		"trial_index": 147,
		"time_elapsed": 537021,
		"internal_node_id": "0.0-3.0-1.110"
	},
	{
		"rt": 1312,
		"stimulus": "../audio/15-8-masc.mp3",
		"response": " ",
		"word": "carros.",
		"trial_type": "audio-keyboard-response",
		"trial_index": 148,
		"time_elapsed": 542121,
		"internal_node_id": "0.0-3.0-1.111"
	},
	{
		"rt": 2718,
		"stimulus": "<span style=\"font-size:25px; font-family: monospace\">O primo é um vendedor de carros?</span>",
		"response": "s",
		"question": "O primo é um vendedor de carros?",
		"answer": "null",
		"trial": "exp-sent",
		"trial_type": "html-keyboard-response",
		"trial_index": 149,
		"time_elapsed": 545104,
		"internal_node_id": "0.0-3.0-2.111-0.111",
		"accuracy": false
	},
	{
		"rt": null,
		"stimulus": "<span style= \"font-size:30px; font-family: monospace\">+</span>",
		"response": null,
		"trial_part": "fixation",
		"trial_type": "html-keyboard-response",
		"trial_index": 150,
		"time_elapsed": 546638,
		"internal_node_id": "0.0-3.0-0.112-0.112"
	},
	{
		"rt": 1109,
		"stimulus": "../audio/18-1-masc.mp3",
		"response": " ",
		"word": "O",
		"trial_type": "audio-keyboard-response",
		"trial_index": 151,
		"time_elapsed": 550577,
		"internal_node_id": "0.0-3.0-1.112"
	},
	{
		"rt": 1979,
		"stimulus": "../audio/18-2-masc.mp3",
		"response": " ",
		"word": "enredo",
		"trial_type": "audio-keyboard-response",
		"trial_index": 152,
		"time_elapsed": 556017,
		"internal_node_id": "0.0-3.0-1.113"
	},
	{
		"rt": 1131,
		"stimulus": "../audio/18-3-masc.mp3",
		"response": " ",
		"word": "traz",
		"trial_type": "audio-keyboard-response",
		"trial_index": 153,
		"time_elapsed": 559906,
		"internal_node_id": "0.0-3.0-1.114"
	},
	{
		"rt": 979,
		"stimulus": "../audio/18-4-masc.mp3",
		"response": " ",
		"word": "um",
		"trial_type": "audio-keyboard-response",
		"trial_index": 154,
		"time_elapsed": 564104,
		"internal_node_id": "0.0-3.0-1.115"
	},
	{
		"rt": 1272,
		"stimulus": "../audio/18-5-masc.mp3",
		"response": " ",
		"word": "dragão",
		"trial_type": "audio-keyboard-response",
		"trial_index": 155,
		"time_elapsed": 568917,
		"internal_node_id": "0.0-3.0-1.116"
	},
	{
		"rt": 920,
		"stimulus": "../audio/18-6-masc.mp3",
		"response": " ",
		"word": "forte",
		"trial_type": "audio-keyboard-response",
		"trial_index": 156,
		"time_elapsed": 573078,
		"internal_node_id": "0.0-3.0-1.117"
	},
	{
		"rt": 1160,
		"stimulus": "../audio/18-7-masc.mp3",
		"response": " ",
		"word": "e",
		"trial_type": "audio-keyboard-response",
		"trial_index": 157,
		"time_elapsed": 577819,
		"internal_node_id": "0.0-3.0-1.118"
	},
	{
		"rt": 1421,
		"stimulus": "../audio/18-8-masc.mp3",
		"response": " ",
		"word": "solitário.",
		"trial_type": "audio-keyboard-response",
		"trial_index": 158,
		"time_elapsed": 582521,
		"internal_node_id": "0.0-3.0-1.119"
	},
	{
		"rt": null,
		"stimulus": "<span style= \"font-size:30px; font-family: monospace\">+</span>",
		"response": null,
		"trial_part": "fixation",
		"trial_type": "html-keyboard-response",
		"trial_index": 159,
		"time_elapsed": 583794,
		"internal_node_id": "0.0-3.0-0.120-0.120"
	},
	{
		"rt": 1331,
		"stimulus": "../audio/17-1-fem.mp3",
		"response": " ",
		"word": "Falaram",
		"trial_type": "audio-keyboard-response",
		"trial_index": 160,
		"time_elapsed": 588392,
		"internal_node_id": "0.0-3.0-1.120"
	},
	{
		"rt": 979,
		"stimulus": "../audio/17-2-fem.mp3",
		"response": " ",
		"word": "da",
		"trial_type": "audio-keyboard-response",
		"trial_index": 161,
		"time_elapsed": 592453,
		"internal_node_id": "0.0-3.0-1.121"
	},
	{
		"rt": 2211,
		"stimulus": "../audio/17-3-fem.mp3",
		"response": " ",
		"word": "lei",
		"trial_type": "audio-keyboard-response",
		"trial_index": 162,
		"time_elapsed": 598111,
		"internal_node_id": "0.0-3.0-1.122"
	},
	{
		"rt": 1779,
		"stimulus": "../audio/17-4-fem.mp3",
		"response": " ",
		"word": "no",
		"trial_type": "audio-keyboard-response",
		"trial_index": 163,
		"time_elapsed": 602728,
		"internal_node_id": "0.0-3.0-1.123"
	},
	{
		"rt": 2240,
		"stimulus": "../audio/17-5-fem.mp3",
		"response": " ",
		"word": "ministério",
		"trial_type": "audio-keyboard-response",
		"trial_index": 164,
		"time_elapsed": 607818,
		"internal_node_id": "0.0-3.0-1.124"
	},
	{
		"rt": 280,
		"stimulus": "../audio/17-6-fem.mp3",
		"response": " ",
		"word": "diversas",
		"trial_type": "audio-keyboard-response",
		"trial_index": 165,
		"time_elapsed": 611924,
		"internal_node_id": "0.0-3.0-1.125"
	},
	{
		"rt": 4448,
		"stimulus": "../audio/17-7-fem.mp3",
		"response": " ",
		"word": "vezes.",
		"trial_type": "audio-keyboard-response",
		"trial_index": 166,
		"time_elapsed": 617534,
		"internal_node_id": "0.0-3.0-1.126"
	},
	{
		"rt": null,
		"stimulus": "<span style= \"font-size:30px; font-family: monospace\">+</span>",
		"response": null,
		"trial_part": "fixation",
		"trial_type": "html-keyboard-response",
		"trial_index": 167,
		"time_elapsed": 618804,
		"internal_node_id": "0.0-3.0-0.127-0.127"
	},
	{
		"rt": 1061,
		"stimulus": "../audio/19-1-masc.mp3",
		"response": " ",
		"word": "O",
		"trial_type": "audio-keyboard-response",
		"trial_index": 168,
		"time_elapsed": 622599,
		"internal_node_id": "0.0-3.0-1.127"
	},
	{
		"rt": 1072,
		"stimulus": "../audio/19-2-masc.mp3",
		"response": " ",
		"word": "menino",
		"trial_type": "audio-keyboard-response",
		"trial_index": 169,
		"time_elapsed": 628364,
		"internal_node_id": "0.0-3.0-1.128"
	},
	{
		"rt": 1448,
		"stimulus": "../audio/19-3-masc.mp3",
		"response": " ",
		"word": "ganhou",
		"trial_type": "audio-keyboard-response",
		"trial_index": 170,
		"time_elapsed": 634335,
		"internal_node_id": "0.0-3.0-1.129"
	},
	{
		"rt": 1240,
		"stimulus": "../audio/19-4-masc.mp3",
		"response": " ",
		"word": "uma",
		"trial_type": "audio-keyboard-response",
		"trial_index": 171,
		"time_elapsed": 638445,
		"internal_node_id": "0.0-3.0-1.130"
	},
	{
		"rt": 1589,
		"stimulus": "../audio/19-5-masc.mp3",
		"response": " ",
		"word": "bala",
		"trial_type": "audio-keyboard-response",
		"trial_index": 172,
		"time_elapsed": 643473,
		"internal_node_id": "0.0-3.0-1.131"
	},
	{
		"rt": 1749,
		"stimulus": "../audio/19-6-masc.mp3",
		"response": " ",
		"word": "depois",
		"trial_type": "audio-keyboard-response",
		"trial_index": 173,
		"time_elapsed": 648333,
		"internal_node_id": "0.0-3.0-1.132"
	},
	{
		"rt": 1720,
		"stimulus": "../audio/19-7-masc.mp3",
		"response": " ",
		"word": "do",
		"trial_type": "audio-keyboard-response",
		"trial_index": 174,
		"time_elapsed": 652835,
		"internal_node_id": "0.0-3.0-1.133"
	},
	{
		"rt": 1861,
		"stimulus": "../audio/19-8-masc.mp3",
		"response": " ",
		"word": "almoço.",
		"trial_type": "audio-keyboard-response",
		"trial_index": 175,
		"time_elapsed": 657787,
		"internal_node_id": "0.0-3.0-1.134"
	},
	{
		"rt": null,
		"stimulus": "<span style= \"font-size:30px; font-family: monospace\">+</span>",
		"response": null,
		"trial_part": "fixation",
		"trial_type": "html-keyboard-response",
		"trial_index": 176,
		"time_elapsed": 659072,
		"internal_node_id": "0.0-3.0-0.135-0.135"
	},
	{
		"rt": 3440,
		"stimulus": "../audio/16-1-masc.mp3",
		"response": " ",
		"word": "Eu",
		"trial_type": "audio-keyboard-response",
		"trial_index": 177,
		"time_elapsed": 666251,
		"internal_node_id": "0.0-3.0-1.135"
	},
	{
		"rt": 1331,
		"stimulus": "../audio/16-2-masc.mp3",
		"response": " ",
		"word": "nunca",
		"trial_type": "audio-keyboard-response",
		"trial_index": 178,
		"time_elapsed": 670298,
		"internal_node_id": "0.0-3.0-1.136"
	},
	{
		"rt": 1291,
		"stimulus": "../audio/16-3-masc.mp3",
		"response": " ",
		"word": "conheci",
		"trial_type": "audio-keyboard-response",
		"trial_index": 179,
		"time_elapsed": 674780,
		"internal_node_id": "0.0-3.0-1.137"
	},
	{
		"rt": 1080,
		"stimulus": "../audio/16-4-masc.mp3",
		"response": " ",
		"word": "um",
		"trial_type": "audio-keyboard-response",
		"trial_index": 180,
		"time_elapsed": 679205,
		"internal_node_id": "0.0-3.0-1.138"
	},
	{
		"rt": 1549,
		"stimulus": "../audio/16-5-masc.mp3",
		"response": " ",
		"word": "general",
		"trial_type": "audio-keyboard-response",
		"trial_index": 181,
		"time_elapsed": 684050,
		"internal_node_id": "0.0-3.0-1.139"
	},
	{
		"rt": 1712,
		"stimulus": "../audio/16-6-masc.mp3",
		"response": " ",
		"word": "do",
		"trial_type": "audio-keyboard-response",
		"trial_index": 182,
		"time_elapsed": 688722,
		"internal_node_id": "0.0-3.0-1.140"
	},
	{
		"rt": 1659,
		"stimulus": "../audio/16-7-masc.mp3",
		"response": " ",
		"word": "exército.",
		"trial_type": "audio-keyboard-response",
		"trial_index": 183,
		"time_elapsed": 693174,
		"internal_node_id": "0.0-3.0-1.141"
	},
	{
		"rt": null,
		"stimulus": "<span style= \"font-size:30px; font-family: monospace\">+</span>",
		"response": null,
		"trial_part": "fixation",
		"trial_type": "html-keyboard-response",
		"trial_index": 184,
		"time_elapsed": 694444,
		"internal_node_id": "0.0-3.0-0.142-0.142"
	},
	{
		"rt": 1600,
		"stimulus": "../audio/20-1-fem.mp3",
		"response": " ",
		"word": "O",
		"trial_type": "audio-keyboard-response",
		"trial_index": 185,
		"time_elapsed": 698830,
		"internal_node_id": "0.0-3.0-1.142"
	},
	{
		"rt": 1440,
		"stimulus": "../audio/20-2-fem.mp3",
		"response": " ",
		"word": "colega",
		"trial_type": "audio-keyboard-response",
		"trial_index": 186,
		"time_elapsed": 703127,
		"internal_node_id": "0.0-3.0-1.143"
	},
	{
		"rt": 1349,
		"stimulus": "../audio/20-3-fem.mp3",
		"response": " ",
		"word": "parecia",
		"trial_type": "audio-keyboard-response",
		"trial_index": 187,
		"time_elapsed": 707491,
		"internal_node_id": "0.0-3.0-1.144"
	},
	{
		"rt": 1259,
		"stimulus": "../audio/20-4-fem.mp3",
		"response": " ",
		"word": "muito",
		"trial_type": "audio-keyboard-response",
		"trial_index": 188,
		"time_elapsed": 711774,
		"internal_node_id": "0.0-3.0-1.145"
	},
	{
		"rt": 1659,
		"stimulus": "../audio/20-5-fem.mp3",
		"response": " ",
		"word": "gripado",
		"trial_type": "audio-keyboard-response",
		"trial_index": 189,
		"time_elapsed": 716576,
		"internal_node_id": "0.0-3.0-1.146"
	},
	{
		"rt": 5232,
		"stimulus": "../audio/20-6-fem.mp3",
		"response": " ",
		"word": "no",
		"trial_type": "audio-keyboard-response",
		"trial_index": 190,
		"time_elapsed": 724646,
		"internal_node_id": "0.0-3.0-1.147"
	},
	{
		"rt": 1520,
		"stimulus": "../audio/20-7-fem.mp3",
		"response": " ",
		"word": "dia",
		"trial_type": "audio-keyboard-response",
		"trial_index": 191,
		"time_elapsed": 729065,
		"internal_node_id": "0.0-3.0-1.148"
	},
	{
		"rt": 2560,
		"stimulus": "../audio/20-8-fem.mp3",
		"response": " ",
		"word": "anterior.",
		"trial_type": "audio-keyboard-response",
		"trial_index": 192,
		"time_elapsed": 734612,
		"internal_node_id": "0.0-3.0-1.149"
	},
	{
		"rt": 3219,
		"stimulus": "<span style=\"font-size:25px; font-family: monospace\">O colega parecia muito gripado?</span>",
		"response": "s",
		"question": "O colega parecia muito gripado?",
		"answer": "null",
		"trial": "exp-sent",
		"trial_type": "html-keyboard-response",
		"trial_index": 193,
		"time_elapsed": 738084,
		"internal_node_id": "0.0-3.0-2.149-0.149",
		"accuracy": false
	},
	{
		"rt": null,
		"stimulus": "<span style= \"font-size:30px; font-family: monospace\">+</span>",
		"response": null,
		"trial_part": "fixation",
		"trial_type": "html-keyboard-response",
		"trial_index": 194,
		"time_elapsed": 739593,
		"internal_node_id": "0.0-3.0-0.150-0.150"
	},
	{
		"rt": 1979,
		"stimulus": "../audio/77-1-fem.mp3",
		"response": " ",
		"word": "A",
		"trial_type": "audio-keyboard-response",
		"trial_index": 195,
		"time_elapsed": 744262,
		"internal_node_id": "0.0-3.0-1.150"
	},
	{
		"rt": 1299,
		"stimulus": "../audio/77-2-fem.mp3",
		"response": " ",
		"word": "criança",
		"trial_type": "audio-keyboard-response",
		"trial_index": 196,
		"time_elapsed": 748375,
		"internal_node_id": "0.0-3.0-1.151"
	},
	{
		"rt": 1368,
		"stimulus": "../audio/77-3-fem.mp3",
		"response": " ",
		"word": "ficou",
		"trial_type": "audio-keyboard-response",
		"trial_index": 197,
		"time_elapsed": 752767,
		"internal_node_id": "0.0-3.0-1.152"
	},
	{
		"rt": 1469,
		"stimulus": "../audio/77-4-fem.mp3",
		"response": " ",
		"word": "muito",
		"trial_type": "audio-keyboard-response",
		"trial_index": 198,
		"time_elapsed": 757657,
		"internal_node_id": "0.0-3.0-1.153"
	},
	{
		"rt": 1949,
		"stimulus": "../audio/77-5-fem.mp3",
		"response": " ",
		"word": "feliz",
		"trial_type": "audio-keyboard-response",
		"trial_index": 199,
		"time_elapsed": 762632,
		"internal_node_id": "0.0-3.0-1.154"
	},
	{
		"rt": 1629,
		"stimulus": "../audio/77-6-fem.mp3",
		"response": " ",
		"word": "com",
		"trial_type": "audio-keyboard-response",
		"trial_index": 200,
		"time_elapsed": 767097,
		"internal_node_id": "0.0-3.0-1.155"
	},
	{
		"rt": 4571,
		"stimulus": "../audio/77-7-fem.mp3",
		"response": " ",
		"word": "o",
		"trial_type": "audio-keyboard-response",
		"trial_index": 201,
		"time_elapsed": 774459,
		"internal_node_id": "0.0-3.0-1.156"
	},
	{
		"rt": 2968,
		"stimulus": "../audio/77-8-fem.mp3",
		"response": " ",
		"word": "brinquedo.",
		"trial_type": "audio-keyboard-response",
		"trial_index": 202,
		"time_elapsed": 780248,
		"internal_node_id": "0.0-3.0-1.157"
	},
	{
		"rt": null,
		"stimulus": "<span style= \"font-size:30px; font-family: monospace\">+</span>",
		"response": null,
		"trial_part": "fixation",
		"trial_type": "html-keyboard-response",
		"trial_index": 203,
		"time_elapsed": 781514,
		"internal_node_id": "0.0-3.0-0.158-0.158"
	},
	{
		"rt": 1379,
		"stimulus": "../audio/78-1-masc.mp3",
		"response": " ",
		"word": "Eles",
		"trial_type": "audio-keyboard-response",
		"trial_index": 204,
		"time_elapsed": 785538,
		"internal_node_id": "0.0-3.0-1.158"
	},
	{
		"rt": 1469,
		"stimulus": "../audio/78-2-masc.mp3",
		"response": " ",
		"word": "trazem",
		"trial_type": "audio-keyboard-response",
		"trial_index": 205,
		"time_elapsed": 790426,
		"internal_node_id": "0.0-3.0-1.159"
	},
	{
		"rt": 1411,
		"stimulus": "../audio/78-3-masc.mp3",
		"response": " ",
		"word": "um",
		"trial_type": "audio-keyboard-response",
		"trial_index": 206,
		"time_elapsed": 794839,
		"internal_node_id": "0.0-3.0-1.160"
	},
	{
		"rt": 1739,
		"stimulus": "../audio/78-4-masc.mp3",
		"response": " ",
		"word": "fato",
		"trial_type": "audio-keyboard-response",
		"trial_index": 207,
		"time_elapsed": 799625,
		"internal_node_id": "0.0-3.0-1.161"
	},
	{
		"rt": 2099,
		"stimulus": "../audio/78-5-masc.mp3",
		"response": " ",
		"word": "urgente",
		"trial_type": "audio-keyboard-response",
		"trial_index": 208,
		"time_elapsed": 804576,
		"internal_node_id": "0.0-3.0-1.162"
	},
	{
		"rt": 1360,
		"stimulus": "../audio/78-6-masc.mp3",
		"response": " ",
		"word": "todos",
		"trial_type": "audio-keyboard-response",
		"trial_index": 209,
		"time_elapsed": 808857,
		"internal_node_id": "0.0-3.0-1.163"
	},
	{
		"rt": 1160,
		"stimulus": "../audio/78-7-masc.mp3",
		"response": " ",
		"word": "os",
		"trial_type": "audio-keyboard-response",
		"trial_index": 210,
		"time_elapsed": 812957,
		"internal_node_id": "0.0-3.0-1.164"
	},
	{
		"rt": 1560,
		"stimulus": "../audio/78-8-masc.mp3",
		"response": " ",
		"word": "dias.",
		"trial_type": "audio-keyboard-response",
		"trial_index": 211,
		"time_elapsed": 817908,
		"internal_node_id": "0.0-3.0-1.165"
	},
	{
		"rt": null,
		"stimulus": "<span style= \"font-size:30px; font-family: monospace\">+</span>",
		"response": null,
		"trial_part": "fixation",
		"trial_type": "html-keyboard-response",
		"trial_index": 212,
		"time_elapsed": 819183,
		"internal_node_id": "0.0-3.0-0.166-0.166"
	},
	{
		"rt": 3331,
		"stimulus": "../audio/79-1-masc.mp3",
		"response": " ",
		"word": "A",
		"trial_type": "audio-keyboard-response",
		"trial_index": 213,
		"time_elapsed": 825310,
		"internal_node_id": "0.0-3.0-1.166"
	},
	{
		"rt": 2341,
		"stimulus": "../audio/79-2-masc.mp3",
		"response": " ",
		"word": "médica",
		"trial_type": "audio-keyboard-response",
		"trial_index": 214,
		"time_elapsed": 830362,
		"internal_node_id": "0.0-3.0-1.167"
	},
	{
		"rt": 1619,
		"stimulus": "../audio/79-3-masc.mp3",
		"response": " ",
		"word": "verificou",
		"trial_type": "audio-keyboard-response",
		"trial_index": 215,
		"time_elapsed": 834818,
		"internal_node_id": "0.0-3.0-1.168"
	},
	{
		"rt": 1541,
		"stimulus": "../audio/79-4-masc.mp3",
		"response": " ",
		"word": "a",
		"trial_type": "audio-keyboard-response",
		"trial_index": 216,
		"time_elapsed": 839279,
		"internal_node_id": "0.0-3.0-1.169"
	},
	{
		"rt": 1749,
		"stimulus": "../audio/79-5-masc.mp3",
		"response": " ",
		"word": "gengiva",
		"trial_type": "audio-keyboard-response",
		"trial_index": 217,
		"time_elapsed": 844582,
		"internal_node_id": "0.0-3.0-1.170"
	},
	{
		"rt": 1291,
		"stimulus": "../audio/79-6-masc.mp3",
		"response": " ",
		"word": "por",
		"trial_type": "audio-keyboard-response",
		"trial_index": 218,
		"time_elapsed": 848831,
		"internal_node_id": "0.0-3.0-1.171"
	},
	{
		"rt": 2821,
		"stimulus": "../audio/79-7-masc.mp3",
		"response": " ",
		"word": "último.",
		"trial_type": "audio-keyboard-response",
		"trial_index": 219,
		"time_elapsed": 854958,
		"internal_node_id": "0.0-3.0-1.172"
	},
	{
		"rt": null,
		"stimulus": "<span style= \"font-size:30px; font-family: monospace\">+</span>",
		"response": null,
		"trial_part": "fixation",
		"trial_type": "html-keyboard-response",
		"trial_index": 220,
		"time_elapsed": 856232,
		"internal_node_id": "0.0-3.0-0.173-0.173"
	},
	{
		"rt": 1389,
		"stimulus": "../audio/76-1-masc.mp3",
		"response": " ",
		"word": "O",
		"trial_type": "audio-keyboard-response",
		"trial_index": 221,
		"time_elapsed": 861392,
		"internal_node_id": "0.0-3.0-1.173"
	},
	{
		"rt": 1781,
		"stimulus": "../audio/76-2-masc.mp3",
		"response": " ",
		"word": "bisavô",
		"trial_type": "audio-keyboard-response",
		"trial_index": 222,
		"time_elapsed": 867909,
		"internal_node_id": "0.0-3.0-1.174"
	},
	{
		"rt": 1909,
		"stimulus": "../audio/76-3-masc.mp3",
		"response": " ",
		"word": "comprou",
		"trial_type": "audio-keyboard-response",
		"trial_index": 223,
		"time_elapsed": 872951,
		"internal_node_id": "0.0-3.0-1.175"
	},
	{
		"rt": 1480,
		"stimulus": "../audio/76-4-masc.mp3",
		"response": " ",
		"word": "um",
		"trial_type": "audio-keyboard-response",
		"trial_index": 224,
		"time_elapsed": 877174,
		"internal_node_id": "0.0-3.0-1.176"
	},
	{
		"rt": 1779,
		"stimulus": "../audio/76-5-masc.mp3",
		"response": " ",
		"word": "ralador",
		"trial_type": "audio-keyboard-response",
		"trial_index": 225,
		"time_elapsed": 882288,
		"internal_node_id": "0.0-3.0-1.177"
	},
	{
		"rt": 1061,
		"stimulus": "../audio/76-6-masc.mp3",
		"response": " ",
		"word": "de",
		"trial_type": "audio-keyboard-response",
		"trial_index": 226,
		"time_elapsed": 886041,
		"internal_node_id": "0.0-3.0-1.178"
	},
	{
		"rt": 1389,
		"stimulus": "../audio/76-7-masc.mp3",
		"response": " ",
		"word": "queijo.",
		"trial_type": "audio-keyboard-response",
		"trial_index": 227,
		"time_elapsed": 890887,
		"internal_node_id": "0.0-3.0-1.179"
	},
	{
		"rt": null,
		"stimulus": "<span style= \"font-size:30px; font-family: monospace\">+</span>",
		"response": null,
		"trial_part": "fixation",
		"trial_type": "html-keyboard-response",
		"trial_index": 228,
		"time_elapsed": 892154,
		"internal_node_id": "0.0-3.0-0.180-0.180"
	},
	{
		"rt": 1541,
		"stimulus": "../audio/80-1-fem.mp3",
		"response": " ",
		"word": "Meu",
		"trial_type": "audio-keyboard-response",
		"trial_index": 229,
		"time_elapsed": 896440,
		"internal_node_id": "0.0-3.0-1.180"
	},
	{
		"rt": 2251,
		"stimulus": "../audio/80-2-fem.mp3",
		"response": " ",
		"word": "primo",
		"trial_type": "audio-keyboard-response",
		"trial_index": 230,
		"time_elapsed": 901710,
		"internal_node_id": "0.0-3.0-1.181"
	},
	{
		"rt": 2149,
		"stimulus": "../audio/80-3-fem.mp3",
		"response": " ",
		"word": "conheceu",
		"trial_type": "audio-keyboard-response",
		"trial_index": 231,
		"time_elapsed": 906688,
		"internal_node_id": "0.0-3.0-1.182"
	},
	{
		"rt": 1141,
		"stimulus": "../audio/80-4-fem.mp3",
		"response": " ",
		"word": "um",
		"trial_type": "audio-keyboard-response",
		"trial_index": 232,
		"time_elapsed": 910567,
		"internal_node_id": "0.0-3.0-1.183"
	},
	{
		"rt": 2181,
		"stimulus": "../audio/80-5-fem.mp3",
		"response": " ",
		"word": "jovem",
		"trial_type": "audio-keyboard-response",
		"trial_index": 233,
		"time_elapsed": 917083,
		"internal_node_id": "0.0-3.0-1.184"
	},
	{
		"rt": 2291,
		"stimulus": "../audio/80-6-fem.mp3",
		"response": " ",
		"word": "amável",
		"trial_type": "audio-keyboard-response",
		"trial_index": 234,
		"time_elapsed": 922137,
		"internal_node_id": "0.0-3.0-1.185"
	},
	{
		"rt": 2469,
		"stimulus": "../audio/80-7-fem.mp3",
		"response": " ",
		"word": "e",
		"trial_type": "audio-keyboard-response",
		"trial_index": 235,
		"time_elapsed": 928756,
		"internal_node_id": "0.0-3.0-1.186"
	},
	{
		"rt": 1320,
		"stimulus": "../audio/80-8-fem.mp3",
		"response": " ",
		"word": "confiante.",
		"trial_type": "audio-keyboard-response",
		"trial_index": 236,
		"time_elapsed": 932886,
		"internal_node_id": "0.0-3.0-1.187"
	},
	{
		"rt": 2474,
		"stimulus": "<span style=\"font-size:25px; font-family: monospace\">O primo conheceu um jovem irritante?</span>",
		"response": "n",
		"question": "O primo conheceu um jovem irritante?",
		"answer": "null",
		"trial": "exp-sent",
		"trial_type": "html-keyboard-response",
		"trial_index": 237,
		"time_elapsed": 935629,
		"internal_node_id": "0.0-3.0-2.187-0.187",
		"accuracy": false
	},
	{
		"rt": null,
		"stimulus": "<span style= \"font-size:30px; font-family: monospace\">+</span>",
		"response": null,
		"trial_part": "fixation",
		"trial_type": "html-keyboard-response",
		"trial_index": 238,
		"time_elapsed": 937159,
		"internal_node_id": "0.0-3.0-0.188-0.188"
	},
	{
		"rt": 2451,
		"stimulus": "../audio/33-1-masc.mp3",
		"response": " ",
		"word": "Eles",
		"trial_type": "audio-keyboard-response",
		"trial_index": 239,
		"time_elapsed": 939898,
		"internal_node_id": "0.0-3.0-1.188"
	},
	{
		"rt": 1800,
		"stimulus": "../audio/33-2-masc.mp3",
		"response": " ",
		"word": "sabem",
		"trial_type": "audio-keyboard-response",
		"trial_index": 240,
		"time_elapsed": 942005,
		"internal_node_id": "0.0-3.0-1.189"
	},
	{
		"rt": 1309,
		"stimulus": "../audio/33-3-masc.mp3",
		"response": " ",
		"word": "do",
		"trial_type": "audio-keyboard-response",
		"trial_index": 241,
		"time_elapsed": 943611,
		"internal_node_id": "0.0-3.0-1.190"
	},
	{
		"rt": 1200,
		"stimulus": "../audio/33-4-masc.mp3",
		"response": " ",
		"word": "seu",
		"trial_type": "audio-keyboard-response",
		"trial_index": 242,
		"time_elapsed": 945116,
		"internal_node_id": "0.0-3.0-1.191"
	},
	{
		"rt": 1120,
		"stimulus": "../audio/33-5-masc.mp3",
		"response": " ",
		"word": "privilégio",
		"trial_type": "audio-keyboard-response",
		"trial_index": 243,
		"time_elapsed": 946551,
		"internal_node_id": "0.0-3.0-1.192"
	},
	{
		"rt": 1261,
		"stimulus": "../audio/33-6-masc.mp3",
		"response": " ",
		"word": "nessa",
		"trial_type": "audio-keyboard-response",
		"trial_index": 244,
		"time_elapsed": 948119,
		"internal_node_id": "0.0-3.0-1.193"
	},
	{
		"rt": 1491,
		"stimulus": "../audio/33-7-masc.mp3",
		"response": " ",
		"word": "confusão.",
		"trial_type": "audio-keyboard-response",
		"trial_index": 245,
		"time_elapsed": 949913,
		"internal_node_id": "0.0-3.0-1.194"
	},
	{
		"rt": null,
		"stimulus": "<span style= \"font-size:30px; font-family: monospace\">+</span>",
		"response": null,
		"trial_part": "fixation",
		"trial_type": "html-keyboard-response",
		"trial_index": 246,
		"time_elapsed": 951185,
		"internal_node_id": "0.0-3.0-0.195-0.195"
	},
	{
		"rt": 829,
		"stimulus": "../audio/32-1-masc.mp3",
		"response": " ",
		"word": "A",
		"trial_type": "audio-keyboard-response",
		"trial_index": 247,
		"time_elapsed": 952336,
		"internal_node_id": "0.0-3.0-1.195"
	},
	{
		"rt": 1181,
		"stimulus": "../audio/32-2-masc.mp3",
		"response": " ",
		"word": "tia",
		"trial_type": "audio-keyboard-response",
		"trial_index": 248,
		"time_elapsed": 953832,
		"internal_node_id": "0.0-3.0-1.196"
	},
	{
		"rt": 1061,
		"stimulus": "../audio/32-3-masc.mp3",
		"response": " ",
		"word": "comprou",
		"trial_type": "audio-keyboard-response",
		"trial_index": 249,
		"time_elapsed": 955201,
		"internal_node_id": "0.0-3.0-1.197"
	},
	{
		"rt": 971,
		"stimulus": "../audio/32-4-masc.mp3",
		"response": " ",
		"word": "um",
		"trial_type": "audio-keyboard-response",
		"trial_index": 250,
		"time_elapsed": 956470,
		"internal_node_id": "0.0-3.0-1.198"
	},
	{
		"rt": 1272,
		"stimulus": "../audio/32-5-masc.mp3",
		"response": " ",
		"word": "pilão",
		"trial_type": "audio-keyboard-response",
		"trial_index": 251,
		"time_elapsed": 958040,
		"internal_node_id": "0.0-3.0-1.199"
	},
	{
		"rt": 1109,
		"stimulus": "../audio/32-6-masc.mp3",
		"response": " ",
		"word": "para",
		"trial_type": "audio-keyboard-response",
		"trial_index": 252,
		"time_elapsed": 959447,
		"internal_node_id": "0.0-3.0-1.200"
	},
	{
		"rt": 1509,
		"stimulus": "../audio/32-7-masc.mp3",
		"response": " ",
		"word": "a",
		"trial_type": "audio-keyboard-response",
		"trial_index": 253,
		"time_elapsed": 961252,
		"internal_node_id": "0.0-3.0-1.201"
	},
	{
		"rt": 1069,
		"stimulus": "../audio/32-8-masc.mp3",
		"response": " ",
		"word": "cozinha.",
		"trial_type": "audio-keyboard-response",
		"trial_index": 254,
		"time_elapsed": 962635,
		"internal_node_id": "0.0-3.0-1.202"
	},
	{
		"rt": null,
		"stimulus": "<span style= \"font-size:30px; font-family: monospace\">+</span>",
		"response": null,
		"trial_part": "fixation",
		"trial_type": "html-keyboard-response",
		"trial_index": 255,
		"time_elapsed": 963919,
		"internal_node_id": "0.0-3.0-0.203-0.203"
	},
	{
		"rt": 1131,
		"stimulus": "../audio/34-1-fem.mp3",
		"response": " ",
		"word": "Cobrança",
		"trial_type": "audio-keyboard-response",
		"trial_index": 256,
		"time_elapsed": 965350,
		"internal_node_id": "0.0-3.0-1.203"
	},
	{
		"rt": 1560,
		"stimulus": "../audio/34-2-fem.mp3",
		"response": " ",
		"word": "excessiva",
		"trial_type": "audio-keyboard-response",
		"trial_index": 257,
		"time_elapsed": 967234,
		"internal_node_id": "0.0-3.0-1.204"
	},
	{
		"rt": 1091,
		"stimulus": "../audio/34-3-fem.mp3",
		"response": " ",
		"word": "é",
		"trial_type": "audio-keyboard-response",
		"trial_index": 258,
		"time_elapsed": 968633,
		"internal_node_id": "0.0-3.0-1.205"
	},
	{
		"rt": 1021,
		"stimulus": "../audio/34-4-fem.mp3",
		"response": " ",
		"word": "um",
		"trial_type": "audio-keyboard-response",
		"trial_index": 259,
		"time_elapsed": 969957,
		"internal_node_id": "0.0-3.0-1.206"
	},
	{
		"rt": 1200,
		"stimulus": "../audio/34-5-fem.mp3",
		"response": " ",
		"word": "fardo",
		"trial_type": "audio-keyboard-response",
		"trial_index": 260,
		"time_elapsed": 971457,
		"internal_node_id": "0.0-3.0-1.207"
	},
	{
		"rt": 1259,
		"stimulus": "../audio/34-6-fem.mp3",
		"response": " ",
		"word": "para",
		"trial_type": "audio-keyboard-response",
		"trial_index": 261,
		"time_elapsed": 973026,
		"internal_node_id": "0.0-3.0-1.208"
	},
	{
		"rt": 960,
		"stimulus": "../audio/34-7-fem.mp3",
		"response": " ",
		"word": "a",
		"trial_type": "audio-keyboard-response",
		"trial_index": 262,
		"time_elapsed": 974283,
		"internal_node_id": "0.0-3.0-1.209"
	},
	{
		"rt": 1259,
		"stimulus": "../audio/34-8-fem.mp3",
		"response": " ",
		"word": "cabeça.",
		"trial_type": "audio-keyboard-response",
		"trial_index": 263,
		"time_elapsed": 975847,
		"internal_node_id": "0.0-3.0-1.210"
	},
	{
		"rt": null,
		"stimulus": "<span style= \"font-size:30px; font-family: monospace\">+</span>",
		"response": null,
		"trial_part": "fixation",
		"trial_type": "html-keyboard-response",
		"trial_index": 264,
		"time_elapsed": 977114,
		"internal_node_id": "0.0-3.0-0.211-0.211"
	},
	{
		"rt": 941,
		"stimulus": "../audio/31-1-masc.mp3",
		"response": " ",
		"word": "O",
		"trial_type": "audio-keyboard-response",
		"trial_index": 265,
		"time_elapsed": 978362,
		"internal_node_id": "0.0-3.0-1.211"
	},
	{
		"rt": 1069,
		"stimulus": "../audio/31-2-masc.mp3",
		"response": " ",
		"word": "padeiro",
		"trial_type": "audio-keyboard-response",
		"trial_index": 266,
		"time_elapsed": 979741,
		"internal_node_id": "0.0-3.0-1.212"
	},
	{
		"rt": 1211,
		"stimulus": "../audio/31-3-masc.mp3",
		"response": " ",
		"word": "usou",
		"trial_type": "audio-keyboard-response",
		"trial_index": 267,
		"time_elapsed": 981257,
		"internal_node_id": "0.0-3.0-1.213"
	},
	{
		"rt": 939,
		"stimulus": "../audio/31-4-masc.mp3",
		"response": " ",
		"word": "a",
		"trial_type": "audio-keyboard-response",
		"trial_index": 268,
		"time_elapsed": 982498,
		"internal_node_id": "0.0-3.0-1.214"
	},
	{
		"rt": 1072,
		"stimulus": "../audio/31-5-masc.mp3",
		"response": " ",
		"word": "balança",
		"trial_type": "audio-keyboard-response",
		"trial_index": 269,
		"time_elapsed": 983877,
		"internal_node_id": "0.0-3.0-1.215"
	},
	{
		"rt": 1171,
		"stimulus": "../audio/31-6-masc.mp3",
		"response": " ",
		"word": "o",
		"trial_type": "audio-keyboard-response",
		"trial_index": 270,
		"time_elapsed": 985342,
		"internal_node_id": "0.0-3.0-1.216"
	},
	{
		"rt": 1131,
		"stimulus": "../audio/31-7-masc.mp3",
		"response": " ",
		"word": "dia",
		"trial_type": "audio-keyboard-response",
		"trial_index": 271,
		"time_elapsed": 986781,
		"internal_node_id": "0.0-3.0-1.217"
	},
	{
		"rt": 1200,
		"stimulus": "../audio/31-8-masc.mp3",
		"response": " ",
		"word": "inteiro.",
		"trial_type": "audio-keyboard-response",
		"trial_index": 272,
		"time_elapsed": 988290,
		"internal_node_id": "0.0-3.0-1.218"
	},
	{
		"rt": null,
		"stimulus": "<span style= \"font-size:30px; font-family: monospace\">+</span>",
		"response": null,
		"trial_part": "fixation",
		"trial_type": "html-keyboard-response",
		"trial_index": 273,
		"time_elapsed": 989554,
		"internal_node_id": "0.0-3.0-0.219-0.219"
	},
	{
		"rt": 531,
		"stimulus": "../audio/35-1-fem.mp3",
		"response": " ",
		"word": "A",
		"trial_type": "audio-keyboard-response",
		"trial_index": 274,
		"time_elapsed": 990392,
		"internal_node_id": "0.0-3.0-1.219"
	},
	{
		"rt": 2571,
		"stimulus": "../audio/35-2-fem.mp3",
		"response": " ",
		"word": "receita",
		"trial_type": "audio-keyboard-response",
		"trial_index": 275,
		"time_elapsed": 993276,
		"internal_node_id": "0.0-3.0-1.220"
	},
	{
		"rt": 1080,
		"stimulus": "../audio/35-3-fem.mp3",
		"response": " ",
		"word": "para",
		"trial_type": "audio-keyboard-response",
		"trial_index": 276,
		"time_elapsed": 994654,
		"internal_node_id": "0.0-3.0-1.221"
	},
	{
		"rt": 1040,
		"stimulus": "../audio/35-4-fem.mp3",
		"response": " ",
		"word": "a",
		"trial_type": "audio-keyboard-response",
		"trial_index": 277,
		"time_elapsed": 995998,
		"internal_node_id": "0.0-3.0-1.222"
	},
	{
		"rt": 1760,
		"stimulus": "../audio/35-5-fem.mp3",
		"response": " ",
		"word": "preparação",
		"trial_type": "audio-keyboard-response",
		"trial_index": 278,
		"time_elapsed": 998068,
		"internal_node_id": "0.0-3.0-1.223"
	},
	{
		"rt": 1571,
		"stimulus": "../audio/35-6-fem.mp3",
		"response": " ",
		"word": "do",
		"trial_type": "audio-keyboard-response",
		"trial_index": 279,
		"time_elapsed": 999915,
		"internal_node_id": "0.0-3.0-1.224"
	},
	{
		"rt": 1520,
		"stimulus": "../audio/35-7-fem.mp3",
		"response": " ",
		"word": "bolo",
		"trial_type": "audio-keyboard-response",
		"trial_index": 280,
		"time_elapsed": 1001747,
		"internal_node_id": "0.0-3.0-1.225"
	},
	{
		"rt": 1088,
		"stimulus": "../audio/35-8-fem.mp3",
		"response": " ",
		"word": "é",
		"trial_type": "audio-keyboard-response",
		"trial_index": 281,
		"time_elapsed": 1003129,
		"internal_node_id": "0.0-3.0-1.226"
	},
	{
		"rt": 1619,
		"stimulus": "../audio/35-9-fem.mp3",
		"response": " ",
		"word": "leve.",
		"trial_type": "audio-keyboard-response",
		"trial_index": 282,
		"time_elapsed": 1005053,
		"internal_node_id": "0.0-3.0-1.227"
	},
	{
		"rt": 3799,
		"stimulus": "<span style=\"font-size:25px; font-family: monospace\">A receita do bolo é pesada?</span>",
		"response": "n",
		"question": "A receita do bolo é pesada?",
		"answer": "null",
		"trial": "exp-sent",
		"trial_type": "html-keyboard-response",
		"trial_index": 283,
		"time_elapsed": 1009111,
		"internal_node_id": "0.0-3.0-2.227-0.227",
		"accuracy": false
	},
	{
		"rt": null,
		"stimulus": "<span style= \"font-size:30px; font-family: monospace\">+</span>",
		"response": null,
		"trial_part": "fixation",
		"trial_type": "html-keyboard-response",
		"trial_index": 284,
		"time_elapsed": 1010624,
		"internal_node_id": "0.0-3.0-0.228-0.228"
	},
	{
		"rt": 1408,
		"stimulus": "../audio/66-1-fem.mp3",
		"response": " ",
		"word": "Não",
		"trial_type": "audio-keyboard-response",
		"trial_index": 285,
		"time_elapsed": 1012326,
		"internal_node_id": "0.0-3.0-1.228"
	},
	{
		"rt": 1429,
		"stimulus": "../audio/66-2-fem.mp3",
		"response": " ",
		"word": "gosto",
		"trial_type": "audio-keyboard-response",
		"trial_index": 286,
		"time_elapsed": 1014057,
		"internal_node_id": "0.0-3.0-1.229"
	},
	{
		"rt": 1099,
		"stimulus": "../audio/66-3-fem.mp3",
		"response": " ",
		"word": "de",
		"trial_type": "audio-keyboard-response",
		"trial_index": 287,
		"time_elapsed": 1015459,
		"internal_node_id": "0.0-3.0-1.230"
	},
	{
		"rt": 1459,
		"stimulus": "../audio/66-4-fem.mp3",
		"response": " ",
		"word": "gente",
		"trial_type": "audio-keyboard-response",
		"trial_index": 288,
		"time_elapsed": 1017223,
		"internal_node_id": "0.0-3.0-1.231"
	},
	{
		"rt": 1352,
		"stimulus": "../audio/66-5-fem.mp3",
		"response": " ",
		"word": "egoísta",
		"trial_type": "audio-keyboard-response",
		"trial_index": 289,
		"time_elapsed": 1018883,
		"internal_node_id": "0.0-3.0-1.232"
	},
	{
		"rt": 1461,
		"stimulus": "../audio/66-6-fem.mp3",
		"response": " ",
		"word": "nem",
		"trial_type": "audio-keyboard-response",
		"trial_index": 290,
		"time_elapsed": 1020646,
		"internal_node_id": "0.0-3.0-1.233"
	},
	{
		"rt": 1600,
		"stimulus": "../audio/66-7-fem.mp3",
		"response": " ",
		"word": "chata.",
		"trial_type": "audio-keyboard-response",
		"trial_index": 291,
		"time_elapsed": 1022548,
		"internal_node_id": "0.0-3.0-1.234"
	},
	{
		"rt": null,
		"stimulus": "<span style= \"font-size:30px; font-family: monospace\">+</span>",
		"response": null,
		"trial_part": "fixation",
		"trial_type": "html-keyboard-response",
		"trial_index": 292,
		"time_elapsed": 1023824,
		"internal_node_id": "0.0-3.0-0.235-0.235"
	},
	{
		"rt": 1501,
		"stimulus": "../audio/67-1-masc.mp3",
		"response": " ",
		"word": "Minha",
		"trial_type": "audio-keyboard-response",
		"trial_index": 293,
		"time_elapsed": 1025628,
		"internal_node_id": "0.0-3.0-1.235"
	},
	{
		"rt": 1051,
		"stimulus": "../audio/67-2-masc.mp3",
		"response": " ",
		"word": "tia",
		"trial_type": "audio-keyboard-response",
		"trial_index": 294,
		"time_elapsed": 1026976,
		"internal_node_id": "0.0-3.0-1.236"
	},
	{
		"rt": 928,
		"stimulus": "../audio/67-3-masc.mp3",
		"response": " ",
		"word": "comprou",
		"trial_type": "audio-keyboard-response",
		"trial_index": 295,
		"time_elapsed": 1028207,
		"internal_node_id": "0.0-3.0-1.237"
	},
	{
		"rt": 829,
		"stimulus": "../audio/67-4-masc.mp3",
		"response": " ",
		"word": "um",
		"trial_type": "audio-keyboard-response",
		"trial_index": 296,
		"time_elapsed": 1029342,
		"internal_node_id": "0.0-3.0-1.238"
	},
	{
		"rt": 1432,
		"stimulus": "../audio/67-5-masc.mp3",
		"response": " ",
		"word": "cordão",
		"trial_type": "audio-keyboard-response",
		"trial_index": 297,
		"time_elapsed": 1031076,
		"internal_node_id": "0.0-3.0-1.239"
	},
	{
		"rt": 2040,
		"stimulus": "../audio/67-6-masc.mp3",
		"response": " ",
		"word": "para",
		"trial_type": "audio-keyboard-response",
		"trial_index": 298,
		"time_elapsed": 1033419,
		"internal_node_id": "0.0-3.0-1.240"
	},
	{
		"rt": 1469,
		"stimulus": "../audio/67-7-masc.mp3",
		"response": " ",
		"word": "o",
		"trial_type": "audio-keyboard-response",
		"trial_index": 299,
		"time_elapsed": 1035194,
		"internal_node_id": "0.0-3.0-1.241"
	},
	{
		"rt": 1981,
		"stimulus": "../audio/67-8-masc.mp3",
		"response": " ",
		"word": "varal.",
		"trial_type": "audio-keyboard-response",
		"trial_index": 300,
		"time_elapsed": 1037483,
		"internal_node_id": "0.0-3.0-1.242"
	},
	{
		"rt": null,
		"stimulus": "<span style= \"font-size:30px; font-family: monospace\">+</span>",
		"response": null,
		"trial_part": "fixation",
		"trial_type": "html-keyboard-response",
		"trial_index": 301,
		"time_elapsed": 1038764,
		"internal_node_id": "0.0-3.0-0.243-0.243"
	},
	{
		"rt": 1312,
		"stimulus": "../audio/69-1-masc.mp3",
		"response": " ",
		"word": "A",
		"trial_type": "audio-keyboard-response",
		"trial_index": 302,
		"time_elapsed": 1042917,
		"internal_node_id": "0.0-3.0-1.243"
	},
	{
		"rt": 709,
		"stimulus": "../audio/69-2-masc.mp3",
		"response": " ",
		"word": "loja",
		"trial_type": "audio-keyboard-response",
		"trial_index": 303,
		"time_elapsed": 1046871,
		"internal_node_id": "0.0-3.0-1.244"
	},
	{
		"rt": 3152,
		"stimulus": "../audio/69-3-masc.mp3",
		"response": " ",
		"word": "recebeu",
		"trial_type": "audio-keyboard-response",
		"trial_index": 304,
		"time_elapsed": 1051205,
		"internal_node_id": "0.0-3.0-1.245"
	},
	{
		"rt": 1072,
		"stimulus": "../audio/69-4-masc.mp3",
		"response": " ",
		"word": "uma",
		"trial_type": "audio-keyboard-response",
		"trial_index": 305,
		"time_elapsed": 1055204,
		"internal_node_id": "0.0-3.0-1.246"
	},
	{
		"rt": 741,
		"stimulus": "../audio/69-5-masc.mp3",
		"response": " ",
		"word": "poltrona",
		"trial_type": "audio-keyboard-response",
		"trial_index": 306,
		"time_elapsed": 1059324,
		"internal_node_id": "0.0-3.0-1.247"
	},
	{
		"rt": 749,
		"stimulus": "../audio/69-6-masc.mp3",
		"response": " ",
		"word": "de",
		"trial_type": "audio-keyboard-response",
		"trial_index": 307,
		"time_elapsed": 1061295,
		"internal_node_id": "0.0-3.0-1.248"
	},
	{
		"rt": 760,
		"stimulus": "../audio/69-7-masc.mp3",
		"response": " ",
		"word": "couro",
		"trial_type": "audio-keyboard-response",
		"trial_index": 308,
		"time_elapsed": 1063285,
		"internal_node_id": "0.0-3.0-1.249"
	},
	{
		"rt": 920,
		"stimulus": "../audio/69-8-masc.mp3",
		"response": " ",
		"word": "preto.",
		"trial_type": "audio-keyboard-response",
		"trial_index": 309,
		"time_elapsed": 1065308,
		"internal_node_id": "0.0-3.0-1.250"
	},
	{
		"rt": null,
		"stimulus": "<span style= \"font-size:30px; font-family: monospace\">+</span>",
		"response": null,
		"trial_part": "fixation",
		"trial_type": "html-keyboard-response",
		"trial_index": 310,
		"time_elapsed": 1066583,
		"internal_node_id": "0.0-3.0-0.251-0.251"
	},
	{
		"rt": 979,
		"stimulus": "../audio/68-1-fem.mp3",
		"response": " ",
		"word": "Meu",
		"trial_type": "audio-keyboard-response",
		"trial_index": 311,
		"time_elapsed": 1067866,
		"internal_node_id": "0.0-3.0-1.251"
	},
	{
		"rt": 880,
		"stimulus": "../audio/68-2-fem.mp3",
		"response": " ",
		"word": "irmão",
		"trial_type": "audio-keyboard-response",
		"trial_index": 312,
		"time_elapsed": 1069057,
		"internal_node_id": "0.0-3.0-1.252"
	},
	{
		"rt": 899,
		"stimulus": "../audio/68-3-fem.mp3",
		"response": " ",
		"word": "teve",
		"trial_type": "audio-keyboard-response",
		"trial_index": 313,
		"time_elapsed": 1070266,
		"internal_node_id": "0.0-3.0-1.253"
	},
	{
		"rt": 819,
		"stimulus": "../audio/68-4-fem.mp3",
		"response": " ",
		"word": "um",
		"trial_type": "audio-keyboard-response",
		"trial_index": 314,
		"time_elapsed": 1071377,
		"internal_node_id": "0.0-3.0-1.254"
	},
	{
		"rt": 861,
		"stimulus": "../audio/68-5-fem.mp3",
		"response": " ",
		"word": "noivado",
		"trial_type": "audio-keyboard-response",
		"trial_index": 315,
		"time_elapsed": 1072552,
		"internal_node_id": "0.0-3.0-1.255"
	},
	{
		"rt": 1000,
		"stimulus": "../audio/68-6-fem.mp3",
		"response": " ",
		"word": "longo",
		"trial_type": "audio-keyboard-response",
		"trial_index": 316,
		"time_elapsed": 1073854,
		"internal_node_id": "0.0-3.0-1.256"
	},
	{
		"rt": 920,
		"stimulus": "../audio/68-7-fem.mp3",
		"response": " ",
		"word": "e",
		"trial_type": "audio-keyboard-response",
		"trial_index": 317,
		"time_elapsed": 1075068,
		"internal_node_id": "0.0-3.0-1.257"
	},
	{
		"rt": 1549,
		"stimulus": "../audio/68-8-fem.mp3",
		"response": " ",
		"word": "maravilhoso.",
		"trial_type": "audio-keyboard-response",
		"trial_index": 318,
		"time_elapsed": 1076938,
		"internal_node_id": "0.0-3.0-1.258"
	},
	{
		"rt": null,
		"stimulus": "<span style= \"font-size:30px; font-family: monospace\">+</span>",
		"response": null,
		"trial_part": "fixation",
		"trial_type": "html-keyboard-response",
		"trial_index": 319,
		"time_elapsed": 1078213,
		"internal_node_id": "0.0-3.0-0.259-0.259"
	},
	{
		"rt": 819,
		"stimulus": "../audio/70-1-masc.mp3",
		"response": " ",
		"word": "O",
		"trial_type": "audio-keyboard-response",
		"trial_index": 320,
		"time_elapsed": 1079341,
		"internal_node_id": "0.0-3.0-1.259"
	},
	{
		"rt": 909,
		"stimulus": "../audio/70-2-masc.mp3",
		"response": " ",
		"word": "meu",
		"trial_type": "audio-keyboard-response",
		"trial_index": 321,
		"time_elapsed": 1080537,
		"internal_node_id": "0.0-3.0-1.260"
	},
	{
		"rt": 709,
		"stimulus": "../audio/70-3-masc.mp3",
		"response": " ",
		"word": "filho",
		"trial_type": "audio-keyboard-response",
		"trial_index": 322,
		"time_elapsed": 1081545,
		"internal_node_id": "0.0-3.0-1.261"
	},
	{
		"rt": 899,
		"stimulus": "../audio/70-4-masc.mp3",
		"response": " ",
		"word": "tem",
		"trial_type": "audio-keyboard-response",
		"trial_index": 323,
		"time_elapsed": 1082739,
		"internal_node_id": "0.0-3.0-1.262"
	},
	{
		"rt": 1112,
		"stimulus": "../audio/70-5-masc.mp3",
		"response": " ",
		"word": "medo",
		"trial_type": "audio-keyboard-response",
		"trial_index": 324,
		"time_elapsed": 1084159,
		"internal_node_id": "0.0-3.0-1.263"
	},
	{
		"rt": 800,
		"stimulus": "../audio/70-6-masc.mp3",
		"response": " ",
		"word": "de",
		"trial_type": "audio-keyboard-response",
		"trial_index": 325,
		"time_elapsed": 1085258,
		"internal_node_id": "0.0-3.0-1.264"
	},
	{
		"rt": 1091,
		"stimulus": "../audio/70-7-masc.mp3",
		"response": " ",
		"word": "enguia",
		"trial_type": "audio-keyboard-response",
		"trial_index": 326,
		"time_elapsed": 1086657,
		"internal_node_id": "0.0-3.0-1.265"
	},
	{
		"rt": 789,
		"stimulus": "../audio/70-8-masc.mp3",
		"response": " ",
		"word": "e",
		"trial_type": "audio-keyboard-response",
		"trial_index": 327,
		"time_elapsed": 1087745,
		"internal_node_id": "0.0-3.0-1.266"
	},
	{
		"rt": 1221,
		"stimulus": "../audio/70-9-masc.mp3",
		"response": " ",
		"word": "beija-flor.",
		"trial_type": "audio-keyboard-response",
		"trial_index": 328,
		"time_elapsed": 1089269,
		"internal_node_id": "0.0-3.0-1.267"
	},
	{
		"rt": 3819,
		"stimulus": "<span style=\"font-size:25px; font-family: monospace\">O filho tem medo de tigre?</span>",
		"response": "n",
		"question": "O filho tem medo de tigre?",
		"answer": "null",
		"trial": "exp-sent",
		"trial_type": "html-keyboard-response",
		"trial_index": 329,
		"time_elapsed": 1093354,
		"internal_node_id": "0.0-3.0-2.267-0.267",
		"accuracy": false
	},
	{
		"rt": null,
		"stimulus": "<span style= \"font-size:30px; font-family: monospace\">+</span>",
		"response": null,
		"trial_part": "fixation",
		"trial_type": "html-keyboard-response",
		"trial_index": 330,
		"time_elapsed": 1094884,
		"internal_node_id": "0.0-3.0-0.268-0.268"
	},
	{
		"rt": 1539,
		"stimulus": "../audio/37-1-masc.mp3",
		"response": " ",
		"word": "Eu",
		"trial_type": "audio-keyboard-response",
		"trial_index": 331,
		"time_elapsed": 1096729,
		"internal_node_id": "0.0-3.0-1.268"
	},
	{
		"rt": 1040,
		"stimulus": "../audio/37-2-masc.mp3",
		"response": " ",
		"word": "adoro",
		"trial_type": "audio-keyboard-response",
		"trial_index": 332,
		"time_elapsed": 1098072,
		"internal_node_id": "0.0-3.0-1.269"
	},
	{
		"rt": 1029,
		"stimulus": "../audio/37-3-masc.mp3",
		"response": " ",
		"word": "suco",
		"trial_type": "audio-keyboard-response",
		"trial_index": 333,
		"time_elapsed": 1099407,
		"internal_node_id": "0.0-3.0-1.270"
	},
	{
		"rt": 851,
		"stimulus": "../audio/37-4-masc.mp3",
		"response": " ",
		"word": "de",
		"trial_type": "audio-keyboard-response",
		"trial_index": 334,
		"time_elapsed": 1100558,
		"internal_node_id": "0.0-3.0-1.271"
	},
	{
		"rt": 1091,
		"stimulus": "../audio/37-5-masc.mp3",
		"response": " ",
		"word": "manga",
		"trial_type": "audio-keyboard-response",
		"trial_index": 335,
		"time_elapsed": 1101951,
		"internal_node_id": "0.0-3.0-1.272"
	},
	{
		"rt": 920,
		"stimulus": "../audio/37-6-masc.mp3",
		"response": " ",
		"word": "com",
		"trial_type": "audio-keyboard-response",
		"trial_index": 336,
		"time_elapsed": 1103166,
		"internal_node_id": "0.0-3.0-1.273"
	},
	{
		"rt": 1011,
		"stimulus": "../audio/37-7-masc.mp3",
		"response": " ",
		"word": "hortelã.",
		"trial_type": "audio-keyboard-response",
		"trial_index": 337,
		"time_elapsed": 1104481,
		"internal_node_id": "0.0-3.0-1.274"
	},
	{
		"rt": null,
		"stimulus": "<span style= \"font-size:30px; font-family: monospace\">+</span>",
		"response": null,
		"trial_part": "fixation",
		"trial_type": "html-keyboard-response",
		"trial_index": 338,
		"time_elapsed": 1105753,
		"internal_node_id": "0.0-3.0-0.275-0.275"
	},
	{
		"rt": 792,
		"stimulus": "../audio/39-1-fem.mp3",
		"response": " ",
		"word": "O",
		"trial_type": "audio-keyboard-response",
		"trial_index": 339,
		"time_elapsed": 1106844,
		"internal_node_id": "0.0-3.0-1.275"
	},
	{
		"rt": 1269,
		"stimulus": "../audio/39-2-fem.mp3",
		"response": " ",
		"word": "conselho",
		"trial_type": "audio-keyboard-response",
		"trial_index": 340,
		"time_elapsed": 1108423,
		"internal_node_id": "0.0-3.0-1.276"
	},
	{
		"rt": 1320,
		"stimulus": "../audio/39-3-fem.mp3",
		"response": " ",
		"word": "foi",
		"trial_type": "audio-keyboard-response",
		"trial_index": 341,
		"time_elapsed": 1110038,
		"internal_node_id": "0.0-3.0-1.277"
	},
	{
		"rt": 1691,
		"stimulus": "../audio/39-4-fem.mp3",
		"response": " ",
		"word": "muito",
		"trial_type": "audio-keyboard-response",
		"trial_index": 342,
		"time_elapsed": 1112027,
		"internal_node_id": "0.0-3.0-1.278"
	},
	{
		"rt": 1232,
		"stimulus": "../audio/39-5-fem.mp3",
		"response": " ",
		"word": "útil",
		"trial_type": "audio-keyboard-response",
		"trial_index": 343,
		"time_elapsed": 1113559,
		"internal_node_id": "0.0-3.0-1.279"
	},
	{
		"rt": 1061,
		"stimulus": "../audio/39-6-fem.mp3",
		"response": " ",
		"word": "para",
		"trial_type": "audio-keyboard-response",
		"trial_index": 344,
		"time_elapsed": 1114923,
		"internal_node_id": "0.0-3.0-1.280"
	},
	{
		"rt": 1141,
		"stimulus": "../audio/39-7-fem.mp3",
		"response": " ",
		"word": "minha",
		"trial_type": "audio-keyboard-response",
		"trial_index": 345,
		"time_elapsed": 1116360,
		"internal_node_id": "0.0-3.0-1.281"
	},
	{
		"rt": 1032,
		"stimulus": "../audio/39-8-fem.mp3",
		"response": " ",
		"word": "tia.",
		"trial_type": "audio-keyboard-response",
		"trial_index": 346,
		"time_elapsed": 1117685,
		"internal_node_id": "0.0-3.0-1.282"
	},
	{
		"rt": null,
		"stimulus": "<span style= \"font-size:30px; font-family: monospace\">+</span>",
		"response": null,
		"trial_part": "fixation",
		"trial_type": "html-keyboard-response",
		"trial_index": 347,
		"time_elapsed": 1118960,
		"internal_node_id": "0.0-3.0-0.283-0.283"
	},
	{
		"rt": 941,
		"stimulus": "../audio/38-1-masc.mp3",
		"response": " ",
		"word": "A",
		"trial_type": "audio-keyboard-response",
		"trial_index": 348,
		"time_elapsed": 1120187,
		"internal_node_id": "0.0-3.0-1.283"
	},
	{
		"rt": 1200,
		"stimulus": "../audio/38-2-masc.mp3",
		"response": " ",
		"word": "empresa",
		"trial_type": "audio-keyboard-response",
		"trial_index": 349,
		"time_elapsed": 1121694,
		"internal_node_id": "0.0-3.0-1.284"
	},
	{
		"rt": 1040,
		"stimulus": "../audio/38-3-masc.mp3",
		"response": " ",
		"word": "criou",
		"trial_type": "audio-keyboard-response",
		"trial_index": 350,
		"time_elapsed": 1123040,
		"internal_node_id": "0.0-3.0-1.285"
	},
	{
		"rt": 891,
		"stimulus": "../audio/38-4-masc.mp3",
		"response": " ",
		"word": "a",
		"trial_type": "audio-keyboard-response",
		"trial_index": 351,
		"time_elapsed": 1124228,
		"internal_node_id": "0.0-3.0-1.286"
	},
	{
		"rt": 1181,
		"stimulus": "../audio/38-5-masc.mp3",
		"response": " ",
		"word": "patente",
		"trial_type": "audio-keyboard-response",
		"trial_index": 352,
		"time_elapsed": 1125712,
		"internal_node_id": "0.0-3.0-1.287"
	},
	{
		"rt": 1011,
		"stimulus": "../audio/38-6-masc.mp3",
		"response": " ",
		"word": "da",
		"trial_type": "audio-keyboard-response",
		"trial_index": 353,
		"time_elapsed": 1127021,
		"internal_node_id": "0.0-3.0-1.288"
	},
	{
		"rt": 1691,
		"stimulus": "../audio/38-7-masc.mp3",
		"response": " ",
		"word": "frigideira.",
		"trial_type": "audio-keyboard-response",
		"trial_index": 354,
		"time_elapsed": 1129025,
		"internal_node_id": "0.0-3.0-1.289"
	},
	{
		"rt": null,
		"stimulus": "<span style= \"font-size:30px; font-family: monospace\">+</span>",
		"response": null,
		"trial_part": "fixation",
		"trial_type": "html-keyboard-response",
		"trial_index": 355,
		"time_elapsed": 1130296,
		"internal_node_id": "0.0-3.0-0.290-0.290"
	},
	{
		"rt": 379,
		"stimulus": "../audio/36-1-masc.mp3",
		"response": " ",
		"word": "Meu",
		"trial_type": "audio-keyboard-response",
		"trial_index": 356,
		"time_elapsed": 1130983,
		"internal_node_id": "0.0-3.0-1.290"
	},
	{
		"rt": 1131,
		"stimulus": "../audio/36-2-masc.mp3",
		"response": " ",
		"word": "tio",
		"trial_type": "audio-keyboard-response",
		"trial_index": 357,
		"time_elapsed": 1132403,
		"internal_node_id": "0.0-3.0-1.291"
	},
	{
		"rt": 960,
		"stimulus": "../audio/36-3-masc.mp3",
		"response": " ",
		"word": "comprou",
		"trial_type": "audio-keyboard-response",
		"trial_index": 358,
		"time_elapsed": 1133664,
		"internal_node_id": "0.0-3.0-1.292"
	},
	{
		"rt": 741,
		"stimulus": "../audio/36-4-masc.mp3",
		"response": " ",
		"word": "um",
		"trial_type": "audio-keyboard-response",
		"trial_index": 359,
		"time_elapsed": 1134710,
		"internal_node_id": "0.0-3.0-1.293"
	},
	{
		"rt": 1000,
		"stimulus": "../audio/36-5-masc.mp3",
		"response": " ",
		"word": "filtro",
		"trial_type": "audio-keyboard-response",
		"trial_index": 360,
		"time_elapsed": 1136021,
		"internal_node_id": "0.0-3.0-1.294"
	},
	{
		"rt": 749,
		"stimulus": "../audio/36-6-masc.mp3",
		"response": " ",
		"word": "de",
		"trial_type": "audio-keyboard-response",
		"trial_index": 361,
		"time_elapsed": 1137065,
		"internal_node_id": "0.0-3.0-1.295"
	},
	{
		"rt": 840,
		"stimulus": "../audio/36-7-masc.mp3",
		"response": " ",
		"word": "água",
		"trial_type": "audio-keyboard-response",
		"trial_index": 362,
		"time_elapsed": 1138211,
		"internal_node_id": "0.0-3.0-1.296"
	},
	{
		"rt": 669,
		"stimulus": "../audio/36-8-masc.mp3",
		"response": " ",
		"word": "hoje",
		"trial_type": "audio-keyboard-response",
		"trial_index": 363,
		"time_elapsed": 1139186,
		"internal_node_id": "0.0-3.0-1.297"
	},
	{
		"rt": 952,
		"stimulus": "../audio/36-9-masc.mp3",
		"response": " ",
		"word": "cedo.",
		"trial_type": "audio-keyboard-response",
		"trial_index": 364,
		"time_elapsed": 1140439,
		"internal_node_id": "0.0-3.0-1.298"
	},
	{
		"rt": null,
		"stimulus": "<span style= \"font-size:30px; font-family: monospace\">+</span>",
		"response": null,
		"trial_part": "fixation",
		"trial_type": "html-keyboard-response",
		"trial_index": 365,
		"time_elapsed": 1141724,
		"internal_node_id": "0.0-3.0-0.299-0.299"
	},
	{
		"rt": 640,
		"stimulus": "../audio/40-1-masc.mp3",
		"response": " ",
		"word": "O",
		"trial_type": "audio-keyboard-response",
		"trial_index": 366,
		"time_elapsed": 1142663,
		"internal_node_id": "0.0-3.0-1.299"
	},
	{
		"rt": 811,
		"stimulus": "../audio/40-2-masc.mp3",
		"response": " ",
		"word": "jogo",
		"trial_type": "audio-keyboard-response",
		"trial_index": 367,
		"time_elapsed": 1143782,
		"internal_node_id": "0.0-3.0-1.300"
	},
	{
		"rt": 971,
		"stimulus": "../audio/40-3-masc.mp3",
		"response": " ",
		"word": "falava",
		"trial_type": "audio-keyboard-response",
		"trial_index": 368,
		"time_elapsed": 1145063,
		"internal_node_id": "0.0-3.0-1.301"
	},
	{
		"rt": 920,
		"stimulus": "../audio/40-4-masc.mp3",
		"response": " ",
		"word": "de",
		"trial_type": "audio-keyboard-response",
		"trial_index": 369,
		"time_elapsed": 1146283,
		"internal_node_id": "0.0-3.0-1.302"
	},
	{
		"rt": 1211,
		"stimulus": "../audio/40-5-masc.mp3",
		"response": " ",
		"word": "fantasia",
		"trial_type": "audio-keyboard-response",
		"trial_index": 370,
		"time_elapsed": 1147795,
		"internal_node_id": "0.0-3.0-1.303"
	},
	{
		"rt": 1000,
		"stimulus": "../audio/40-6-masc.mp3",
		"response": " ",
		"word": "e",
		"trial_type": "audio-keyboard-response",
		"trial_index": 371,
		"time_elapsed": 1149088,
		"internal_node_id": "0.0-3.0-1.304"
	},
	{
		"rt": 1040,
		"stimulus": "../audio/40-7-masc.mp3",
		"response": " ",
		"word": "de",
		"trial_type": "audio-keyboard-response",
		"trial_index": 372,
		"time_elapsed": 1150424,
		"internal_node_id": "0.0-3.0-1.305"
	},
	{
		"rt": 1352,
		"stimulus": "../audio/40-8-masc.mp3",
		"response": " ",
		"word": "aventura.",
		"trial_type": "audio-keyboard-response",
		"trial_index": 373,
		"time_elapsed": 1152085,
		"internal_node_id": "0.0-3.0-1.306"
	},
	{
		"rt": 2164,
		"stimulus": "<span style=\"font-size:25px; font-family: monospace\">O jogo tinha fantasia e aventura?</span>",
		"response": "s",
		"question": "O jogo tinha fantasia e aventura?",
		"answer": "null",
		"trial": "exp-sent",
		"trial_type": "html-keyboard-response",
		"trial_index": 374,
		"time_elapsed": 1154517,
		"internal_node_id": "0.0-3.0-2.306-0.306",
		"accuracy": false
	},
	{
		"rt": null,
		"stimulus": "<span style= \"font-size:30px; font-family: monospace\">+</span>",
		"response": null,
		"trial_part": "fixation",
		"trial_type": "html-keyboard-response",
		"trial_index": 375,
		"time_elapsed": 1156043,
		"internal_node_id": "0.0-3.0-0.307-0.307"
	},
	{
		"rt": 1080,
		"stimulus": "../audio/29-1-masc.mp3",
		"response": " ",
		"word": "Hoje",
		"trial_type": "audio-keyboard-response",
		"trial_index": 376,
		"time_elapsed": 1160735,
		"internal_node_id": "0.0-3.0-1.307"
	},
	{
		"rt": 1291,
		"stimulus": "../audio/29-2-masc.mp3",
		"response": " ",
		"word": "vamos",
		"trial_type": "audio-keyboard-response",
		"trial_index": 377,
		"time_elapsed": 1166788,
		"internal_node_id": "0.0-3.0-1.308"
	},
	{
		"rt": 859,
		"stimulus": "../audio/29-3-masc.mp3",
		"response": " ",
		"word": "fazer",
		"trial_type": "audio-keyboard-response",
		"trial_index": 378,
		"time_elapsed": 1170821,
		"internal_node_id": "0.0-3.0-1.309"
	},
	{
		"rt": 1360,
		"stimulus": "../audio/29-4-masc.mp3",
		"response": " ",
		"word": "uma",
		"trial_type": "audio-keyboard-response",
		"trial_index": 379,
		"time_elapsed": 1175847,
		"internal_node_id": "0.0-3.0-1.310"
	},
	{
		"rt": 2291,
		"stimulus": "../audio/29-5-masc.mp3",
		"response": " ",
		"word": "atividade",
		"trial_type": "audio-keyboard-response",
		"trial_index": 380,
		"time_elapsed": 1181314,
		"internal_node_id": "0.0-3.0-1.311"
	},
	{
		"rt": 2069,
		"stimulus": "../audio/29-6-masc.mp3",
		"response": " ",
		"word": "sobre",
		"trial_type": "audio-keyboard-response",
		"trial_index": 381,
		"time_elapsed": 1186132,
		"internal_node_id": "0.0-3.0-1.312"
	},
	{
		"rt": 1629,
		"stimulus": "../audio/29-7-masc.mp3",
		"response": " ",
		"word": "fauna",
		"trial_type": "audio-keyboard-response",
		"trial_index": 382,
		"time_elapsed": 1191148,
		"internal_node_id": "0.0-3.0-1.313"
	},
	{
		"rt": 1571,
		"stimulus": "../audio/29-8-masc.mp3",
		"response": " ",
		"word": "marinha.",
		"trial_type": "audio-keyboard-response",
		"trial_index": 383,
		"time_elapsed": 1195566,
		"internal_node_id": "0.0-3.0-1.314"
	},
	{
		"rt": null,
		"stimulus": "<span style= \"font-size:30px; font-family: monospace\">+</span>",
		"response": null,
		"trial_part": "fixation",
		"trial_type": "html-keyboard-response",
		"trial_index": 384,
		"time_elapsed": 1196835,
		"internal_node_id": "0.0-3.0-0.315-0.315"
	},
	{
		"rt": 661,
		"stimulus": "../audio/27-1-fem.mp3",
		"response": " ",
		"word": "O",
		"trial_type": "audio-keyboard-response",
		"trial_index": 385,
		"time_elapsed": 1197798,
		"internal_node_id": "0.0-3.0-1.315"
	},
	{
		"rt": 869,
		"stimulus": "../audio/27-2-fem.mp3",
		"response": " ",
		"word": "dinheiro",
		"trial_type": "audio-keyboard-response",
		"trial_index": 386,
		"time_elapsed": 1198975,
		"internal_node_id": "0.0-3.0-1.316"
	},
	{
		"rt": 1349,
		"stimulus": "../audio/27-3-fem.mp3",
		"response": " ",
		"word": "chegou",
		"trial_type": "audio-keyboard-response",
		"trial_index": 387,
		"time_elapsed": 1200631,
		"internal_node_id": "0.0-3.0-1.317"
	},
	{
		"rt": 832,
		"stimulus": "../audio/27-4-fem.mp3",
		"response": " ",
		"word": "à",
		"trial_type": "audio-keyboard-response",
		"trial_index": 388,
		"time_elapsed": 1201764,
		"internal_node_id": "0.0-3.0-1.318"
	},
	{
		"rt": 971,
		"stimulus": "../audio/27-5-fem.mp3",
		"response": " ",
		"word": "elite",
		"trial_type": "audio-keyboard-response",
		"trial_index": 389,
		"time_elapsed": 1203038,
		"internal_node_id": "0.0-3.0-1.319"
	},
	{
		"rt": 1120,
		"stimulus": "../audio/27-6-fem.mp3",
		"response": " ",
		"word": "deste",
		"trial_type": "audio-keyboard-response",
		"trial_index": 390,
		"time_elapsed": 1204463,
		"internal_node_id": "0.0-3.0-1.320"
	},
	{
		"rt": 981,
		"stimulus": "../audio/27-7-fem.mp3",
		"response": " ",
		"word": "país.",
		"trial_type": "audio-keyboard-response",
		"trial_index": 391,
		"time_elapsed": 1205763,
		"internal_node_id": "0.0-3.0-1.321"
	},
	{
		"rt": null,
		"stimulus": "<span style= \"font-size:30px; font-family: monospace\">+</span>",
		"response": null,
		"trial_part": "fixation",
		"trial_type": "html-keyboard-response",
		"trial_index": 392,
		"time_elapsed": 1207033,
		"internal_node_id": "0.0-3.0-0.322-0.322"
	},
	{
		"rt": 832,
		"stimulus": "../audio/28-1-fem.mp3",
		"response": " ",
		"word": "O",
		"trial_type": "audio-keyboard-response",
		"trial_index": 393,
		"time_elapsed": 1208159,
		"internal_node_id": "0.0-3.0-1.322"
	},
	{
		"rt": 1019,
		"stimulus": "../audio/28-2-fem.mp3",
		"response": " ",
		"word": "time",
		"trial_type": "audio-keyboard-response",
		"trial_index": 394,
		"time_elapsed": 1209488,
		"internal_node_id": "0.0-3.0-1.323"
	},
	{
		"rt": 800,
		"stimulus": "../audio/28-3-fem.mp3",
		"response": " ",
		"word": "quer",
		"trial_type": "audio-keyboard-response",
		"trial_index": 395,
		"time_elapsed": 1210587,
		"internal_node_id": "0.0-3.0-1.324"
	},
	{
		"rt": 1080,
		"stimulus": "../audio/28-4-fem.mp3",
		"response": " ",
		"word": "a",
		"trial_type": "audio-keyboard-response",
		"trial_index": 396,
		"time_elapsed": 1211971,
		"internal_node_id": "0.0-3.0-1.325"
	},
	{
		"rt": 1200,
		"stimulus": "../audio/28-5-fem.mp3",
		"response": " ",
		"word": "vitória",
		"trial_type": "audio-keyboard-response",
		"trial_index": 397,
		"time_elapsed": 1213483,
		"internal_node_id": "0.0-3.0-1.326"
	},
	{
		"rt": 1960,
		"stimulus": "../audio/28-6-fem.mp3",
		"response": " ",
		"word": "no",
		"trial_type": "audio-keyboard-response",
		"trial_index": 398,
		"time_elapsed": 1215743,
		"internal_node_id": "0.0-3.0-1.327"
	},
	{
		"rt": 1512,
		"stimulus": "../audio/28-7-fem.mp3",
		"response": " ",
		"word": "jogo",
		"trial_type": "audio-keyboard-response",
		"trial_index": 399,
		"time_elapsed": 1217561,
		"internal_node_id": "0.0-3.0-1.328"
	},
	{
		"rt": 1379,
		"stimulus": "../audio/28-8-fem.mp3",
		"response": " ",
		"word": "de",
		"trial_type": "audio-keyboard-response",
		"trial_index": 400,
		"time_elapsed": 1219250,
		"internal_node_id": "0.0-3.0-1.329"
	},
	{
		"rt": 1451,
		"stimulus": "../audio/28-9-fem.mp3",
		"response": " ",
		"word": "vôlei.",
		"trial_type": "audio-keyboard-response",
		"trial_index": 401,
		"time_elapsed": 1220993,
		"internal_node_id": "0.0-3.0-1.330"
	},
	{
		"rt": null,
		"stimulus": "<span style= \"font-size:30px; font-family: monospace\">+</span>",
		"response": null,
		"trial_part": "fixation",
		"trial_type": "html-keyboard-response",
		"trial_index": 402,
		"time_elapsed": 1222254,
		"internal_node_id": "0.0-3.0-0.331-0.331"
	},
	{
		"rt": 1309,
		"stimulus": "../audio/26-1-fem.mp3",
		"response": " ",
		"word": "Amanhã",
		"trial_type": "audio-keyboard-response",
		"trial_index": 403,
		"time_elapsed": 1225051,
		"internal_node_id": "0.0-3.0-1.331"
	},
	{
		"rt": 1149,
		"stimulus": "../audio/26-2-fem.mp3",
		"response": " ",
		"word": "temos",
		"trial_type": "audio-keyboard-response",
		"trial_index": 404,
		"time_elapsed": 1228991,
		"internal_node_id": "0.0-3.0-1.332"
	},
	{
		"rt": 1749,
		"stimulus": "../audio/26-3-fem.mp3",
		"response": " ",
		"word": "festa",
		"trial_type": "audio-keyboard-response",
		"trial_index": 405,
		"time_elapsed": 1234496,
		"internal_node_id": "0.0-3.0-1.333"
	},
	{
		"rt": 1189,
		"stimulus": "../audio/26-4-fem.mp3",
		"response": " ",
		"word": "na",
		"trial_type": "audio-keyboard-response",
		"trial_index": 406,
		"time_elapsed": 1238434,
		"internal_node_id": "0.0-3.0-1.334"
	},
	{
		"rt": 1851,
		"stimulus": "../audio/26-5-fem.mp3",
		"response": " ",
		"word": "piscina",
		"trial_type": "audio-keyboard-response",
		"trial_index": 407,
		"time_elapsed": 1243716,
		"internal_node_id": "0.0-3.0-1.335"
	},
	{
		"rt": 949,
		"stimulus": "../audio/26-6-fem.mp3",
		"response": " ",
		"word": "o",
		"trial_type": "audio-keyboard-response",
		"trial_index": 408,
		"time_elapsed": 1247487,
		"internal_node_id": "0.0-3.0-1.336"
	},
	{
		"rt": 1301,
		"stimulus": "../audio/26-7-fem.mp3",
		"response": " ",
		"word": "dia",
		"trial_type": "audio-keyboard-response",
		"trial_index": 409,
		"time_elapsed": 1252318,
		"internal_node_id": "0.0-3.0-1.337"
	},
	{
		"rt": 1640,
		"stimulus": "../audio/26-8-fem.mp3",
		"response": " ",
		"word": "todo.",
		"trial_type": "audio-keyboard-response",
		"trial_index": 410,
		"time_elapsed": 1257112,
		"internal_node_id": "0.0-3.0-1.338"
	},
	{
		"rt": null,
		"stimulus": "<span style= \"font-size:30px; font-family: monospace\">+</span>",
		"response": null,
		"trial_part": "fixation",
		"trial_type": "html-keyboard-response",
		"trial_index": 411,
		"time_elapsed": 1258383,
		"internal_node_id": "0.0-3.0-0.339-0.339"
	},
	{
		"rt": 920,
		"stimulus": "../audio/30-1-masc.mp3",
		"response": " ",
		"word": "O",
		"trial_type": "audio-keyboard-response",
		"trial_index": 412,
		"time_elapsed": 1259624,
		"internal_node_id": "0.0-3.0-1.339"
	},
	{
		"rt": 1131,
		"stimulus": "../audio/30-2-masc.mp3",
		"response": " ",
		"word": "funcionário",
		"trial_type": "audio-keyboard-response",
		"trial_index": 413,
		"time_elapsed": 1261072,
		"internal_node_id": "0.0-3.0-1.340"
	},
	{
		"rt": 1109,
		"stimulus": "../audio/30-3-masc.mp3",
		"response": " ",
		"word": "entregou",
		"trial_type": "audio-keyboard-response",
		"trial_index": 414,
		"time_elapsed": 1262493,
		"internal_node_id": "0.0-3.0-1.341"
	},
	{
		"rt": 819,
		"stimulus": "../audio/30-4-masc.mp3",
		"response": " ",
		"word": "o",
		"trial_type": "audio-keyboard-response",
		"trial_index": 415,
		"time_elapsed": 1263625,
		"internal_node_id": "0.0-3.0-1.342"
	},
	{
		"rt": 960,
		"stimulus": "../audio/30-5-masc.mp3",
		"response": " ",
		"word": "restante",
		"trial_type": "audio-keyboard-response",
		"trial_index": 416,
		"time_elapsed": 1264896,
		"internal_node_id": "0.0-3.0-1.343"
	},
	{
		"rt": 1229,
		"stimulus": "../audio/30-6-masc.mp3",
		"response": " ",
		"word": "do",
		"trial_type": "audio-keyboard-response",
		"trial_index": 417,
		"time_elapsed": 1266431,
		"internal_node_id": "0.0-3.0-1.344"
	},
	{
		"rt": 1120,
		"stimulus": "../audio/30-7-masc.mp3",
		"response": " ",
		"word": "dinheiro.",
		"trial_type": "audio-keyboard-response",
		"trial_index": 418,
		"time_elapsed": 1267858,
		"internal_node_id": "0.0-3.0-1.345"
	},
	{
		"rt": 4193,
		"stimulus": "<span style=\"font-size:25px; font-family: monospace\">O funcionário entregou o contrato?</span>",
		"response": "n",
		"question": "O funcionário entregou o contrato?",
		"answer": "null",
		"trial": "exp-sent",
		"trial_type": "html-keyboard-response",
		"trial_index": 419,
		"time_elapsed": 1272314,
		"internal_node_id": "0.0-3.0-2.345-0.345",
		"accuracy": false
	},
	{
		"rt": null,
		"stimulus": "<span style= \"font-size:30px; font-family: monospace\">+</span>",
		"response": null,
		"trial_part": "fixation",
		"trial_type": "html-keyboard-response",
		"trial_index": 420,
		"time_elapsed": 1273834,
		"internal_node_id": "0.0-3.0-0.346-0.346"
	},
	{
		"rt": 1072,
