[
	{
		"view_history": [
			{
				"page_index": 0,
				"viewing_time": 15925
			}
		],
		"rt": 15925,
		"trial_type": "instructions",
		"trial_index": 0,
		"time_elapsed": 15928,
		"internal_node_id": "0.0-0.0"
	},
	{
		"rt": 262115,
		"response": {
			"tcle": "Concordo voluntariamente em participar da pesquisa conforme texto acima."
		},
		"question_order": [
			0
		],
		"trial_type": "survey-multi-choice",
		"trial_index": 1,
		"time_elapsed": 278267,
		"internal_node_id": "0.0-1.0"
	},
	{
		"rt": 17467,
		"response": {
			"email": "LJ81F"
		},
		"trial_type": "survey-text",
		"trial_index": 2,
		"time_elapsed": 296781,
		"internal_node_id": "0.0-2.0"
	}
]