"view_history","rt","trial_type","trial_index","time_elapsed","internal_node_id","stimulus","response","class","status","answer","correct","trial","letters"
"[{""page_index"":0,""viewing_time"":109266}]","109266","instructions","0","109271","0.0-0.0","","","","","","","",""
"","null","html-keyboard-response","1","109898","0.0-1.0-0.0","+","null","","","","","",""
"","6819","html-keyboard-response","2","116721","0.0-1.0-1.0","plibar","n","null","noncog","pseudo","N","prac","null"
"","null","html-keyboard-response","3","117234","0.0-1.0-0.1","+","null","","","","","",""
"","14203","html-keyboard-response","4","131438","0.0-1.0-1.1","calmaria","n","null","noncog","word","S","prac","null"
"","null","html-keyboard-response","5","131941","0.0-1.0-0.2","+","null","","","","","",""
"","5238","html-keyboard-response","6","137180","0.0-1.0-1.2","chassi","n","null","cog","word","S","prac","null"
"","null","html-keyboard-response","7","137694","0.0-1.0-0.3","+","null","","","","","",""
"","1467","html-keyboard-response","8","139162","0.0-1.0-1.3","órgão","s","null","noncog","word","S","prac","null"
"","null","html-keyboard-response","9","139664","0.0-1.0-0.4","+","null","","","","","",""
"","1462","html-keyboard-response","10","141127","0.0-1.0-1.4","crante","n","null","noncog","pseudo","N","prac","null"
"","null","html-keyboard-response","11","141645","0.0-1.0-0.5","+","null","","","","","",""
"","2517","html-keyboard-response","12","144163","0.0-1.0-1.5","daja","n","null","noncog","pseudo","N","prac","null"
"","null","html-keyboard-response","13","144672","0.0-1.0-0.6","+","null","","","","","",""
"","2530","html-keyboard-response","14","147204","0.0-1.0-1.6","oliva","s","null","cog","word","S","prac","null"
"[{""page_index"":0,""viewing_time"":80757}]","80757","instructions","15","227963","0.0-2.0","","","","","","","",""
"","null","html-keyboard-response","16","228577","0.0-3.0-0.0","+","null","","","","","",""
"","2007","html-keyboard-response","17","230585","0.0-3.0-1.0","conjerto","n","null","noncog","pseudo","N","exp","null"
"","null","html-keyboard-response","18","231093","0.0-3.0-0.1","+","null","","","","","",""
"","1289","html-keyboard-response","19","232383","0.0-3.0-1.1","dipata","n","null","noncog","pseudo","N","exp","null"
"","null","html-keyboard-response","20","232887","0.0-3.0-0.2","+","null","","","","","",""
"","1594","html-keyboard-response","21","234482","0.0-3.0-1.2","enedro","n","null","noncog","pseudo","N","exp","null"
"","null","html-keyboard-response","22","234994","0.0-3.0-0.3","+","null","","","","","",""
"","1327","html-keyboard-response","23","236322","0.0-3.0-1.3","esfoce","n","null","noncog","pseudo","N","exp","null"
"","null","html-keyboard-response","24","236828","0.0-3.0-0.4","+","null","","","","","",""
"","1552","html-keyboard-response","25","238380","0.0-3.0-1.4","especial","s","a","cog","word","S","exp","8"
"","null","html-keyboard-response","26","238888","0.0-3.0-0.5","+","null","","","","","",""
"","2018","html-keyboard-response","27","240906","0.0-3.0-1.5","hébies","n","null","noncog","pseudo","N","exp","null"
"","null","html-keyboard-response","28","241421","0.0-3.0-0.6","+","null","","","","","",""
"","2365","html-keyboard-response","29","243787","0.0-3.0-1.6","telafonir","n","null","noncog","pseudo","N","exp","null"
"","null","html-keyboard-response","30","244292","0.0-3.0-0.7","+","null","","","","","",""
"","1269","html-keyboard-response","31","245563","0.0-3.0-1.7","cerca","s","n","noncog","word","S","exp","5"
"","null","html-keyboard-response","32","246065","0.0-3.0-0.8","+","null","","","","","",""
"","1851","html-keyboard-response","33","247918","0.0-3.0-1.8","nervoso","s","a","noncog","word","S","exp","7"
"","null","html-keyboard-response","34","248430","0.0-3.0-0.9","+","null","","","","","",""
"","1728","html-keyboard-response","35","250159","0.0-3.0-1.9","morija","n","null","noncog","pseudo","N","exp","null"
"","null","html-keyboard-response","36","250673","0.0-3.0-0.10","+","null","","","","","",""
"","1039","html-keyboard-response","37","251714","0.0-3.0-1.10","melão","s","n","cog","word","S","exp","5"
"","null","html-keyboard-response","38","252217","0.0-3.0-0.11","+","null","","","","","",""
"","988","html-keyboard-response","39","253205","0.0-3.0-1.11","uchães","s","null","noncog","pseudo","N","exp","null"
"","null","html-keyboard-response","40","253714","0.0-3.0-0.12","+","null","","","","","",""
"","1233","html-keyboard-response","41","254949","0.0-3.0-1.12","manfa","n","null","noncog","pseudo","N","exp","null"
"","null","html-keyboard-response","42","255454","0.0-3.0-0.13","+","null","","","","","",""
"","1422","html-keyboard-response","43","256875","0.0-3.0-1.13","orupas","n","null","noncog","pseudo","N","exp","null"
"","null","html-keyboard-response","44","257387","0.0-3.0-0.14","+","null","","","","","",""
"","1148","html-keyboard-response","45","258538","0.0-3.0-1.14","tênis","s","n","cog","word","S","exp","5"
"","null","html-keyboard-response","46","259045","0.0-3.0-0.15","+","null","","","","","",""
"","2493","html-keyboard-response","47","261539","0.0-3.0-1.15","disbrituir","s","null","noncog","pseudo","N","exp","null"
"","null","html-keyboard-response","48","262053","0.0-3.0-0.16","+","null","","","","","",""
"","2094","html-keyboard-response","49","264147","0.0-3.0-1.16","mania","n","n","cog","word","S","exp","5"
"","null","html-keyboard-response","50","264650","0.0-3.0-0.17","+","null","","","","","",""
"","2172","html-keyboard-response","51","266823","0.0-3.0-1.17","oper","n","null","noncog","pseudo","N","exp","null"
"","null","html-keyboard-response","52","267329","0.0-3.0-0.18","+","null","","","","","",""
"","1856","html-keyboard-response","53","269185","0.0-3.0-1.18","atapdar","n","null","noncog","pseudo","N","exp","null"
"","null","html-keyboard-response","54","269702","0.0-3.0-0.19","+","null","","","","","",""
"","1414","html-keyboard-response","55","271117","0.0-3.0-1.19","beima","s","null","noncog","pseudo","N","exp","null"
"","null","html-keyboard-response","56","271625","0.0-3.0-0.20","+","null","","","","","",""
"","960","html-keyboard-response","57","272587","0.0-3.0-1.20","pangos","s","null","noncog","pseudo","N","exp","null"
"","null","html-keyboard-response","58","273098","0.0-3.0-0.21","+","null","","","","","",""
"","1116","html-keyboard-response","59","274215","0.0-3.0-1.21","tartos","s","null","noncog","pseudo","N","exp","null"
"","null","html-keyboard-response","60","274716","0.0-3.0-0.22","+","null","","","","","",""
"","2141","html-keyboard-response","61","276859","0.0-3.0-1.22","sanque","s","null","noncog","pseudo","N","exp","null"
"","null","html-keyboard-response","62","277365","0.0-3.0-0.23","+","null","","","","","",""
"","922","html-keyboard-response","63","278289","0.0-3.0-1.23","jantar","s","v","noncog","word","S","exp","6"
"","null","html-keyboard-response","64","278798","0.0-3.0-0.24","+","null","","","","","",""
"","980","html-keyboard-response","65","279778","0.0-3.0-1.24","brincar","s","v","noncog","word","S","exp","7"
"","null","html-keyboard-response","66","280292","0.0-3.0-0.25","+","null","","","","","",""
"","1420","html-keyboard-response","67","281712","0.0-3.0-1.25","protas","s","null","noncog","pseudo","N","exp","null"
"","null","html-keyboard-response","68","282213","0.0-3.0-0.26","+","null","","","","","",""
"","1382","html-keyboard-response","69","283595","0.0-3.0-1.26","mua","n","null","noncog","pseudo","N","exp","null"
"","null","html-keyboard-response","70","284108","0.0-3.0-0.27","+","null","","","","","",""
"","1665","html-keyboard-response","71","285775","0.0-3.0-1.27","parceter","s","null","noncog","pseudo","N","exp","null"
"","null","html-keyboard-response","72","286289","0.0-3.0-0.28","+","null","","","","","",""
"","2106","html-keyboard-response","73","288396","0.0-3.0-1.28","suipestar","n","null","noncog","pseudo","N","exp","null"
"","null","html-keyboard-response","74","288910","0.0-3.0-0.29","+","null","","","","","",""
"","1185","html-keyboard-response","75","290097","0.0-3.0-1.29","multiplicar","s","v","cog","word","S","exp","11"
"","null","html-keyboard-response","76","290606","0.0-3.0-0.30","+","null","","","","","",""
"","818","html-keyboard-response","77","291426","0.0-3.0-1.30","adoçar","s","v","noncog","word","S","exp","6"
"","null","html-keyboard-response","78","291931","0.0-3.0-0.31","+","null","","","","","",""
"","1479","html-keyboard-response","79","293412","0.0-3.0-1.31","macras","n","null","noncog","pseudo","N","exp","null"
"","null","html-keyboard-response","80","293926","0.0-3.0-0.32","+","null","","","","","",""
"","778","html-keyboard-response","81","294706","0.0-3.0-1.32","esperar","s","v","cog","word","S","exp","7"
"","null","html-keyboard-response","82","295219","0.0-3.0-0.33","+","null","","","","","",""
"","829","html-keyboard-response","83","296050","0.0-3.0-1.33","farcas","s","null","noncog","pseudo","N","exp","null"
"","null","html-keyboard-response","84","296553","0.0-3.0-0.34","+","null","","","","","",""
"","1291","html-keyboard-response","85","297846","0.0-3.0-1.34","taberia","s","null","noncog","pseudo","N","exp","null"
"","null","html-keyboard-response","86","298364","0.0-3.0-0.35","+","null","","","","","",""
"","1836","html-keyboard-response","87","300202","0.0-3.0-1.35","apontar","s","v","noncog","word","S","exp","7"
"","null","html-keyboard-response","88","300718","0.0-3.0-0.36","+","null","","","","","",""
"","990","html-keyboard-response","89","301709","0.0-3.0-1.36","pega-pega","s","n","noncog","word","S","exp","8"
"","null","html-keyboard-response","90","302212","0.0-3.0-0.37","+","null","","","","","",""
"","1054","html-keyboard-response","91","303268","0.0-3.0-1.37","carregar","s","v","noncog","word","S","exp","8"
"","null","html-keyboard-response","92","303770","0.0-3.0-0.38","+","null","","","","","",""
"","1103","html-keyboard-response","93","304875","0.0-3.0-1.38","chato","s","n","noncog","word","S","exp","5"
"","null","html-keyboard-response","94","305379","0.0-3.0-0.39","+","null","","","","","",""
"","2242","html-keyboard-response","95","307623","0.0-3.0-1.39","hipócrita","s","a","noncog","word","S","exp","9"
"","null","html-keyboard-response","96","308123","0.0-3.0-0.40","+","null","","","","","",""
"","1768","html-keyboard-response","97","309893","0.0-3.0-1.40","tinta","s","n","cog","word","S","exp","5"
"","null","html-keyboard-response","98","310402","0.0-3.0-0.41","+","null","","","","","",""
"","1270","html-keyboard-response","99","311675","0.0-3.0-1.41","filme","s","n","cog","word","S","exp","5"
"","null","html-keyboard-response","100","312186","0.0-3.0-0.42","+","null","","","","","",""
"","813","html-keyboard-response","101","313000","0.0-3.0-1.42","grótis","s","null","noncog","pseudo","N","exp","null"
"","null","html-keyboard-response","102","313510","0.0-3.0-0.43","+","null","","","","","",""
"","2446","html-keyboard-response","103","315957","0.0-3.0-1.43","afonher","s","null","noncog","pseudo","N","exp","null"
"","null","html-keyboard-response","104","316465","0.0-3.0-0.44","+","null","","","","","",""
"","2981","html-keyboard-response","105","319448","0.0-3.0-1.44","propaganda","s","n","cog","word","S","exp","10"
"","null","html-keyboard-response","106","319957","0.0-3.0-0.45","+","null","","","","","",""
"","2474","html-keyboard-response","107","322432","0.0-3.0-1.45","costra","n","null","noncog","pseudo","N","exp","null"
"","null","html-keyboard-response","108","322939","0.0-3.0-0.46","+","null","","","","","",""
"","2511","html-keyboard-response","109","325450","0.0-3.0-1.46","dencosto","n","null","noncog","pseudo","N","exp","null"
"","null","html-keyboard-response","110","325963","0.0-3.0-0.47","+","null","","","","","",""
"","801","html-keyboard-response","111","326764","0.0-3.0-1.47","lorfaz","s","null","noncog","pseudo","N","exp","null"
"","null","html-keyboard-response","112","327271","0.0-3.0-0.48","+","null","","","","","",""
"","882","html-keyboard-response","113","328154","0.0-3.0-1.48","tronca","s","null","noncog","pseudo","N","exp","null"
"","null","html-keyboard-response","114","328668","0.0-3.0-0.49","+","null","","","","","",""
"","995","html-keyboard-response","115","329662","0.0-3.0-1.49","motros","s","null","noncog","pseudo","N","exp","null"
"","null","html-keyboard-response","116","330178","0.0-3.0-0.50","+","null","","","","","",""
"","2632","html-keyboard-response","117","332810","0.0-3.0-1.50","loaco","n","null","noncog","pseudo","N","exp","null"
"","null","html-keyboard-response","118","333321","0.0-3.0-0.51","+","null","","","","","",""
"","948","html-keyboard-response","119","334270","0.0-3.0-1.51","anjo","n","n","cog","word","S","exp","4"
"","null","html-keyboard-response","120","334775","0.0-3.0-0.52","+","null","","","","","",""
"","799","html-keyboard-response","121","335574","0.0-3.0-1.52","fofo","s","a","noncog","word","S","exp","4"
"","null","html-keyboard-response","122","336090","0.0-3.0-0.53","+","null","","","","","",""
"","1632","html-keyboard-response","123","337722","0.0-3.0-1.53","matinal","s","a","cog","word","S","exp","7"
"","null","html-keyboard-response","124","338233","0.0-3.0-0.54","+","null","","","","","",""
"","1054","html-keyboard-response","125","339288","0.0-3.0-1.54","uçar","s","null","noncog","pseudo","N","exp","null"
"","null","html-keyboard-response","126","339811","0.0-3.0-0.55","+","null","","","","","",""
"","1725","html-keyboard-response","127","341537","0.0-3.0-1.55","bambu","s","n","cog","word","S","exp","5"
"","null","html-keyboard-response","128","342044","0.0-3.0-0.56","+","null","","","","","",""
"","2215","html-keyboard-response","129","344260","0.0-3.0-1.56","promessa","s","n","noncog","word","S","exp","8"
"","null","html-keyboard-response","130","344766","0.0-3.0-0.57","+","null","","","","","",""
"","1320","html-keyboard-response","131","346087","0.0-3.0-1.57","lapestra","n","null","noncog","pseudo","N","exp","null"
"","null","html-keyboard-response","132","346599","0.0-3.0-0.58","+","null","","","","","",""
"","989","html-keyboard-response","133","347589","0.0-3.0-1.58","gilha","s","null","noncog","pseudo","N","exp","null"
"","null","html-keyboard-response","134","348108","0.0-3.0-0.59","+","null","","","","","",""
"","1167","html-keyboard-response","135","349276","0.0-3.0-1.59","oecano","n","null","noncog","pseudo","N","exp","null"
"","null","html-keyboard-response","136","349789","0.0-3.0-0.60","+","null","","","","","",""
"","2146","html-keyboard-response","137","351938","0.0-3.0-1.60","manais","n","null","noncog","pseudo","N","exp","null"
"","null","html-keyboard-response","138","352446","0.0-3.0-0.61","+","null","","","","","",""
"","921","html-keyboard-response","139","353369","0.0-3.0-1.61","montanha","s","n","cog","word","S","exp","8"
"","null","html-keyboard-response","140","353888","0.0-3.0-0.62","+","null","","","","","",""
"","2546","html-keyboard-response","141","356435","0.0-3.0-1.62","salpicado","s","a","noncog","word","S","exp","9"
"","null","html-keyboard-response","142","356940","0.0-3.0-0.63","+","null","","","","","",""
"","1634","html-keyboard-response","143","358575","0.0-3.0-1.63","berquesa","n","null","noncog","pseudo","N","exp","null"
"","null","html-keyboard-response","144","359088","0.0-3.0-0.64","+","null","","","","","",""
"","3556","html-keyboard-response","145","362645","0.0-3.0-1.64","cinema","s","n","cog","word","S","exp","6"
"","null","html-keyboard-response","146","363150","0.0-3.0-0.65","+","null","","","","","",""
"","2498","html-keyboard-response","147","365649","0.0-3.0-1.65","afual","n","null","noncog","pseudo","N","exp","null"
"","null","html-keyboard-response","148","366151","0.0-3.0-0.66","+","null","","","","","",""
"","1741","html-keyboard-response","149","367892","0.0-3.0-1.66","rédesa","s","null","noncog","pseudo","N","exp","null"
"","null","html-keyboard-response","150","368402","0.0-3.0-0.67","+","null","","","","","",""
"","1917","html-keyboard-response","151","370321","0.0-3.0-1.67","bancada","s","n","noncog","word","S","exp","7"
"","null","html-keyboard-response","152","370831","0.0-3.0-0.68","+","null","","","","","",""
"","1146","html-keyboard-response","153","371977","0.0-3.0-1.68","terdia","s","null","noncog","pseudo","N","exp","null"
"","null","html-keyboard-response","154","372483","0.0-3.0-0.69","+","null","","","","","",""
"","886","html-keyboard-response","155","373369","0.0-3.0-1.69","animado","s","a","noncog","word","S","exp","7"
"","null","html-keyboard-response","156","373879","0.0-3.0-0.70","+","null","","","","","",""
"","1613","html-keyboard-response","157","375493","0.0-3.0-1.70","usfiga","n","null","noncog","pseudo","N","exp","null"
"","null","html-keyboard-response","158","375998","0.0-3.0-0.71","+","null","","","","","",""
"","1119","html-keyboard-response","159","377120","0.0-3.0-1.71","comércio","s","n","noncog","word","S","exp","8"
"","null","html-keyboard-response","160","377623","0.0-3.0-0.72","+","null","","","","","",""
"","2060","html-keyboard-response","161","379684","0.0-3.0-1.72","gruja","n","null","noncog","pseudo","N","exp","null"
"","null","html-keyboard-response","162","380188","0.0-3.0-0.73","+","null","","","","","",""
"","1552","html-keyboard-response","163","381741","0.0-3.0-1.73","planalto","s","n","cog","word","S","exp","8"
"","null","html-keyboard-response","164","382244","0.0-3.0-0.74","+","null","","","","","",""
"","1332","html-keyboard-response","165","383577","0.0-3.0-1.74","refletir","n","v","cog","word","S","exp","8"
"","null","html-keyboard-response","166","384083","0.0-3.0-0.75","+","null","","","","","",""
"","606","html-keyboard-response","167","384691","0.0-3.0-1.75","país","s","n","noncog","word","S","exp","4"
"","null","html-keyboard-response","168","385197","0.0-3.0-0.76","+","null","","","","","",""
"","874","html-keyboard-response","169","386073","0.0-3.0-1.76","espionar","s","v","cog","word","S","exp","8"
"","null","html-keyboard-response","170","386582","0.0-3.0-0.77","+","null","","","","","",""
"","1440","html-keyboard-response","171","388024","0.0-3.0-1.77","liso","s","n","noncog","word","S","exp","4"
"","null","html-keyboard-response","172","388537","0.0-3.0-0.78","+","null","","","","","",""
"","1666","html-keyboard-response","173","390203","0.0-3.0-1.78","oricia","n","null","noncog","pseudo","N","exp","null"
"","null","html-keyboard-response","174","390713","0.0-3.0-0.79","+","null","","","","","",""
"","1974","html-keyboard-response","175","392687","0.0-3.0-1.79","ocinto","n","null","noncog","pseudo","N","exp","null"
"","null","html-keyboard-response","176","393199","0.0-3.0-0.80","+","null","","","","","",""
"","682","html-keyboard-response","177","393883","0.0-3.0-1.80","mal","s","a","cog","word","S","exp","3"
"","null","html-keyboard-response","178","394398","0.0-3.0-0.81","+","null","","","","","",""
"","744","html-keyboard-response","179","395144","0.0-3.0-1.81","aivões","s","null","noncog","pseudo","N","exp","null"
"","null","html-keyboard-response","180","395657","0.0-3.0-0.82","+","null","","","","","",""
"","1993","html-keyboard-response","181","397650","0.0-3.0-1.82","vitrive","n","null","noncog","pseudo","N","exp","null"
"","null","html-keyboard-response","182","398154","0.0-3.0-0.83","+","null","","","","","",""
"","1749","html-keyboard-response","183","399903","0.0-3.0-1.83","dacada","n","null","noncog","pseudo","N","exp","null"
"","null","html-keyboard-response","184","400418","0.0-3.0-0.84","+","null","","","","","",""
"","1042","html-keyboard-response","185","401461","0.0-3.0-1.84","socorro","s","n","noncog","word","S","exp","7"
"","null","html-keyboard-response","186","401973","0.0-3.0-0.85","+","null","","","","","",""
"","1860","html-keyboard-response","187","403835","0.0-3.0-1.85","motre","n","null","noncog","pseudo","N","exp","null"
"","null","html-keyboard-response","188","404335","0.0-3.0-0.86","+","null","","","","","",""
"","651","html-keyboard-response","189","404989","0.0-3.0-1.86","abieso","s","null","noncog","pseudo","N","exp","null"
"","null","html-keyboard-response","190","405498","0.0-3.0-0.87","+","null","","","","","",""
"","1145","html-keyboard-response","191","406644","0.0-3.0-1.87","usnado","n","null","noncog","pseudo","N","exp","null"
"","null","html-keyboard-response","192","407145","0.0-3.0-0.88","+","null","","","","","",""
"","728","html-keyboard-response","193","407875","0.0-3.0-1.88","sábio","s","n","noncog","word","S","exp","5"
"","null","html-keyboard-response","194","408383","0.0-3.0-0.89","+","null","","","","","",""
"","760","html-keyboard-response","195","409144","0.0-3.0-1.89","verdade","s","n","cog","word","S","exp","7"
"","null","html-keyboard-response","196","409659","0.0-3.0-0.90","+","null","","","","","",""
"","1353","html-keyboard-response","197","411014","0.0-3.0-1.90","delirar","s","v","noncog","word","S","exp","7"
"","null","html-keyboard-response","198","411526","0.0-3.0-0.91","+","null","","","","","",""
"","1808","html-keyboard-response","199","413336","0.0-3.0-1.91","escumo","s","null","noncog","pseudo","N","exp","null"
"","null","html-keyboard-response","200","413847","0.0-3.0-0.92","+","null","","","","","",""
"","774","html-keyboard-response","201","414622","0.0-3.0-1.92","barco","s","n","cog","word","S","exp","5"
"","null","html-keyboard-response","202","415124","0.0-3.0-0.93","+","null","","","","","",""
"","1296","html-keyboard-response","203","416420","0.0-3.0-1.93","atitro","s","null","noncog","pseudo","N","exp","null"
"","null","html-keyboard-response","204","416928","0.0-3.0-0.94","+","null","","","","","",""
"","714","html-keyboard-response","205","417643","0.0-3.0-1.94","árovre","s","null","noncog","pseudo","N","exp","null"
"","null","html-keyboard-response","206","418160","0.0-3.0-0.95","+","null","","","","","",""
"","1812","html-keyboard-response","207","419973","0.0-3.0-1.95","frotes","s","null","noncog","pseudo","N","exp","null"
"","null","html-keyboard-response","208","420489","0.0-3.0-0.96","+","null","","","","","",""
"","571","html-keyboard-response","209","421061","0.0-3.0-1.96","fogão","s","n","noncog","word","S","exp","5"
"","null","html-keyboard-response","210","421576","0.0-3.0-0.97","+","null","","","","","",""
"","700","html-keyboard-response","211","422278","0.0-3.0-1.97","filosofia","s","n","cog","word","S","exp","9"
"","null","html-keyboard-response","212","422789","0.0-3.0-0.98","+","null","","","","","",""
"","1788","html-keyboard-response","213","424577","0.0-3.0-1.98","enxarto","s","null","noncog","pseudo","N","exp","null"
"","null","html-keyboard-response","214","425079","0.0-3.0-0.99","+","null","","","","","",""
"","634","html-keyboard-response","215","425713","0.0-3.0-1.99","pedaço","s","n","noncog","word","S","exp","6"
"","null","html-keyboard-response","216","426222","0.0-3.0-0.100","+","null","","","","","",""
"","2019","html-keyboard-response","217","428242","0.0-3.0-1.100","sintonizar","n","v","noncog","word","S","exp","10"
"","null","html-keyboard-response","218","428744","0.0-3.0-0.101","+","null","","","","","",""
"","1162","html-keyboard-response","219","429909","0.0-3.0-1.101","esprotiar","s","null","noncog","pseudo","N","exp","null"
"","null","html-keyboard-response","220","430412","0.0-3.0-0.102","+","null","","","","","",""
"","1562","html-keyboard-response","221","431976","0.0-3.0-1.102","aitrou","n","null","noncog","pseudo","N","exp","null"
"","null","html-keyboard-response","222","432486","0.0-3.0-0.103","+","null","","","","","",""
"","895","html-keyboard-response","223","433380","0.0-3.0-1.103","ênclio","s","null","noncog","pseudo","N","exp","null"
"","null","html-keyboard-response","224","433892","0.0-3.0-0.104","+","null","","","","","",""
"","1745","html-keyboard-response","225","435637","0.0-3.0-1.104","franda","n","null","noncog","pseudo","N","exp","null"
"","null","html-keyboard-response","226","436140","0.0-3.0-0.105","+","null","","","","","",""
"","1467","html-keyboard-response","227","437608","0.0-3.0-1.105","incomodar","s","v","noncog","word","S","exp","9"
"","null","html-keyboard-response","228","438116","0.0-3.0-0.106","+","null","","","","","",""
"","729","html-keyboard-response","229","438845","0.0-3.0-1.106","bracos","s","null","noncog","pseudo","N","exp","null"
"","null","html-keyboard-response","230","439362","0.0-3.0-0.107","+","null","","","","","",""
"","890","html-keyboard-response","231","440252","0.0-3.0-1.107","civil","s","a","cog","word","S","exp","5"
"","null","html-keyboard-response","232","440759","0.0-3.0-0.108","+","null","","","","","",""
"","1825","html-keyboard-response","233","442585","0.0-3.0-1.108","undivídio","n","null","noncog","pseudo","N","exp","null"
"","null","html-keyboard-response","234","443099","0.0-3.0-0.109","+","null","","","","","",""
"","1653","html-keyboard-response","235","444753","0.0-3.0-1.109","nevela","n","null","noncog","pseudo","N","exp","null"
"","null","html-keyboard-response","236","445257","0.0-3.0-0.110","+","null","","","","","",""
"","889","html-keyboard-response","237","446145","0.0-3.0-1.110","pritas","n","null","noncog","pseudo","N","exp","null"
"","null","html-keyboard-response","238","446647","0.0-3.0-0.111","+","null","","","","","",""
"","761","html-keyboard-response","239","447408","0.0-3.0-1.111","convidado","s","n","noncog","word","S","exp","9"
"","null","html-keyboard-response","240","447925","0.0-3.0-0.112","+","null","","","","","",""
"","1426","html-keyboard-response","241","449353","0.0-3.0-1.112","ronronar","n","v","cog","word","S","exp","8"
"","null","html-keyboard-response","242","449861","0.0-3.0-0.113","+","null","","","","","",""
"","1024","html-keyboard-response","243","450885","0.0-3.0-1.113","chorão","s","a","noncog","word","S","exp","6"
"","null","html-keyboard-response","244","451394","0.0-3.0-0.114","+","null","","","","","",""
"","1502","html-keyboard-response","245","452897","0.0-3.0-1.114","grave","s","a","cog","word","S","exp","5"
"","null","html-keyboard-response","246","453407","0.0-3.0-0.115","+","null","","","","","",""
"","1580","html-keyboard-response","247","454989","0.0-3.0-1.115","pantufa","n","n","cog","word","S","exp","7"
"","null","html-keyboard-response","248","455497","0.0-3.0-0.116","+","null","","","","","",""
"","1373","html-keyboard-response","249","456871","0.0-3.0-1.116","deselegante","s","a","noncog","word","S","exp","11"
"","null","html-keyboard-response","250","457374","0.0-3.0-0.117","+","null","","","","","",""
"","635","html-keyboard-response","251","458010","0.0-3.0-1.117","ótimo","s","a","noncog","word","S","exp","5"
"","null","html-keyboard-response","252","458511","0.0-3.0-0.118","+","null","","","","","",""
"","845","html-keyboard-response","253","459357","0.0-3.0-1.118","alfabeto","s","n","cog","word","S","exp","8"
"","null","html-keyboard-response","254","459864","0.0-3.0-0.119","+","null","","","","","",""
"","799","html-keyboard-response","255","460664","0.0-3.0-1.119","memória","s","n","cog","word","S","exp","7"
"","null","html-keyboard-response","256","461171","0.0-3.0-0.120","+","null","","","","","",""
"","687","html-keyboard-response","257","461858","0.0-3.0-1.120","glória","s","n","cog","word","S","exp","6"
"","null","html-keyboard-response","258","462371","0.0-3.0-0.121","+","null","","","","","",""
"","1457","html-keyboard-response","259","463830","0.0-3.0-1.121","liberal","s","a","cog","word","S","exp","7"
"","null","html-keyboard-response","260","464339","0.0-3.0-0.122","+","null","","","","","",""
"","692","html-keyboard-response","261","465031","0.0-3.0-1.122","fino","s","a","cog","word","S","exp","4"
"","null","html-keyboard-response","262","465540","0.0-3.0-0.123","+","null","","","","","",""
"","728","html-keyboard-response","263","466269","0.0-3.0-1.123","dia","s","n","noncog","word","S","exp","3"
"","null","html-keyboard-response","264","466786","0.0-3.0-0.124","+","null","","","","","",""
"","588","html-keyboard-response","265","467374","0.0-3.0-1.124","pulmão","s","n","noncog","word","S","exp","6"
"","null","html-keyboard-response","266","467904","0.0-3.0-0.125","+","null","","","","","",""
"","720","html-keyboard-response","267","468624","0.0-3.0-1.125","morar","s","v","noncog","word","S","exp","5"
"","null","html-keyboard-response","268","469135","0.0-3.0-0.126","+","null","","","","","",""
"","1186","html-keyboard-response","269","470322","0.0-3.0-1.126","cirado","n","null","noncog","pseudo","N","exp","null"
"","null","html-keyboard-response","270","470824","0.0-3.0-0.127","+","null","","","","","",""
"","753","html-keyboard-response","271","471579","0.0-3.0-1.127","independente","s","a","noncog","word","S","exp","12"
"","null","html-keyboard-response","272","472079","0.0-3.0-0.128","+","null","","","","","",""
"","1864","html-keyboard-response","273","473945","0.0-3.0-1.128","aparme","s","null","noncog","pseudo","N","exp","null"
"","null","html-keyboard-response","274","474449","0.0-3.0-0.129","+","null","","","","","",""
"","1268","html-keyboard-response","275","475717","0.0-3.0-1.129","prantal","n","null","noncog","pseudo","N","exp","null"
"","null","html-keyboard-response","276","476225","0.0-3.0-0.130","+","null","","","","","",""
"","651","html-keyboard-response","277","476876","0.0-3.0-1.130","mudança","s","n","noncog","word","S","exp","7"
"","null","html-keyboard-response","278","477383","0.0-3.0-0.131","+","null","","","","","",""
"","533","html-keyboard-response","279","477917","0.0-3.0-1.131","azul","s","n","noncog","word","S","exp","4"
"","null","html-keyboard-response","280","478425","0.0-3.0-0.132","+","null","","","","","",""
"","890","html-keyboard-response","281","479317","0.0-3.0-1.132","destino","s","n","cog","word","S","exp","7"
"","null","html-keyboard-response","282","479824","0.0-3.0-0.133","+","null","","","","","",""
"","851","html-keyboard-response","283","480676","0.0-3.0-1.133","hedoru","n","null","noncog","pseudo","N","exp","null"
"","null","html-keyboard-response","284","481179","0.0-3.0-0.134","+","null","","","","","",""
"","788","html-keyboard-response","285","481968","0.0-3.0-1.134","francês","s","a","cog","word","S","exp","7"
"","null","html-keyboard-response","286","482472","0.0-3.0-0.135","+","null","","","","","",""
"","917","html-keyboard-response","287","483390","0.0-3.0-1.135","casuas","s","null","noncog","pseudo","N","exp","null"
"","null","html-keyboard-response","288","483903","0.0-3.0-0.136","+","null","","","","","",""
"","724","html-keyboard-response","289","484628","0.0-3.0-1.136","ensuas","s","null","noncog","pseudo","N","exp","null"
"","null","html-keyboard-response","290","485138","0.0-3.0-0.137","+","null","","","","","",""
"","1207","html-keyboard-response","291","486345","0.0-3.0-1.137","trair","n","v","cog","word","S","exp","5"
"","null","html-keyboard-response","292","486846","0.0-3.0-0.138","+","null","","","","","",""
"","815","html-keyboard-response","293","487662","0.0-3.0-1.138","cascata","s","n","noncog","word","S","exp","7"
"","null","html-keyboard-response","294","488170","0.0-3.0-0.139","+","null","","","","","",""
"","866","html-keyboard-response","295","489036","0.0-3.0-1.139","revista","n","n","cog","word","S","exp","7"
"","null","html-keyboard-response","296","489538","0.0-3.0-0.140","+","null","","","","","",""
"","728","html-keyboard-response","297","490268","0.0-3.0-1.140","telefone","s","n","cog","word","S","exp","8"
"","null","html-keyboard-response","298","490772","0.0-3.0-0.141","+","null","","","","","",""
"","794","html-keyboard-response","299","491567","0.0-3.0-1.141","detative","s","null","noncog","pseudo","N","exp","null"
"","null","html-keyboard-response","300","492070","0.0-3.0-0.142","+","null","","","","","",""
"","887","html-keyboard-response","301","492959","0.0-3.0-1.142","crutas","s","null","noncog","pseudo","N","exp","null"
"","null","html-keyboard-response","302","493465","0.0-3.0-0.143","+","null","","","","","",""
"","801","html-keyboard-response","303","494266","0.0-3.0-1.143","prever","n","v","cog","word","S","exp","6"
"","null","html-keyboard-response","304","494770","0.0-3.0-0.144","+","null","","","","","",""
"","1408","html-keyboard-response","305","496178","0.0-3.0-1.144","raspar","s","v","noncog","word","S","exp","6"
"","null","html-keyboard-response","306","496683","0.0-3.0-0.145","+","null","","","","","",""
"","1060","html-keyboard-response","307","497743","0.0-3.0-1.145","imitar","s","v","cog","word","S","exp","6"
"","null","html-keyboard-response","308","498245","0.0-3.0-0.146","+","null","","","","","",""
"","1069","html-keyboard-response","309","499316","0.0-3.0-1.146","risbos","s","null","noncog","pseudo","N","exp","null"
"","null","html-keyboard-response","310","499821","0.0-3.0-0.147","+","null","","","","","",""
"","2107","html-keyboard-response","311","501930","0.0-3.0-1.147","dilheira","s","null","noncog","pseudo","N","exp","null"
"","null","html-keyboard-response","312","502443","0.0-3.0-0.148","+","null","","","","","",""
"","880","html-keyboard-response","313","503324","0.0-3.0-1.148","bandido","s","n","cog","word","S","exp","7"
"","null","html-keyboard-response","314","503843","0.0-3.0-0.149","+","null","","","","","",""
"","648","html-keyboard-response","315","504492","0.0-3.0-1.149","grátis","s","a","cog","word","S","exp","6"
"","null","html-keyboard-response","316","505006","0.0-3.0-0.150","+","null","","","","","",""
"","1540","html-keyboard-response","317","506548","0.0-3.0-1.150","prenas","s","null","noncog","pseudo","N","exp","null"
"","null","html-keyboard-response","318","507060","0.0-3.0-0.151","+","null","","","","","",""
"","1610","html-keyboard-response","319","508671","0.0-3.0-1.151","preferir","s","v","cog","word","S","exp","8"
"","null","html-keyboard-response","320","509179","0.0-3.0-0.152","+","null","","","","","",""
"","1466","html-keyboard-response","321","510646","0.0-3.0-1.152","resmungar","s","v","noncog","word","S","exp","9"
"","null","html-keyboard-response","322","511162","0.0-3.0-0.153","+","null","","","","","",""
"","612","html-keyboard-response","323","511774","0.0-3.0-1.153","trabalhar","s","v","noncog","word","S","exp","9"
"","null","html-keyboard-response","324","512276","0.0-3.0-0.154","+","null","","","","","",""
"","1077","html-keyboard-response","325","513354","0.0-3.0-1.154","aemaça","n","null","noncog","pseudo","N","exp","null"
"","null","html-keyboard-response","326","513864","0.0-3.0-0.155","+","null","","","","","",""
"","1832","html-keyboard-response","327","515698","0.0-3.0-1.155","gertas","n","null","noncog","pseudo","N","exp","null"
"","null","html-keyboard-response","328","516209","0.0-3.0-0.156","+","null","","","","","",""
"","832","html-keyboard-response","329","517041","0.0-3.0-1.156","encelhor","s","null","noncog","pseudo","N","exp","null"
"","null","html-keyboard-response","330","517556","0.0-3.0-0.157","+","null","","","","","",""
"","839","html-keyboard-response","331","518396","0.0-3.0-1.157","verde","s","a","noncog","word","S","exp","5"
"","null","html-keyboard-response","332","518903","0.0-3.0-0.158","+","null","","","","","",""
"","1520","html-keyboard-response","333","520423","0.0-3.0-1.158","plinta","n","null","noncog","pseudo","N","exp","null"
"","null","html-keyboard-response","334","520934","0.0-3.0-0.159","+","null","","","","","",""
"","901","html-keyboard-response","335","521837","0.0-3.0-1.159","carona","s","n","noncog","word","S","exp","6"
"","null","html-keyboard-response","336","522349","0.0-3.0-0.160","+","null","","","","","",""
"","811","html-keyboard-response","337","523161","0.0-3.0-1.160","enxerido","s","a","noncog","word","S","exp","8"
"","null","html-keyboard-response","338","523664","0.0-3.0-0.161","+","null","","","","","",""
"","1742","html-keyboard-response","339","525407","0.0-3.0-1.161","arranjar","n","v","cog","word","S","exp","8"
"","null","html-keyboard-response","340","525913","0.0-3.0-0.162","+","null","","","","","",""
"","1878","html-keyboard-response","341","527793","0.0-3.0-1.162","sustentar","s","v","noncog","word","S","exp","9"
"","null","html-keyboard-response","342","528300","0.0-3.0-0.163","+","null","","","","","",""
"","955","html-keyboard-response","343","529257","0.0-3.0-1.163","alpica","n","null","noncog","pseudo","N","exp","null"
"","null","html-keyboard-response","344","529758","0.0-3.0-0.164","+","null","","","","","",""
"","664","html-keyboard-response","345","530424","0.0-3.0-1.164","cristal","s","n","cog","word","S","exp","7"
"","null","html-keyboard-response","346","530932","0.0-3.0-0.165","+","null","","","","","",""
"","659","html-keyboard-response","347","531592","0.0-3.0-1.165","âgnulo","s","null","noncog","pseudo","N","exp","null"
"","null","html-keyboard-response","348","532100","0.0-3.0-0.166","+","null","","","","","",""
"","740","html-keyboard-response","349","532841","0.0-3.0-1.166","rovaz","n","null","noncog","pseudo","N","exp","null"
"","null","html-keyboard-response","350","533349","0.0-3.0-0.167","+","null","","","","","",""
"","2190","html-keyboard-response","351","535541","0.0-3.0-1.167","temperar","n","v","noncog","word","S","exp","8"
"","null","html-keyboard-response","352","536046","0.0-3.0-0.168","+","null","","","","","",""
"","614","html-keyboard-response","353","536661","0.0-3.0-1.168","açúcar","s","n","noncog","word","S","exp","6"
"","null","html-keyboard-response","354","537167","0.0-3.0-0.169","+","null","","","","","",""
"","979","html-keyboard-response","355","538147","0.0-3.0-1.169","extravagante","s","a","cog","word","S","exp","12"
"","null","html-keyboard-response","356","538660","0.0-3.0-0.170","+","null","","","","","",""
"","947","html-keyboard-response","357","539607","0.0-3.0-1.170","medalha","s","n","cog","word","S","exp","7"
"","null","html-keyboard-response","358","540114","0.0-3.0-0.171","+","null","","","","","",""
"","1546","html-keyboard-response","359","541661","0.0-3.0-1.171","lagoa","s","n","cog","word","S","exp","5"
"","null","html-keyboard-response","360","542175","0.0-3.0-0.172","+","null","","","","","",""
"","1000","html-keyboard-response","361","543176","0.0-3.0-1.172","traduzir","s","v","cog","word","S","exp","8"
"","null","html-keyboard-response","362","543690","0.0-3.0-0.173","+","null","","","","","",""
"","1835","html-keyboard-response","363","545527","0.0-3.0-1.173","nivelado","s","a","cog","word","S","exp","8"
"","null","html-keyboard-response","364","546041","0.0-3.0-0.174","+","null","","","","","",""
"","568","html-keyboard-response","365","546611","0.0-3.0-1.174","espaço","s","n","cog","word","S","exp","6"
"","null","html-keyboard-response","366","547118","0.0-3.0-0.175","+","null","","","","","",""
"","920","html-keyboard-response","367","548039","0.0-3.0-1.175","bachir","n","null","noncog","pseudo","N","exp","null"
"","null","html-keyboard-response","368","548549","0.0-3.0-0.176","+","null","","","","","",""
"","717","html-keyboard-response","369","549267","0.0-3.0-1.176","promeção","s","null","noncog","pseudo","N","exp","null"
"","null","html-keyboard-response","370","549777","0.0-3.0-0.177","+","null","","","","","",""
"","1341","html-keyboard-response","371","551120","0.0-3.0-1.177","ilhure","s","null","noncog","pseudo","N","exp","null"
"","null","html-keyboard-response","372","551625","0.0-3.0-0.178","+","null","","","","","",""
"","1452","html-keyboard-response","373","553077","0.0-3.0-1.178","garastia","s","null","noncog","pseudo","N","exp","null"
"","null","html-keyboard-response","374","553593","0.0-3.0-0.179","+","null","","","","","",""
"","1017","html-keyboard-response","375","554609","0.0-3.0-1.179","selir","s","null","noncog","pseudo","N","exp","null"
"","null","html-keyboard-response","376","555115","0.0-3.0-0.180","+","null","","","","","",""
"","1866","html-keyboard-response","377","556982","0.0-3.0-1.180","jastor","s","null","noncog","pseudo","N","exp","null"
"","null","html-keyboard-response","378","557498","0.0-3.0-0.181","+","null","","","","","",""
"","769","html-keyboard-response","379","558268","0.0-3.0-1.181","ideisa","s","null","noncog","pseudo","N","exp","null"
"","null","html-keyboard-response","380","558779","0.0-3.0-0.182","+","null","","","","","",""
"","628","html-keyboard-response","381","559407","0.0-3.0-1.182","reduzir","s","v","cog","word","S","exp","7"
"","null","html-keyboard-response","382","559914","0.0-3.0-0.183","+","null","","","","","",""
"","719","html-keyboard-response","383","560635","0.0-3.0-1.183","ofreta","s","null","noncog","pseudo","N","exp","null"
"","null","html-keyboard-response","384","561146","0.0-3.0-0.184","+","null","","","","","",""
"","2198","html-keyboard-response","385","563345","0.0-3.0-1.184","boreta","n","null","noncog","pseudo","N","exp","null"
"","null","html-keyboard-response","386","563855","0.0-3.0-0.185","+","null","","","","","",""
"","1055","html-keyboard-response","387","564912","0.0-3.0-1.185","drama","s","n","cog","word","S","exp","5"
"","null","html-keyboard-response","388","565413","0.0-3.0-0.186","+","null","","","","","",""
"","774","html-keyboard-response","389","566189","0.0-3.0-1.186","burtos","s","null","noncog","pseudo","N","exp","null"
"","null","html-keyboard-response","390","566693","0.0-3.0-0.187","+","null","","","","","",""
"","801","html-keyboard-response","391","567495","0.0-3.0-1.187","podilo","n","null","noncog","pseudo","N","exp","null"
"","null","html-keyboard-response","392","568009","0.0-3.0-0.188","+","null","","","","","",""
"","659","html-keyboard-response","393","568669","0.0-3.0-1.188","areia","s","n","noncog","word","S","exp","5"
"","null","html-keyboard-response","394","569180","0.0-3.0-0.189","+","null","","","","","",""
"","608","html-keyboard-response","395","569790","0.0-3.0-1.189","cápsula","s","n","noncog","word","S","exp","7"
"","null","html-keyboard-response","396","570298","0.0-3.0-0.190","+","null","","","","","",""
"","822","html-keyboard-response","397","571120","0.0-3.0-1.190","dobradiça","s","n","noncog","word","S","exp","9"
"","null","html-keyboard-response","398","571630","0.0-3.0-0.191","+","null","","","","","",""
"","1253","html-keyboard-response","399","572885","0.0-3.0-1.191","morno","s","a","noncog","word","S","exp","5"
"","null","html-keyboard-response","400","573401","0.0-3.0-0.192","+","null","","","","","",""
"","1628","html-keyboard-response","401","575029","0.0-3.0-1.192","livro","s","n","cog","word","S","exp","5"
"","null","html-keyboard-response","402","575539","0.0-3.0-0.193","+","null","","","","","",""
"","1284","html-keyboard-response","403","576823","0.0-3.0-1.193","irratinte","n","null","noncog","pseudo","N","exp","null"
"","null","html-keyboard-response","404","577326","0.0-3.0-0.194","+","null","","","","","",""
"","725","html-keyboard-response","405","578053","0.0-3.0-1.194","candifência","s","null","noncog","pseudo","N","exp","null"
"","null","html-keyboard-response","406","578556","0.0-3.0-0.195","+","null","","","","","",""
"","2000","html-keyboard-response","407","580557","0.0-3.0-1.195","tatear","s","v","cog","word","S","exp","6"
"","null","html-keyboard-response","408","581065","0.0-3.0-0.196","+","null","","","","","",""
"","1283","html-keyboard-response","409","582349","0.0-3.0-1.196","vervas","s","null","noncog","pseudo","N","exp","null"
"","null","html-keyboard-response","410","582860","0.0-3.0-0.197","+","null","","","","","",""
"","813","html-keyboard-response","411","583674","0.0-3.0-1.197","cravo","s","n","noncog","word","S","exp","5"
"","null","html-keyboard-response","412","584188","0.0-3.0-0.198","+","null","","","","","",""
"","843","html-keyboard-response","413","585033","0.0-3.0-1.198","viver","s","v","cog","word","S","exp","5"
"","null","html-keyboard-response","414","585550","0.0-3.0-0.199","+","null","","","","","",""
"","956","html-keyboard-response","415","586507","0.0-3.0-1.199","revear","s","null","noncog","pseudo","N","exp","null"
"","null","html-keyboard-response","416","587014","0.0-3.0-0.200","+","null","","","","","",""
"","806","html-keyboard-response","417","587822","0.0-3.0-1.200","papai","s","n","cog","word","S","exp","5"
"","null","html-keyboard-response","418","588332","0.0-3.0-0.201","+","null","","","","","",""
"","943","html-keyboard-response","419","589276","0.0-3.0-1.201","quenzina","s","null","noncog","pseudo","N","exp","null"
"","null","html-keyboard-response","420","589791","0.0-3.0-0.202","+","null","","","","","",""
"","856","html-keyboard-response","421","590649","0.0-3.0-1.202","braras","s","null","noncog","pseudo","N","exp","null"
"","null","html-keyboard-response","422","591164","0.0-3.0-0.203","+","null","","","","","",""
"","591","html-keyboard-response","423","591756","0.0-3.0-1.203","avenas","s","null","noncog","pseudo","N","exp","null"
"","null","html-keyboard-response","424","592263","0.0-3.0-0.204","+","null","","","","","",""
"","1353","html-keyboard-response","425","593618","0.0-3.0-1.204","fratos","s","null","noncog","pseudo","N","exp","null"
"","null","html-keyboard-response","426","594132","0.0-3.0-0.205","+","null","","","","","",""
"","1174","html-keyboard-response","427","595306","0.0-3.0-1.205","atrasar","s","v","noncog","word","S","exp","7"
"","null","html-keyboard-response","428","595810","0.0-3.0-0.206","+","null","","","","","",""
"","1328","html-keyboard-response","429","597140","0.0-3.0-1.206","delomir","n","null","noncog","pseudo","N","exp","null"
"","null","html-keyboard-response","430","597651","0.0-3.0-0.207","+","null","","","","","",""
"","1015","html-keyboard-response","431","598668","0.0-3.0-1.207","cenada","s","null","noncog","pseudo","N","exp","null"
"","null","html-keyboard-response","432","599181","0.0-3.0-0.208","+","null","","","","","",""
"","1392","html-keyboard-response","433","600573","0.0-3.0-1.208","pneucania","s","null","noncog","pseudo","N","exp","null"
"","null","html-keyboard-response","434","601091","0.0-3.0-0.209","+","null","","","","","",""
"","1023","html-keyboard-response","435","602117","0.0-3.0-1.209","aperor","s","null","noncog","pseudo","N","exp","null"
"","null","html-keyboard-response","436","602632","0.0-3.0-0.210","+","null","","","","","",""
"","883","html-keyboard-response","437","603517","0.0-3.0-1.210","espinho","s","n","noncog","word","S","exp","7"
"","null","html-keyboard-response","438","604018","0.0-3.0-0.211","+","null","","","","","",""
"","888","html-keyboard-response","439","604907","0.0-3.0-1.211","fasdas","s","null","noncog","pseudo","N","exp","null"
"","null","html-keyboard-response","440","605411","0.0-3.0-0.212","+","null","","","","","",""
"","657","html-keyboard-response","441","606070","0.0-3.0-1.212","lagras","s","null","noncog","pseudo","N","exp","null"
"","null","html-keyboard-response","442","606587","0.0-3.0-0.213","+","null","","","","","",""
"","761","html-keyboard-response","443","607349","0.0-3.0-1.213","fusbão","s","null","noncog","pseudo","N","exp","null"
"","null","html-keyboard-response","444","607865","0.0-3.0-0.214","+","null","","","","","",""
"","691","html-keyboard-response","445","608557","0.0-3.0-1.214","carro","s","n","noncog","word","S","exp","5"
"","null","html-keyboard-response","446","609069","0.0-3.0-0.215","+","null","","","","","",""
"","853","html-keyboard-response","447","609923","0.0-3.0-1.215","tela","s","n","noncog","word","S","exp","4"
"","null","html-keyboard-response","448","610435","0.0-3.0-0.216","+","null","","","","","",""
"","862","html-keyboard-response","449","611298","0.0-3.0-1.216","trenos","s","null","noncog","pseudo","N","exp","null"
"","null","html-keyboard-response","450","611806","0.0-3.0-0.217","+","null","","","","","",""
"","1611","html-keyboard-response","451","613418","0.0-3.0-1.217","mabras","s","null","noncog","pseudo","N","exp","null"
"","null","html-keyboard-response","452","613933","0.0-3.0-0.218","+","null","","","","","",""
"","771","html-keyboard-response","453","614705","0.0-3.0-1.218","distraído","s","a","cog","word","S","exp","9"
"","null","html-keyboard-response","454","615214","0.0-3.0-0.219","+","null","","","","","",""
"","1137","html-keyboard-response","455","616352","0.0-3.0-1.219","instruído","s","a","noncog","word","S","exp","9"
"","null","html-keyboard-response","456","616861","0.0-3.0-0.220","+","null","","","","","",""
"","1054","html-keyboard-response","457","617915","0.0-3.0-1.220","euorpa","n","null","noncog","pseudo","N","exp","null"
"","null","html-keyboard-response","458","618427","0.0-3.0-0.221","+","null","","","","","",""
"","2117","html-keyboard-response","459","620544","0.0-3.0-1.221","bagunceira","s","a","noncog","word","S","exp","10"
"","null","html-keyboard-response","460","621062","0.0-3.0-0.222","+","null","","","","","",""
"","678","html-keyboard-response","461","621741","0.0-3.0-1.222","nacional","s","a","cog","word","S","exp","8"
"","null","html-keyboard-response","462","622249","0.0-3.0-0.223","+","null","","","","","",""
"","1554","html-keyboard-response","463","623804","0.0-3.0-1.223","gordo","s","a","noncog","word","S","exp","5"
"","null","html-keyboard-response","464","624323","0.0-3.0-0.224","+","null","","","","","",""
"","1680","html-keyboard-response","465","626003","0.0-3.0-1.224","faínas","n","null","noncog","pseudo","N","exp","null"
"","null","html-keyboard-response","466","626512","0.0-3.0-0.225","+","null","","","","","",""
"","1120","html-keyboard-response","467","627636","0.0-3.0-1.225","tímido","s","a","cog","word","S","exp","6"
"","null","html-keyboard-response","468","628140","0.0-3.0-0.226","+","null","","","","","",""
"","1552","html-keyboard-response","469","629694","0.0-3.0-1.226","verceja","n","null","noncog","pseudo","N","exp","null"
"","null","html-keyboard-response","470","630210","0.0-3.0-0.227","+","null","","","","","",""
"","1615","html-keyboard-response","471","631828","0.0-3.0-1.227","ejerro","n","null","noncog","pseudo","N","exp","null"
"","null","html-keyboard-response","472","632336","0.0-3.0-0.228","+","null","","","","","",""
"","1383","html-keyboard-response","473","633720","0.0-3.0-1.228","crolatário","s","null","noncog","pseudo","N","exp","null"
"","null","html-keyboard-response","474","634235","0.0-3.0-0.229","+","null","","","","","",""
"","893","html-keyboard-response","475","635130","0.0-3.0-1.229","agressivo","s","a","cog","word","S","exp","9"
"","null","html-keyboard-response","476","635636","0.0-3.0-0.230","+","null","","","","","",""
"","2880","html-keyboard-response","477","638517","0.0-3.0-1.230","bibarconato","n","null","noncog","pseudo","N","exp","null"
"","null","html-keyboard-response","478","639019","0.0-3.0-0.231","+","null","","","","","",""
"","2524","html-keyboard-response","479","641545","0.0-3.0-1.231","pitada","s","n","noncog","word","S","exp","6"
"","null","html-keyboard-response","480","642054","0.0-3.0-0.232","+","null","","","","","",""
"","1343","html-keyboard-response","481","643397","0.0-3.0-1.232","agravar","s","v","cog","word","S","exp","7"
"","null","html-keyboard-response","482","643914","0.0-3.0-0.233","+","null","","","","","",""
"","2268","html-keyboard-response","483","646183","0.0-3.0-1.233","aletiê","s","null","noncog","pseudo","N","exp","null"
"","null","html-keyboard-response","484","646696","0.0-3.0-0.234","+","null","","","","","",""
"","1036","html-keyboard-response","485","647732","0.0-3.0-1.234","pimada","n","null","noncog","pseudo","N","exp","null"
"","null","html-keyboard-response","486","648244","0.0-3.0-0.235","+","null","","","","","",""
"","1727","html-keyboard-response","487","649972","0.0-3.0-1.235","senareta","s","null","noncog","pseudo","N","exp","null"
"","null","html-keyboard-response","488","650475","0.0-3.0-0.236","+","null","","","","","",""
"","715","html-keyboard-response","489","651193","0.0-3.0-1.236","perdão","s","n","noncog","word","S","exp","6"
"","null","html-keyboard-response","490","651705","0.0-3.0-0.237","+","null","","","","","",""
"","715","html-keyboard-response","491","652420","0.0-3.0-1.237","tio","s","n","noncog","word","S","exp","3"
"","null","html-keyboard-response","492","652924","0.0-3.0-0.238","+","null","","","","","",""
"","866","html-keyboard-response","493","653791","0.0-3.0-1.238","perbas","s","null","noncog","pseudo","N","exp","null"
"","null","html-keyboard-response","494","654295","0.0-3.0-0.239","+","null","","","","","",""
"","867","html-keyboard-response","495","655163","0.0-3.0-1.239","nome","s","n","cog","word","S","exp","4"
