[
	{
		"view_history": [
			{
				"page_index": 0,
				"viewing_time": 21489
			},
			{
				"page_index": 1,
				"viewing_time": 1597
			}
		],
		"rt": 23086,
		"trial_type": "instructions",
		"trial_index": 0,
		"time_elapsed": 23092,
		"internal_node_id": "0.0-0.0"
	},
	{
		"rt": null,
		"stimulus": "<span style= \"font-size:30px; font-family: monospace\">+</span>",
		"response": null,
		"trial_part": "fixation",
		"trial_type": "html-keyboard-response",
		"trial_index": 1,
		"time_elapsed": 24219,
		"internal_node_id": "0.0-1.0-0.0-0.0"
	},
	{
		"rt": 3477,
		"stimulus": "<span style=\"font-size:30px; font-family: monospace\">O</span>",
		"response": " ",
		"trial": "prac-sent",
		"word": "O",
		"trial_type": "html-keyboard-response",
		"trial_index": 2,
		"time_elapsed": 27952,
		"internal_node_id": "0.0-1.0-1.0"
	},
	{
		"rt": 929,
		"stimulus": "<span style=\"font-size:30px; font-family: monospace\">dia</span>",
		"response": " ",
		"trial": "prac-sent",
		"word": "dia",
		"trial_type": "html-keyboard-response",
		"trial_index": 3,
		"time_elapsed": 29136,
		"internal_node_id": "0.0-1.0-1.1"
	},
	{
		"rt": 799,
		"stimulus": "<span style=\"font-size:30px; font-family: monospace\">estará</span>",
		"response": " ",
		"trial": "prac-sent",
		"word": "estará",
		"trial_type": "html-keyboard-response",
		"trial_index": 4,
		"time_elapsed": 30202,
		"internal_node_id": "0.0-1.0-1.2"
	},
	{
		"rt": 899,
		"stimulus": "<span style=\"font-size:30px; font-family: monospace\">cheio</span>",
		"response": " ",
		"trial": "prac-sent",
		"word": "cheio",
		"trial_type": "html-keyboard-response",
		"trial_index": 5,
		"time_elapsed": 31363,
		"internal_node_id": "0.0-1.0-1.3"
	},
	{
		"rt": 696,
		"stimulus": "<span style=\"font-size:30px; font-family: monospace\">de</span>",
		"response": " ",
		"trial": "prac-sent",
		"word": "de",
		"trial_type": "html-keyboard-response",
		"trial_index": 6,
		"time_elapsed": 32313,
		"internal_node_id": "0.0-1.0-1.4"
	},
	{
		"rt": 674,
		"stimulus": "<span style=\"font-size:30px; font-family: monospace\">nuvens</span>",
		"response": " ",
		"trial": "prac-sent",
		"word": "nuvens",
		"trial_type": "html-keyboard-response",
		"trial_index": 7,
		"time_elapsed": 33255,
		"internal_node_id": "0.0-1.0-1.5"
	},
	{
		"rt": 736,
		"stimulus": "<span style=\"font-size:30px; font-family: monospace\">hoje.</span>",
		"response": " ",
		"trial": "prac-sent",
		"word": "hoje.",
		"trial_type": "html-keyboard-response",
		"trial_index": 8,
		"time_elapsed": 34257,
		"internal_node_id": "0.0-1.0-1.6"
	},
	{
		"rt": null,
		"stimulus": "<span style= \"font-size:30px; font-family: monospace\">+</span>",
		"response": null,
		"trial_part": "fixation",
		"trial_type": "html-keyboard-response",
		"trial_index": 9,
		"time_elapsed": 35521,
		"internal_node_id": "0.0-1.0-0.7-0.7"
	},
	{
		"rt": 1650,
		"stimulus": "<span style=\"font-size:30px; font-family: monospace\">A</span>",
		"response": " ",
		"trial": "prac-sent",
		"word": "A",
		"trial_type": "html-keyboard-response",
		"trial_index": 10,
		"time_elapsed": 37437,
		"internal_node_id": "0.0-1.0-1.7"
	},
	{
		"rt": 806,
		"stimulus": "<span style=\"font-size:30px; font-family: monospace\">caneca</span>",
		"response": " ",
		"trial": "prac-sent",
		"word": "caneca",
		"trial_type": "html-keyboard-response",
		"trial_index": 11,
		"time_elapsed": 38511,
		"internal_node_id": "0.0-1.0-1.8"
	},
	{
		"rt": 905,
		"stimulus": "<span style=\"font-size:30px; font-family: monospace\">colorida</span>",
		"response": " ",
		"trial": "prac-sent",
		"word": "colorida",
		"trial_type": "html-keyboard-response",
		"trial_index": 12,
		"time_elapsed": 39672,
		"internal_node_id": "0.0-1.0-1.9"
	},
	{
		"rt": 685,
		"stimulus": "<span style=\"font-size:30px; font-family: monospace\">caiu</span>",
		"response": " ",
		"trial": "prac-sent",
		"word": "caiu",
		"trial_type": "html-keyboard-response",
		"trial_index": 13,
		"time_elapsed": 40609,
		"internal_node_id": "0.0-1.0-1.10"
	},
	{
		"rt": 685,
		"stimulus": "<span style=\"font-size:30px; font-family: monospace\">da</span>",
		"response": " ",
		"trial": "prac-sent",
		"word": "da",
		"trial_type": "html-keyboard-response",
		"trial_index": 14,
		"time_elapsed": 41546,
		"internal_node_id": "0.0-1.0-1.11"
	},
	{
		"rt": 793,
		"stimulus": "<span style=\"font-size:30px; font-family: monospace\">mesa</span>",
		"response": " ",
		"trial": "prac-sent",
		"word": "mesa",
		"trial_type": "html-keyboard-response",
		"trial_index": 15,
		"time_elapsed": 42591,
		"internal_node_id": "0.0-1.0-1.12"
	},
	{
		"rt": 589,
		"stimulus": "<span style=\"font-size:30px; font-family: monospace\">de</span>",
		"response": " ",
		"trial": "prac-sent",
		"word": "de",
		"trial_type": "html-keyboard-response",
		"trial_index": 16,
		"time_elapsed": 43436,
		"internal_node_id": "0.0-1.0-1.13"
	},
	{
		"rt": 808,
		"stimulus": "<span style=\"font-size:30px; font-family: monospace\">jantar.</span>",
		"response": " ",
		"trial": "prac-comp",
		"word": "jantar.",
		"trial_type": "html-keyboard-response",
		"trial_index": 17,
		"time_elapsed": 44497,
		"internal_node_id": "0.0-1.0-1.14"
	},
	{
		"rt": 2391,
		"stimulus": "<span style=\"font-size:30px; font-family: monospace\">A caneca permaneceu na mesa?</span>",
		"response": "n",
		"question": "A caneca permaneceu na mesa?",
		"answer": "não",
		"trial": "prac-comp",
		"trial_type": "html-keyboard-response",
		"trial_index": 18,
		"time_elapsed": 47155,
		"internal_node_id": "0.0-1.0-2.14-0.14",
		"accuracy": false
	},
	{
		"view_history": [
			{
				"page_index": 0,
				"viewing_time": 15897
			}
		],
		"rt": 15898,
		"trial_type": "instructions",
		"trial_index": 19,
		"time_elapsed": 63555,
		"internal_node_id": "0.0-2.0"
	},
	{
		"rt": null,
		"stimulus": "<span style= \"font-size:30px; font-family: monospace\">+</span>",
		"response": null,
		"trial_part": "fixation",
		"trial_type": "html-keyboard-response",
		"trial_index": 20,
		"time_elapsed": 64680,
		"internal_node_id": "0.0-3.0-0.0-0.0"
	},
	{
		"rt": 1264,
		"stimulus": "<span style=\"font-size:30px; font-family: monospace\">Ganhamos</span>",
		"response": " ",
		"trial": "exp-sent",
		"word": "Ganhamos",
		"trial_type": "html-keyboard-response",
		"trial_index": 21,
		"time_elapsed": 66205,
		"internal_node_id": "0.0-3.0-1.0"
	},
	{
		"rt": 701,
		"stimulus": "<span style=\"font-size:30px; font-family: monospace\">passagem</span>",
		"response": " ",
		"trial": "exp-sent",
		"word": "passagem",
		"trial_type": "html-keyboard-response",
		"trial_index": 22,
		"time_elapsed": 67172,
		"internal_node_id": "0.0-3.0-1.1"
	},
	{
		"rt": 648,
		"stimulus": "<span style=\"font-size:30px; font-family: monospace\">para</span>",
		"response": " ",
		"trial": "exp-sent",
		"word": "para",
		"trial_type": "html-keyboard-response",
		"trial_index": 23,
		"time_elapsed": 68084,
		"internal_node_id": "0.0-3.0-1.2"
	},
	{
		"rt": 665,
		"stimulus": "<span style=\"font-size:30px; font-family: monospace\">uma</span>",
		"response": " ",
		"trial": "exp-sent",
		"word": "uma",
		"trial_type": "html-keyboard-response",
		"trial_index": 24,
		"time_elapsed": 69000,
		"internal_node_id": "0.0-3.0-1.3"
	},
	{
		"rt": 784,
		"stimulus": "<span style=\"font-size:30px; font-family: monospace\">viagem</span>",
		"response": " ",
		"trial": "exp-sent",
		"word": "viagem",
		"trial_type": "html-keyboard-response",
		"trial_index": 25,
		"time_elapsed": 70039,
		"internal_node_id": "0.0-3.0-1.4"
	},
	{
		"rt": 651,
		"stimulus": "<span style=\"font-size:30px; font-family: monospace\">de</span>",
		"response": " ",
		"trial": "exp-sent",
		"word": "de",
		"trial_type": "html-keyboard-response",
		"trial_index": 26,
		"time_elapsed": 70954,
		"internal_node_id": "0.0-3.0-1.5"
	},
	{
		"rt": 783,
		"stimulus": "<span style=\"font-size:30px; font-family: monospace\">férias.</span>",
		"response": " ",
		"trial": "exp-sent",
		"word": "férias.",
		"trial_type": "html-keyboard-response",
		"trial_index": 27,
		"time_elapsed": 71999,
		"internal_node_id": "0.0-3.0-1.6"
	},
	{
		"rt": null,
		"stimulus": "<span style= \"font-size:30px; font-family: monospace\">+</span>",
		"response": null,
		"trial_part": "fixation",
		"trial_type": "html-keyboard-response",
		"trial_index": 28,
		"time_elapsed": 73264,
		"internal_node_id": "0.0-3.0-0.7-0.7"
	},
	{
		"rt": 1014,
		"stimulus": "<span style=\"font-size:30px; font-family: monospace\">Caiu</span>",
		"response": " ",
		"trial": "exp-sent",
		"word": "Caiu",
		"trial_type": "html-keyboard-response",
		"trial_index": 29,
		"time_elapsed": 74543,
		"internal_node_id": "0.0-3.0-1.7"
	},
	{
		"rt": 805,
		"stimulus": "<span style=\"font-size:30px; font-family: monospace\">algo</span>",
		"response": " ",
		"trial": "exp-sent",
		"word": "algo",
		"trial_type": "html-keyboard-response",
		"trial_index": 30,
		"time_elapsed": 75611,
		"internal_node_id": "0.0-3.0-1.8"
	},
	{
		"rt": 756,
		"stimulus": "<span style=\"font-size:30px; font-family: monospace\">no</span>",
		"response": " ",
		"trial": "exp-sent",
		"word": "no",
		"trial_type": "html-keyboard-response",
		"trial_index": 31,
		"time_elapsed": 76627,
		"internal_node_id": "0.0-3.0-1.9"
	},
	{
		"rt": 734,
		"stimulus": "<span style=\"font-size:30px; font-family: monospace\">meu</span>",
		"response": " ",
		"trial": "exp-sent",
		"word": "meu",
		"trial_type": "html-keyboard-response",
		"trial_index": 32,
		"time_elapsed": 77620,
		"internal_node_id": "0.0-3.0-1.10"
	},
	{
		"rt": 738,
		"stimulus": "<span style=\"font-size:30px; font-family: monospace\">olho</span>",
		"response": " ",
		"trial": "exp-sent",
		"word": "olho",
		"trial_type": "html-keyboard-response",
		"trial_index": 33,
		"time_elapsed": 78621,
		"internal_node_id": "0.0-3.0-1.11"
	},
	{
		"rt": 793,
		"stimulus": "<span style=\"font-size:30px; font-family: monospace\">ontem</span>",
		"response": " ",
		"trial": "exp-sent",
		"word": "ontem",
		"trial_type": "html-keyboard-response",
		"trial_index": 34,
		"time_elapsed": 79676,
		"internal_node_id": "0.0-3.0-1.12"
	},
	{
		"rt": 714,
		"stimulus": "<span style=\"font-size:30px; font-family: monospace\">de</span>",
		"response": " ",
		"trial": "exp-sent",
		"word": "de",
		"trial_type": "html-keyboard-response",
		"trial_index": 35,
		"time_elapsed": 80650,
		"internal_node_id": "0.0-3.0-1.13"
	},
	{
		"rt": 718,
		"stimulus": "<span style=\"font-size:30px; font-family: monospace\">tarde.</span>",
		"response": " ",
		"trial": "exp-sent",
		"word": "tarde.",
		"trial_type": "html-keyboard-response",
		"trial_index": 36,
		"time_elapsed": 81630,
		"internal_node_id": "0.0-3.0-1.14"
	},
	{
		"rt": null,
		"stimulus": "<span style= \"font-size:30px; font-family: monospace\">+</span>",
		"response": null,
		"trial_part": "fixation",
		"trial_type": "html-keyboard-response",
		"trial_index": 37,
		"time_elapsed": 82894,
		"internal_node_id": "0.0-3.0-0.15-0.15"
	},
	{
		"rt": 874,
		"stimulus": "<span style=\"font-size:30px; font-family: monospace\">Não</span>",
		"response": " ",
		"trial": "exp-sent",
		"word": "Não",
		"trial_type": "html-keyboard-response",
		"trial_index": 38,
		"time_elapsed": 84027,
		"internal_node_id": "0.0-3.0-1.15"
	},
	{
		"rt": 763,
		"stimulus": "<span style=\"font-size:30px; font-family: monospace\">havia</span>",
		"response": " ",
		"trial": "exp-sent",
		"word": "havia",
		"trial_type": "html-keyboard-response",
		"trial_index": 39,
		"time_elapsed": 85054,
		"internal_node_id": "0.0-3.0-1.16"
	},
	{
		"rt": 783,
		"stimulus": "<span style=\"font-size:30px; font-family: monospace\">mais</span>",
		"response": " ",
		"trial": "exp-sent",
		"word": "mais",
		"trial_type": "html-keyboard-response",
		"trial_index": 40,
		"time_elapsed": 86099,
		"internal_node_id": "0.0-3.0-1.17"
	},
	{
		"rt": 744,
		"stimulus": "<span style=\"font-size:30px; font-family: monospace\">nenhum</span>",
		"response": " ",
		"trial": "exp-sent",
		"word": "nenhum",
		"trial_type": "html-keyboard-response",
		"trial_index": 41,
		"time_elapsed": 87105,
		"internal_node_id": "0.0-3.0-1.18"
	},
	{
		"rt": 694,
		"stimulus": "<span style=\"font-size:30px; font-family: monospace\">ingresso</span>",
		"response": " ",
		"trial": "exp-sent",
		"word": "ingresso",
		"trial_type": "html-keyboard-response",
		"trial_index": 42,
		"time_elapsed": 88054,
		"internal_node_id": "0.0-3.0-1.19"
	},
	{
		"rt": 665,
		"stimulus": "<span style=\"font-size:30px; font-family: monospace\">para</span>",
		"response": " ",
		"trial": "exp-sent",
		"word": "para",
		"trial_type": "html-keyboard-response",
		"trial_index": 43,
		"time_elapsed": 88978,
		"internal_node_id": "0.0-3.0-1.20"
	},
	{
		"rt": 753,
		"stimulus": "<span style=\"font-size:30px; font-family: monospace\">o</span>",
		"response": " ",
		"trial": "exp-sent",
		"word": "o",
		"trial_type": "html-keyboard-response",
		"trial_index": 44,
		"time_elapsed": 89994,
		"internal_node_id": "0.0-3.0-1.21"
	},
	{
		"rt": 658,
		"stimulus": "<span style=\"font-size:30px; font-family: monospace\">evento.</span>",
		"response": " ",
		"trial": "exp-sent",
		"word": "evento.",
		"trial_type": "html-keyboard-response",
		"trial_index": 45,
		"time_elapsed": 90904,
		"internal_node_id": "0.0-3.0-1.22"
	},
	{
		"rt": null,
		"stimulus": "<span style= \"font-size:30px; font-family: monospace\">+</span>",
		"response": null,
		"trial_part": "fixation",
		"trial_type": "html-keyboard-response",
		"trial_index": 46,
		"time_elapsed": 92163,
		"internal_node_id": "0.0-3.0-0.23-0.23"
	},
	{
		"rt": 960,
		"stimulus": "<span style=\"font-size:30px; font-family: monospace\">A</span>",
		"response": " ",
		"trial": "exp-sent",
		"word": "A",
		"trial_type": "html-keyboard-response",
		"trial_index": 47,
		"time_elapsed": 93378,
		"internal_node_id": "0.0-3.0-1.23"
	},
	{
		"rt": 837,
		"stimulus": "<span style=\"font-size:30px; font-family: monospace\">médica</span>",
		"response": " ",
		"trial": "exp-sent",
		"word": "médica",
		"trial_type": "html-keyboard-response",
		"trial_index": 48,
		"time_elapsed": 94477,
		"internal_node_id": "0.0-3.0-1.24"
	},
	{
		"rt": 834,
		"stimulus": "<span style=\"font-size:30px; font-family: monospace\">descobriu</span>",
		"response": " ",
		"trial": "exp-sent",
		"word": "descobriu",
		"trial_type": "html-keyboard-response",
		"trial_index": 49,
		"time_elapsed": 95575,
		"internal_node_id": "0.0-3.0-1.25"
	},
	{
		"rt": 659,
		"stimulus": "<span style=\"font-size:30px; font-family: monospace\">uma</span>",
		"response": " ",
		"trial": "exp-sent",
		"word": "uma",
		"trial_type": "html-keyboard-response",
		"trial_index": 50,
		"time_elapsed": 96496,
		"internal_node_id": "0.0-3.0-1.26"
	},
	{
		"rt": 697,
		"stimulus": "<span style=\"font-size:30px; font-family: monospace\">cura</span>",
		"response": " ",
		"trial": "exp-sent",
		"word": "cura",
		"trial_type": "html-keyboard-response",
		"trial_index": 51,
		"time_elapsed": 97445,
		"internal_node_id": "0.0-3.0-1.27"
	},
	{
		"rt": 654,
		"stimulus": "<span style=\"font-size:30px; font-family: monospace\">para</span>",
		"response": " ",
		"trial": "exp-sent",
		"word": "para",
		"trial_type": "html-keyboard-response",
		"trial_index": 52,
		"time_elapsed": 98361,
		"internal_node_id": "0.0-3.0-1.28"
	},
	{
		"rt": 627,
		"stimulus": "<span style=\"font-size:30px; font-family: monospace\">a</span>",
		"response": " ",
		"trial": "exp-sent",
		"word": "a",
		"trial_type": "html-keyboard-response",
		"trial_index": 53,
		"time_elapsed": 99240,
		"internal_node_id": "0.0-3.0-1.29"
	},
	{
		"rt": 744,
		"stimulus": "<span style=\"font-size:30px; font-family: monospace\">doença.</span>",
		"response": " ",
		"trial": "exp-sent",
		"word": "doença.",
		"trial_type": "html-keyboard-response",
		"trial_index": 54,
		"time_elapsed": 100243,
		"internal_node_id": "0.0-3.0-1.30"
	},
	{
		"rt": null,
		"stimulus": "<span style= \"font-size:30px; font-family: monospace\">+</span>",
		"response": null,
		"trial_part": "fixation",
		"trial_type": "html-keyboard-response",
		"trial_index": 55,
		"time_elapsed": 101509,
		"internal_node_id": "0.0-3.0-0.31-0.31"
	},
	{
		"rt": 605,
		"stimulus": "<span style=\"font-size:30px; font-family: monospace\">O</span>",
		"response": " ",
		"trial": "exp-sent",
		"word": "O",
		"trial_type": "html-keyboard-response",
		"trial_index": 56,
		"time_elapsed": 102379,
		"internal_node_id": "0.0-3.0-1.31"
	},
	{
		"rt": 663,
		"stimulus": "<span style=\"font-size:30px; font-family: monospace\">menino</span>",
		"response": " ",
		"trial": "exp-sent",
		"word": "menino",
		"trial_type": "html-keyboard-response",
		"trial_index": 57,
		"time_elapsed": 103300,
		"internal_node_id": "0.0-3.0-1.32"
	},
	{
		"rt": 700,
		"stimulus": "<span style=\"font-size:30px; font-family: monospace\">riscou</span>",
		"response": " ",
		"trial": "exp-sent",
		"word": "riscou",
		"trial_type": "html-keyboard-response",
		"trial_index": 58,
		"time_elapsed": 104254,
		"internal_node_id": "0.0-3.0-1.33"
	},
	{
		"rt": 601,
		"stimulus": "<span style=\"font-size:30px; font-family: monospace\">o</span>",
		"response": " ",
		"trial": "exp-sent",
		"word": "o",
		"trial_type": "html-keyboard-response",
		"trial_index": 59,
		"time_elapsed": 105119,
		"internal_node_id": "0.0-3.0-1.34"
	},
	{
		"rt": 911,
		"stimulus": "<span style=\"font-size:30px; font-family: monospace\">caderno</span>",
		"response": " ",
		"trial": "exp-sent",
		"word": "caderno",
		"trial_type": "html-keyboard-response",
		"trial_index": 60,
		"time_elapsed": 106303,
		"internal_node_id": "0.0-3.0-1.35"
	},
	{
		"rt": 754,
		"stimulus": "<span style=\"font-size:30px; font-family: monospace\">com</span>",
		"response": " ",
		"trial": "exp-sent",
		"word": "com",
		"trial_type": "html-keyboard-response",
		"trial_index": 61,
		"time_elapsed": 107325,
		"internal_node_id": "0.0-3.0-1.36"
	},
	{
		"rt": 764,
		"stimulus": "<span style=\"font-size:30px; font-family: monospace\">a</span>",
		"response": " ",
		"trial": "exp-sent",
		"word": "a",
		"trial_type": "html-keyboard-response",
		"trial_index": 62,
		"time_elapsed": 108351,
		"internal_node_id": "0.0-3.0-1.37"
	},
	{
		"rt": 856,
		"stimulus": "<span style=\"font-size:30px; font-family: monospace\">caneta.</span>",
		"response": " ",
		"trial": "comp",
		"word": "caneta.",
		"trial_type": "html-keyboard-response",
		"trial_index": 63,
		"time_elapsed": 109469,
		"internal_node_id": "0.0-3.0-1.38"
	},
	{
		"rt": 2877,
		"stimulus": "<span style=\"font-size:30px; font-family: monospace\">O menino riscou a parede com a caneta?</span>",
		"response": "s",
		"question": "O menino riscou a parede com a caneta?",
		"answer": "não",
		"trial": "comp",
		"trial_type": "html-keyboard-response",
		"trial_index": 64,
		"time_elapsed": 112606,
		"internal_node_id": "0.0-3.0-2.38-0.38",
		"accuracy": false
	},
	{
		"rt": null,
		"stimulus": "<span style= \"font-size:30px; font-family: monospace\">+</span>",
		"response": null,
		"trial_part": "fixation",
		"trial_type": "html-keyboard-response",
		"trial_index": 65,
		"time_elapsed": 114134,
		"internal_node_id": "0.0-3.0-0.39-0.39"
	},
	{
		"rt": 634,
		"stimulus": "<span style=\"font-size:30px; font-family: monospace\">O</span>",
		"response": " ",
		"trial": "exp-sent",
		"word": "O",
		"trial_type": "html-keyboard-response",
		"trial_index": 66,
		"time_elapsed": 115032,
		"internal_node_id": "0.0-3.0-1.39"
	},
	{
		"rt": 662,
		"stimulus": "<span style=\"font-size:30px; font-family: monospace\">texto</span>",
		"response": " ",
		"trial": "exp-sent",
		"word": "texto",
		"trial_type": "html-keyboard-response",
		"trial_index": 67,
		"time_elapsed": 115960,
		"internal_node_id": "0.0-3.0-1.40"
	},
	{
		"rt": 608,
		"stimulus": "<span style=\"font-size:30px; font-family: monospace\">trazia</span>",
		"response": " ",
		"trial": "exp-sent",
		"word": "trazia",
		"trial_type": "html-keyboard-response",
		"trial_index": 68,
		"time_elapsed": 116821,
		"internal_node_id": "0.0-3.0-1.41"
	},
	{
		"rt": 524,
		"stimulus": "<span style=\"font-size:30px; font-family: monospace\">um</span>",
		"response": " ",
		"trial": "exp-sent",
		"word": "um",
		"trial_type": "html-keyboard-response",
		"trial_index": 69,
		"time_elapsed": 117606,
		"internal_node_id": "0.0-3.0-1.42"
	},
	{
		"rt": 753,
		"stimulus": "<span style=\"font-size:30px; font-family: monospace\">argumento</span>",
		"response": " ",
		"trial": "exp-sent",
		"word": "argumento",
		"trial_type": "html-keyboard-response",
		"trial_index": 70,
		"time_elapsed": 118615,
		"internal_node_id": "0.0-3.0-1.43"
	},
	{
		"rt": 537,
		"stimulus": "<span style=\"font-size:30px; font-family: monospace\">central</span>",
		"response": " ",
		"trial": "exp-sent",
		"word": "central",
		"trial_type": "html-keyboard-response",
		"trial_index": 71,
		"time_elapsed": 119404,
		"internal_node_id": "0.0-3.0-1.44"
	},
	{
		"rt": 446,
		"stimulus": "<span style=\"font-size:30px; font-family: monospace\">para</span>",
		"response": " ",
		"trial": "exp-sent",
		"word": "para",
		"trial_type": "html-keyboard-response",
		"trial_index": 72,
		"time_elapsed": 120115,
		"internal_node_id": "0.0-3.0-1.45"
	},
	{
		"rt": 527,
		"stimulus": "<span style=\"font-size:30px; font-family: monospace\">a</span>",
		"response": " ",
		"trial": "exp-sent",
		"word": "a",
		"trial_type": "html-keyboard-response",
		"trial_index": 73,
		"time_elapsed": 120895,
		"internal_node_id": "0.0-3.0-1.46"
	},
	{
		"rt": 856,
		"stimulus": "<span style=\"font-size:30px; font-family: monospace\">conversa.</span>",
		"response": " ",
		"trial": "exp-sent",
		"word": "conversa.",
		"trial_type": "html-keyboard-response",
		"trial_index": 74,
		"time_elapsed": 122006,
		"internal_node_id": "0.0-3.0-1.47"
	},
	{
		"rt": null,
		"stimulus": "<span style= \"font-size:30px; font-family: monospace\">+</span>",
		"response": null,
		"trial_part": "fixation",
		"trial_type": "html-keyboard-response",
		"trial_index": 75,
		"time_elapsed": 123273,
		"internal_node_id": "0.0-3.0-0.48-0.48"
	},
	{
		"rt": 752,
		"stimulus": "<span style=\"font-size:30px; font-family: monospace\">Ontem</span>",
		"response": " ",
		"trial": "exp-sent",
		"word": "Ontem",
		"trial_type": "html-keyboard-response",
		"trial_index": 76,
		"time_elapsed": 124278,
		"internal_node_id": "0.0-3.0-1.48"
	},
	{
		"rt": 608,
		"stimulus": "<span style=\"font-size:30px; font-family: monospace\">a</span>",
		"response": " ",
		"trial": "exp-sent",
		"word": "a",
		"trial_type": "html-keyboard-response",
		"trial_index": 77,
		"time_elapsed": 125147,
		"internal_node_id": "0.0-3.0-1.49"
	},
	{
		"rt": 727,
		"stimulus": "<span style=\"font-size:30px; font-family: monospace\">temperatura</span>",
		"response": " ",
		"trial": "exp-sent",
		"word": "temperatura",
		"trial_type": "html-keyboard-response",
		"trial_index": 78,
		"time_elapsed": 126135,
		"internal_node_id": "0.0-3.0-1.50"
	},
	{
		"rt": 625,
		"stimulus": "<span style=\"font-size:30px; font-family: monospace\">estava</span>",
		"response": " ",
		"trial": "exp-sent",
		"word": "estava",
		"trial_type": "html-keyboard-response",
		"trial_index": 79,
		"time_elapsed": 127026,
		"internal_node_id": "0.0-3.0-1.51"
	},
	{
		"rt": 667,
		"stimulus": "<span style=\"font-size:30px; font-family: monospace\">amena</span>",
		"response": " ",
		"trial": "exp-sent",
		"word": "amena",
		"trial_type": "html-keyboard-response",
		"trial_index": 80,
		"time_elapsed": 127967,
		"internal_node_id": "0.0-3.0-1.52"
	},
	{
		"rt": 582,
		"stimulus": "<span style=\"font-size:30px; font-family: monospace\">durante</span>",
		"response": " ",
		"trial": "exp-sent",
		"word": "durante",
		"trial_type": "html-keyboard-response",
		"trial_index": 81,
		"time_elapsed": 128808,
		"internal_node_id": "0.0-3.0-1.53"
	},
	{
		"rt": 607,
		"stimulus": "<span style=\"font-size:30px; font-family: monospace\">o</span>",
		"response": " ",
		"trial": "exp-sent",
		"word": "o",
		"trial_type": "html-keyboard-response",
		"trial_index": 82,
		"time_elapsed": 129670,
		"internal_node_id": "0.0-3.0-1.54"
	},
	{
		"rt": 826,
		"stimulus": "<span style=\"font-size:30px; font-family: monospace\">dia.</span>",
		"response": " ",
		"trial": "exp-sent",
		"word": "dia.",
		"trial_type": "html-keyboard-response",
		"trial_index": 83,
		"time_elapsed": 130748,
		"internal_node_id": "0.0-3.0-1.55"
	},
	{
		"rt": null,
		"stimulus": "<span style= \"font-size:30px; font-family: monospace\">+</span>",
		"response": null,
		"trial_part": "fixation",
		"trial_type": "html-keyboard-response",
		"trial_index": 84,
		"time_elapsed": 132023,
		"internal_node_id": "0.0-3.0-0.56-0.56"
	},
	{
		"rt": 179,
		"stimulus": "<span style=\"font-size:30px; font-family: monospace\">Havia</span>",
		"response": " ",
		"trial": "exp-sent",
		"word": "Havia",
		"trial_type": "html-keyboard-response",
		"trial_index": 85,
		"time_elapsed": 132456,
		"internal_node_id": "0.0-3.0-1.56"
	},
	{
		"rt": 910,
		"stimulus": "<span style=\"font-size:30px; font-family: monospace\">um</span>",
		"response": " ",
		"trial": "exp-sent",
		"word": "um",
		"trial_type": "html-keyboard-response",
		"trial_index": 86,
		"time_elapsed": 133618,
		"internal_node_id": "0.0-3.0-1.57"
	},
	{
		"rt": 745,
		"stimulus": "<span style=\"font-size:30px; font-family: monospace\">machucado</span>",
		"response": " ",
		"trial": "exp-sent",
		"word": "machucado",
		"trial_type": "html-keyboard-response",
		"trial_index": 87,
		"time_elapsed": 134615,
		"internal_node_id": "0.0-3.0-1.58"
	},
	{
		"rt": 823,
		"stimulus": "<span style=\"font-size:30px; font-family: monospace\">no</span>",
		"response": " ",
		"trial": "exp-sent",
		"word": "no",
		"trial_type": "html-keyboard-response",
		"trial_index": 88,
		"time_elapsed": 135703,
		"internal_node_id": "0.0-3.0-1.59"
	},
	{
		"rt": 688,
		"stimulus": "<span style=\"font-size:30px; font-family: monospace\">dedo</span>",
		"response": " ",
		"trial": "exp-sent",
		"word": "dedo",
		"trial_type": "html-keyboard-response",
		"trial_index": 89,
		"time_elapsed": 136645,
		"internal_node_id": "0.0-3.0-1.60"
	},
	{
		"rt": 828,
		"stimulus": "<span style=\"font-size:30px; font-family: monospace\">da</span>",
		"response": " ",
		"trial": "exp-sent",
		"word": "da",
		"trial_type": "html-keyboard-response",
		"trial_index": 90,
		"time_elapsed": 137734,
		"internal_node_id": "0.0-3.0-1.61"
	},
	{
		"rt": 782,
		"stimulus": "<span style=\"font-size:30px; font-family: monospace\">criança.</span>",
		"response": " ",
		"trial": "exp-sent",
		"word": "criança.",
		"trial_type": "html-keyboard-response",
		"trial_index": 91,
		"time_elapsed": 138781,
		"internal_node_id": "0.0-3.0-1.62"
	},
	{
		"rt": null,
		"stimulus": "<span style= \"font-size:30px; font-family: monospace\">+</span>",
		"response": null,
		"trial_part": "fixation",
		"trial_type": "html-keyboard-response",
		"trial_index": 92,
		"time_elapsed": 140038,
		"internal_node_id": "0.0-3.0-0.63-0.63"
	},
	{
		"rt": 609,
		"stimulus": "<span style=\"font-size:30px; font-family: monospace\">A</span>",
		"response": " ",
		"trial": "exp-sent",
		"word": "A",
		"trial_type": "html-keyboard-response",
		"trial_index": 93,
		"time_elapsed": 140914,
		"internal_node_id": "0.0-3.0-1.63"
	},
	{
		"rt": 645,
		"stimulus": "<span style=\"font-size:30px; font-family: monospace\">borboleta</span>",
		"response": " ",
		"trial": "exp-sent",
		"word": "borboleta",
		"trial_type": "html-keyboard-response",
		"trial_index": 94,
		"time_elapsed": 141814,
		"internal_node_id": "0.0-3.0-1.64"
	},
	{
		"rt": 747,
		"stimulus": "<span style=\"font-size:30px; font-family: monospace\">pousou</span>",
		"response": " ",
		"trial": "exp-sent",
		"word": "pousou",
		"trial_type": "html-keyboard-response",
		"trial_index": 95,
		"time_elapsed": 142824,
		"internal_node_id": "0.0-3.0-1.65"
	},
	{
		"rt": 1040,
		"stimulus": "<span style=\"font-size:30px; font-family: monospace\">no</span>",
		"response": " ",
		"trial": "exp-sent",
		"word": "no",
		"trial_type": "html-keyboard-response",
		"trial_index": 96,
		"time_elapsed": 144121,
		"internal_node_id": "0.0-3.0-1.66"
	},
	{
		"rt": 595,
		"stimulus": "<span style=\"font-size:30px; font-family: monospace\">ombro</span>",
		"response": " ",
		"trial": "exp-sent",
		"word": "ombro",
		"trial_type": "html-keyboard-response",
		"trial_index": 97,
		"time_elapsed": 144977,
		"internal_node_id": "0.0-3.0-1.67"
	},
	{
		"rt": 716,
		"stimulus": "<span style=\"font-size:30px; font-family: monospace\">daquela</span>",
		"response": " ",
		"trial": "exp-sent",
		"word": "daquela",
		"trial_type": "html-keyboard-response",
		"trial_index": 98,
		"time_elapsed": 145955,
		"internal_node_id": "0.0-3.0-1.68"
	},
	{
		"rt": 633,
		"stimulus": "<span style=\"font-size:30px; font-family: monospace\">moça.</span>",
		"response": " ",
		"trial": "exp-sent",
		"word": "moça.",
		"trial_type": "html-keyboard-response",
		"trial_index": 99,
		"time_elapsed": 146843,
		"internal_node_id": "0.0-3.0-1.69"
	},
	{
		"rt": null,
		"stimulus": "<span style= \"font-size:30px; font-family: monospace\">+</span>",
		"response": null,
		"trial_part": "fixation",
		"trial_type": "html-keyboard-response",
		"trial_index": 100,
		"time_elapsed": 148111,
		"internal_node_id": "0.0-3.0-0.70-0.70"
	},
	{
		"rt": 861,
		"stimulus": "<span style=\"font-size:30px; font-family: monospace\">Eu</span>",
		"response": " ",
		"trial": "exp-sent",
		"word": "Eu",
		"trial_type": "html-keyboard-response",
		"trial_index": 101,
		"time_elapsed": 149230,
		"internal_node_id": "0.0-3.0-1.70"
	},
	{
		"rt": 579,
		"stimulus": "<span style=\"font-size:30px; font-family: monospace\">quero</span>",
		"response": " ",
		"trial": "exp-sent",
		"word": "quero",
		"trial_type": "html-keyboard-response",
		"trial_index": 102,
		"time_elapsed": 150062,
		"internal_node_id": "0.0-3.0-1.71"
	},
	{
		"rt": 633,
		"stimulus": "<span style=\"font-size:30px; font-family: monospace\">um</span>",
		"response": " ",
		"trial": "exp-sent",
		"word": "um",
		"trial_type": "html-keyboard-response",
		"trial_index": 103,
		"time_elapsed": 150952,
		"internal_node_id": "0.0-3.0-1.72"
	},
	{
		"rt": 843,
		"stimulus": "<span style=\"font-size:30px; font-family: monospace\">namorado</span>",
		"response": " ",
		"trial": "exp-sent",
		"word": "namorado",
		"trial_type": "html-keyboard-response",
		"trial_index": 104,
		"time_elapsed": 152058,
		"internal_node_id": "0.0-3.0-1.73"
	},
	{
		"rt": 637,
		"stimulus": "<span style=\"font-size:30px; font-family: monospace\">honesto</span>",
		"response": " ",
		"trial": "exp-sent",
		"word": "honesto",
		"trial_type": "html-keyboard-response",
		"trial_index": 105,
		"time_elapsed": 152958,
		"internal_node_id": "0.0-3.0-1.74"
	},
	{
		"rt": 550,
		"stimulus": "<span style=\"font-size:30px; font-family: monospace\">e</span>",
		"response": " ",
		"trial": "exp-sent",
		"word": "e",
		"trial_type": "html-keyboard-response",
		"trial_index": 106,
		"time_elapsed": 153767,
		"internal_node_id": "0.0-3.0-1.75"
	},
	{
		"rt": 677,
		"stimulus": "<span style=\"font-size:30px; font-family: monospace\">compreensivo.</span>",
		"response": " ",
		"trial": "comp",
		"word": "compreensivo.",
		"trial_type": "html-keyboard-response",
		"trial_index": 107,
		"time_elapsed": 154706,
		"internal_node_id": "0.0-3.0-1.76"
	},
	{
		"rt": 4356,
		"stimulus": "<span style=\"font-size:30px; font-family: monospace\">Eu quero um namorado honesto?</span>",
		"response": "s",
		"question": "Eu quero um namorado honesto?",
		"answer": "sim",
		"trial": "comp",
		"trial_type": "html-keyboard-response",
		"trial_index": 108,
		"time_elapsed": 159321,
		"internal_node_id": "0.0-3.0-2.76-0.76",
		"accuracy": false
	},
	{
		"rt": null,
		"stimulus": "<span style= \"font-size:30px; font-family: monospace\">+</span>",
		"response": null,
		"trial_part": "fixation",
		"trial_type": "html-keyboard-response",
		"trial_index": 109,
		"time_elapsed": 160837,
		"internal_node_id": "0.0-3.0-0.77-0.77"
	},
	{
		"rt": 429,
		"stimulus": "<span style=\"font-size:30px; font-family: monospace\">Minha</span>",
		"response": " ",
		"trial": "exp-sent",
		"word": "Minha",
		"trial_type": "html-keyboard-response",
		"trial_index": 110,
		"time_elapsed": 161532,
		"internal_node_id": "0.0-3.0-1.77"
	},
	{
		"rt": 1112,
		"stimulus": "<span style=\"font-size:30px; font-family: monospace\">prima</span>",
		"response": " ",
		"trial": "exp-sent",
		"word": "prima",
		"trial_type": "html-keyboard-response",
		"trial_index": 111,
		"time_elapsed": 162898,
		"internal_node_id": "0.0-3.0-1.78"
	},
	{
		"rt": 641,
		"stimulus": "<span style=\"font-size:30px; font-family: monospace\">trocou</span>",
		"response": " ",
		"trial": "exp-sent",
		"word": "trocou",
		"trial_type": "html-keyboard-response",
		"trial_index": 112,
		"time_elapsed": 163798,
		"internal_node_id": "0.0-3.0-1.79"
	},
	{
		"rt": 689,
		"stimulus": "<span style=\"font-size:30px; font-family: monospace\">a</span>",
		"response": " ",
		"trial": "exp-sent",
		"word": "a",
		"trial_type": "html-keyboard-response",
		"trial_index": 113,
		"time_elapsed": 164740,
		"internal_node_id": "0.0-3.0-1.80"
	},
	{
		"rt": 776,
		"stimulus": "<span style=\"font-size:30px; font-family: monospace\">tela</span>",
		"response": " ",
		"trial": "exp-sent",
		"word": "tela",
		"trial_type": "html-keyboard-response",
		"trial_index": 114,
		"time_elapsed": 165769,
		"internal_node_id": "0.0-3.0-1.81"
	},
	{
		"rt": 858,
		"stimulus": "<span style=\"font-size:30px; font-family: monospace\">do</span>",
		"response": " ",
		"trial": "exp-sent",
		"word": "do",
		"trial_type": "html-keyboard-response",
		"trial_index": 115,
		"time_elapsed": 166881,
		"internal_node_id": "0.0-3.0-1.82"
	},
	{
		"rt": 752,
		"stimulus": "<span style=\"font-size:30px; font-family: monospace\">celular</span>",
		"response": " ",
		"trial": "exp-sent",
		"word": "celular",
		"trial_type": "html-keyboard-response",
		"trial_index": 116,
		"time_elapsed": 167897,
		"internal_node_id": "0.0-3.0-1.83"
	},
	{
		"rt": 848,
		"stimulus": "<span style=\"font-size:30px; font-family: monospace\">duas</span>",
		"response": " ",
		"trial": "exp-sent",
		"word": "duas",
		"trial_type": "html-keyboard-response",
		"trial_index": 117,
		"time_elapsed": 168997,
		"internal_node_id": "0.0-3.0-1.84"
	},
	{
		"rt": 725,
		"stimulus": "<span style=\"font-size:30px; font-family: monospace\">vezes.</span>",
		"response": " ",
		"trial": "exp-sent",
		"word": "vezes.",
		"trial_type": "html-keyboard-response",
		"trial_index": 118,
		"time_elapsed": 169976,
		"internal_node_id": "0.0-3.0-1.85"
	},
	{
		"rt": null,
		"stimulus": "<span style= \"font-size:30px; font-family: monospace\">+</span>",
		"response": null,
		"trial_part": "fixation",
		"trial_type": "html-keyboard-response",
		"trial_index": 119,
		"time_elapsed": 171241,
		"internal_node_id": "0.0-3.0-0.86-0.86"
	},
	{
		"rt": 768,
		"stimulus": "<span style=\"font-size:30px; font-family: monospace\">Agora</span>",
		"response": " ",
		"trial": "exp-sent",
		"word": "Agora",
		"trial_type": "html-keyboard-response",
		"trial_index": 120,
		"time_elapsed": 172271,
		"internal_node_id": "0.0-3.0-1.86"
	},
	{
		"rt": 405,
		"stimulus": "<span style=\"font-size:30px; font-family: monospace\">a</span>",
		"response": " ",
		"trial": "exp-sent",
		"word": "a",
		"trial_type": "html-keyboard-response",
		"trial_index": 121,
		"time_elapsed": 172941,
		"internal_node_id": "0.0-3.0-1.87"
	},
	{
		"rt": 431,
		"stimulus": "<span style=\"font-size:30px; font-family: monospace\">minha</span>",
		"response": " ",
		"trial": "exp-sent",
		"word": "minha",
		"trial_type": "html-keyboard-response",
		"trial_index": 122,
		"time_elapsed": 173635,
		"internal_node_id": "0.0-3.0-1.88"
	},
	{
		"rt": 824,
		"stimulus": "<span style=\"font-size:30px; font-family: monospace\">única</span>",
		"response": " ",
		"trial": "exp-sent",
		"word": "única",
		"trial_type": "html-keyboard-response",
		"trial_index": 123,
		"time_elapsed": 174711,
		"internal_node_id": "0.0-3.0-1.89"
	},
	{
		"rt": 390,
		"stimulus": "<span style=\"font-size:30px; font-family: monospace\">preocupação</span>",
		"response": " ",
		"trial": "exp-sent",
		"word": "preocupação",
		"trial_type": "html-keyboard-response",
		"trial_index": 124,
		"time_elapsed": 175362,
		"internal_node_id": "0.0-3.0-1.90"
	},
	{
		"rt": 470,
		"stimulus": "<span style=\"font-size:30px; font-family: monospace\">é</span>",
		"response": " ",
		"trial": "exp-sent",
		"word": "é",
		"trial_type": "html-keyboard-response",
		"trial_index": 125,
		"time_elapsed": 176095,
		"internal_node_id": "0.0-3.0-1.91"
	},
	{
		"rt": 444,
		"stimulus": "<span style=\"font-size:30px; font-family: monospace\">um</span>",
		"response": " ",
		"trial": "exp-sent",
		"word": "um",
		"trial_type": "html-keyboard-response",
		"trial_index": 126,
		"time_elapsed": 176797,
		"internal_node_id": "0.0-3.0-1.92"
	},
	{
		"rt": 512,
		"stimulus": "<span style=\"font-size:30px; font-family: monospace\">descanso</span>",
		"response": " ",
		"trial": "exp-sent",
		"word": "descanso",
		"trial_type": "html-keyboard-response",
		"trial_index": 127,
		"time_elapsed": 177565,
		"internal_node_id": "0.0-3.0-1.93"
	},
	{
		"rt": 551,
		"stimulus": "<span style=\"font-size:30px; font-family: monospace\">tranquilo.</span>",
		"response": " ",
		"trial": "exp-sent",
		"word": "tranquilo.",
		"trial_type": "html-keyboard-response",
		"trial_index": 128,
		"time_elapsed": 178371,
		"internal_node_id": "0.0-3.0-1.94"
	},
	{
		"rt": null,
		"stimulus": "<span style= \"font-size:30px; font-family: monospace\">+</span>",
		"response": null,
		"trial_part": "fixation",
		"trial_type": "html-keyboard-response",
		"trial_index": 129,
		"time_elapsed": 179640,
		"internal_node_id": "0.0-3.0-0.95-0.95"
	},
	{
		"rt": 525,
		"stimulus": "<span style=\"font-size:30px; font-family: monospace\">A</span>",
		"response": " ",
		"trial": "exp-sent",
		"word": "A",
		"trial_type": "html-keyboard-response",
		"trial_index": 130,
		"time_elapsed": 180424,
		"internal_node_id": "0.0-3.0-1.95"
	},
	{
		"rt": 440,
		"stimulus": "<span style=\"font-size:30px; font-family: monospace\">criança</span>",
		"response": " ",
		"trial": "exp-sent",
		"word": "criança",
		"trial_type": "html-keyboard-response",
		"trial_index": 131,
		"time_elapsed": 181128,
		"internal_node_id": "0.0-3.0-1.96"
	},
	{
		"rt": 582,
		"stimulus": "<span style=\"font-size:30px; font-family: monospace\">ganhou</span>",
		"response": " ",
		"trial": "exp-sent",
		"word": "ganhou",
		"trial_type": "html-keyboard-response",
		"trial_index": 132,
		"time_elapsed": 181963,
		"internal_node_id": "0.0-3.0-1.97"
	},
	{
		"rt": 793,
		"stimulus": "<span style=\"font-size:30px; font-family: monospace\">um</span>",
		"response": " ",
		"trial": "exp-sent",
		"word": "um",
		"trial_type": "html-keyboard-response",
		"trial_index": 133,
		"time_elapsed": 183012,
		"internal_node_id": "0.0-3.0-1.98"
	},
	{
		"rt": 737,
		"stimulus": "<span style=\"font-size:30px; font-family: monospace\">presente</span>",
		"response": " ",
		"trial": "exp-sent",
		"word": "presente",
		"trial_type": "html-keyboard-response",
		"trial_index": 134,
		"time_elapsed": 184006,
		"internal_node_id": "0.0-3.0-1.99"
	},
	{
		"rt": 739,
		"stimulus": "<span style=\"font-size:30px; font-family: monospace\">maravilhoso.</span>",
		"response": " ",
		"trial": "exp-sent",
		"word": "maravilhoso.",
		"trial_type": "html-keyboard-response",
		"trial_index": 135,
		"time_elapsed": 185007,
		"internal_node_id": "0.0-3.0-1.100"
	},
	{
		"rt": null,
		"stimulus": "<span style= \"font-size:30px; font-family: monospace\">+</span>",
		"response": null,
		"trial_part": "fixation",
		"trial_type": "html-keyboard-response",
		"trial_index": 136,
		"time_elapsed": 186273,
		"internal_node_id": "0.0-3.0-0.101-0.101"
	},
	{
		"rt": 434,
		"stimulus": "<span style=\"font-size:30px; font-family: monospace\">Os</span>",
		"response": " ",
		"trial": "exp-sent",
		"word": "Os",
		"trial_type": "html-keyboard-response",
		"trial_index": 137,
		"time_elapsed": 186973,
		"internal_node_id": "0.0-3.0-1.101"
	},
	{
		"rt": 804,
		"stimulus": "<span style=\"font-size:30px; font-family: monospace\">bichos</span>",
		"response": " ",
		"trial": "exp-sent",
		"word": "bichos",
		"trial_type": "html-keyboard-response",
		"trial_index": 138,
		"time_elapsed": 188038,
		"internal_node_id": "0.0-3.0-1.102"
	},
	{
		"rt": 640,
		"stimulus": "<span style=\"font-size:30px; font-family: monospace\">têm</span>",
		"response": " ",
		"trial": "exp-sent",
		"word": "têm",
		"trial_type": "html-keyboard-response",
		"trial_index": 139,
		"time_elapsed": 188933,
		"internal_node_id": "0.0-3.0-1.103"
	},
	{
		"rt": 609,
		"stimulus": "<span style=\"font-size:30px; font-family: monospace\">um</span>",
		"response": " ",
		"trial": "exp-sent",
		"word": "um",
		"trial_type": "html-keyboard-response",
		"trial_index": 140,
		"time_elapsed": 189808,
		"internal_node_id": "0.0-3.0-1.104"
	},
	{
		"rt": 648,
		"stimulus": "<span style=\"font-size:30px; font-family: monospace\">instinto</span>",
		"response": " ",
		"trial": "exp-sent",
		"word": "instinto",
		"trial_type": "html-keyboard-response",
		"trial_index": 141,
		"time_elapsed": 190712,
		"internal_node_id": "0.0-3.0-1.105"
	},
	{
		"rt": 783,
		"stimulus": "<span style=\"font-size:30px; font-family: monospace\">de</span>",
		"response": " ",
		"trial": "exp-sent",
		"word": "de",
		"trial_type": "html-keyboard-response",
		"trial_index": 142,
		"time_elapsed": 191747,
		"internal_node_id": "0.0-3.0-1.106"
	},
	{
		"rt": 821,
		"stimulus": "<span style=\"font-size:30px; font-family: monospace\">sobrevivência</span>",
		"response": " ",
		"trial": "exp-sent",
		"word": "sobrevivência",
		"trial_type": "html-keyboard-response",
		"trial_index": 143,
		"time_elapsed": 192819,
		"internal_node_id": "0.0-3.0-1.107"
	},
	{
		"rt": 816,
		"stimulus": "<span style=\"font-size:30px; font-family: monospace\">forte.</span>",
		"response": " ",
		"trial": "exp-sent",
		"word": "forte.",
		"trial_type": "html-keyboard-response",
		"trial_index": 144,
		"time_elapsed": 193895,
		"internal_node_id": "0.0-3.0-1.108"
	},
	{
		"rt": null,
		"stimulus": "<span style= \"font-size:30px; font-family: monospace\">+</span>",
		"response": null,
		"trial_part": "fixation",
		"trial_type": "html-keyboard-response",
		"trial_index": 145,
		"time_elapsed": 195168,
		"internal_node_id": "0.0-3.0-0.109-0.109"
	},
	{
		"rt": 739,
		"stimulus": "<span style=\"font-size:30px; font-family: monospace\">Aquele</span>",
		"response": " ",
		"trial": "exp-sent",
		"word": "Aquele",
		"trial_type": "html-keyboard-response",
		"trial_index": 146,
		"time_elapsed": 196168,
		"internal_node_id": "0.0-3.0-1.109"
	},
	{
		"rt": 546,
		"stimulus": "<span style=\"font-size:30px; font-family: monospace\">menino</span>",
		"response": " ",
		"trial": "exp-sent",
		"word": "menino",
		"trial_type": "html-keyboard-response",
		"trial_index": 147,
		"time_elapsed": 196965,
		"internal_node_id": "0.0-3.0-1.110"
	},
	{
		"rt": 553,
		"stimulus": "<span style=\"font-size:30px; font-family: monospace\">alto</span>",
		"response": " ",
		"trial": "exp-sent",
		"word": "alto",
		"trial_type": "html-keyboard-response",
		"trial_index": 148,
		"time_elapsed": 197780,
		"internal_node_id": "0.0-3.0-1.111"
	},
	{
		"rt": 467,
		"stimulus": "<span style=\"font-size:30px; font-family: monospace\">é</span>",
		"response": " ",
		"trial": "exp-sent",
		"word": "é",
		"trial_type": "html-keyboard-response",
		"trial_index": 149,
		"time_elapsed": 198515,
		"internal_node_id": "0.0-3.0-1.112"
	},
	{
		"rt": 561,
		"stimulus": "<span style=\"font-size:30px; font-family: monospace\">exibido</span>",
		"response": " ",
		"trial": "exp-sent",
		"word": "exibido",
		"trial_type": "html-keyboard-response",
		"trial_index": 150,
		"time_elapsed": 199337,
		"internal_node_id": "0.0-3.0-1.113"
	},
	{
		"rt": 546,
		"stimulus": "<span style=\"font-size:30px; font-family: monospace\">e</span>",
		"response": " ",
		"trial": "exp-sent",
		"word": "e",
		"trial_type": "html-keyboard-response",
		"trial_index": 151,
		"time_elapsed": 200138,
		"internal_node_id": "0.0-3.0-1.114"
	},
	{
		"rt": 526,
		"stimulus": "<span style=\"font-size:30px; font-family: monospace\">sovina.</span>",
		"response": " ",
		"trial": "comp",
		"word": "sovina.",
		"trial_type": "html-keyboard-response",
		"trial_index": 152,
		"time_elapsed": 200929,
		"internal_node_id": "0.0-3.0-1.115"
	},
	{
		"rt": 2443,
		"stimulus": "<span style=\"font-size:30px; font-family: monospace\">Aquele menino é humilde?</span>",
		"response": "n",
		"question": "Aquele menino é humilde?",
		"answer": "não",
		"trial": "comp",
		"trial_type": "html-keyboard-response",
		"trial_index": 153,
		"time_elapsed": 203631,
		"internal_node_id": "0.0-3.0-2.115-0.115",
		"accuracy": false
	},
	{
		"rt": null,
		"stimulus": "<span style= \"font-size:30px; font-family: monospace\">+</span>",
		"response": null,
		"trial_part": "fixation",
		"trial_type": "html-keyboard-response",
		"trial_index": 154,
		"time_elapsed": 205146,
		"internal_node_id": "0.0-3.0-0.116-0.116"
	},
	{
		"rt": 741,
		"stimulus": "<span style=\"font-size:30px; font-family: monospace\">A</span>",
		"response": " ",
		"trial": "exp-sent",
		"word": "A",
		"trial_type": "html-keyboard-response",
		"trial_index": 155,
		"time_elapsed": 206139,
		"internal_node_id": "0.0-3.0-1.116"
	},
	{
		"rt": 805,
		"stimulus": "<span style=\"font-size:30px; font-family: monospace\">senhora</span>",
		"response": " ",
		"trial": "exp-sent",
		"word": "senhora",
		"trial_type": "html-keyboard-response",
		"trial_index": 156,
		"time_elapsed": 207205,
		"internal_node_id": "0.0-3.0-1.117"
	},
	{
		"rt": 684,
		"stimulus": "<span style=\"font-size:30px; font-family: monospace\">cumprimentou</span>",
		"response": " ",
		"trial": "exp-sent",
		"word": "cumprimentou",
		"trial_type": "html-keyboard-response",
		"trial_index": 157,
		"time_elapsed": 208154,
		"internal_node_id": "0.0-3.0-1.118"
	},
	{
		"rt": 500,
		"stimulus": "<span style=\"font-size:30px; font-family: monospace\">o</span>",
		"response": " ",
		"trial": "exp-sent",
		"word": "o",
		"trial_type": "html-keyboard-response",
		"trial_index": 158,
		"time_elapsed": 208906,
		"internal_node_id": "0.0-3.0-1.119"
	},
	{
		"rt": 604,
		"stimulus": "<span style=\"font-size:30px; font-family: monospace\">operador</span>",
		"response": " ",
		"trial": "exp-sent",
		"word": "operador",
		"trial_type": "html-keyboard-response",
		"trial_index": 159,
		"time_elapsed": 209761,
		"internal_node_id": "0.0-3.0-1.120"
	},
	{
		"rt": 453,
		"stimulus": "<span style=\"font-size:30px; font-family: monospace\">de</span>",
		"response": " ",
		"trial": "exp-sent",
		"word": "de",
		"trial_type": "html-keyboard-response",
		"trial_index": 160,
		"time_elapsed": 210477,
		"internal_node_id": "0.0-3.0-1.121"
	},
	{
		"rt": 522,
		"stimulus": "<span style=\"font-size:30px; font-family: monospace\">caixa.</span>",
		"response": " ",
		"trial": "exp-sent",
		"word": "caixa.",
		"trial_type": "html-keyboard-response",
		"trial_index": 161,
		"time_elapsed": 211259,
		"internal_node_id": "0.0-3.0-1.122"
	},
	{
		"rt": null,
		"stimulus": "<span style= \"font-size:30px; font-family: monospace\">+</span>",
		"response": null,
		"trial_part": "fixation",
		"trial_type": "html-keyboard-response",
		"trial_index": 162,
		"time_elapsed": 212529,
		"internal_node_id": "0.0-3.0-0.123-0.123"
	},
	{
		"rt": 559,
		"stimulus": "<span style=\"font-size:30px; font-family: monospace\">A</span>",
		"response": " ",
		"trial": "exp-sent",
		"word": "A",
		"trial_type": "html-keyboard-response",
		"trial_index": 163,
		"time_elapsed": 213346,
		"internal_node_id": "0.0-3.0-1.123"
	},
	{
		"rt": 593,
		"stimulus": "<span style=\"font-size:30px; font-family: monospace\">gente</span>",
		"response": " ",
		"trial": "exp-sent",
		"word": "gente",
		"trial_type": "html-keyboard-response",
		"trial_index": 164,
		"time_elapsed": 214203,
		"internal_node_id": "0.0-3.0-1.124"
	},
	{
		"rt": 521,
		"stimulus": "<span style=\"font-size:30px; font-family: monospace\">viu</span>",
		"response": " ",
		"trial": "exp-sent",
		"word": "viu",
		"trial_type": "html-keyboard-response",
		"trial_index": 165,
		"time_elapsed": 214992,
		"internal_node_id": "0.0-3.0-1.125"
	},
	{
		"rt": 430,
		"stimulus": "<span style=\"font-size:30px; font-family: monospace\">o</span>",
		"response": " ",
		"trial": "exp-sent",
		"word": "o",
		"trial_type": "html-keyboard-response",
		"trial_index": 166,
		"time_elapsed": 215682,
		"internal_node_id": "0.0-3.0-1.126"
	},
	{
		"rt": 495,
		"stimulus": "<span style=\"font-size:30px; font-family: monospace\">eclipse</span>",
		"response": " ",
		"trial": "exp-sent",
		"word": "eclipse",
		"trial_type": "html-keyboard-response",
		"trial_index": 167,
		"time_elapsed": 216429,
		"internal_node_id": "0.0-3.0-1.127"
	},
	{
		"rt": 366,
		"stimulus": "<span style=\"font-size:30px; font-family: monospace\">lunar</span>",
		"response": " ",
		"trial": "exp-sent",
		"word": "lunar",
		"trial_type": "html-keyboard-response",
		"trial_index": 168,
		"time_elapsed": 217061,
		"internal_node_id": "0.0-3.0-1.128"
	},
	{
		"rt": 458,
		"stimulus": "<span style=\"font-size:30px; font-family: monospace\">durante</span>",
		"response": " ",
		"trial": "exp-sent",
		"word": "durante",
		"trial_type": "html-keyboard-response",
		"trial_index": 169,
		"time_elapsed": 217775,
		"internal_node_id": "0.0-3.0-1.129"
	},
	{
		"rt": 447,
		"stimulus": "<span style=\"font-size:30px; font-family: monospace\">o</span>",
		"response": " ",
		"trial": "exp-sent",
		"word": "o",
		"trial_type": "html-keyboard-response",
		"trial_index": 170,
		"time_elapsed": 218485,
		"internal_node_id": "0.0-3.0-1.130"
	},
	{
		"rt": 526,
		"stimulus": "<span style=\"font-size:30px; font-family: monospace\">dia.</span>",
		"response": " ",
		"trial": "exp-sent",
		"word": "dia.",
		"trial_type": "html-keyboard-response",
		"trial_index": 171,
		"time_elapsed": 219270,
		"internal_node_id": "0.0-3.0-1.131"
	},
	{
		"rt": null,
		"stimulus": "<span style= \"font-size:30px; font-family: monospace\">+</span>",
		"response": null,
		"trial_part": "fixation",
		"trial_type": "html-keyboard-response",
		"trial_index": 172,
		"time_elapsed": 220535,
		"internal_node_id": "0.0-3.0-0.132-0.132"
	},
	{
		"rt": 51,
		"stimulus": "<span style=\"font-size:30px; font-family: monospace\">A</span>",
		"response": " ",
		"trial": "exp-sent",
		"word": "A",
		"trial_type": "html-keyboard-response",
		"trial_index": 173,
		"time_elapsed": 220850,
		"internal_node_id": "0.0-3.0-1.132"
	},
	{
		"rt": 692,
		"stimulus": "<span style=\"font-size:30px; font-family: monospace\">mordida</span>",
		"response": " ",
		"trial": "exp-sent",
		"word": "mordida",
		"trial_type": "html-keyboard-response",
		"trial_index": 174,
		"time_elapsed": 221794,
		"internal_node_id": "0.0-3.0-1.133"
	},
	{
		"rt": 448,
		"stimulus": "<span style=\"font-size:30px; font-family: monospace\">do</span>",
		"response": " ",
		"trial": "exp-sent",
		"word": "do",
		"trial_type": "html-keyboard-response",
		"trial_index": 175,
		"time_elapsed": 222507,
		"internal_node_id": "0.0-3.0-1.134"
	},
	{
		"rt": 618,
		"stimulus": "<span style=\"font-size:30px; font-family: monospace\">cachorro</span>",
		"response": " ",
		"trial": "exp-sent",
		"word": "cachorro",
		"trial_type": "html-keyboard-response",
		"trial_index": 176,
		"time_elapsed": 223386,
		"internal_node_id": "0.0-3.0-1.135"
	},
	{
		"rt": 511,
		"stimulus": "<span style=\"font-size:30px; font-family: monospace\">voraz</span>",
		"response": " ",
		"trial": "exp-sent",
		"word": "voraz",
		"trial_type": "html-keyboard-response",
		"trial_index": 177,
		"time_elapsed": 224157,
		"internal_node_id": "0.0-3.0-1.136"
	},
	{
		"rt": 569,
		"stimulus": "<span style=\"font-size:30px; font-family: monospace\">causou</span>",
		"response": " ",
		"trial": "exp-sent",
		"word": "causou",
		"trial_type": "html-keyboard-response",
		"trial_index": 178,
		"time_elapsed": 224994,
		"internal_node_id": "0.0-3.0-1.137"
	},
	{
		"rt": 442,
		"stimulus": "<span style=\"font-size:30px; font-family: monospace\">uma</span>",
		"response": " ",
		"trial": "exp-sent",
		"word": "uma",
		"trial_type": "html-keyboard-response",
		"trial_index": 179,
		"time_elapsed": 225691,
		"internal_node_id": "0.0-3.0-1.138"
	},
	{
		"rt": 711,
		"stimulus": "<span style=\"font-size:30px; font-family: monospace\">cicatriz.</span>",
		"response": " ",
		"trial": "exp-sent",
		"word": "cicatriz.",
		"trial_type": "html-keyboard-response",
		"trial_index": 180,
		"time_elapsed": 226657,
		"internal_node_id": "0.0-3.0-1.139"
	},
	{
		"rt": null,
		"stimulus": "<span style= \"font-size:30px; font-family: monospace\">+</span>",
		"response": null,
		"trial_part": "fixation",
		"trial_type": "html-keyboard-response",
		"trial_index": 181,
		"time_elapsed": 227929,
		"internal_node_id": "0.0-3.0-0.140-0.140"
	},
	{
		"rt": 704,
		"stimulus": "<span style=\"font-size:30px; font-family: monospace\">Elas</span>",
		"response": " ",
		"trial": "exp-sent",
		"word": "Elas",
		"trial_type": "html-keyboard-response",
		"trial_index": 182,
		"time_elapsed": 228900,
		"internal_node_id": "0.0-3.0-1.140"
	},
	{
		"rt": 501,
		"stimulus": "<span style=\"font-size:30px; font-family: monospace\">não</span>",
		"response": " ",
		"trial": "exp-sent",
		"word": "não",
		"trial_type": "html-keyboard-response",
		"trial_index": 183,
		"time_elapsed": 229667,
		"internal_node_id": "0.0-3.0-1.141"
	},
	{
		"rt": 531,
		"stimulus": "<span style=\"font-size:30px; font-family: monospace\">viram</span>",
		"response": " ",
		"trial": "exp-sent",
		"word": "viram",
		"trial_type": "html-keyboard-response",
		"trial_index": 184,
		"time_elapsed": 230457,
		"internal_node_id": "0.0-3.0-1.142"
	},
	{
		"rt": 555,
		"stimulus": "<span style=\"font-size:30px; font-family: monospace\">nenhuma</span>",
		"response": " ",
		"trial": "exp-sent",
		"word": "nenhuma",
		"trial_type": "html-keyboard-response",
		"trial_index": 185,
		"time_elapsed": 231270,
		"internal_node_id": "0.0-3.0-1.143"
	},
	{
		"rt": 525,
		"stimulus": "<span style=\"font-size:30px; font-family: monospace\">diferença</span>",
		"response": " ",
		"trial": "exp-sent",
		"word": "diferença",
		"trial_type": "html-keyboard-response",
		"trial_index": 186,
		"time_elapsed": 232059,
		"internal_node_id": "0.0-3.0-1.144"
	},
	{
		"rt": 487,
		"stimulus": "<span style=\"font-size:30px; font-family: monospace\">entre</span>",
		"response": " ",
		"trial": "exp-sent",
		"word": "entre",
		"trial_type": "html-keyboard-response",
		"trial_index": 187,
		"time_elapsed": 232798,
		"internal_node_id": "0.0-3.0-1.145"
	},
	{
		"rt": 699,
		"stimulus": "<span style=\"font-size:30px; font-family: monospace\">os</span>",
		"response": " ",
		"trial": "exp-sent",
		"word": "os",
		"trial_type": "html-keyboard-response",
		"trial_index": 188,
		"time_elapsed": 233761,
		"internal_node_id": "0.0-3.0-1.146"
	},
	{
		"rt": 554,
		"stimulus": "<span style=\"font-size:30px; font-family: monospace\">textos.</span>",
		"response": " ",
		"trial": "exp-sent",
		"word": "textos.",
		"trial_type": "html-keyboard-response",
		"trial_index": 189,
		"time_elapsed": 234567,
		"internal_node_id": "0.0-3.0-1.147"
	},
	{
		"rt": null,
		"stimulus": "<span style= \"font-size:30px; font-family: monospace\">+</span>",
		"response": null,
		"trial_part": "fixation",
		"trial_type": "html-keyboard-response",
		"trial_index": 190,
		"time_elapsed": 235837,
		"internal_node_id": "0.0-3.0-0.148-0.148"
	},
	{
		"rt": 826,
		"stimulus": "<span style=\"font-size:30px; font-family: monospace\">Amanhã</span>",
		"response": " ",
		"trial": "exp-sent",
		"word": "Amanhã",
		"trial_type": "html-keyboard-response",
		"trial_index": 191,
		"time_elapsed": 236919,
		"internal_node_id": "0.0-3.0-1.148"
	},
	{
		"rt": 545,
		"stimulus": "<span style=\"font-size:30px; font-family: monospace\">vai</span>",
		"response": " ",
		"trial": "exp-sent",
		"word": "vai",
		"trial_type": "html-keyboard-response",
		"trial_index": 192,
		"time_elapsed": 237718,
		"internal_node_id": "0.0-3.0-1.149"
	},
	{
		"rt": 629,
		"stimulus": "<span style=\"font-size:30px; font-family: monospace\">ter</span>",
		"response": " ",
		"trial": "exp-sent",
		"word": "ter",
		"trial_type": "html-keyboard-response",
		"trial_index": 193,
		"time_elapsed": 238607,
		"internal_node_id": "0.0-3.0-1.150"
	},
	{
		"rt": 557,
		"stimulus": "<span style=\"font-size:30px; font-family: monospace\">um</span>",
		"response": " ",
		"trial": "exp-sent",
		"word": "um",
		"trial_type": "html-keyboard-response",
		"trial_index": 194,
		"time_elapsed": 239428,
		"internal_node_id": "0.0-3.0-1.151"
	},
	{
		"rt": 526,
		"stimulus": "<span style=\"font-size:30px; font-family: monospace\">bazar</span>",
		"response": " ",
		"trial": "exp-sent",
		"word": "bazar",
		"trial_type": "html-keyboard-response",
		"trial_index": 195,
		"time_elapsed": 240210,
		"internal_node_id": "0.0-3.0-1.152"
	},
	{
		"rt": 603,
		"stimulus": "<span style=\"font-size:30px; font-family: monospace\">no</span>",
		"response": " ",
		"trial": "exp-sent",
		"word": "no",
		"trial_type": "html-keyboard-response",
		"trial_index": 196,
		"time_elapsed": 241078,
		"internal_node_id": "0.0-3.0-1.153"
	},
	{
		"rt": 594,
		"stimulus": "<span style=\"font-size:30px; font-family: monospace\">bairro.</span>",
		"response": " ",
		"trial": "comp",
		"word": "bairro.",
		"trial_type": "html-keyboard-response",
		"trial_index": 197,
		"time_elapsed": 241935,
		"internal_node_id": "0.0-3.0-1.154"
	},
	{
		"rt": 4088,
		"stimulus": "<span style=\"font-size:30px; font-family: monospace\">Amanhã vai acontecer um bazar no bairro?</span>",
		"response": "s",
		"question": "Amanhã vai acontecer um bazar no bairro?",
		"answer": "sim",
		"trial": "comp",
		"trial_type": "html-keyboard-response",
		"trial_index": 198,
		"time_elapsed": 246285,
		"internal_node_id": "0.0-3.0-2.154-0.154",
		"accuracy": false
	},
	{
		"rt": null,
		"stimulus": "<span style= \"font-size:30px; font-family: monospace\">+</span>",
		"response": null,
		"trial_part": "fixation",
		"trial_type": "html-keyboard-response",
		"trial_index": 199,
		"time_elapsed": 247797,
		"internal_node_id": "0.0-3.0-0.155-0.155"
	},
	{
		"rt": 914,
		"stimulus": "<span style=\"font-size:30px; font-family: monospace\">Este</span>",
		"response": " ",
		"trial": "exp-sent",
		"word": "Este",
		"trial_type": "html-keyboard-response",
		"trial_index": 200,
		"time_elapsed": 248970,
		"internal_node_id": "0.0-3.0-1.155"
	},
	{
		"rt": 909,
		"stimulus": "<span style=\"font-size:30px; font-family: monospace\">conto</span>",
		"response": " ",
		"trial": "exp-sent",
		"word": "conto",
		"trial_type": "html-keyboard-response",
		"trial_index": 201,
		"time_elapsed": 250136,
		"internal_node_id": "0.0-3.0-1.156"
	},
	{
		"rt": 679,
		"stimulus": "<span style=\"font-size:30px; font-family: monospace\">tem</span>",
		"response": " ",
		"trial": "exp-sent",
		"word": "tem",
		"trial_type": "html-keyboard-response",
		"trial_index": 202,
		"time_elapsed": 251082,
		"internal_node_id": "0.0-3.0-1.157"
	},
	{
		"rt": 620,
		"stimulus": "<span style=\"font-size:30px; font-family: monospace\">um</span>",
		"response": " ",
		"trial": "exp-sent",
		"word": "um",
		"trial_type": "html-keyboard-response",
		"trial_index": 203,
		"time_elapsed": 251967,
		"internal_node_id": "0.0-3.0-1.158"
	},
	{
		"rt": 731,
		"stimulus": "<span style=\"font-size:30px; font-family: monospace\">final</span>",
		"response": " ",
		"trial": "exp-sent",
		"word": "final",
		"trial_type": "html-keyboard-response",
		"trial_index": 204,
		"time_elapsed": 252953,
		"internal_node_id": "0.0-3.0-1.159"
	},
	{
		"rt": 88,
		"stimulus": "<span style=\"font-size:30px; font-family: monospace\">perfeito.</span>",
		"response": " ",
		"trial": "exp-sent",
		"word": "perfeito.",
		"trial_type": "html-keyboard-response",
		"trial_index": 205,
		"time_elapsed": 253307,
		"internal_node_id": "0.0-3.0-1.160"
	},
	{
		"rt": null,
		"stimulus": "<span style= \"font-size:30px; font-family: monospace\">+</span>",
		"response": null,
		"trial_part": "fixation",
		"trial_type": "html-keyboard-response",
		"trial_index": 206,
		"time_elapsed": 254584,
		"internal_node_id": "0.0-3.0-0.161-0.161"
	},
	{
		"rt": 852,
		"stimulus": "<span style=\"font-size:30px; font-family: monospace\">Ele</span>",
		"response": " ",
		"trial": "exp-sent",
		"word": "Ele",
		"trial_type": "html-keyboard-response",
		"trial_index": 207,
		"time_elapsed": 255701,
		"internal_node_id": "0.0-3.0-1.161"
	},
	{
		"rt": 581,
		"stimulus": "<span style=\"font-size:30px; font-family: monospace\">precisa</span>",
		"response": " ",
		"trial": "exp-sent",
		"word": "precisa",
		"trial_type": "html-keyboard-response",
		"trial_index": 208,
		"time_elapsed": 256547,
		"internal_node_id": "0.0-3.0-1.162"
	},
	{
		"rt": 533,
		"stimulus": "<span style=\"font-size:30px; font-family: monospace\">de</span>",
		"response": " ",
		"trial": "exp-sent",
		"word": "de",
		"trial_type": "html-keyboard-response",
		"trial_index": 209,
		"time_elapsed": 257335,
		"internal_node_id": "0.0-3.0-1.163"
	},
	{
		"rt": 431,
		"stimulus": "<span style=\"font-size:30px; font-family: monospace\">um</span>",
		"response": " ",
		"trial": "exp-sent",
		"word": "um",
		"trial_type": "html-keyboard-response",
		"trial_index": 210,
		"time_elapsed": 258030,
		"internal_node_id": "0.0-3.0-1.164"
	},
	{
		"rt": 457,
		"stimulus": "<span style=\"font-size:30px; font-family: monospace\">protetor</span>",
		"response": " ",
		"trial": "exp-sent",
		"word": "protetor",
		"trial_type": "html-keyboard-response",
		"trial_index": 211,
		"time_elapsed": 258748,
		"internal_node_id": "0.0-3.0-1.165"
	},
	{
		"rt": 497,
		"stimulus": "<span style=\"font-size:30px; font-family: monospace\">de</span>",
		"response": " ",
		"trial": "exp-sent",
		"word": "de",
		"trial_type": "html-keyboard-response",
		"trial_index": 212,
		"time_elapsed": 259499,
		"internal_node_id": "0.0-3.0-1.166"
	},
	{
		"rt": 479,
		"stimulus": "<span style=\"font-size:30px; font-family: monospace\">ouvido.</span>",
		"response": " ",
		"trial": "exp-sent",
		"word": "ouvido.",
		"trial_type": "html-keyboard-response",
		"trial_index": 213,
		"time_elapsed": 260230,
		"internal_node_id": "0.0-3.0-1.167"
	},
	{
		"rt": null,
		"stimulus": "<span style= \"font-size:30px; font-family: monospace\">+</span>",
		"response": null,
		"trial_part": "fixation",
		"trial_type": "html-keyboard-response",
		"trial_index": 214,
		"time_elapsed": 261495,
		"internal_node_id": "0.0-3.0-0.168-0.168"
	},
	{
		"rt": 633,
		"stimulus": "<span style=\"font-size:30px; font-family: monospace\">Os</span>",
		"response": " ",
		"trial": "exp-sent",
		"word": "Os",
		"trial_type": "html-keyboard-response",
		"trial_index": 215,
		"time_elapsed": 262393,
		"internal_node_id": "0.0-3.0-1.168"
	},
	{
		"rt": 691,
		"stimulus": "<span style=\"font-size:30px; font-family: monospace\">hábitos</span>",
		"response": " ",
		"trial": "exp-sent",
		"word": "hábitos",
		"trial_type": "html-keyboard-response",
		"trial_index": 216,
		"time_elapsed": 263339,
		"internal_node_id": "0.0-3.0-1.169"
	},
	{
		"rt": 472,
		"stimulus": "<span style=\"font-size:30px; font-family: monospace\">de</span>",
		"response": " ",
		"trial": "exp-sent",
		"word": "de",
		"trial_type": "html-keyboard-response",
		"trial_index": 217,
		"time_elapsed": 264076,
		"internal_node_id": "0.0-3.0-1.170"
	},
	{
		"rt": 522,
		"stimulus": "<span style=\"font-size:30px; font-family: monospace\">lugares</span>",
		"response": " ",
		"trial": "exp-sent",
		"word": "lugares",
		"trial_type": "html-keyboard-response",
		"trial_index": 218,
		"time_elapsed": 264859,
		"internal_node_id": "0.0-3.0-1.171"
	},
	{
		"rt": 527,
		"stimulus": "<span style=\"font-size:30px; font-family: monospace\">diferentes</span>",
		"response": " ",
		"trial": "exp-sent",
		"word": "diferentes",
		"trial_type": "html-keyboard-response",
		"trial_index": 219,
		"time_elapsed": 265639,
		"internal_node_id": "0.0-3.0-1.172"
	},
	{
		"rt": 571,
		"stimulus": "<span style=\"font-size:30px; font-family: monospace\">são</span>",
		"response": " ",
		"trial": "exp-sent",
		"word": "são",
		"trial_type": "html-keyboard-response",
		"trial_index": 220,
		"time_elapsed": 266469,
		"internal_node_id": "0.0-3.0-1.173"
	},
	{
		"rt": 656,
		"stimulus": "<span style=\"font-size:30px; font-family: monospace\">muito</span>",
		"response": " ",
		"trial": "exp-sent",
		"word": "muito",
		"trial_type": "html-keyboard-response",
		"trial_index": 221,
		"time_elapsed": 267386,
		"internal_node_id": "0.0-3.0-1.174"
	},
	{
		"rt": 521,
		"stimulus": "<span style=\"font-size:30px; font-family: monospace\">lindos.</span>",
		"response": " ",
		"trial": "exp-sent",
		"word": "lindos.",
		"trial_type": "html-keyboard-response",
		"trial_index": 222,
		"time_elapsed": 268167,
		"internal_node_id": "0.0-3.0-1.175"
	},
	{
		"rt": null,
		"stimulus": "<span style= \"font-size:30px; font-family: monospace\">+</span>",
		"response": null,
		"trial_part": "fixation",
		"trial_type": "html-keyboard-response",
		"trial_index": 223,
		"time_elapsed": 269430,
		"internal_node_id": "0.0-3.0-0.176-0.176"
	},
	{
		"rt": 415,
		"stimulus": "<span style=\"font-size:30px; font-family: monospace\">O</span>",
		"response": " ",
		"trial": "exp-sent",
		"word": "O",
		"trial_type": "html-keyboard-response",
		"trial_index": 224,
		"time_elapsed": 270110,
		"internal_node_id": "0.0-3.0-1.176"
	},
	{
		"rt": 708,
		"stimulus": "<span style=\"font-size:30px; font-family: monospace\">médico</span>",
		"response": " ",
		"trial": "exp-sent",
		"word": "médico",
		"trial_type": "html-keyboard-response",
		"trial_index": 225,
		"time_elapsed": 271070,
		"internal_node_id": "0.0-3.0-1.177"
	},
	{
		"rt": 534,
		"stimulus": "<span style=\"font-size:30px; font-family: monospace\">corrigiu</span>",
		"response": " ",
		"trial": "exp-sent",
		"word": "corrigiu",
		"trial_type": "html-keyboard-response",
		"trial_index": 226,
		"time_elapsed": 271858,
		"internal_node_id": "0.0-3.0-1.178"
	},
	{
		"rt": 469,
		"stimulus": "<span style=\"font-size:30px; font-family: monospace\">a</span>",
		"response": " ",
		"trial": "exp-sent",
		"word": "a",
		"trial_type": "html-keyboard-response",
		"trial_index": 227,
		"time_elapsed": 272593,
		"internal_node_id": "0.0-3.0-1.179"
	},
	{
		"rt": 449,
		"stimulus": "<span style=\"font-size:30px; font-family: monospace\">postura</span>",
		"response": " ",
		"trial": "exp-sent",
		"word": "postura",
		"trial_type": "html-keyboard-response",
		"trial_index": 228,
		"time_elapsed": 273308,
		"internal_node_id": "0.0-3.0-1.180"
	},
	{
		"rt": 494,
		"stimulus": "<span style=\"font-size:30px; font-family: monospace\">das</span>",
		"response": " ",
		"trial": "exp-sent",
		"word": "das",
		"trial_type": "html-keyboard-response",
		"trial_index": 229,
		"time_elapsed": 274054,
		"internal_node_id": "0.0-3.0-1.181"
	},
	{
		"rt": 640,
		"stimulus": "<span style=\"font-size:30px; font-family: monospace\">costas</span>",
		"response": " ",
		"trial": "exp-sent",
		"word": "costas",
		"trial_type": "html-keyboard-response",
		"trial_index": 230,
		"time_elapsed": 274947,
		"internal_node_id": "0.0-3.0-1.182"
	},
	{
		"rt": 478,
		"stimulus": "<span style=\"font-size:30px; font-family: monospace\">da</span>",
		"response": " ",
		"trial": "exp-sent",
		"word": "da",
		"trial_type": "html-keyboard-response",
		"trial_index": 231,
		"time_elapsed": 275687,
		"internal_node_id": "0.0-3.0-1.183"
	},
	{
		"rt": 514,
		"stimulus": "<span style=\"font-size:30px; font-family: monospace\">pessoa.</span>",
		"response": " ",
		"trial": "exp-sent",
		"word": "pessoa.",
		"trial_type": "html-keyboard-response",
		"trial_index": 232,
		"time_elapsed": 276452,
		"internal_node_id": "0.0-3.0-1.184"
	},
	{
		"rt": null,
		"stimulus": "<span style= \"font-size:30px; font-family: monospace\">+</span>",
		"response": null,
		"trial_part": "fixation",
		"trial_type": "html-keyboard-response",
		"trial_index": 233,
		"time_elapsed": 277719,
		"internal_node_id": "0.0-3.0-0.185-0.185"
	},
	{
		"rt": 669,
		"stimulus": "<span style=\"font-size:30px; font-family: monospace\">Aquele</span>",
		"response": " ",
		"trial": "exp-sent",
		"word": "Aquele",
		"trial_type": "html-keyboard-response",
		"trial_index": 234,
		"time_elapsed": 278648,
		"internal_node_id": "0.0-3.0-1.185"
	},
	{
		"rt": 548,
		"stimulus": "<span style=\"font-size:30px; font-family: monospace\">era</span>",
		"response": " ",
		"trial": "exp-sent",
		"word": "era",
		"trial_type": "html-keyboard-response",
		"trial_index": 235,
		"time_elapsed": 279455,
		"internal_node_id": "0.0-3.0-1.186"
	},
	{
		"rt": 584,
		"stimulus": "<span style=\"font-size:30px; font-family: monospace\">um</span>",
		"response": " ",
		"trial": "exp-sent",
		"word": "um",
		"trial_type": "html-keyboard-response",
		"trial_index": 236,
		"time_elapsed": 280293,
		"internal_node_id": "0.0-3.0-1.187"
	},
	{
		"rt": 583,
		"stimulus": "<span style=\"font-size:30px; font-family: monospace\">caso</span>",
		"response": " ",
		"trial": "exp-sent",
		"word": "caso",
		"trial_type": "html-keyboard-response",
		"trial_index": 237,
		"time_elapsed": 281128,
		"internal_node_id": "0.0-3.0-1.188"
	},
	{
		"rt": 553,
		"stimulus": "<span style=\"font-size:30px; font-family: monospace\">real</span>",
		"response": " ",
		"trial": "exp-sent",
		"word": "real",
		"trial_type": "html-keyboard-response",
		"trial_index": 238,
		"time_elapsed": 281940,
		"internal_node_id": "0.0-3.0-1.189"
	},
	{
		"rt": 514,
		"stimulus": "<span style=\"font-size:30px; font-family: monospace\">de</span>",
		"response": " ",
		"trial": "exp-sent",
		"word": "de",
		"trial_type": "html-keyboard-response",
		"trial_index": 239,
		"time_elapsed": 282718,
		"internal_node_id": "0.0-3.0-1.190"
	},
	{
		"rt": 647,
		"stimulus": "<span style=\"font-size:30px; font-family: monospace\">sequestro</span>",
		"response": " ",
		"trial": "exp-sent",
		"word": "sequestro",
		"trial_type": "html-keyboard-response",
		"trial_index": 240,
		"time_elapsed": 283616,
		"internal_node_id": "0.0-3.0-1.191"
	},
	{
		"rt": 692,
		"stimulus": "<span style=\"font-size:30px; font-family: monospace\">premeditado.</span>",
		"response": " ",
		"trial": "comp",
		"word": "premeditado.",
		"trial_type": "html-keyboard-response",
		"trial_index": 241,
		"time_elapsed": 284562,
		"internal_node_id": "0.0-3.0-1.192"
	},
	{
		"rt": 2398,
		"stimulus": "<span style=\"font-size:30px; font-family: monospace\">Aquele era um caso real de roubo?</span>",
		"response": "n",
		"question": "Aquele era um caso real de roubo?",
		"answer": "não",
		"trial": "comp",
		"trial_type": "html-keyboard-response",
		"trial_index": 242,
		"time_elapsed": 287221,
		"internal_node_id": "0.0-3.0-2.192-0.192",
		"accuracy": false
	},
	{
		"rt": null,
		"stimulus": "<span style= \"font-size:30px; font-family: monospace\">+</span>",
		"response": null,
		"trial_part": "fixation",
		"trial_type": "html-keyboard-response",
		"trial_index": 243,
		"time_elapsed": 288735,
		"internal_node_id": "0.0-3.0-0.193-0.193"
	},
	{
		"rt": 561,
		"stimulus": "<span style=\"font-size:30px; font-family: monospace\">A</span>",
		"response": " ",
		"trial": "exp-sent",
		"word": "A",
		"trial_type": "html-keyboard-response",
		"trial_index": 244,
		"time_elapsed": 289566,
		"internal_node_id": "0.0-3.0-1.193"
	},
	{
		"rt": 644,
		"stimulus": "<span style=\"font-size:30px; font-family: monospace\">motorista</span>",
		"response": " ",
		"trial": "exp-sent",
		"word": "motorista",
		"trial_type": "html-keyboard-response",
		"trial_index": 245,
		"time_elapsed": 290464,
		"internal_node_id": "0.0-3.0-1.194"
	},
	{
		"rt": 619,
		"stimulus": "<span style=\"font-size:30px; font-family: monospace\">fez</span>",
		"response": " ",
		"trial": "exp-sent",
		"word": "fez",
		"trial_type": "html-keyboard-response",
		"trial_index": 246,
		"time_elapsed": 291337,
		"internal_node_id": "0.0-3.0-1.195"
	},
	{
		"rt": 474,
		"stimulus": "<span style=\"font-size:30px; font-family: monospace\">o</span>",
		"response": " ",
		"trial": "exp-sent",
		"word": "o",
		"trial_type": "html-keyboard-response",
		"trial_index": 247,
		"time_elapsed": 292078,
		"internal_node_id": "0.0-3.0-1.196"
	},
	{
		"rt": 571,
		"stimulus": "<span style=\"font-size:30px; font-family: monospace\">retorno</span>",
		"response": " ",
		"trial": "exp-sent",
		"word": "retorno",
		"trial_type": "html-keyboard-response",
		"trial_index": 248,
		"time_elapsed": 292905,
		"internal_node_id": "0.0-3.0-1.197"
	},
	{
		"rt": 456,
		"stimulus": "<span style=\"font-size:30px; font-family: monospace\">com</span>",
		"response": " ",
		"trial": "exp-sent",
		"word": "com",
		"trial_type": "html-keyboard-response",
		"trial_index": 249,
		"time_elapsed": 293628,
		"internal_node_id": "0.0-3.0-1.198"
	},
	{
		"rt": 470,
		"stimulus": "<span style=\"font-size:30px; font-family: monospace\">cuidado.</span>",
		"response": " ",
		"trial": "exp-sent",
		"word": "cuidado.",
		"trial_type": "html-keyboard-response",
		"trial_index": 250,
		"time_elapsed": 294356,
		"internal_node_id": "0.0-3.0-1.199"
	},
	{
		"rt": null,
		"stimulus": "<span style= \"font-size:30px; font-family: monospace\">+</span>",
		"response": null,
		"trial_part": "fixation",
		"trial_type": "html-keyboard-response",
		"trial_index": 251,
		"time_elapsed": 295619,
		"internal_node_id": "0.0-3.0-0.200-0.200"
	},
	{
		"rt": 619,
		"stimulus": "<span style=\"font-size:30px; font-family: monospace\">Contos</span>",
		"response": " ",
		"trial": "exp-sent",
		"word": "Contos",
		"trial_type": "html-keyboard-response",
		"trial_index": 252,
		"time_elapsed": 296502,
		"internal_node_id": "0.0-3.0-1.200"
	},
	{
		"rt": 525,
		"stimulus": "<span style=\"font-size:30px; font-family: monospace\">de</span>",
		"response": " ",
		"trial": "exp-sent",
		"word": "de",
		"trial_type": "html-keyboard-response",
		"trial_index": 253,
		"time_elapsed": 297290,
		"internal_node_id": "0.0-3.0-1.201"
	},
	{
		"rt": 607,
		"stimulus": "<span style=\"font-size:30px; font-family: monospace\">ação</span>",
		"response": " ",
		"trial": "exp-sent",
		"word": "ação",
		"trial_type": "html-keyboard-response",
		"trial_index": 254,
		"time_elapsed": 298154,
		"internal_node_id": "0.0-3.0-1.202"
	},
	{
		"rt": 481,
		"stimulus": "<span style=\"font-size:30px; font-family: monospace\">têm</span>",
		"response": " ",
		"trial": "exp-sent",
		"word": "têm",
		"trial_type": "html-keyboard-response",
		"trial_index": 255,
		"time_elapsed": 298898,
		"internal_node_id": "0.0-3.0-1.203"
	},
	{
		"rt": 433,
		"stimulus": "<span style=\"font-size:30px; font-family: monospace\">chantagem</span>",
		"response": " ",
		"trial": "exp-sent",
		"word": "chantagem",
		"trial_type": "html-keyboard-response",
		"trial_index": 256,
		"time_elapsed": 299587,
		"internal_node_id": "0.0-3.0-1.204"
	},
	{
		"rt": 468,
		"stimulus": "<span style=\"font-size:30px; font-family: monospace\">e</span>",
		"response": " ",
		"trial": "exp-sent",
		"word": "e",
		"trial_type": "html-keyboard-response",
		"trial_index": 257,
		"time_elapsed": 300318,
		"internal_node_id": "0.0-3.0-1.205"
	},
	{
		"rt": 401,
		"stimulus": "<span style=\"font-size:30px; font-family: monospace\">muita</span>",
		"response": " ",
		"trial": "exp-sent",
		"word": "muita",
		"trial_type": "html-keyboard-response",
		"trial_index": 258,
		"time_elapsed": 300982,
		"internal_node_id": "0.0-3.0-1.206"
	},
	{
		"rt": 539,
		"stimulus": "<span style=\"font-size:30px; font-family: monospace\">luta.</span>",
		"response": " ",
		"trial": "exp-sent",
		"word": "luta.",
		"trial_type": "html-keyboard-response",
		"trial_index": 259,
		"time_elapsed": 301799,
		"internal_node_id": "0.0-3.0-1.207"
	},
	{
		"rt": null,
		"stimulus": "<span style= \"font-size:30px; font-family: monospace\">+</span>",
		"response": null,
		"trial_part": "fixation",
		"trial_type": "html-keyboard-response",
		"trial_index": 260,
		"time_elapsed": 303056,
		"internal_node_id": "0.0-3.0-0.208-0.208"
	},
	{
		"rt": 697,
		"stimulus": "<span style=\"font-size:30px; font-family: monospace\">A</span>",
		"response": " ",
		"trial": "exp-sent",
		"word": "A",
		"trial_type": "html-keyboard-response",
		"trial_index": 261,
		"time_elapsed": 304009,
		"internal_node_id": "0.0-3.0-1.208"
	},
	{
		"rt": 408,
		"stimulus": "<span style=\"font-size:30px; font-family: monospace\">bisavó</span>",
		"response": " ",
		"trial": "exp-sent",
		"word": "bisavó",
		"trial_type": "html-keyboard-response",
		"trial_index": 262,
		"time_elapsed": 304674,
		"internal_node_id": "0.0-3.0-1.209"
	},
	{
		"rt": 556,
		"stimulus": "<span style=\"font-size:30px; font-family: monospace\">recebeu</span>",
		"response": " ",
		"trial": "exp-sent",
		"word": "recebeu",
		"trial_type": "html-keyboard-response",
		"trial_index": 263,
		"time_elapsed": 305483,
		"internal_node_id": "0.0-3.0-1.210"
	},
	{
		"rt": 521,
		"stimulus": "<span style=\"font-size:30px; font-family: monospace\">um</span>",
		"response": " ",
		"trial": "exp-sent",
		"word": "um",
		"trial_type": "html-keyboard-response",
		"trial_index": 264,
		"time_elapsed": 306264,
		"internal_node_id": "0.0-3.0-1.211"
	},
	{
		"rt": 473,
		"stimulus": "<span style=\"font-size:30px; font-family: monospace\">benefício</span>",
		"response": " ",
		"trial": "exp-sent",
		"word": "benefício",
		"trial_type": "html-keyboard-response",
		"trial_index": 265,
		"time_elapsed": 307001,
		"internal_node_id": "0.0-3.0-1.212"
	},
	{
		"rt": 352,
		"stimulus": "<span style=\"font-size:30px; font-family: monospace\">temporário</span>",
		"response": " ",
		"trial": "exp-sent",
		"word": "temporário",
		"trial_type": "html-keyboard-response",
		"trial_index": 266,
		"time_elapsed": 307618,
		"internal_node_id": "0.0-3.0-1.213"
	},
	{
		"rt": 445,
		"stimulus": "<span style=\"font-size:30px; font-family: monospace\">do</span>",
		"response": " ",
		"trial": "exp-sent",
		"word": "do",
		"trial_type": "html-keyboard-response",
		"trial_index": 267,
		"time_elapsed": 308319,
		"internal_node_id": "0.0-3.0-1.214"
	},
	{
		"rt": 501,
		"stimulus": "<span style=\"font-size:30px; font-family: monospace\">governo.</span>",
		"response": " ",
		"trial": "exp-sent",
		"word": "governo.",
		"trial_type": "html-keyboard-response",
		"trial_index": 268,
		"time_elapsed": 309077,
		"internal_node_id": "0.0-3.0-1.215"
	},
	{
		"rt": null,
		"stimulus": "<span style= \"font-size:30px; font-family: monospace\">+</span>",
		"response": null,
		"trial_part": "fixation",
		"trial_type": "html-keyboard-response",
		"trial_index": 269,
		"time_elapsed": 310340,
		"internal_node_id": "0.0-3.0-0.216-0.216"
	},
	{
		"rt": 489,
		"stimulus": "<span style=\"font-size:30px; font-family: monospace\">As</span>",
		"response": " ",
		"trial": "exp-sent",
		"word": "As",
		"trial_type": "html-keyboard-response",
		"trial_index": 270,
		"time_elapsed": 311096,
		"internal_node_id": "0.0-3.0-1.216"
	},
	{
		"rt": 450,
		"stimulus": "<span style=\"font-size:30px; font-family: monospace\">crianças</span>",
		"response": " ",
		"trial": "exp-sent",
		"word": "crianças",
		"trial_type": "html-keyboard-response",
		"trial_index": 271,
		"time_elapsed": 311808,
		"internal_node_id": "0.0-3.0-1.217"
	},
	{
		"rt": 481,
		"stimulus": "<span style=\"font-size:30px; font-family: monospace\">brincaram</span>",
		"response": " ",
		"trial": "exp-sent",
		"word": "brincaram",
		"trial_type": "html-keyboard-response",
		"trial_index": 272,
		"time_elapsed": 312553,
		"internal_node_id": "0.0-3.0-1.218"
	},
	{
		"rt": 438,
		"stimulus": "<span style=\"font-size:30px; font-family: monospace\">no</span>",
		"response": " ",
		"trial": "exp-sent",
		"word": "no",
		"trial_type": "html-keyboard-response",
		"trial_index": 273,
		"time_elapsed": 313249,
		"internal_node_id": "0.0-3.0-1.219"
	},
	{
		"rt": 496,
		"stimulus": "<span style=\"font-size:30px; font-family: monospace\">balanço</span>",
		"response": " ",
		"trial": "exp-sent",
		"word": "balanço",
		"trial_type": "html-keyboard-response",
		"trial_index": 274,
		"time_elapsed": 314000,
		"internal_node_id": "0.0-3.0-1.220"
	},
	{
		"rt": 464,
		"stimulus": "<span style=\"font-size:30px; font-family: monospace\">a</span>",
		"response": " ",
		"trial": "exp-sent",
		"word": "a",
		"trial_type": "html-keyboard-response",
		"trial_index": 275,
		"time_elapsed": 314723,
		"internal_node_id": "0.0-3.0-1.221"
	},
	{
		"rt": 524,
		"stimulus": "<span style=\"font-size:30px; font-family: monospace\">tarde</span>",
		"response": " ",
		"trial": "exp-sent",
		"word": "tarde",
		"trial_type": "html-keyboard-response",
		"trial_index": 276,
		"time_elapsed": 315514,
		"internal_node_id": "0.0-3.0-1.222"
	},
	{
		"rt": 616,
		"stimulus": "<span style=\"font-size:30px; font-family: monospace\">toda.</span>",
		"response": " ",
		"trial": "exp-sent",
		"word": "toda.",
		"trial_type": "html-keyboard-response",
		"trial_index": 277,
		"time_elapsed": 316389,
		"internal_node_id": "0.0-3.0-1.223"
	},
	{
		"rt": null,
		"stimulus": "<span style= \"font-size:30px; font-family: monospace\">+</span>",
		"response": null,
		"trial_part": "fixation",
		"trial_type": "html-keyboard-response",
		"trial_index": 278,
		"time_elapsed": 317668,
		"internal_node_id": "0.0-3.0-0.224-0.224"
	},
	{
		"rt": 639,
		"stimulus": "<span style=\"font-size:30px; font-family: monospace\">Ela</span>",
		"response": " ",
		"trial": "exp-sent",
		"word": "Ela",
		"trial_type": "html-keyboard-response",
		"trial_index": 279,
		"time_elapsed": 318562,
		"internal_node_id": "0.0-3.0-1.224"
	},
	{
		"rt": 481,
		"stimulus": "<span style=\"font-size:30px; font-family: monospace\">gosta</span>",
		"response": " ",
		"trial": "exp-sent",
		"word": "gosta",
		"trial_type": "html-keyboard-response",
		"trial_index": 280,
		"time_elapsed": 319303,
		"internal_node_id": "0.0-3.0-1.225"
	},
	{
		"rt": 600,
		"stimulus": "<span style=\"font-size:30px; font-family: monospace\">de</span>",
		"response": " ",
		"trial": "exp-sent",
		"word": "de",
		"trial_type": "html-keyboard-response",
		"trial_index": 281,
		"time_elapsed": 320155,
		"internal_node_id": "0.0-3.0-1.226"
	},
	{
		"rt": 520,
		"stimulus": "<span style=\"font-size:30px; font-family: monospace\">comida</span>",
		"response": " ",
		"trial": "exp-sent",
		"word": "comida",
		"trial_type": "html-keyboard-response",
		"trial_index": 282,
		"time_elapsed": 320926,
		"internal_node_id": "0.0-3.0-1.227"
	},
	{
		"rt": 476,
		"stimulus": "<span style=\"font-size:30px; font-family: monospace\">natural</span>",
		"response": " ",
		"trial": "exp-sent",
		"word": "natural",
		"trial_type": "html-keyboard-response",
		"trial_index": 283,
		"time_elapsed": 321660,
		"internal_node_id": "0.0-3.0-1.228"
	},
	{
		"rt": 541,
		"stimulus": "<span style=\"font-size:30px; font-family: monospace\">no</span>",
		"response": " ",
		"trial": "exp-sent",
		"word": "no",
		"trial_type": "html-keyboard-response",
		"trial_index": 284,
		"time_elapsed": 322477,
		"internal_node_id": "0.0-3.0-1.229"
	},
	{
		"rt": 522,
		"stimulus": "<span style=\"font-size:30px; font-family: monospace\">almoço.</span>",
		"response": " ",
		"trial": "comp",
		"word": "almoço.",
		"trial_type": "html-keyboard-response",
		"trial_index": 285,
		"time_elapsed": 323265,
		"internal_node_id": "0.0-3.0-1.230"
	},
	{
		"rt": 2644,
		"stimulus": "<span style=\"font-size:30px; font-family: monospace\">Ela gosta de comida natural no almoço?</span>",
		"response": "s",
		"question": "Ela gosta de comida natural no almoço?",
		"answer": "sim",
		"trial": "comp",
		"trial_type": "html-keyboard-response",
		"trial_index": 286,
		"time_elapsed": 326165,
		"internal_node_id": "0.0-3.0-2.230-0.230",
		"accuracy": false
	},
	{
		"rt": null,
		"stimulus": "<span style= \"font-size:30px; font-family: monospace\">+</span>",
		"response": null,
		"trial_part": "fixation",
		"trial_type": "html-keyboard-response",
		"trial_index": 287,
		"time_elapsed": 327682,
		"internal_node_id": "0.0-3.0-0.231-0.231"
	},
	{
		"rt": 504,
		"stimulus": "<span style=\"font-size:30px; font-family: monospace\">As</span>",
		"response": " ",
		"trial": "exp-sent",
		"word": "As",
		"trial_type": "html-keyboard-response",
		"trial_index": 288,
		"time_elapsed": 328440,
		"internal_node_id": "0.0-3.0-1.231"
	},
	{
		"rt": 517,
		"stimulus": "<span style=\"font-size:30px; font-family: monospace\">crianças</span>",
		"response": " ",
		"trial": "exp-sent",
		"word": "crianças",
		"trial_type": "html-keyboard-response",
		"trial_index": 289,
		"time_elapsed": 329218,
		"internal_node_id": "0.0-3.0-1.232"
	},
	{
		"rt": 430,
		"stimulus": "<span style=\"font-size:30px; font-family: monospace\">viram</span>",
		"response": " ",
		"trial": "exp-sent",
		"word": "viram",
		"trial_type": "html-keyboard-response",
		"trial_index": 290,
		"time_elapsed": 329903,
		"internal_node_id": "0.0-3.0-1.233"
	},
	{
		"rt": 410,
		"stimulus": "<span style=\"font-size:30px; font-family: monospace\">um</span>",
		"response": " ",
		"trial": "exp-sent",
		"word": "um",
		"trial_type": "html-keyboard-response",
		"trial_index": 291,
		"time_elapsed": 330584,
		"internal_node_id": "0.0-3.0-1.234"
	},
	{
		"rt": 457,
		"stimulus": "<span style=\"font-size:30px; font-family: monospace\">vaga-lume</span>",
		"response": " ",
		"trial": "exp-sent",
		"word": "vaga-lume",
		"trial_type": "html-keyboard-response",
		"trial_index": 292,
		"time_elapsed": 331291,
		"internal_node_id": "0.0-3.0-1.235"
	},
	{
		"rt": 504,
		"stimulus": "<span style=\"font-size:30px; font-family: monospace\">nos</span>",
		"response": " ",
		"trial": "exp-sent",
		"word": "nos",
		"trial_type": "html-keyboard-response",
		"trial_index": 293,
		"time_elapsed": 332056,
		"internal_node_id": "0.0-3.0-1.236"
	},
	{
		"rt": 440,
		"stimulus": "<span style=\"font-size:30px; font-family: monospace\">arbustos.</span>",
		"response": " ",
		"trial": "exp-sent",
		"word": "arbustos.",
		"trial_type": "html-keyboard-response",
		"trial_index": 294,
		"time_elapsed": 332759,
		"internal_node_id": "0.0-3.0-1.237"
	},
	{
		"rt": null,
		"stimulus": "<span style= \"font-size:30px; font-family: monospace\">+</span>",
		"response": null,
		"trial_part": "fixation",
		"trial_type": "html-keyboard-response",
		"trial_index": 295,
		"time_elapsed": 334028,
		"internal_node_id": "0.0-3.0-0.238-0.238"
	},
	{
		"rt": 502,
		"stimulus": "<span style=\"font-size:30px; font-family: monospace\">Ontem</span>",
		"response": " ",
		"trial": "exp-sent",
		"word": "Ontem",
		"trial_type": "html-keyboard-response",
		"trial_index": 296,
		"time_elapsed": 334787,
		"internal_node_id": "0.0-3.0-1.238"
	},
	{
		"rt": 445,
		"stimulus": "<span style=\"font-size:30px; font-family: monospace\">o</span>",
		"response": " ",
		"trial": "exp-sent",
		"word": "o",
		"trial_type": "html-keyboard-response",
		"trial_index": 297,
		"time_elapsed": 335492,
		"internal_node_id": "0.0-3.0-1.239"
	},
	{
		"rt": 600,
		"stimulus": "<span style=\"font-size:30px; font-family: monospace\">funcionário</span>",
		"response": " ",
		"trial": "exp-sent",
		"word": "funcionário",
		"trial_type": "html-keyboard-response",
		"trial_index": 298,
		"time_elapsed": 336345,
		"internal_node_id": "0.0-3.0-1.240"
	},
	{
		"rt": 431,
		"stimulus": "<span style=\"font-size:30px; font-family: monospace\">pediu</span>",
		"response": " ",
		"trial": "exp-sent",
		"word": "pediu",
		"trial_type": "html-keyboard-response",
		"trial_index": 299,
		"time_elapsed": 337030,
		"internal_node_id": "0.0-3.0-1.241"
	},
	{
		"rt": 594,
		"stimulus": "<span style=\"font-size:30px; font-family: monospace\">autorização</span>",
		"response": " ",
		"trial": "exp-sent",
		"word": "autorização",
		"trial_type": "html-keyboard-response",
		"trial_index": 300,
		"time_elapsed": 337875,
		"internal_node_id": "0.0-3.0-1.242"
	},
	{
		"rt": 448,
		"stimulus": "<span style=\"font-size:30px; font-family: monospace\">para</span>",
		"response": " ",
		"trial": "exp-sent",
		"word": "para",
		"trial_type": "html-keyboard-response",
		"trial_index": 301,
		"time_elapsed": 338576,
		"internal_node_id": "0.0-3.0-1.243"
	},
	{
		"rt": 497,
		"stimulus": "<span style=\"font-size:30px; font-family: monospace\">a</span>",
		"response": " ",
		"trial": "exp-sent",
		"word": "a",
		"trial_type": "html-keyboard-response",
		"trial_index": 302,
		"time_elapsed": 339326,
		"internal_node_id": "0.0-3.0-1.244"
	},
	{
		"rt": 597,
		"stimulus": "<span style=\"font-size:30px; font-family: monospace\">colega.</span>",
		"response": " ",
		"trial": "exp-sent",
		"word": "colega.",
		"trial_type": "html-keyboard-response",
		"trial_index": 303,
		"time_elapsed": 340176,
		"internal_node_id": "0.0-3.0-1.245"
	},
	{
		"rt": null,
		"stimulus": "<span style= \"font-size:30px; font-family: monospace\">+</span>",
		"response": null,
		"trial_part": "fixation",
		"trial_type": "html-keyboard-response",
		"trial_index": 304,
		"time_elapsed": 341436,
		"internal_node_id": "0.0-3.0-0.246-0.246"
	},
	{
		"rt": 464,
		"stimulus": "<span style=\"font-size:30px; font-family: monospace\">Eu</span>",
		"response": " ",
		"trial": "exp-sent",
		"word": "Eu",
		"trial_type": "html-keyboard-response",
		"trial_index": 305,
		"time_elapsed": 342158,
		"internal_node_id": "0.0-3.0-1.246"
	},
	{
		"rt": 468,
		"stimulus": "<span style=\"font-size:30px; font-family: monospace\">sempre</span>",
		"response": " ",
		"trial": "exp-sent",
		"word": "sempre",
		"trial_type": "html-keyboard-response",
		"trial_index": 306,
		"time_elapsed": 342887,
		"internal_node_id": "0.0-3.0-1.247"
	},
	{
		"rt": 455,
		"stimulus": "<span style=\"font-size:30px; font-family: monospace\">fujo</span>",
		"response": " ",
		"trial": "exp-sent",
		"word": "fujo",
		"trial_type": "html-keyboard-response",
		"trial_index": 307,
		"time_elapsed": 343607,
		"internal_node_id": "0.0-3.0-1.248"
	},
	{
		"rt": 355,
		"stimulus": "<span style=\"font-size:30px; font-family: monospace\">de</span>",
		"response": " ",
		"trial": "exp-sent",
		"word": "de",
		"trial_type": "html-keyboard-response",
		"trial_index": 308,
		"time_elapsed": 344216,
		"internal_node_id": "0.0-3.0-1.249"
	},
	{
		"rt": 462,
		"stimulus": "<span style=\"font-size:30px; font-family: monospace\">conflito</span>",
		"response": " ",
		"trial": "exp-sent",
		"word": "conflito",
		"trial_type": "html-keyboard-response",
		"trial_index": 309,
		"time_elapsed": 344940,
		"internal_node_id": "0.0-3.0-1.250"
	},
	{
		"rt": 424,
		"stimulus": "<span style=\"font-size:30px; font-family: monospace\">com</span>",
		"response": " ",
		"trial": "exp-sent",
		"word": "com",
		"trial_type": "html-keyboard-response",
		"trial_index": 310,
		"time_elapsed": 345618,
		"internal_node_id": "0.0-3.0-1.251"
	},
	{
		"rt": 319,
		"stimulus": "<span style=\"font-size:30px; font-family: monospace\">as</span>",
		"response": " ",
		"trial": "exp-sent",
		"word": "as",
		"trial_type": "html-keyboard-response",
		"trial_index": 311,
		"time_elapsed": 346194,
		"internal_node_id": "0.0-3.0-1.252"
	},
	{
		"rt": 219,
		"stimulus": "<span style=\"font-size:30px; font-family: monospace\">pessoas.</span>",
		"response": " ",
		"trial": "exp-sent",
		"word": "pessoas.",
		"trial_type": "html-keyboard-response",
		"trial_index": 312,
		"time_elapsed": 346669,
		"internal_node_id": "0.0-3.0-1.253"
	},
	{
		"rt": null,
		"stimulus": "<span style= \"font-size:30px; font-family: monospace\">+</span>",
		"response": null,
		"trial_part": "fixation",
		"trial_type": "html-keyboard-response",
		"trial_index": 313,
		"time_elapsed": 347940,
		"internal_node_id": "0.0-3.0-0.254-0.254"
	},
	{
		"rt": 245,
		"stimulus": "<span style=\"font-size:30px; font-family: monospace\">O</span>",
		"response": " ",
		"trial": "exp-sent",
		"word": "O",
		"trial_type": "html-keyboard-response",
		"trial_index": 314,
		"time_elapsed": 348438,
		"internal_node_id": "0.0-3.0-1.254"
	},
	{
		"rt": 710,
		"stimulus": "<span style=\"font-size:30px; font-family: monospace\">bolo</span>",
		"response": " ",
		"trial": "exp-sent",
		"word": "bolo",
		"trial_type": "html-keyboard-response",
		"trial_index": 315,
		"time_elapsed": 349405,
		"internal_node_id": "0.0-3.0-1.255"
	},
	{
		"rt": 770,
		"stimulus": "<span style=\"font-size:30px; font-family: monospace\">era</span>",
		"response": " ",
		"trial": "exp-sent",
		"word": "era",
		"trial_type": "html-keyboard-response",
		"trial_index": 316,
		"time_elapsed": 350437,
		"internal_node_id": "0.0-3.0-1.256"
	},
	{
		"rt": 327,
		"stimulus": "<span style=\"font-size:30px; font-family: monospace\">de</span>",
		"response": " ",
		"trial": "exp-sent",
		"word": "de",
		"trial_type": "html-keyboard-response",
		"trial_index": 317,
		"time_elapsed": 351019,
		"internal_node_id": "0.0-3.0-1.257"
	},
	{
		"rt": 410,
		"stimulus": "<span style=\"font-size:30px; font-family: monospace\">abacaxi</span>",
		"response": " ",
		"trial": "exp-sent",
		"word": "abacaxi",
		"trial_type": "html-keyboard-response",
		"trial_index": 318,
		"time_elapsed": 351689,
		"internal_node_id": "0.0-3.0-1.258"
	},
	{
		"rt": 424,
		"stimulus": "<span style=\"font-size:30px; font-family: monospace\">e</span>",
		"response": " ",
		"trial": "exp-sent",
		"word": "e",
		"trial_type": "html-keyboard-response",
		"trial_index": 319,
		"time_elapsed": 352367,
		"internal_node_id": "0.0-3.0-1.259"
	},
	{
		"rt": 647,
		"stimulus": "<span style=\"font-size:30px; font-family: monospace\">creme</span>",
		"response": " ",
		"trial": "exp-sent",
		"word": "creme",
		"trial_type": "html-keyboard-response",
		"trial_index": 320,
		"time_elapsed": 353269,
		"internal_node_id": "0.0-3.0-1.260"
	},
	{
		"rt": 277,
		"stimulus": "<span style=\"font-size:30px; font-family: monospace\">de</span>",
		"response": " ",
		"trial": "exp-sent",
		"word": "de",
		"trial_type": "html-keyboard-response",
		"trial_index": 321,
		"time_elapsed": 353801,
		"internal_node_id": "0.0-3.0-1.261"
	},
	{
		"rt": 687,
		"stimulus": "<span style=\"font-size:30px; font-family: monospace\">coco.</span>",
		"response": " ",
		"trial": "exp-sent",
		"word": "coco.",
		"trial_type": "html-keyboard-response",
		"trial_index": 322,
		"time_elapsed": 354745,
		"internal_node_id": "0.0-3.0-1.262"
	},
	{
		"rt": null,
		"stimulus": "<span style= \"font-size:30px; font-family: monospace\">+</span>",
		"response": null,
		"trial_part": "fixation",
		"trial_type": "html-keyboard-response",
		"trial_index": 323,
		"time_elapsed": 356019,
		"internal_node_id": "0.0-3.0-0.263-0.263"
	},
	{
		"rt": 520,
		"stimulus": "<span style=\"font-size:30px; font-family: monospace\">As</span>",
		"response": " ",
		"trial": "exp-sent",
		"word": "As",
		"trial_type": "html-keyboard-response",
		"trial_index": 324,
		"time_elapsed": 356793,
		"internal_node_id": "0.0-3.0-1.263"
	},
	{
		"rt": 473,
		"stimulus": "<span style=\"font-size:30px; font-family: monospace\">crianças</span>",
		"response": " ",
		"trial": "exp-sent",
		"word": "crianças",
		"trial_type": "html-keyboard-response",
		"trial_index": 325,
		"time_elapsed": 357523,
		"internal_node_id": "0.0-3.0-1.264"
	},
	{
		"rt": 419,
		"stimulus": "<span style=\"font-size:30px; font-family: monospace\">brincaram</span>",
		"response": " ",
		"trial": "exp-sent",
		"word": "brincaram",
		"trial_type": "html-keyboard-response",
		"trial_index": 326,
		"time_elapsed": 358206,
		"internal_node_id": "0.0-3.0-1.265"
	},
	{
		"rt": 385,
		"stimulus": "<span style=\"font-size:30px; font-family: monospace\">com</span>",
		"response": " ",
		"trial": "exp-sent",
		"word": "com",
		"trial_type": "html-keyboard-response",
		"trial_index": 327,
		"time_elapsed": 358857,
		"internal_node_id": "0.0-3.0-1.266"
	},
	{
		"rt": 456,
		"stimulus": "<span style=\"font-size:30px; font-family: monospace\">bolhas</span>",
		"response": " ",
		"trial": "exp-sent",
		"word": "bolhas",
		"trial_type": "html-keyboard-response",
		"trial_index": 328,
		"time_elapsed": 359570,
		"internal_node_id": "0.0-3.0-1.267"
	},
	{
		"rt": 532,
		"stimulus": "<span style=\"font-size:30px; font-family: monospace\">no</span>",
		"response": " ",
		"trial": "exp-sent",
		"word": "no",
		"trial_type": "html-keyboard-response",
		"trial_index": 329,
		"time_elapsed": 360353,
		"internal_node_id": "0.0-3.0-1.268"
	},
	{
		"rt": 500,
		"stimulus": "<span style=\"font-size:30px; font-family: monospace\">banho.</span>",
		"response": " ",
		"trial": "comp",
		"word": "banho.",
		"trial_type": "html-keyboard-response",
		"trial_index": 330,
		"time_elapsed": 361112,
		"internal_node_id": "0.0-3.0-1.269"
	},
	{
		"rt": 3931,
		"stimulus": "<span style=\"font-size:30px; font-family: monospace\">As crianças brincaram com bolhas?</span>",
		"response": "n",
		"question": "As crianças brincaram com bolhas?",
		"answer": "sim",
		"trial": "comp",
		"trial_type": "html-keyboard-response",
		"trial_index": 331,
		"time_elapsed": 365301,
		"internal_node_id": "0.0-3.0-2.269-0.269",
		"accuracy": false
	},
	{
		"rt": null,
		"stimulus": "<span style= \"font-size:30px; font-family: monospace\">+</span>",
		"response": null,
		"trial_part": "fixation",
		"trial_type": "html-keyboard-response",
		"trial_index": 332,
		"time_elapsed": 366819,
		"internal_node_id": "0.0-3.0-0.270-0.270"
	},
	{
		"rt": 1209,
		"stimulus": "<span style=\"font-size:30px; font-family: monospace\">Ele</span>",
		"response": " ",
		"trial": "exp-sent",
		"word": "Ele",
		"trial_type": "html-keyboard-response",
		"trial_index": 333,
		"time_elapsed": 368291,
		"internal_node_id": "0.0-3.0-1.270"
	},
	{
		"rt": 488,
		"stimulus": "<span style=\"font-size:30px; font-family: monospace\">é</span>",
		"response": " ",
		"trial": "exp-sent",
		"word": "é",
		"trial_type": "html-keyboard-response",
		"trial_index": 334,
		"time_elapsed": 369035,
		"internal_node_id": "0.0-3.0-1.271"
	},
	{
		"rt": 438,
		"stimulus": "<span style=\"font-size:30px; font-family: monospace\">um</span>",
		"response": " ",
		"trial": "exp-sent",
		"word": "um",
		"trial_type": "html-keyboard-response",
		"trial_index": 335,
		"time_elapsed": 369731,
		"internal_node_id": "0.0-3.0-1.272"
	},
	{
		"rt": 441,
		"stimulus": "<span style=\"font-size:30px; font-family: monospace\">pai</span>",
		"response": " ",
		"trial": "exp-sent",
		"word": "pai",
		"trial_type": "html-keyboard-response",
		"trial_index": 336,
		"time_elapsed": 370431,
		"internal_node_id": "0.0-3.0-1.273"
	},
	{
		"rt": 933,
		"stimulus": "<span style=\"font-size:30px; font-family: monospace\">ausente</span>",
		"response": " ",
		"trial": "exp-sent",
		"word": "ausente",
		"trial_type": "html-keyboard-response",
		"trial_index": 337,
		"time_elapsed": 371624,
		"internal_node_id": "0.0-3.0-1.274"
	},
	{
		"rt": 509,
		"stimulus": "<span style=\"font-size:30px; font-family: monospace\">e</span>",
		"response": " ",
		"trial": "exp-sent",
		"word": "e",
		"trial_type": "html-keyboard-response",
		"trial_index": 338,
		"time_elapsed": 372395,
		"internal_node_id": "0.0-3.0-1.275"
	},
	{
		"rt": 345,
		"stimulus": "<span style=\"font-size:30px; font-family: monospace\">muito</span>",
		"response": " ",
		"trial": "exp-sent",
		"word": "muito",
		"trial_type": "html-keyboard-response",
		"trial_index": 339,
		"time_elapsed": 373003,
		"internal_node_id": "0.0-3.0-1.276"
	},
	{
		"rt": 361,
		"stimulus": "<span style=\"font-size:30px; font-family: monospace\">fofoqueiro.</span>",
		"response": " ",
		"trial": "exp-sent",
