"view_history","rt","trial_type","trial_index","time_elapsed","internal_node_id","stimulus","response","trial_part","word","question","answer","trial","accuracy"
"[{""page_index"":0,""viewing_time"":1536},{""page_index"":1,""viewing_time"":6228}]","7764","instructions","0","7768","0.0-0.0","","","","","","","",""
"","null","html-keyboard-response","1","8895","0.0-1.0-0.0-0.0","<span style= ""font-size:30px; font-family: monospace"">+</span>","null","fixation","","","","",""
"","3592","audio-keyboard-response","2","13281","0.0-1.0-1.0","../audio/prac-question-1-1.mp3"," ","","O","","","",""
"","1371","audio-keyboard-response","3","14957","0.0-1.0-1.1","../audio/prac-question-1-2.mp3"," ","","dia","","","",""
"","1499","audio-keyboard-response","4","16773","0.0-1.0-1.2","../audio/prac-question-1-3.mp3"," ","","estará","","","",""
"","1549","audio-keyboard-response","5","18627","0.0-1.0-1.3","../audio/prac-question-1-4.mp3"," ","","cheio","","","",""
"","1448","audio-keyboard-response","6","20371","0.0-1.0-1.4","../audio/prac-question-1-5.mp3"," ","","de","","","",""
"","1429","audio-keyboard-response","7","22099","0.0-1.0-1.5","../audio/prac-question-1-6.mp3"," ","","nuvens","","","",""
"","1200","audio-keyboard-response","8","23602","0.0-1.0-1.6","../audio/prac-question-1-7.mp3"," ","","hoje.","","","",""
"","null","html-keyboard-response","9","24876","0.0-1.0-0.7-0.7","<span style= ""font-size:30px; font-family: monospace"">+</span>","null","fixation","","","","",""
"","949","audio-keyboard-response","10","26136","0.0-1.0-1.7","../audio/prac-question-2-1.mp3"," ","","A","","","",""
"","1320","audio-keyboard-response","11","27761","0.0-1.0-1.8","../audio/prac-question-2-2.mp3"," ","","caneca","","","",""
"","1149","audio-keyboard-response","12","29223","0.0-1.0-1.9","../audio/prac-question-2-3.mp3"," ","","colorida","","","",""
"","1139","audio-keyboard-response","13","30668","0.0-1.0-1.10","../audio/prac-question-2-4.mp3"," ","","caiu","","","",""
"","1032","audio-keyboard-response","14","32000","0.0-1.0-1.11","../audio/prac-question-2-5.mp3"," ","","da","","","",""
"","1181","audio-keyboard-response","15","33477","0.0-1.0-1.12","../audio/prac-question-2-6.mp3"," ","","mesa","","","",""
"","1000","audio-keyboard-response","16","34777","0.0-1.0-1.13","../audio/prac-question-2-7.mp3"," ","","de","","","",""
"","1141","audio-keyboard-response","17","36233","0.0-1.0-1.14","../audio/prac-question-2-8.mp3"," ","","jantar.","","","",""
"","3887","html-keyboard-response","18","40374","0.0-1.0-2.14-0.14","<span style=""font-size:25px; font-family: monospace"">A caneca era colorida?</span>","s","","","A caneca era colorida?","null","prac-sent","false"
"[{""page_index"":0,""viewing_time"":6243}]","6243","instructions","19","47134","0.0-2.0","","","","","","","",""
"","null","html-keyboard-response","20","48259","0.0-3.0-0.0-0.0","<span style= ""font-size:30px; font-family: monospace"">+</span>","null","fixation","","","","",""
"","1291","audio-keyboard-response","21","52308","0.0-3.0-1.0","../audio/47-1-masc.mp3"," ","","O","","","",""
"","1131","audio-keyboard-response","22","56642","0.0-3.0-1.1","../audio/47-2-masc.mp3"," ","","tio","","","",""
"","1120","audio-keyboard-response","23","62123","0.0-3.0-1.2","../audio/47-3-masc.mp3"," ","","recusou","","","",""
"","840","audio-keyboard-response","24","66254","0.0-3.0-1.3","../audio/47-4-masc.mp3"," ","","a","","","",""
"","1349","audio-keyboard-response","25","68750","0.0-3.0-1.4","../audio/47-5-masc.mp3"," ","","sobremesa","","","",""
"","1099","audio-keyboard-response","26","73094","0.0-3.0-1.5","../audio/47-6-masc.mp3"," ","","no","","","",""
"","1189","audio-keyboard-response","27","77650","0.0-3.0-1.6","../audio/47-7-masc.mp3"," ","","almoço.","","","",""
"","null","html-keyboard-response","28","78914","0.0-3.0-0.7-0.7","<span style= ""font-size:30px; font-family: monospace"">+</span>","null","fixation","","","","",""
"","1109","audio-keyboard-response","29","82890","0.0-3.0-1.7","../audio/48-1-fem.mp3"," ","","Ela","","","",""
"","1259","audio-keyboard-response","30","87543","0.0-3.0-1.8","../audio/48-2-fem.mp3"," ","","come","","","",""
"","1251","audio-keyboard-response","31","92390","0.0-3.0-1.9","../audio/48-3-fem.mp3"," ","","feijão","","","",""
"","1280","audio-keyboard-response","32","96396","0.0-3.0-1.10","../audio/48-4-fem.mp3"," ","","com","","","",""
"","1221","audio-keyboard-response","33","100948","0.0-3.0-1.11","../audio/48-5-fem.mp3"," ","","arroz","","","",""
"","1541","audio-keyboard-response","34","105595","0.0-3.0-1.12","../audio/48-6-fem.mp3"," ","","todos","","","",""
"","992","audio-keyboard-response","35","109563","0.0-3.0-1.13","../audio/48-7-fem.mp3"," ","","os","","","",""
"","1251","audio-keyboard-response","36","114357","0.0-3.0-1.14","../audio/48-8-fem.mp3"," ","","dias.","","","",""
"","null","html-keyboard-response","37","115635","0.0-3.0-0.15-0.15","<span style= ""font-size:30px; font-family: monospace"">+</span>","null","fixation","","","","",""
"","1299","audio-keyboard-response","38","119727","0.0-3.0-1.15","../audio/46-1-masc.mp3"," ","","Meu","","","",""
"","1200","audio-keyboard-response","39","124204","0.0-3.0-1.16","../audio/46-2-masc.mp3"," ","","primo","","","",""
"","1120","audio-keyboard-response","40","128744","0.0-3.0-1.17","../audio/46-3-masc.mp3"," ","","estava","","","",""
"","1099","audio-keyboard-response","41","133330","0.0-3.0-1.18","../audio/46-4-masc.mp3"," ","","muito","","","",""
"","1381","audio-keyboard-response","42","138034","0.0-3.0-1.19","../audio/46-5-masc.mp3"," ","","deprimido","","","",""
"","971","audio-keyboard-response","43","142181","0.0-3.0-1.20","../audio/46-6-masc.mp3"," ","","no","","","",""
"","1731","audio-keyboard-response","44","148043","0.0-3.0-1.21","../audio/46-7-masc.mp3"," ","","inverno.","","","",""
"","null","html-keyboard-response","45","149312","0.0-3.0-0.22-0.22","<span style= ""font-size:30px; font-family: monospace"">+</span>","null","fixation","","","","",""
"","1171","audio-keyboard-response","46","153262","0.0-3.0-1.22","../audio/49-1-fem.mp3"," ","","Eu","","","",""
"","1272","audio-keyboard-response","47","157926","0.0-3.0-1.23","../audio/49-2-fem.mp3"," ","","quero","","","",""
"","1312","audio-keyboard-response","48","162365","0.0-3.0-1.24","../audio/49-3-fem.mp3"," ","","um","","","",""
"","1480","audio-keyboard-response","49","166977","0.0-3.0-1.25","../audio/49-4-fem.mp3"," ","","lanche","","","",""
"","1211","audio-keyboard-response","50","171224","0.0-3.0-1.26","../audio/49-5-fem.mp3"," ","","duplo","","","",""
"","1301","audio-keyboard-response","51","177795","0.0-3.0-1.27","../audio/49-6-fem.mp3"," ","","e","","","",""
"","949","audio-keyboard-response","52","182138","0.0-3.0-1.28","../audio/49-7-fem.mp3"," ","","um","","","",""
"","1280","audio-keyboard-response","53","187549","0.0-3.0-1.29","../audio/49-8-fem.mp3"," ","","suco.","","","",""
"","null","html-keyboard-response","54","188804","0.0-3.0-0.30-0.30","<span style= ""font-size:30px; font-family: monospace"">+</span>","null","fixation","","","","",""
"","1240","audio-keyboard-response","55","193725","0.0-3.0-1.30","../audio/50-1-masc.mp3"," ","","O","","","",""
"","1061","audio-keyboard-response","56","198354","0.0-3.0-1.31","../audio/50-2-masc.mp3"," ","","pássaro","","","",""
"","971","audio-keyboard-response","57","202549","0.0-3.0-1.32","../audio/50-3-masc.mp3"," ","","fugiu","","","",""
"","1251","audio-keyboard-response","58","207362","0.0-3.0-1.33","../audio/50-4-masc.mp3"," ","","da","","","",""
"","1109","audio-keyboard-response","59","211936","0.0-3.0-1.34","../audio/50-5-masc.mp3"," ","","gaiola","","","",""
"","1251","audio-keyboard-response","60","216268","0.0-3.0-1.35","../audio/50-6-masc.mp3"," ","","pela","","","",""
"","1600","audio-keyboard-response","61","221406","0.0-3.0-1.36","../audio/50-7-masc.mp3"," ","","portinhola.","","","",""
"","3383","html-keyboard-response","62","225057","0.0-3.0-2.36-0.36","<span style=""font-size:25px; font-family: monospace"">O pássaro fugiu da gaiola?</span>","s","","","O pássaro fugiu da gaiola?","null","exp-sent","false"
"","null","html-keyboard-response","63","226584","0.0-3.0-0.37-0.37","<span style= ""font-size:30px; font-family: monospace"">+</span>","null","fixation","","","","",""
"","1069","audio-keyboard-response","64","227937","0.0-3.0-1.37","../audio/03-1-fem.mp3"," ","","O","","","",""
"","2019","audio-keyboard-response","65","230266","0.0-3.0-1.38","../audio/03-2-fem.mp3"," ","","coelho","","","",""
"","1589","audio-keyboard-response","66","232175","0.0-3.0-1.39","../audio/03-3-fem.mp3"," ","","foi","","","",""
"","1800","audio-keyboard-response","67","234300","0.0-3.0-1.40","../audio/03-4-fem.mp3"," ","","bastante","","","",""
"","2008","audio-keyboard-response","68","236608","0.0-3.0-1.41","../audio/03-5-fem.mp3"," ","","dócil","","","",""
"","1899","audio-keyboard-response","69","238816","0.0-3.0-1.42","../audio/03-6-fem.mp3"," ","","com","","","",""
"","2109","audio-keyboard-response","70","241230","0.0-3.0-1.43","../audio/03-7-fem.mp3"," ","","as","","","",""
"","1909","audio-keyboard-response","71","243449","0.0-3.0-1.44","../audio/03-8-fem.mp3"," ","","crianças.","","","",""
"","null","html-keyboard-response","72","244724","0.0-3.0-0.45-0.45","<span style= ""font-size:30px; font-family: monospace"">+</span>","null","fixation","","","","",""
"","960","audio-keyboard-response","73","246848","0.0-3.0-1.45","../audio/01-1-fem.mp3"," ","","O","","","",""
"","1651","audio-keyboard-response","74","252037","0.0-3.0-1.46","../audio/01-2-fem.mp3"," ","","menino","","","",""
"","1400","audio-keyboard-response","75","257230","0.0-3.0-1.47","../audio/01-3-fem.mp3"," ","","derrubou","","","",""
"","971","audio-keyboard-response","76","261314","0.0-3.0-1.48","../audio/01-4-fem.mp3"," ","","a","","","",""
"","1139","audio-keyboard-response","77","265973","0.0-3.0-1.49","../audio/01-5-fem.mp3"," ","","guitarra","","","",""
"","1131","audio-keyboard-response","78","270356","0.0-3.0-1.50","../audio/01-6-fem.mp3"," ","","no","","","",""
"","2720","audio-keyboard-response","79","276802","0.0-3.0-1.51","../audio/01-7-fem.mp3"," ","","chão.","","","",""
"","null","html-keyboard-response","80","278061","0.0-3.0-0.52-0.52","<span style= ""font-size:30px; font-family: monospace"">+</span>","null","fixation","","","","",""
"","1720","audio-keyboard-response","81","280097","0.0-3.0-1.52","../audio/04-1-fem.mp3"," ","","Duzentos","","","",""
"","1040","audio-keyboard-response","82","281437","0.0-3.0-1.53","../audio/04-2-fem.mp3"," ","","carros","","","",""
"","1051","audio-keyboard-response","83","282796","0.0-3.0-1.54","../audio/04-3-fem.mp3"," ","","passaram","","","",""
"","1480","audio-keyboard-response","84","284557","0.0-3.0-1.55","../audio/04-4-fem.mp3"," ","","pela","","","",""
"","1360","audio-keyboard-response","85","286223","0.0-3.0-1.56","../audio/04-5-fem.mp3"," ","","ponte","","","",""
"","1589","audio-keyboard-response","86","288102","0.0-3.0-1.57","../audio/04-6-fem.mp3"," ","","hoje","","","",""
"","1160","audio-keyboard-response","87","289564","0.0-3.0-1.58","../audio/04-7-fem.mp3"," ","","de","","","",""
"","1229","audio-keyboard-response","88","291087","0.0-3.0-1.59","../audio/04-8-fem.mp3"," ","","tarde.","","","",""
"","null","html-keyboard-response","89","292359","0.0-3.0-0.60-0.60","<span style= ""font-size:30px; font-family: monospace"">+</span>","null","fixation","","","","",""
"","1109","audio-keyboard-response","90","296307","0.0-3.0-1.60","../audio/02-2-masc.mp3"," ","","Havia","","","",""
"","1331","audio-keyboard-response","91","297905","0.0-3.0-1.61","../audio/02-2-masc.mp3"," ","","um","","","",""
"","3939","audio-keyboard-response","92","304663","0.0-3.0-1.62","../audio/02-3-masc.mp3"," ","","cheiro","","","",""
"","131","audio-keyboard-response","93","308560","0.0-3.0-1.63","../audio/02-4-masc.mp3"," ","","de","","","",""
"","1891","audio-keyboard-response","94","311627","0.0-3.0-1.64","../audio/02-5-masc.mp3"," ","","gasolina","","","",""
"","1099","audio-keyboard-response","95","315946","0.0-3.0-1.65","../audio/02-6-masc.mp3"," ","","na","","","",""
"","1029","audio-keyboard-response","96","320410","0.0-3.0-1.66","../audio/02-7-masc.mp3"," ","","garagem.","","","",""
"","null","html-keyboard-response","97","321679","0.0-3.0-0.67-0.67","<span style= ""font-size:30px; font-family: monospace"">+</span>","null","fixation","","","","",""
"","1320","audio-keyboard-response","98","326091","0.0-3.0-1.67","../audio/05-1-masc.mp3"," ","","A","","","",""
"","1651","audio-keyboard-response","99","330521","0.0-3.0-1.68","../audio/05-2-masc.mp3"," ","","vendedora","","","",""
"","1088","audio-keyboard-response","100","334450","0.0-3.0-1.69","../audio/05-3-masc.mp3"," ","","ajudou","","","",""
"","1179","audio-keyboard-response","101","339981","0.0-3.0-1.70","../audio/05-4-masc.mp3"," ","","um","","","",""
"","941","audio-keyboard-response","102","344117","0.0-3.0-1.71","../audio/05-5-masc.mp3"," ","","turista","","","",""
"","1728","audio-keyboard-response","103","349335","0.0-3.0-1.72","../audio/05-6-masc.mp3"," ","","na","","","",""
"","1179","audio-keyboard-response","104","353224","0.0-3.0-1.73","../audio/05-7-masc.mp3"," ","","loja.","","","",""
"","3145","html-keyboard-response","105","356629","0.0-3.0-2.73-0.73","<span style=""font-size:25px; font-family: monospace"">A vendedora ajudou um turista?</span>","s","","","A vendedora ajudou um turista?","null","exp-sent","false"
"","null","html-keyboard-response","106","358154","0.0-3.0-0.74-0.74","<span style= ""font-size:30px; font-family: monospace"">+</span>","null","fixation","","","","",""
"","2971","audio-keyboard-response","107","363978","0.0-3.0-1.74","../audio/14-1-masc.mp3"," ","","O","","","",""
"","1789","audio-keyboard-response","108","368583","0.0-3.0-1.75","../audio/14-2-masc.mp3"," ","","cachorro","","","",""
"","1789","audio-keyboard-response","109","373109","0.0-3.0-1.76","../audio/14-3-masc.mp3"," ","","é","","","",""
"","1379","audio-keyboard-response","110","377289","0.0-3.0-1.77","../audio/14-4-masc.mp3"," ","","muito","","","",""
"","2659","audio-keyboard-response","111","383052","0.0-3.0-1.78","../audio/14-5-masc.mp3"," ","","fiel","","","",""
"","1472","audio-keyboard-response","112","387279","0.0-3.0-1.79","../audio/14-6-masc.mp3"," ","","a","","","",""
"","2821","audio-keyboard-response","113","393121","0.0-3.0-1.80","../audio/14-7-masc.mp3"," ","","seus","","","",""
"","1261","audio-keyboard-response","114","397157","0.0-3.0-1.81","../audio/14-8-masc.mp3"," ","","donos.","","","",""
"","null","html-keyboard-response","115","398426","0.0-3.0-0.82-0.82","<span style= ""font-size:30px; font-family: monospace"">+</span>","null","fixation","","","","",""
"","1259","audio-keyboard-response","116","402651","0.0-3.0-1.82","../audio/11-1-masc.mp3"," ","","Elas","","","",""
"","1291","audio-keyboard-response","117","407102","0.0-3.0-1.83","../audio/11-2-masc.mp3"," ","","gostam","","","",""
"","1301","audio-keyboard-response","118","412667","0.0-3.0-1.84","../audio/11-3-masc.mp3"," ","","muito","","","",""
"","1168","audio-keyboard-response","119","416768","0.0-3.0-1.85","../audio/11-4-masc.mp3"," ","","de","","","",""
"","1632","audio-keyboard-response","120","421918","0.0-3.0-1.86","../audio/11-5-masc.mp3"," ","","aritmética","","","",""
"","1291","audio-keyboard-response","121","425923","0.0-3.0-1.87","../audio/11-6-masc.mp3"," ","","e","","","",""
"","1011","audio-keyboard-response","122","430040","0.0-3.0-1.88","../audio/11-7-masc.mp3"," ","","de","","","",""
"","1600","audio-keyboard-response","123","435348","0.0-3.0-1.89","../audio/11-8-masc.mp3"," ","","leitura.","","","",""
"","null","html-keyboard-response","124","436609","0.0-3.0-0.90-0.90","<span style= ""font-size:30px; font-family: monospace"">+</span>","null","fixation","","","","",""
"","1171","audio-keyboard-response","125","441428","0.0-3.0-1.90","../audio/12-1-masc.mp3"," ","","O","","","",""
"","1880","audio-keyboard-response","126","446330","0.0-3.0-1.91","../audio/12-2-masc.mp3"," ","","dia","","","",""
"","1299","audio-keyboard-response","127","450662","0.0-3.0-1.92","../audio/12-3-masc.mp3"," ","","estava","","","",""
"","1651","audio-keyboard-response","128","455222","0.0-3.0-1.93","../audio/12-4-masc.mp3"," ","","quente,","","","",""
"","2621","audio-keyboard-response","129","460644","0.0-3.0-1.94","../audio/12-5-masc.mp3"," ","","tranquilo","","","",""
"","1480","audio-keyboard-response","130","464913","0.0-3.0-1.95","../audio/12-6-masc.mp3"," ","","e","","","",""
"","2019","audio-keyboard-response","131","470094","0.0-3.0-1.96","../audio/12-7-masc.mp3"," ","","ensolarado.","","","",""
"","null","html-keyboard-response","132","471374","0.0-3.0-0.97-0.97","<span style= ""font-size:30px; font-family: monospace"">+</span>","null","fixation","","","","",""
"","1368","audio-keyboard-response","133","475615","0.0-3.0-1.97","../audio/13-1-fem.mp3"," ","","Para","","","",""
"","360","audio-keyboard-response","134","479094","0.0-3.0-1.98","../audio/13-2-fem.mp3"," ","","mim","","","",""
"","1592","audio-keyboard-response","135","481884","0.0-3.0-1.99","../audio/13-3-fem.mp3"," ","","é","","","",""
"","1328","audio-keyboard-response","136","486167","0.0-3.0-1.100","../audio/13-4-fem.mp3"," ","","muito","","","",""
"","1461","audio-keyboard-response","137","490726","0.0-3.0-1.101","../audio/13-5-fem.mp3"," ","","difícil","","","",""
"","3312","audio-keyboard-response","138","497044","0.0-3.0-1.102","../audio/13-6-fem.mp3"," ","","acordar","","","",""
"","1331","audio-keyboard-response","139","501513","0.0-3.0-1.103","../audio/13-7-fem.mp3"," ","","cedo.","","","",""
"","null","html-keyboard-response","140","502769","0.0-3.0-0.104-0.104","<span style= ""font-size:30px; font-family: monospace"">+</span>","null","fixation","","","","",""
"","1269","audio-keyboard-response","141","506868","0.0-3.0-1.104","../audio/15-1-masc.mp3"," ","","Meu","","","",""
"","3552","audio-keyboard-response","142","513524","0.0-3.0-1.105","../audio/15-2-masc.mp3"," ","","primo","","","",""
"","2992","audio-keyboard-response","143","519445","0.0-3.0-1.106","../audio/15-3-masc.mp3"," ","","é","","","",""
"","1331","audio-keyboard-response","144","523637","0.0-3.0-1.107","../audio/15-4-masc.mp3"," ","","um","","","",""
"","1259","audio-keyboard-response","145","528058","0.0-3.0-1.108","../audio/15-5-masc.mp3"," ","","grande","","","",""
"","1421","audio-keyboard-response","146","532685","0.0-3.0-1.109","../audio/15-6-masc.mp3"," ","","vendedor","","","",""
"","1360","audio-keyboard-response","147","537021","0.0-3.0-1.110","../audio/15-7-masc.mp3"," ","","de","","","",""
"","1312","audio-keyboard-response","148","542121","0.0-3.0-1.111","../audio/15-8-masc.mp3"," ","","carros.","","","",""
"","2718","html-keyboard-response","149","545104","0.0-3.0-2.111-0.111","<span style=""font-size:25px; font-family: monospace"">O primo é um vendedor de carros?</span>","s","","","O primo é um vendedor de carros?","null","exp-sent","false"
"","null","html-keyboard-response","150","546638","0.0-3.0-0.112-0.112","<span style= ""font-size:30px; font-family: monospace"">+</span>","null","fixation","","","","",""
"","1109","audio-keyboard-response","151","550577","0.0-3.0-1.112","../audio/18-1-masc.mp3"," ","","O","","","",""
"","1979","audio-keyboard-response","152","556017","0.0-3.0-1.113","../audio/18-2-masc.mp3"," ","","enredo","","","",""
"","1131","audio-keyboard-response","153","559906","0.0-3.0-1.114","../audio/18-3-masc.mp3"," ","","traz","","","",""
"","979","audio-keyboard-response","154","564104","0.0-3.0-1.115","../audio/18-4-masc.mp3"," ","","um","","","",""
"","1272","audio-keyboard-response","155","568917","0.0-3.0-1.116","../audio/18-5-masc.mp3"," ","","dragão","","","",""
"","920","audio-keyboard-response","156","573078","0.0-3.0-1.117","../audio/18-6-masc.mp3"," ","","forte","","","",""
"","1160","audio-keyboard-response","157","577819","0.0-3.0-1.118","../audio/18-7-masc.mp3"," ","","e","","","",""
"","1421","audio-keyboard-response","158","582521","0.0-3.0-1.119","../audio/18-8-masc.mp3"," ","","solitário.","","","",""
"","null","html-keyboard-response","159","583794","0.0-3.0-0.120-0.120","<span style= ""font-size:30px; font-family: monospace"">+</span>","null","fixation","","","","",""
"","1331","audio-keyboard-response","160","588392","0.0-3.0-1.120","../audio/17-1-fem.mp3"," ","","Falaram","","","",""
"","979","audio-keyboard-response","161","592453","0.0-3.0-1.121","../audio/17-2-fem.mp3"," ","","da","","","",""
"","2211","audio-keyboard-response","162","598111","0.0-3.0-1.122","../audio/17-3-fem.mp3"," ","","lei","","","",""
"","1779","audio-keyboard-response","163","602728","0.0-3.0-1.123","../audio/17-4-fem.mp3"," ","","no","","","",""
"","2240","audio-keyboard-response","164","607818","0.0-3.0-1.124","../audio/17-5-fem.mp3"," ","","ministério","","","",""
"","280","audio-keyboard-response","165","611924","0.0-3.0-1.125","../audio/17-6-fem.mp3"," ","","diversas","","","",""
"","4448","audio-keyboard-response","166","617534","0.0-3.0-1.126","../audio/17-7-fem.mp3"," ","","vezes.","","","",""
"","null","html-keyboard-response","167","618804","0.0-3.0-0.127-0.127","<span style= ""font-size:30px; font-family: monospace"">+</span>","null","fixation","","","","",""
"","1061","audio-keyboard-response","168","622599","0.0-3.0-1.127","../audio/19-1-masc.mp3"," ","","O","","","",""
"","1072","audio-keyboard-response","169","628364","0.0-3.0-1.128","../audio/19-2-masc.mp3"," ","","menino","","","",""
"","1448","audio-keyboard-response","170","634335","0.0-3.0-1.129","../audio/19-3-masc.mp3"," ","","ganhou","","","",""
"","1240","audio-keyboard-response","171","638445","0.0-3.0-1.130","../audio/19-4-masc.mp3"," ","","uma","","","",""
"","1589","audio-keyboard-response","172","643473","0.0-3.0-1.131","../audio/19-5-masc.mp3"," ","","bala","","","",""
"","1749","audio-keyboard-response","173","648333","0.0-3.0-1.132","../audio/19-6-masc.mp3"," ","","depois","","","",""
"","1720","audio-keyboard-response","174","652835","0.0-3.0-1.133","../audio/19-7-masc.mp3"," ","","do","","","",""
"","1861","audio-keyboard-response","175","657787","0.0-3.0-1.134","../audio/19-8-masc.mp3"," ","","almoço.","","","",""
"","null","html-keyboard-response","176","659072","0.0-3.0-0.135-0.135","<span style= ""font-size:30px; font-family: monospace"">+</span>","null","fixation","","","","",""
"","3440","audio-keyboard-response","177","666251","0.0-3.0-1.135","../audio/16-1-masc.mp3"," ","","Eu","","","",""
"","1331","audio-keyboard-response","178","670298","0.0-3.0-1.136","../audio/16-2-masc.mp3"," ","","nunca","","","",""
"","1291","audio-keyboard-response","179","674780","0.0-3.0-1.137","../audio/16-3-masc.mp3"," ","","conheci","","","",""
"","1080","audio-keyboard-response","180","679205","0.0-3.0-1.138","../audio/16-4-masc.mp3"," ","","um","","","",""
"","1549","audio-keyboard-response","181","684050","0.0-3.0-1.139","../audio/16-5-masc.mp3"," ","","general","","","",""
"","1712","audio-keyboard-response","182","688722","0.0-3.0-1.140","../audio/16-6-masc.mp3"," ","","do","","","",""
"","1659","audio-keyboard-response","183","693174","0.0-3.0-1.141","../audio/16-7-masc.mp3"," ","","exército.","","","",""
"","null","html-keyboard-response","184","694444","0.0-3.0-0.142-0.142","<span style= ""font-size:30px; font-family: monospace"">+</span>","null","fixation","","","","",""
"","1600","audio-keyboard-response","185","698830","0.0-3.0-1.142","../audio/20-1-fem.mp3"," ","","O","","","",""
"","1440","audio-keyboard-response","186","703127","0.0-3.0-1.143","../audio/20-2-fem.mp3"," ","","colega","","","",""
"","1349","audio-keyboard-response","187","707491","0.0-3.0-1.144","../audio/20-3-fem.mp3"," ","","parecia","","","",""
"","1259","audio-keyboard-response","188","711774","0.0-3.0-1.145","../audio/20-4-fem.mp3"," ","","muito","","","",""
"","1659","audio-keyboard-response","189","716576","0.0-3.0-1.146","../audio/20-5-fem.mp3"," ","","gripado","","","",""
"","5232","audio-keyboard-response","190","724646","0.0-3.0-1.147","../audio/20-6-fem.mp3"," ","","no","","","",""
"","1520","audio-keyboard-response","191","729065","0.0-3.0-1.148","../audio/20-7-fem.mp3"," ","","dia","","","",""
"","2560","audio-keyboard-response","192","734612","0.0-3.0-1.149","../audio/20-8-fem.mp3"," ","","anterior.","","","",""
"","3219","html-keyboard-response","193","738084","0.0-3.0-2.149-0.149","<span style=""font-size:25px; font-family: monospace"">O colega parecia muito gripado?</span>","s","","","O colega parecia muito gripado?","null","exp-sent","false"
"","null","html-keyboard-response","194","739593","0.0-3.0-0.150-0.150","<span style= ""font-size:30px; font-family: monospace"">+</span>","null","fixation","","","","",""
"","1979","audio-keyboard-response","195","744262","0.0-3.0-1.150","../audio/77-1-fem.mp3"," ","","A","","","",""
"","1299","audio-keyboard-response","196","748375","0.0-3.0-1.151","../audio/77-2-fem.mp3"," ","","criança","","","",""
"","1368","audio-keyboard-response","197","752767","0.0-3.0-1.152","../audio/77-3-fem.mp3"," ","","ficou","","","",""
"","1469","audio-keyboard-response","198","757657","0.0-3.0-1.153","../audio/77-4-fem.mp3"," ","","muito","","","",""
"","1949","audio-keyboard-response","199","762632","0.0-3.0-1.154","../audio/77-5-fem.mp3"," ","","feliz","","","",""
"","1629","audio-keyboard-response","200","767097","0.0-3.0-1.155","../audio/77-6-fem.mp3"," ","","com","","","",""
"","4571","audio-keyboard-response","201","774459","0.0-3.0-1.156","../audio/77-7-fem.mp3"," ","","o","","","",""
"","2968","audio-keyboard-response","202","780248","0.0-3.0-1.157","../audio/77-8-fem.mp3"," ","","brinquedo.","","","",""
"","null","html-keyboard-response","203","781514","0.0-3.0-0.158-0.158","<span style= ""font-size:30px; font-family: monospace"">+</span>","null","fixation","","","","",""
"","1379","audio-keyboard-response","204","785538","0.0-3.0-1.158","../audio/78-1-masc.mp3"," ","","Eles","","","",""
"","1469","audio-keyboard-response","205","790426","0.0-3.0-1.159","../audio/78-2-masc.mp3"," ","","trazem","","","",""
"","1411","audio-keyboard-response","206","794839","0.0-3.0-1.160","../audio/78-3-masc.mp3"," ","","um","","","",""
"","1739","audio-keyboard-response","207","799625","0.0-3.0-1.161","../audio/78-4-masc.mp3"," ","","fato","","","",""
"","2099","audio-keyboard-response","208","804576","0.0-3.0-1.162","../audio/78-5-masc.mp3"," ","","urgente","","","",""
"","1360","audio-keyboard-response","209","808857","0.0-3.0-1.163","../audio/78-6-masc.mp3"," ","","todos","","","",""
"","1160","audio-keyboard-response","210","812957","0.0-3.0-1.164","../audio/78-7-masc.mp3"," ","","os","","","",""
"","1560","audio-keyboard-response","211","817908","0.0-3.0-1.165","../audio/78-8-masc.mp3"," ","","dias.","","","",""
"","null","html-keyboard-response","212","819183","0.0-3.0-0.166-0.166","<span style= ""font-size:30px; font-family: monospace"">+</span>","null","fixation","","","","",""
"","3331","audio-keyboard-response","213","825310","0.0-3.0-1.166","../audio/79-1-masc.mp3"," ","","A","","","",""
"","2341","audio-keyboard-response","214","830362","0.0-3.0-1.167","../audio/79-2-masc.mp3"," ","","médica","","","",""
"","1619","audio-keyboard-response","215","834818","0.0-3.0-1.168","../audio/79-3-masc.mp3"," ","","verificou","","","",""
"","1541","audio-keyboard-response","216","839279","0.0-3.0-1.169","../audio/79-4-masc.mp3"," ","","a","","","",""
"","1749","audio-keyboard-response","217","844582","0.0-3.0-1.170","../audio/79-5-masc.mp3"," ","","gengiva","","","",""
"","1291","audio-keyboard-response","218","848831","0.0-3.0-1.171","../audio/79-6-masc.mp3"," ","","por","","","",""
"","2821","audio-keyboard-response","219","854958","0.0-3.0-1.172","../audio/79-7-masc.mp3"," ","","último.","","","",""
"","null","html-keyboard-response","220","856232","0.0-3.0-0.173-0.173","<span style= ""font-size:30px; font-family: monospace"">+</span>","null","fixation","","","","",""
"","1389","audio-keyboard-response","221","861392","0.0-3.0-1.173","../audio/76-1-masc.mp3"," ","","O","","","",""
"","1781","audio-keyboard-response","222","867909","0.0-3.0-1.174","../audio/76-2-masc.mp3"," ","","bisavô","","","",""
"","1909","audio-keyboard-response","223","872951","0.0-3.0-1.175","../audio/76-3-masc.mp3"," ","","comprou","","","",""
"","1480","audio-keyboard-response","224","877174","0.0-3.0-1.176","../audio/76-4-masc.mp3"," ","","um","","","",""
"","1779","audio-keyboard-response","225","882288","0.0-3.0-1.177","../audio/76-5-masc.mp3"," ","","ralador","","","",""
"","1061","audio-keyboard-response","226","886041","0.0-3.0-1.178","../audio/76-6-masc.mp3"," ","","de","","","",""
"","1389","audio-keyboard-response","227","890887","0.0-3.0-1.179","../audio/76-7-masc.mp3"," ","","queijo.","","","",""
"","null","html-keyboard-response","228","892154","0.0-3.0-0.180-0.180","<span style= ""font-size:30px; font-family: monospace"">+</span>","null","fixation","","","","",""
"","1541","audio-keyboard-response","229","896440","0.0-3.0-1.180","../audio/80-1-fem.mp3"," ","","Meu","","","",""
"","2251","audio-keyboard-response","230","901710","0.0-3.0-1.181","../audio/80-2-fem.mp3"," ","","primo","","","",""
"","2149","audio-keyboard-response","231","906688","0.0-3.0-1.182","../audio/80-3-fem.mp3"," ","","conheceu","","","",""
"","1141","audio-keyboard-response","232","910567","0.0-3.0-1.183","../audio/80-4-fem.mp3"," ","","um","","","",""
"","2181","audio-keyboard-response","233","917083","0.0-3.0-1.184","../audio/80-5-fem.mp3"," ","","jovem","","","",""
"","2291","audio-keyboard-response","234","922137","0.0-3.0-1.185","../audio/80-6-fem.mp3"," ","","amável","","","",""
"","2469","audio-keyboard-response","235","928756","0.0-3.0-1.186","../audio/80-7-fem.mp3"," ","","e","","","",""
"","1320","audio-keyboard-response","236","932886","0.0-3.0-1.187","../audio/80-8-fem.mp3"," ","","confiante.","","","",""
"","2474","html-keyboard-response","237","935629","0.0-3.0-2.187-0.187","<span style=""font-size:25px; font-family: monospace"">O primo conheceu um jovem irritante?</span>","n","","","O primo conheceu um jovem irritante?","null","exp-sent","false"
"","null","html-keyboard-response","238","937159","0.0-3.0-0.188-0.188","<span style= ""font-size:30px; font-family: monospace"">+</span>","null","fixation","","","","",""
"","2451","audio-keyboard-response","239","939898","0.0-3.0-1.188","../audio/33-1-masc.mp3"," ","","Eles","","","",""
"","1800","audio-keyboard-response","240","942005","0.0-3.0-1.189","../audio/33-2-masc.mp3"," ","","sabem","","","",""
"","1309","audio-keyboard-response","241","943611","0.0-3.0-1.190","../audio/33-3-masc.mp3"," ","","do","","","",""
"","1200","audio-keyboard-response","242","945116","0.0-3.0-1.191","../audio/33-4-masc.mp3"," ","","seu","","","",""
"","1120","audio-keyboard-response","243","946551","0.0-3.0-1.192","../audio/33-5-masc.mp3"," ","","privilégio","","","",""
"","1261","audio-keyboard-response","244","948119","0.0-3.0-1.193","../audio/33-6-masc.mp3"," ","","nessa","","","",""
"","1491","audio-keyboard-response","245","949913","0.0-3.0-1.194","../audio/33-7-masc.mp3"," ","","confusão.","","","",""
"","null","html-keyboard-response","246","951185","0.0-3.0-0.195-0.195","<span style= ""font-size:30px; font-family: monospace"">+</span>","null","fixation","","","","",""
"","829","audio-keyboard-response","247","952336","0.0-3.0-1.195","../audio/32-1-masc.mp3"," ","","A","","","",""
"","1181","audio-keyboard-response","248","953832","0.0-3.0-1.196","../audio/32-2-masc.mp3"," ","","tia","","","",""
"","1061","audio-keyboard-response","249","955201","0.0-3.0-1.197","../audio/32-3-masc.mp3"," ","","comprou","","","",""
"","971","audio-keyboard-response","250","956470","0.0-3.0-1.198","../audio/32-4-masc.mp3"," ","","um","","","",""
"","1272","audio-keyboard-response","251","958040","0.0-3.0-1.199","../audio/32-5-masc.mp3"," ","","pilão","","","",""
"","1109","audio-keyboard-response","252","959447","0.0-3.0-1.200","../audio/32-6-masc.mp3"," ","","para","","","",""
"","1509","audio-keyboard-response","253","961252","0.0-3.0-1.201","../audio/32-7-masc.mp3"," ","","a","","","",""
"","1069","audio-keyboard-response","254","962635","0.0-3.0-1.202","../audio/32-8-masc.mp3"," ","","cozinha.","","","",""
"","null","html-keyboard-response","255","963919","0.0-3.0-0.203-0.203","<span style= ""font-size:30px; font-family: monospace"">+</span>","null","fixation","","","","",""
"","1131","audio-keyboard-response","256","965350","0.0-3.0-1.203","../audio/34-1-fem.mp3"," ","","Cobrança","","","",""
"","1560","audio-keyboard-response","257","967234","0.0-3.0-1.204","../audio/34-2-fem.mp3"," ","","excessiva","","","",""
"","1091","audio-keyboard-response","258","968633","0.0-3.0-1.205","../audio/34-3-fem.mp3"," ","","é","","","",""
"","1021","audio-keyboard-response","259","969957","0.0-3.0-1.206","../audio/34-4-fem.mp3"," ","","um","","","",""
"","1200","audio-keyboard-response","260","971457","0.0-3.0-1.207","../audio/34-5-fem.mp3"," ","","fardo","","","",""
"","1259","audio-keyboard-response","261","973026","0.0-3.0-1.208","../audio/34-6-fem.mp3"," ","","para","","","",""
"","960","audio-keyboard-response","262","974283","0.0-3.0-1.209","../audio/34-7-fem.mp3"," ","","a","","","",""
"","1259","audio-keyboard-response","263","975847","0.0-3.0-1.210","../audio/34-8-fem.mp3"," ","","cabeça.","","","",""
"","null","html-keyboard-response","264","977114","0.0-3.0-0.211-0.211","<span style= ""font-size:30px; font-family: monospace"">+</span>","null","fixation","","","","",""
"","941","audio-keyboard-response","265","978362","0.0-3.0-1.211","../audio/31-1-masc.mp3"," ","","O","","","",""
"","1069","audio-keyboard-response","266","979741","0.0-3.0-1.212","../audio/31-2-masc.mp3"," ","","padeiro","","","",""
"","1211","audio-keyboard-response","267","981257","0.0-3.0-1.213","../audio/31-3-masc.mp3"," ","","usou","","","",""
"","939","audio-keyboard-response","268","982498","0.0-3.0-1.214","../audio/31-4-masc.mp3"," ","","a","","","",""
"","1072","audio-keyboard-response","269","983877","0.0-3.0-1.215","../audio/31-5-masc.mp3"," ","","balança","","","",""
"","1171","audio-keyboard-response","270","985342","0.0-3.0-1.216","../audio/31-6-masc.mp3"," ","","o","","","",""
"","1131","audio-keyboard-response","271","986781","0.0-3.0-1.217","../audio/31-7-masc.mp3"," ","","dia","","","",""
"","1200","audio-keyboard-response","272","988290","0.0-3.0-1.218","../audio/31-8-masc.mp3"," ","","inteiro.","","","",""
"","null","html-keyboard-response","273","989554","0.0-3.0-0.219-0.219","<span style= ""font-size:30px; font-family: monospace"">+</span>","null","fixation","","","","",""
"","531","audio-keyboard-response","274","990392","0.0-3.0-1.219","../audio/35-1-fem.mp3"," ","","A","","","",""
"","2571","audio-keyboard-response","275","993276","0.0-3.0-1.220","../audio/35-2-fem.mp3"," ","","receita","","","",""
"","1080","audio-keyboard-response","276","994654","0.0-3.0-1.221","../audio/35-3-fem.mp3"," ","","para","","","",""
"","1040","audio-keyboard-response","277","995998","0.0-3.0-1.222","../audio/35-4-fem.mp3"," ","","a","","","",""
"","1760","audio-keyboard-response","278","998068","0.0-3.0-1.223","../audio/35-5-fem.mp3"," ","","preparação","","","",""
"","1571","audio-keyboard-response","279","999915","0.0-3.0-1.224","../audio/35-6-fem.mp3"," ","","do","","","",""
"","1520","audio-keyboard-response","280","1001747","0.0-3.0-1.225","../audio/35-7-fem.mp3"," ","","bolo","","","",""
"","1088","audio-keyboard-response","281","1003129","0.0-3.0-1.226","../audio/35-8-fem.mp3"," ","","é","","","",""
"","1619","audio-keyboard-response","282","1005053","0.0-3.0-1.227","../audio/35-9-fem.mp3"," ","","leve.","","","",""
"","3799","html-keyboard-response","283","1009111","0.0-3.0-2.227-0.227","<span style=""font-size:25px; font-family: monospace"">A receita do bolo é pesada?</span>","n","","","A receita do bolo é pesada?","null","exp-sent","false"
"","null","html-keyboard-response","284","1010624","0.0-3.0-0.228-0.228","<span style= ""font-size:30px; font-family: monospace"">+</span>","null","fixation","","","","",""
"","1408","audio-keyboard-response","285","1012326","0.0-3.0-1.228","../audio/66-1-fem.mp3"," ","","Não","","","",""
"","1429","audio-keyboard-response","286","1014057","0.0-3.0-1.229","../audio/66-2-fem.mp3"," ","","gosto","","","",""
"","1099","audio-keyboard-response","287","1015459","0.0-3.0-1.230","../audio/66-3-fem.mp3"," ","","de","","","",""
"","1459","audio-keyboard-response","288","1017223","0.0-3.0-1.231","../audio/66-4-fem.mp3"," ","","gente","","","",""
"","1352","audio-keyboard-response","289","1018883","0.0-3.0-1.232","../audio/66-5-fem.mp3"," ","","egoísta","","","",""
"","1461","audio-keyboard-response","290","1020646","0.0-3.0-1.233","../audio/66-6-fem.mp3"," ","","nem","","","",""
"","1600","audio-keyboard-response","291","1022548","0.0-3.0-1.234","../audio/66-7-fem.mp3"," ","","chata.","","","",""
"","null","html-keyboard-response","292","1023824","0.0-3.0-0.235-0.235","<span style= ""font-size:30px; font-family: monospace"">+</span>","null","fixation","","","","",""
"","1501","audio-keyboard-response","293","1025628","0.0-3.0-1.235","../audio/67-1-masc.mp3"," ","","Minha","","","",""
"","1051","audio-keyboard-response","294","1026976","0.0-3.0-1.236","../audio/67-2-masc.mp3"," ","","tia","","","",""
"","928","audio-keyboard-response","295","1028207","0.0-3.0-1.237","../audio/67-3-masc.mp3"," ","","comprou","","","",""
"","829","audio-keyboard-response","296","1029342","0.0-3.0-1.238","../audio/67-4-masc.mp3"," ","","um","","","",""
"","1432","audio-keyboard-response","297","1031076","0.0-3.0-1.239","../audio/67-5-masc.mp3"," ","","cordão","","","",""
"","2040","audio-keyboard-response","298","1033419","0.0-3.0-1.240","../audio/67-6-masc.mp3"," ","","para","","","",""
"","1469","audio-keyboard-response","299","1035194","0.0-3.0-1.241","../audio/67-7-masc.mp3"," ","","o","","","",""
"","1981","audio-keyboard-response","300","1037483","0.0-3.0-1.242","../audio/67-8-masc.mp3"," ","","varal.","","","",""
"","null","html-keyboard-response","301","1038764","0.0-3.0-0.243-0.243","<span style= ""font-size:30px; font-family: monospace"">+</span>","null","fixation","","","","",""
"","1312","audio-keyboard-response","302","1042917","0.0-3.0-1.243","../audio/69-1-masc.mp3"," ","","A","","","",""
"","709","audio-keyboard-response","303","1046871","0.0-3.0-1.244","../audio/69-2-masc.mp3"," ","","loja","","","",""
"","3152","audio-keyboard-response","304","1051205","0.0-3.0-1.245","../audio/69-3-masc.mp3"," ","","recebeu","","","",""
"","1072","audio-keyboard-response","305","1055204","0.0-3.0-1.246","../audio/69-4-masc.mp3"," ","","uma","","","",""
"","741","audio-keyboard-response","306","1059324","0.0-3.0-1.247","../audio/69-5-masc.mp3"," ","","poltrona","","","",""
"","749","audio-keyboard-response","307","1061295","0.0-3.0-1.248","../audio/69-6-masc.mp3"," ","","de","","","",""
"","760","audio-keyboard-response","308","1063285","0.0-3.0-1.249","../audio/69-7-masc.mp3"," ","","couro","","","",""
"","920","audio-keyboard-response","309","1065308","0.0-3.0-1.250","../audio/69-8-masc.mp3"," ","","preto.","","","",""
"","null","html-keyboard-response","310","1066583","0.0-3.0-0.251-0.251","<span style= ""font-size:30px; font-family: monospace"">+</span>","null","fixation","","","","",""
"","979","audio-keyboard-response","311","1067866","0.0-3.0-1.251","../audio/68-1-fem.mp3"," ","","Meu","","","",""
"","880","audio-keyboard-response","312","1069057","0.0-3.0-1.252","../audio/68-2-fem.mp3"," ","","irmão","","","",""
"","899","audio-keyboard-response","313","1070266","0.0-3.0-1.253","../audio/68-3-fem.mp3"," ","","teve","","","",""
"","819","audio-keyboard-response","314","1071377","0.0-3.0-1.254","../audio/68-4-fem.mp3"," ","","um","","","",""
"","861","audio-keyboard-response","315","1072552","0.0-3.0-1.255","../audio/68-5-fem.mp3"," ","","noivado","","","",""
"","1000","audio-keyboard-response","316","1073854","0.0-3.0-1.256","../audio/68-6-fem.mp3"," ","","longo","","","",""
"","920","audio-keyboard-response","317","1075068","0.0-3.0-1.257","../audio/68-7-fem.mp3"," ","","e","","","",""
"","1549","audio-keyboard-response","318","1076938","0.0-3.0-1.258","../audio/68-8-fem.mp3"," ","","maravilhoso.","","","",""
"","null","html-keyboard-response","319","1078213","0.0-3.0-0.259-0.259","<span style= ""font-size:30px; font-family: monospace"">+</span>","null","fixation","","","","",""
"","819","audio-keyboard-response","320","1079341","0.0-3.0-1.259","../audio/70-1-masc.mp3"," ","","O","","","",""
"","909","audio-keyboard-response","321","1080537","0.0-3.0-1.260","../audio/70-2-masc.mp3"," ","","meu","","","",""
"","709","audio-keyboard-response","322","1081545","0.0-3.0-1.261","../audio/70-3-masc.mp3"," ","","filho","","","",""
"","899","audio-keyboard-response","323","1082739","0.0-3.0-1.262","../audio/70-4-masc.mp3"," ","","tem","","","",""
"","1112","audio-keyboard-response","324","1084159","0.0-3.0-1.263","../audio/70-5-masc.mp3"," ","","medo","","","",""
"","800","audio-keyboard-response","325","1085258","0.0-3.0-1.264","../audio/70-6-masc.mp3"," ","","de","","","",""
"","1091","audio-keyboard-response","326","1086657","0.0-3.0-1.265","../audio/70-7-masc.mp3"," ","","enguia","","","",""
"","789","audio-keyboard-response","327","1087745","0.0-3.0-1.266","../audio/70-8-masc.mp3"," ","","e","","","",""
"","1221","audio-keyboard-response","328","1089269","0.0-3.0-1.267","../audio/70-9-masc.mp3"," ","","beija-flor.","","","",""
"","3819","html-keyboard-response","329","1093354","0.0-3.0-2.267-0.267","<span style=""font-size:25px; font-family: monospace"">O filho tem medo de tigre?</span>","n","","","O filho tem medo de tigre?","null","exp-sent","false"
"","null","html-keyboard-response","330","1094884","0.0-3.0-0.268-0.268","<span style= ""font-size:30px; font-family: monospace"">+</span>","null","fixation","","","","",""
"","1539","audio-keyboard-response","331","1096729","0.0-3.0-1.268","../audio/37-1-masc.mp3"," ","","Eu","","","",""
"","1040","audio-keyboard-response","332","1098072","0.0-3.0-1.269","../audio/37-2-masc.mp3"," ","","adoro","","","",""
"","1029","audio-keyboard-response","333","1099407","0.0-3.0-1.270","../audio/37-3-masc.mp3"," ","","suco","","","",""
"","851","audio-keyboard-response","334","1100558","0.0-3.0-1.271","../audio/37-4-masc.mp3"," ","","de","","","",""
"","1091","audio-keyboard-response","335","1101951","0.0-3.0-1.272","../audio/37-5-masc.mp3"," ","","manga","","","",""
"","920","audio-keyboard-response","336","1103166","0.0-3.0-1.273","../audio/37-6-masc.mp3"," ","","com","","","",""
"","1011","audio-keyboard-response","337","1104481","0.0-3.0-1.274","../audio/37-7-masc.mp3"," ","","hortelã.","","","",""
"","null","html-keyboard-response","338","1105753","0.0-3.0-0.275-0.275","<span style= ""font-size:30px; font-family: monospace"">+</span>","null","fixation","","","","",""
"","792","audio-keyboard-response","339","1106844","0.0-3.0-1.275","../audio/39-1-fem.mp3"," ","","O","","","",""
"","1269","audio-keyboard-response","340","1108423","0.0-3.0-1.276","../audio/39-2-fem.mp3"," ","","conselho","","","",""
"","1320","audio-keyboard-response","341","1110038","0.0-3.0-1.277","../audio/39-3-fem.mp3"," ","","foi","","","",""
"","1691","audio-keyboard-response","342","1112027","0.0-3.0-1.278","../audio/39-4-fem.mp3"," ","","muito","","","",""
"","1232","audio-keyboard-response","343","1113559","0.0-3.0-1.279","../audio/39-5-fem.mp3"," ","","útil","","","",""
"","1061","audio-keyboard-response","344","1114923","0.0-3.0-1.280","../audio/39-6-fem.mp3"," ","","para","","","",""
"","1141","audio-keyboard-response","345","1116360","0.0-3.0-1.281","../audio/39-7-fem.mp3"," ","","minha","","","",""
"","1032","audio-keyboard-response","346","1117685","0.0-3.0-1.282","../audio/39-8-fem.mp3"," ","","tia.","","","",""
"","null","html-keyboard-response","347","1118960","0.0-3.0-0.283-0.283","<span style= ""font-size:30px; font-family: monospace"">+</span>","null","fixation","","","","",""
"","941","audio-keyboard-response","348","1120187","0.0-3.0-1.283","../audio/38-1-masc.mp3"," ","","A","","","",""
"","1200","audio-keyboard-response","349","1121694","0.0-3.0-1.284","../audio/38-2-masc.mp3"," ","","empresa","","","",""
"","1040","audio-keyboard-response","350","1123040","0.0-3.0-1.285","../audio/38-3-masc.mp3"," ","","criou","","","",""
"","891","audio-keyboard-response","351","1124228","0.0-3.0-1.286","../audio/38-4-masc.mp3"," ","","a","","","",""
"","1181","audio-keyboard-response","352","1125712","0.0-3.0-1.287","../audio/38-5-masc.mp3"," ","","patente","","","",""
"","1011","audio-keyboard-response","353","1127021","0.0-3.0-1.288","../audio/38-6-masc.mp3"," ","","da","","","",""
"","1691","audio-keyboard-response","354","1129025","0.0-3.0-1.289","../audio/38-7-masc.mp3"," ","","frigideira.","","","",""
"","null","html-keyboard-response","355","1130296","0.0-3.0-0.290-0.290","<span style= ""font-size:30px; font-family: monospace"">+</span>","null","fixation","","","","",""
"","379","audio-keyboard-response","356","1130983","0.0-3.0-1.290","../audio/36-1-masc.mp3"," ","","Meu","","","",""
"","1131","audio-keyboard-response","357","1132403","0.0-3.0-1.291","../audio/36-2-masc.mp3"," ","","tio","","","",""
"","960","audio-keyboard-response","358","1133664","0.0-3.0-1.292","../audio/36-3-masc.mp3"," ","","comprou","","","",""
"","741","audio-keyboard-response","359","1134710","0.0-3.0-1.293","../audio/36-4-masc.mp3"," ","","um","","","",""
"","1000","audio-keyboard-response","360","1136021","0.0-3.0-1.294","../audio/36-5-masc.mp3"," ","","filtro","","","",""
"","749","audio-keyboard-response","361","1137065","0.0-3.0-1.295","../audio/36-6-masc.mp3"," ","","de","","","",""
"","840","audio-keyboard-response","362","1138211","0.0-3.0-1.296","../audio/36-7-masc.mp3"," ","","água","","","",""
"","669","audio-keyboard-response","363","1139186","0.0-3.0-1.297","../audio/36-8-masc.mp3"," ","","hoje","","","",""
"","952","audio-keyboard-response","364","1140439","0.0-3.0-1.298","../audio/36-9-masc.mp3"," ","","cedo.","","","",""
"","null","html-keyboard-response","365","1141724","0.0-3.0-0.299-0.299","<span style= ""font-size:30px; font-family: monospace"">+</span>","null","fixation","","","","",""
"","640","audio-keyboard-response","366","1142663","0.0-3.0-1.299","../audio/40-1-masc.mp3"," ","","O","","","",""
"","811","audio-keyboard-response","367","1143782","0.0-3.0-1.300","../audio/40-2-masc.mp3"," ","","jogo","","","",""
"","971","audio-keyboard-response","368","1145063","0.0-3.0-1.301","../audio/40-3-masc.mp3"," ","","falava","","","",""
"","920","audio-keyboard-response","369","1146283","0.0-3.0-1.302","../audio/40-4-masc.mp3"," ","","de","","","",""
"","1211","audio-keyboard-response","370","1147795","0.0-3.0-1.303","../audio/40-5-masc.mp3"," ","","fantasia","","","",""
"","1000","audio-keyboard-response","371","1149088","0.0-3.0-1.304","../audio/40-6-masc.mp3"," ","","e","","","",""
"","1040","audio-keyboard-response","372","1150424","0.0-3.0-1.305","../audio/40-7-masc.mp3"," ","","de","","","",""
"","1352","audio-keyboard-response","373","1152085","0.0-3.0-1.306","../audio/40-8-masc.mp3"," ","","aventura.","","","",""
"","2164","html-keyboard-response","374","1154517","0.0-3.0-2.306-0.306","<span style=""font-size:25px; font-family: monospace"">O jogo tinha fantasia e aventura?</span>","s","","","O jogo tinha fantasia e aventura?","null","exp-sent","false"
"","null","html-keyboard-response","375","1156043","0.0-3.0-0.307-0.307","<span style= ""font-size:30px; font-family: monospace"">+</span>","null","fixation","","","","",""
"","1080","audio-keyboard-response","376","1160735","0.0-3.0-1.307","../audio/29-1-masc.mp3"," ","","Hoje","","","",""
"","1291","audio-keyboard-response","377","1166788","0.0-3.0-1.308","../audio/29-2-masc.mp3"," ","","vamos","","","",""
"","859","audio-keyboard-response","378","1170821","0.0-3.0-1.309","../audio/29-3-masc.mp3"," ","","fazer","","","",""
"","1360","audio-keyboard-response","379","1175847","0.0-3.0-1.310","../audio/29-4-masc.mp3"," ","","uma","","","",""
"","2291","audio-keyboard-response","380","1181314","0.0-3.0-1.311","../audio/29-5-masc.mp3"," ","","atividade","","","",""
"","2069","audio-keyboard-response","381","1186132","0.0-3.0-1.312","../audio/29-6-masc.mp3"," ","","sobre","","","",""
"","1629","audio-keyboard-response","382","1191148","0.0-3.0-1.313","../audio/29-7-masc.mp3"," ","","fauna","","","",""
"","1571","audio-keyboard-response","383","1195566","0.0-3.0-1.314","../audio/29-8-masc.mp3"," ","","marinha.","","","",""
"","null","html-keyboard-response","384","1196835","0.0-3.0-0.315-0.315","<span style= ""font-size:30px; font-family: monospace"">+</span>","null","fixation","","","","",""
"","661","audio-keyboard-response","385","1197798","0.0-3.0-1.315","../audio/27-1-fem.mp3"," ","","O","","","",""
"","869","audio-keyboard-response","386","1198975","0.0-3.0-1.316","../audio/27-2-fem.mp3"," ","","dinheiro","","","",""
"","1349","audio-keyboard-response","387","1200631","0.0-3.0-1.317","../audio/27-3-fem.mp3"," ","","chegou","","","",""
"","832","audio-keyboard-response","388","1201764","0.0-3.0-1.318","../audio/27-4-fem.mp3"," ","","à","","","",""
"","971","audio-keyboard-response","389","1203038","0.0-3.0-1.319","../audio/27-5-fem.mp3"," ","","elite","","","",""
"","1120","audio-keyboard-response","390","1204463","0.0-3.0-1.320","../audio/27-6-fem.mp3"," ","","deste","","","",""
"","981","audio-keyboard-response","391","1205763","0.0-3.0-1.321","../audio/27-7-fem.mp3"," ","","país.","","","",""
"","null","html-keyboard-response","392","1207033","0.0-3.0-0.322-0.322","<span style= ""font-size:30px; font-family: monospace"">+</span>","null","fixation","","","","",""
"","832","audio-keyboard-response","393","1208159","0.0-3.0-1.322","../audio/28-1-fem.mp3"," ","","O","","","",""
"","1019","audio-keyboard-response","394","1209488","0.0-3.0-1.323","../audio/28-2-fem.mp3"," ","","time","","","",""
"","800","audio-keyboard-response","395","1210587","0.0-3.0-1.324","../audio/28-3-fem.mp3"," ","","quer","","","",""
"","1080","audio-keyboard-response","396","1211971","0.0-3.0-1.325","../audio/28-4-fem.mp3"," ","","a","","","",""
"","1200","audio-keyboard-response","397","1213483","0.0-3.0-1.326","../audio/28-5-fem.mp3"," ","","vitória","","","",""
"","1960","audio-keyboard-response","398","1215743","0.0-3.0-1.327","../audio/28-6-fem.mp3"," ","","no","","","",""
"","1512","audio-keyboard-response","399","1217561","0.0-3.0-1.328","../audio/28-7-fem.mp3"," ","","jogo","","","",""
"","1379","audio-keyboard-response","400","1219250","0.0-3.0-1.329","../audio/28-8-fem.mp3"," ","","de","","","",""
"","1451","audio-keyboard-response","401","1220993","0.0-3.0-1.330","../audio/28-9-fem.mp3"," ","","vôlei.","","","",""
"","null","html-keyboard-response","402","1222254","0.0-3.0-0.331-0.331","<span style= ""font-size:30px; font-family: monospace"">+</span>","null","fixation","","","","",""
"","1309","audio-keyboard-response","403","1225051","0.0-3.0-1.331","../audio/26-1-fem.mp3"," ","","Amanhã","","","",""
"","1149","audio-keyboard-response","404","1228991","0.0-3.0-1.332","../audio/26-2-fem.mp3"," ","","temos","","","",""
"","1749","audio-keyboard-response","405","1234496","0.0-3.0-1.333","../audio/26-3-fem.mp3"," ","","festa","","","",""
"","1189","audio-keyboard-response","406","1238434","0.0-3.0-1.334","../audio/26-4-fem.mp3"," ","","na","","","",""
"","1851","audio-keyboard-response","407","1243716","0.0-3.0-1.335","../audio/26-5-fem.mp3"," ","","piscina","","","",""
"","949","audio-keyboard-response","408","1247487","0.0-3.0-1.336","../audio/26-6-fem.mp3"," ","","o","","","",""
"","1301","audio-keyboard-response","409","1252318","0.0-3.0-1.337","../audio/26-7-fem.mp3"," ","","dia","","","",""
"","1640","audio-keyboard-response","410","1257112","0.0-3.0-1.338","../audio/26-8-fem.mp3"," ","","todo.","","","",""
"","null","html-keyboard-response","411","1258383","0.0-3.0-0.339-0.339","<span style= ""font-size:30px; font-family: monospace"">+</span>","null","fixation","","","","",""
"","920","audio-keyboard-response","412","1259624","0.0-3.0-1.339","../audio/30-1-masc.mp3"," ","","O","","","",""
"","1131","audio-keyboard-response","413","1261072","0.0-3.0-1.340","../audio/30-2-masc.mp3"," ","","funcionário","","","",""
"","1109","audio-keyboard-response","414","1262493","0.0-3.0-1.341","../audio/30-3-masc.mp3"," ","","entregou","","","",""
"","819","audio-keyboard-response","415","1263625","0.0-3.0-1.342","../audio/30-4-masc.mp3"," ","","o","","","",""
"","960","audio-keyboard-response","416","1264896","0.0-3.0-1.343","../audio/30-5-masc.mp3"," ","","restante","","","",""
"","1229","audio-keyboard-response","417","1266431","0.0-3.0-1.344","../audio/30-6-masc.mp3"," ","","do","","","",""
"","1120","audio-keyboard-response","418","1267858","0.0-3.0-1.345","../audio/30-7-masc.mp3"," ","","dinheiro.","","","",""
"","4193","html-keyboard-response","419","1272314","0.0-3.0-2.345-0.345","<span style=""font-size:25px; font-family: monospace"">O funcionário entregou o contrato?</span>","n","","","O funcionário entregou o contrato?","null","exp-sent","false"
"","null","html-keyboard-response","420","1273834","0.0-3.0-0.346-0.346","<span style= ""font-size:30px; font-family: monospace"">+</span>","null","fixation","","","","",""
"","1072","audio-keyboard-response","421","1278358","0.0-3.0-1.346","../audio/62-1-fem.mp3"," ","","As","","","",""
"","160","audio-keyboard-response","422","1281713","0.0-3.0-1.347","../audio/62-2-fem.mp3"," ","","artesãs","","","",""
"","981","audio-keyboard-response","423","1284230","0.0-3.0-1.348","../audio/62-3-fem.mp3"," ","","gostam","","","",""
"","1339","audio-keyboard-response","424","1288786","0.0-3.0-1.349","../audio/62-4-fem.mp3"," ","","de","","","",""
"","1099","audio-keyboard-response","425","1293304","0.0-3.0-1.350","../audio/62-5-fem.mp3"," ","","maquiagem","","","",""
"","920","audio-keyboard-response","426","1297126","0.0-3.0-1.351","../audio/62-6-fem.mp3"," ","","e","","","",""
"","1419","audio-keyboard-response","427","1302226","0.0-3.0-1.352","../audio/62-7-fem.mp3"," ","","de","","","",""
"","1069","audio-keyboard-response","428","1306368","0.0-3.0-1.353","../audio/62-8-fem.mp3"," ","","crochê.","","","",""
"","null","html-keyboard-response","429","1307636","0.0-3.0-0.354-0.354","<span style= ""font-size:30px; font-family: monospace"">+</span>","null","fixation","","","","",""
"","1021","audio-keyboard-response","430","1311484","0.0-3.0-1.354","../audio/64-1-fem.mp3"," ","","O","","","",""
"","1091","audio-keyboard-response","431","1315984","0.0-3.0-1.355","../audio/64-2-fem.mp3"," ","","dia","","","",""
"","1131","audio-keyboard-response","432","1320418","0.0-3.0-1.356","../audio/64-3-fem.mp3"," ","","começou","","","",""
"","939","audio-keyboard-response","433","1324933","0.0-3.0-1.357","../audio/64-4-fem.mp3"," ","","com","","","",""
"","971","audio-keyboard-response","434","1329513","0.0-3.0-1.358","../audio/64-5-fem.mp3"," ","","garoa","","","",""
"","2459","audio-keyboard-response","435","1335497","0.0-3.0-1.359","../audio/64-6-fem.mp3"," ","","gelada","","","",""
"","829","audio-keyboard-response","436","1339635","0.0-3.0-1.360","../audio/64-7-fem.mp3"," ","","e","","","",""
"","1688","audio-keyboard-response","437","1344532","0.0-3.0-1.361","../audio/64-8-fem.mp3"," ","","leve.","","","",""
"","null","html-keyboard-response","438","1345793","0.0-3.0-0.362-0.362","<span style= ""font-size:30px; font-family: monospace"">+</span>","null","fixation","","","","",""
"","971","audio-keyboard-response","439","1349627","0.0-3.0-1.362","../audio/63-1-fem.mp3"," ","","A","","","",""
"","131","audio-keyboard-response","440","1353085","0.0-3.0-1.363","../audio/63-2-fem.mp3"," ","","chuva","","","",""
"","1291","audio-keyboard-response","441","1355557","0.0-3.0-1.364","../audio/63-3-fem.mp3"," ","","entrou","","","",""
"","339","audio-keyboard-response","442","1359008","0.0-3.0-1.365","../audio/63-4-fem.mp3"," ","","pela","","","",""
"","1509","audio-keyboard-response","443","1361707","0.0-3.0-1.366","../audio/63-5-fem.mp3"," ","","abertura","","","",""
"","981","audio-keyboard-response","444","1365722","0.0-3.0-1.367","../audio/63-6-fem.mp3"," ","","na","","","",""
"","979","audio-keyboard-response","445","1370144","0.0-3.0-1.368","../audio/63-7-fem.mp3"," ","","janela.","","","",""
"","null","html-keyboard-response","446","1371398","0.0-3.0-0.369-0.369","<span style= ""font-size:30px; font-family: monospace"">+</span>","null","fixation","","","","",""
"","1240","audio-keyboard-response","447","1372942","0.0-3.0-1.369","../audio/61-1-fem.mp3"," ","","Aquele","","","",""
"","1011","audio-keyboard-response","448","1374263","0.0-3.0-1.370","../audio/61-2-fem.mp3"," ","","senhor","","","",""
"","829","audio-keyboard-response","449","1375379","0.0-3.0-1.371","../audio/61-3-fem.mp3"," ","","é","","","",""
"","1080","audio-keyboard-response","450","1376766","0.0-3.0-1.372","../audio/61-4-fem.mp3"," ","","muito","","","",""
"","920","audio-keyboard-response","451","1378001","0.0-3.0-1.373","../audio/61-5-fem.mp3"," ","","sovina","","","",""
"","1029","audio-keyboard-response","452","1379327","0.0-3.0-1.374","../audio/61-6-fem.mp3"," ","","e","","","",""
"","1309","audio-keyboard-response","453","1380947","0.0-3.0-1.375","../audio/61-7-fem.mp3"," ","","inflexível.","","","",""
"","null","html-keyboard-response","454","1382214","0.0-3.0-0.376-0.376","<span style= ""font-size:30px; font-family: monospace"">+</span>","null","fixation","","","","",""
"","1000","audio-keyboard-response","455","1383516","0.0-3.0-1.376","../audio/65-1-fem.mp3"," ","","O","","","",""
"","1029","audio-keyboard-response","456","1384858","0.0-3.0-1.377","../audio/65-2-fem.mp3"," ","","fantasma","","","",""
"","1219","audio-keyboard-response","457","1386378","0.0-3.0-1.378","../audio/65-3-fem.mp3"," ","","veio","","","",""
"","920","audio-keyboard-response","458","1387587","0.0-3.0-1.379","../audio/65-4-fem.mp3"," ","","da","","","",""
"","1200","audio-keyboard-response","459","1389113","0.0-3.0-1.380","../audio/65-5-fem.mp3"," ","","escuridão","","","",""
"","1360","audio-keyboard-response","460","1390784","0.0-3.0-1.381","../audio/65-6-fem.mp3"," ","","do","","","",""
"","1131","audio-keyboard-response","461","1392216","0.0-3.0-1.382","../audio/65-7-fem.mp3"," ","","armário.","","","",""
"","2930","html-keyboard-response","462","1395405","0.0-3.0-2.382-0.382","<span style=""font-size:25px; font-family: monospace"">O fantasma veio da escuridão do armário?</span>","s","","","O fantasma veio da escuridão do armário?","null","exp-sent","false"
"","null","html-keyboard-response","463","1396936","0.0-3.0-0.383-0.383","<span style= ""font-size:30px; font-family: monospace"">+</span>","null","fixation","","","","",""
"","461","audio-keyboard-response","464","1400150","0.0-3.0-1.383","../audio/59-1-masc.mp3"," ","","O","","","",""
"","1389","audio-keyboard-response","465","1402704","0.0-3.0-1.384","../audio/59-2-masc.mp3"," ","","carteiro","","","",""
"","1381","audio-keyboard-response","466","1407151","0.0-3.0-1.385","../audio/59-3-masc.mp3"," ","","fez","","","",""
"","728","audio-keyboard-response","467","1411054","0.0-3.0-1.386","../audio/59-4-masc.mp3"," ","","uma","","","",""
"","661","audio-keyboard-response","468","1412917","0.0-3.0-1.387","../audio/59-5-masc.mp3"," ","","tentativa","","","",""
"","920","audio-keyboard-response","469","1416634","0.0-3.0-1.388","../audio/59-6-masc.mp3"," ","","de","","","",""
"","1069","audio-keyboard-response","470","1420531","0.0-3.0-1.389","../audio/59-7-masc.mp3"," ","","entrega.","","","",""
"","null","html-keyboard-response","471","1421804","0.0-3.0-0.390-0.390","<span style= ""font-size:30px; font-family: monospace"">+</span>","null","fixation","","","","",""
"","891","audio-keyboard-response","472","1425516","0.0-3.0-1.390","../audio/57-1-fem.mp3"," ","","O","","","",""
"","2920","audio-keyboard-response","473","1432021","0.0-3.0-1.391","../audio/57-2-fem.mp3"," ","","capitão","","","",""
"","1080","audio-keyboard-response","474","1435918","0.0-3.0-1.392","../audio/57-3-fem.mp3"," ","","deu","","","",""
"","1011","audio-keyboard-response","475","1440182","0.0-3.0-1.393","../audio/57-4-fem.mp3"," ","","uma","","","",""
"","1709","audio-keyboard-response","476","1445370","0.0-3.0-1.394","../audio/57-5-fem.mp3"," ","","instrução","","","",""
"","1880","audio-keyboard-response","477","1451454","0.0-3.0-1.395","../audio/57-6-fem.mp3"," ","","para","","","",""
"","880","audio-keyboard-response","478","1455076","0.0-3.0-1.396","../audio/57-7-fem.mp3"," ","","as","","","",""
"","1131","audio-keyboard-response","479","1459828","0.0-3.0-1.397","../audio/57-8-fem.mp3"," ","","pessoas.","","","",""
"","null","html-keyboard-response","480","1461114","0.0-3.0-0.398-0.398","<span style= ""font-size:30px; font-family: monospace"">+</span>","null","fixation","","","","",""
"","949","audio-keyboard-response","481","1462367","0.0-3.0-1.398","../audio/58-1-masc.mp3"," ","","Havia","","","",""
"","899","audio-keyboard-response","482","1463578","0.0-3.0-1.399","../audio/58-2-masc.mp3"," ","","apenas","","","",""
"","760","audio-keyboard-response","483","1464639","0.0-3.0-1.400","../audio/58-3-masc.mp3"," ","","um","","","",""
"","829","audio-keyboard-response","484","1465770","0.0-3.0-1.401","../audio/58-4-masc.mp3"," ","","último","","","",""
"","800","audio-keyboard-response","485","1466875","0.0-3.0-1.402","../audio/58-5-masc.mp3"," ","","herdeiro","","","",""
"","781","audio-keyboard-response","486","1467948","0.0-3.0-1.403","../audio/58-6-masc.mp3"," ","","do","","","",""
"","861","audio-keyboard-response","487","1469123","0.0-3.0-1.404","../audio/58-7-masc.mp3"," ","","dinheiro.","","","",""
"","null","html-keyboard-response","488","1470404","0.0-3.0-0.405-0.405","<span style= ""font-size:30px; font-family: monospace"">+</span>","null","fixation","","","","",""
"","280","audio-keyboard-response","489","1471918","0.0-3.0-1.405","../audio/56-1-masc.mp3"," ","","A","","","",""
"","731","audio-keyboard-response","490","1473806","0.0-3.0-1.406","../audio/56-2-masc.mp3"," ","","moça","","","",""
"","600","audio-keyboard-response","491","1475660","0.0-3.0-1.407","../audio/56-3-masc.mp3"," ","","foi","","","",""
"","752","audio-keyboard-response","492","1477560","0.0-3.0-1.408","../audio/56-4-masc.mp3"," ","","à","","","",""
"","771","audio-keyboard-response","493","1479465","0.0-3.0-1.409","../audio/56-5-masc.mp3"," ","","agência","","","",""
"","781","audio-keyboard-response","494","1481429","0.0-3.0-1.410","../audio/56-6-masc.mp3"," ","","bancária","","","",""
"","800","audio-keyboard-response","495","1483845","0.0-3.0-1.411","../audio/56-7-masc.mp3"," ","","ontem","","","",""
"","859","audio-keyboard-response","496","1487938","0.0-3.0-1.412","../audio/56-8-masc.mp3"," ","","de","","","",""
"","848","audio-keyboard-response","497","1489895","0.0-3.0-1.413","../audio/56-9-masc.mp3"," ","","tarde.","","","",""
"","null","html-keyboard-response","498","1491164","0.0-3.0-0.414-0.414","<span style= ""font-size:30px; font-family: monospace"">+</span>","null","fixation","","","","",""
"","1229","audio-keyboard-response","499","1495182","0.0-3.0-1.414","../audio/60-1-fem.mp3"," ","","Ondas","","","",""
"","760","audio-keyboard-response","500","1499080","0.0-3.0-1.415","../audio/60-2-fem.mp3"," ","","têm","","","",""
"","709","audio-keyboard-response","501","1500987","0.0-3.0-1.416","../audio/60-3-fem.mp3"," ","","um","","","",""
"","389","audio-keyboard-response","502","1502516","0.0-3.0-1.417","../audio/60-4-fem.mp3"," ","","impacto","","","",""
"","928","audio-keyboard-response","503","1504693","0.0-3.0-1.418","../audio/60-5-fem.mp3"," ","","destrutivo","","","",""
"","1112","audio-keyboard-response","504","1509286","0.0-3.0-1.419","../audio/60-6-fem.mp3"," ","","no","","","",""
"","1240","audio-keyboard-response","505","1514968","0.0-3.0-1.420","../audio/60-7-fem.mp3"," ","","litoral.","","","",""
"","5466","html-keyboard-response","506","1520687","0.0-3.0-2.420-0.420","<span style=""font-size:25px; font-family: monospace"">Ondas têm um impacto destrutivo?</span>","n","","","Ondas têm um impacto destrutivo?","null","exp-sent","false"
"","null","html-keyboard-response","507","1522213","0.0-3.0-0.421-0.421","<span style= ""font-size:30px; font-family: monospace"">+</span>","null","fixation","","","","",""
"","251","audio-keyboard-response","508","1522758","0.0-3.0-1.421","../audio/52-1-masc.mp3"," ","","Às","","","",""
"","1179","audio-keyboard-response","509","1524217","0.0-3.0-1.422","../audio/52-2-masc.mp3"," ","","vezes","","","",""
"","1181","audio-keyboard-response","510","1525680","0.0-3.0-1.423","../audio/52-3-masc.mp3"," ","","eu","","","",""
"","811","audio-keyboard-response","511","1526791","0.0-3.0-1.424","../audio/52-4-masc.mp3"," ","","tenho","","","",""
"","941","audio-keyboard-response","512","1528040","0.0-3.0-1.425","../audio/52-5-masc.mp3"," ","","azia","","","",""
"","1059","audio-keyboard-response","513","1529415","0.0-3.0-1.426","../audio/52-6-masc.mp3"," ","","depois","","","",""
"","880","audio-keyboard-response","514","1530589","0.0-3.0-1.427","../audio/52-7-masc.mp3"," ","","da","","","",""
"","880","audio-keyboard-response","515","1531769","0.0-3.0-1.428","../audio/52-8-masc.mp3"," ","","janta.","","","",""
"","null","html-keyboard-response","516","1533044","0.0-3.0-0.429-0.429","<span style= ""font-size:30px; font-family: monospace"">+</span>","null","fixation","","","","",""
"","669","audio-keyboard-response","517","1534010","0.0-3.0-1.429","../audio/53-1-fem.mp3"," ","","O","","","",""
"","648","audio-keyboard-response","518","1534970","0.0-3.0-1.430","../audio/53-2-fem.mp3"," ","","médico","","","",""
"","701","audio-keyboard-response","519","1535958","0.0-3.0-1.431","../audio/53-3-fem.mp3"," ","","foi","","","",""
"","1000","audio-keyboard-response","520","1537258","0.0-3.0-1.432","../audio/53-4-fem.mp3"," ","","bastante","","","",""
"","792","audio-keyboard-response","521","1538364","0.0-3.0-1.433","../audio/53-5-fem.mp3"," ","","preciso","","","",""
"","651","audio-keyboard-response","522","1539321","0.0-3.0-1.434","../audio/53-6-fem.mp3"," ","","durante","","","",""
"","1141","audio-keyboard-response","523","1540764","0.0-3.0-1.435","../audio/53-7-fem.mp3"," ","","a","","","",""
"","888","audio-keyboard-response","524","1541974","0.0-3.0-1.436","../audio/53-8-fem.mp3"," ","","cirurgia.","","","",""
"","null","html-keyboard-response","525","1543243","0.0-3.0-0.437-0.437","<span style= ""font-size:30px; font-family: monospace"">+</span>","null","fixation","","","","",""
"","749","audio-keyboard-response","526","1545218","0.0-3.0-1.437","../audio/54-1-fem.mp3"," ","","Estou","","","",""
"","680","audio-keyboard-response","527","1547066","0.0-3.0-1.438","../audio/54-2-fem.mp3"," ","","com","","","",""
"","811","audio-keyboard-response","528","1549047","0.0-3.0-1.439","../audio/54-3-fem.mp3"," ","","medo","","","",""
"","731","audio-keyboard-response","529","1553421","0.0-3.0-1.440","../audio/54-4-fem.mp3"," ","","da","","","",""
"","701","audio-keyboard-response","530","1555317","0.0-3.0-1.441","../audio/54-5-fem.mp3"," ","","atual","","","",""
"","941","audio-keyboard-response","531","1557427","0.0-3.0-1.442","../audio/54-6-fem.mp3"," ","","organização","","","",""
"","699","audio-keyboard-response","532","1561698","0.0-3.0-1.443","../audio/54-7-fem.mp3"," ","","do","","","",""
"","1200","audio-keyboard-response","533","1564563","0.0-3.0-1.444","../audio/54-8-fem.mp3"," ","","país.","","","",""
"","null","html-keyboard-response","534","1565834","0.0-3.0-0.445-0.445","<span style= ""font-size:30px; font-family: monospace"">+</span>","null","fixation","","","","",""
"","1469","audio-keyboard-response","535","1570017","0.0-3.0-1.445","../audio/51-1-fem.mp3"," ","","Suco","","","",""
"","888","audio-keyboard-response","536","1574057","0.0-3.0-1.446","../audio/51-2-fem.mp3"," ","","de","","","",""
"","909","audio-keyboard-response","537","1578628","0.0-3.0-1.447","../audio/51-3-fem.mp3"," ","","acerola","","","",""
"","888","audio-keyboard-response","538","1583096","0.0-3.0-1.448","../audio/51-4-fem.mp3"," ","","é","","","",""
"","989","audio-keyboard-response","539","1587754","0.0-3.0-1.449","../audio/51-5-fem.mp3"," ","","azedo","","","",""
"","941","audio-keyboard-response","540","1592122","0.0-3.0-1.450","../audio/51-6-fem.mp3"," ","","e","","","",""
"","1141","audio-keyboard-response","541","1596844","0.0-3.0-1.451","../audio/51-7-fem.mp3"," ","","até","","","",""
"","1139","audio-keyboard-response","542","1601488","0.0-3.0-1.452","../audio/51-8-fem.mp3"," ","","barato.","","","",""
"","null","html-keyboard-response","543","1602750","0.0-3.0-0.453-0.453","<span style= ""font-size:30px; font-family: monospace"">+</span>","null","fixation","","","","",""
"","920","audio-keyboard-response","544","1603974","0.0-3.0-1.453","../audio/55-1-masc.mp3"," ","","O","","","",""
"","1181","audio-keyboard-response","545","1605471","0.0-3.0-1.454","../audio/55-2-masc.mp3"," ","","insulto","","","",""
"","1261","audio-keyboard-response","546","1607036","0.0-3.0-1.455","../audio/55-3-masc.mp3"," ","","recente","","","",""
"","971","audio-keyboard-response","547","1608321","0.0-3.0-1.456","../audio/55-4-masc.mp3"," ","","causou","","","",""
"","859","audio-keyboard-response","548","1609491","0.0-3.0-1.457","../audio/55-5-masc.mp3"," ","","indignação","","","",""
"","1360","audio-keyboard-response","549","1611152","0.0-3.0-1.458","../audio/55-6-masc.mp3"," ","","em","","","",""
"","891","audio-keyboard-response","550","1612345","0.0-3.0-1.459","../audio/55-7-masc.mp3"," ","","todos.","","","",""
"","9644","html-keyboard-response","551","1622256","0.0-3.0-2.459-0.459","<span style=""font-size:25px; font-family: monospace"">O insulto causou calmaria?</span>","n","","","O insulto causou calmaria?","null","exp-sent","false"
"","null","html-keyboard-response","552","1623784","0.0-3.0-0.460-0.460","<span style= ""font-size:30px; font-family: monospace"">+</span>","null","fixation","","","","",""
"","1259","audio-keyboard-response","553","1625337","0.0-3.0-1.460","../audio/24-1-fem.mp3"," ","","As","","","",""
"","1440","audio-keyboard-response","554","1627099","0.0-3.0-1.461","../audio/24-2-fem.mp3"," ","","crianças","","","",""
"","888","audio-keyboard-response","555","1628287","0.0-3.0-1.462","../audio/24-3-fem.mp3"," ","","vão","","","",""
"","741","audio-keyboard-response","556","1629323","0.0-3.0-1.463","../audio/24-4-fem.mp3"," ","","ao","","","",""
"","840","audio-keyboard-response","557","1630478","0.0-3.0-1.464","../audio/24-5-fem.mp3"," ","","cinema","","","",""
"","909","audio-keyboard-response","558","1631693","0.0-3.0-1.465","../audio/24-6-fem.mp3"," ","","mais","","","",""
"","760","audio-keyboard-response","559","1632761","0.0-3.0-1.466","../audio/24-7-fem.mp3"," ","","tarde.","","","",""
"","null","html-keyboard-response","560","1634019","0.0-3.0-0.467-0.467","<span style= ""font-size:30px; font-family: monospace"">+</span>","null","fixation","","","","",""
"","61","audio-keyboard-response","561","1634391","0.0-3.0-1.467","../audio/22-1-masc.mp3"," ","","Eu","","","",""
"","251","audio-keyboard-response","562","1634953","0.0-3.0-1.468","../audio/22-2-masc.mp3"," ","","detesto","","","",""
"","272","audio-keyboard-response","563","1635518","0.0-3.0-1.469","../audio/22-3-masc.mp3"," ","","fumaça","","","",""
"","181","audio-keyboard-response","564","1635991","0.0-3.0-1.470","../audio/22-4-masc.mp3"," ","","de","","","",""
"","261","audio-keyboard-response","565","1636555","0.0-3.0-1.471","../audio/22-5-masc.mp3"," ","","cachimbo","","","",""
"","291","audio-keyboard-response","566","1637138","0.0-3.0-1.472","../audio/22-6-masc.mp3"," ","","e","","","",""
"","349","audio-keyboard-response","567","1637781","0.0-3.0-1.473","../audio/22-7-masc.mp3"," ","","de","","","",""
"","219","audio-keyboard-response","568","1638304","0.0-3.0-1.474","../audio/22-8-masc.mp3"," ","","cigarro.","","","",""
"","null","html-keyboard-response","569","1639573","0.0-3.0-0.475-0.475","<span style= ""font-size:30px; font-family: monospace"">+</span>","null","fixation","","","","",""
"","1160","audio-keyboard-response","570","1641022","0.0-3.0-1.475","../audio/21-1-masc.mp3"," ","","Precisamos","","","",""
"","659","audio-keyboard-response","571","1641983","0.0-3.0-1.476","../audio/21-2-masc.mp3"," ","","de","","","",""
"","280","audio-keyboard-response","572","1642567","0.0-3.0-1.477","../audio/21-3-masc.mp3"," ","","paciência","","","",""
"","189","audio-keyboard-response","573","1643057","0.0-3.0-1.478","../audio/21-4-masc.mp3"," ","","e","","","",""
"","229","audio-keyboard-response","574","1643587","0.0-3.0-1.479","../audio/21-5-masc.mp3"," ","","bondade","","","",""
"","288","audio-keyboard-response","575","1644171","0.0-3.0-1.480","../audio/21-6-masc.mp3"," ","","para","","","",""
"","291","audio-keyboard-response","576","1644753","0.0-3.0-1.481","../audio/21-7-masc.mp3"," ","","um","","","",""
"","1571","audio-keyboard-response","577","1646620","0.0-3.0-1.482","../audio/21-8-masc.mp3"," ","","mundo","","","",""
"","1448","audio-keyboard-response","578","1648367","0.0-3.0-1.483","../audio/21-9-masc.mp3"," ","","melhor.","","","",""
"","null","html-keyboard-response","579","1649654","0.0-3.0-0.484-0.484","<span style= ""font-size:30px; font-family: monospace"">+</span>","null","fixation","","","","",""
"","651","audio-keyboard-response","580","1651500","0.0-3.0-1.484","../audio/23-1-fem.mp3"," ","","Português","","","",""
"","211","audio-keyboard-response","581","1652818","0.0-3.0-1.485","../audio/23-2-fem.mp3"," ","","é","","","",""
"","51","audio-keyboard-response","582","1654000","0.0-3.0-1.486","../audio/23-3-fem.mp3"," ","","um","","","",""
"","760","audio-keyboard-response","583","1655938","0.0-3.0-1.487","../audio/23-4-fem.mp3"," ","","assunto","","","",""
"","749","audio-keyboard-response","584","1657860","0.0-3.0-1.488","../audio/23-5-fem.mp3"," ","","elementar","","","",""
"","728","audio-keyboard-response","585","1659806","0.0-3.0-1.489","../audio/23-6-fem.mp3"," ","","para","","","",""
"","949","audio-keyboard-response","586","1661897","0.0-3.0-1.490","../audio/23-7-fem.mp3"," ","","os","","","",""
"","2851","audio-keyboard-response","587","1668270","0.0-3.0-1.491","../audio/23-8-fem.mp3"," ","","alunos.","","","",""
"","null","html-keyboard-response","588","1669544","0.0-3.0-0.492-0.492","<span style= ""font-size:30px; font-family: monospace"">+</span>","null","fixation","","","","",""
"","141","audio-keyboard-response","589","1669990","0.0-3.0-1.492","../audio/25-1-fem.mp3"," ","","Ela","","","",""
"","971","audio-keyboard-response","590","1671256","0.0-3.0-1.493","../audio/25-2-fem.mp3"," ","","faz","","","",""
"","808","audio-keyboard-response","591","1672371","0.0-3.0-1.494","../audio/25-3-fem.mp3"," ","","tanto","","","",""
"","949","audio-keyboard-response","592","1673617","0.0-3.0-1.495","../audio/25-4-fem.mp3"," ","","cabelo","","","",""
"","920","audio-keyboard-response","593","1674819","0.0-3.0-1.496","../audio/25-5-fem.mp3"," ","","liso","","","",""
"","939","audio-keyboard-response","594","1676065","0.0-3.0-1.497","../audio/25-6-fem.mp3"," ","","quanto","","","",""
"","891","audio-keyboard-response","595","1677269","0.0-3.0-1.498","../audio/25-7-fem.mp3"," ","","cacheado.","","","",""
"","2473","html-keyboard-response","596","1680000","0.0-3.0-2.498-0.498","<span style=""font-size:25px; font-family: monospace"">Ela só faz cabelo cacheado?</span>","s","","","Ela só faz cabelo cacheado?","null","exp-sent","false"
"","null","html-keyboard-response","597","1681524","0.0-3.0-0.499-0.499","<span style= ""font-size:30px; font-family: monospace"">+</span>","null","fixation","","","","",""
"","80","audio-keyboard-response","598","1684473","0.0-3.0-1.499","../audio/71-1-masc.mp3"," ","","Minhas","","","",""
"","320","audio-keyboard-response","599","1686104","0.0-3.0-1.500","../audio/71-2-masc.mp3"," ","","comidas","","","",""
"","1232","audio-keyboard-response","600","1688917","0.0-3.0-1.501","../audio/71-3-masc.mp3"," ","","favoritas","","","",""
"","1232","audio-keyboard-response","601","1693004","0.0-3.0-1.502","../audio/71-4-masc.mp3"," ","","são","","","",""
"","939","audio-keyboard-response","602","1697212","0.0-3.0-1.503","../audio/71-5-masc.mp3"," ","","morango","","","",""
"","840","audio-keyboard-response","603","1701989","0.0-3.0-1.504","../audio/71-6-masc.mp3"," ","","e","","","",""
"","709","audio-keyboard-response","604","1703896","0.0-3.0-1.505","../audio/71-7-masc.mp3"," ","","uva.","","","",""
"","null","html-keyboard-response","605","1705174","0.0-3.0-0.506-0.506","<span style= ""font-size:30px; font-family: monospace"">+</span>","null","fixation","","","","",""
"","1011","audio-keyboard-response","606","1708993","0.0-3.0-1.506","../audio/74-1-masc.mp3"," ","","Este","","","",""
"","920","audio-keyboard-response","607","1714923","0.0-3.0-1.507","../audio/74-2-masc.mp3"," ","","emprego","","","",""
"","1701","audio-keyboard-response","608","1719592","0.0-3.0-1.508","../audio/74-3-masc.mp3"," ","","é","","","",""
"","960","audio-keyboard-response","609","1723374","0.0-3.0-1.509","../audio/74-4-masc.mp3"," ","","muito","","","",""
"","1971","audio-keyboard-response","610","1728884","0.0-3.0-1.510","../audio/74-5-masc.mp3"," ","","cansativo","","","",""
"","1541","audio-keyboard-response","611","1733195","0.0-3.0-1.511","../audio/74-6-masc.mp3"," ","","a","","","",""
"","1328","audio-keyboard-response","612","1737375","0.0-3.0-1.512","../audio/74-7-masc.mp3"," ","","longo","","","",""
"","1501","audio-keyboard-response","613","1742121","0.0-3.0-1.513","../audio/74-8-masc.mp3"," ","","prazo.","","","",""
"","null","html-keyboard-response","614","1743394","0.0-3.0-0.514-0.514","<span style= ""font-size:30px; font-family: monospace"">+</span>","null","fixation","","","","",""
"","1040","audio-keyboard-response","615","1744745","0.0-3.0-1.514","../audio/72-1-fem.mp3"," ","","A","","","",""
"","1080","audio-keyboard-response","616","1746134","0.0-3.0-1.515","../audio/72-2-fem.mp3"," ","","vencedora","","","",""
"","1200","audio-keyboard-response","617","1747639","0.0-3.0-1.516","../audio/72-3-fem.mp3"," ","","recebeu","","","",""
"","1240","audio-keyboard-response","618","1749167","0.0-3.0-1.517","../audio/72-4-fem.mp3"," ","","um","","","",""
"","1400","audio-keyboard-response","619","1750877","0.0-3.0-1.518","../audio/72-5-fem.mp3"," ","","prêmio","","","",""
"","1211","audio-keyboard-response","620","1752377","0.0-3.0-1.519","../audio/72-6-fem.mp3"," ","","em","","","",""
"","1320","audio-keyboard-response","621","1754006","0.0-3.0-1.520","../audio/72-7-fem.mp3"," ","","dinheiro.","","","",""
"","null","html-keyboard-response","622","1755286","0.0-3.0-0.521-0.521","<span style= ""font-size:30px; font-family: monospace"">+</span>","null","fixation","","","","",""
"","851","audio-keyboard-response","623","1757313","0.0-3.0-1.521","../audio/73-1-masc.mp3"," ","","O","","","",""
"","899","audio-keyboard-response","624","1759416","0.0-3.0-1.522","../audio/73-2-masc.mp3"," ","","cliente","","","",""
"","920","audio-keyboard-response","625","1764278","0.0-3.0-1.523","../audio/73-3-masc.mp3"," ","","era","","","",""
"","811","audio-keyboard-response","626","1768309","0.0-3.0-1.524","../audio/73-4-masc.mp3"," ","","um","","","",""
"","1640","audio-keyboard-response","627","1773665","0.0-3.0-1.525","../audio/73-5-masc.mp3"," ","","homem","","","",""
"","808","audio-keyboard-response","628","1777375","0.0-3.0-1.526","../audio/73-6-masc.mp3"," ","","muito","","","",""
"","112","audio-keyboard-response","629","1781199","0.0-3.0-1.527","../audio/73-7-masc.mp3"," ","","educado.","","","",""
"","null","html-keyboard-response","630","1782474","0.0-3.0-0.528-0.528","<span style= ""font-size:30px; font-family: monospace"">+</span>","null","fixation","","","","",""
"","1221","audio-keyboard-response","631","1783996","0.0-3.0-1.528","../audio/75-1-fem.mp3"," ","","Só","","","",""
"","1400","audio-keyboard-response","632","1785699","0.0-3.0-1.529","../audio/75-2-fem.mp3"," ","","existe","","","",""
"","949","audio-keyboard-response","633","1786944","0.0-3.0-1.530","../audio/75-3-fem.mp3"," ","","uma","","","",""
"","1171","audio-keyboard-response","634","1788423","0.0-3.0-1.531","../audio/75-4-fem.mp3"," ","","pessoa","","","",""
"","1139","audio-keyboard-response","635","1789857","0.0-3.0-1.532","../audio/75-5-fem.mp3"," ","","canhota","","","",""
"","1392","audio-keyboard-response","636","1791560","0.0-3.0-1.533","../audio/75-6-fem.mp3"," ","","nesta","","","",""
"","1709","audio-keyboard-response","637","1793578","0.0-3.0-1.534","../audio/75-7-fem.mp3"," ","","cidade.","","","",""
"","3210","html-keyboard-response","638","1797055","0.0-3.0-2.534-0.534","<span style=""font-size:25px; font-family: monospace"">Só existe uma pessoa canhota na cidade?</span>","s","","","Só existe uma pessoa canhota na cidade?","null","exp-sent","false"
"","null","html-keyboard-response","639","1798584","0.0-3.0-0.535-0.535","<span style= ""font-size:30px; font-family: monospace"">+</span>","null","fixation","","","","",""
"","909","audio-keyboard-response","640","1802388","0.0-3.0-1.535","../audio/09-1-fem.mp3"," ","","O","","","",""
"","1381","audio-keyboard-response","641","1807439","0.0-3.0-1.536","../audio/09-2-fem.mp3"," ","","rapaz","","","",""
"","1139","audio-keyboard-response","642","1811978","0.0-3.0-1.537","../audio/09-3-fem.mp3"," ","","limpou","","","",""
"","851","audio-keyboard-response","643","1817837","0.0-3.0-1.538","../audio/09-4-fem.mp3"," ","","o","","","",""
"","1408","audio-keyboard-response","644","1822053","0.0-3.0-1.539","../audio/09-5-fem.mp3"," ","","terreno","","","",""
"","859","audio-keyboard-response","645","1825898","0.0-3.0-1.540","../audio/09-6-fem.mp3"," ","","com","","","",""
"","901","audio-keyboard-response","646","1828038","0.0-3.0-1.541","../audio/09-7-fem.mp3"," ","","uma","","","",""
"","149","audio-keyboard-response","647","1833222","0.0-3.0-1.542","../audio/09-8-fem.mp3"," ","","pá.","","","",""
"","null","html-keyboard-response","648","1834487","0.0-3.0-0.543-0.543","<span style= ""font-size:30px; font-family: monospace"">+</span>","null","fixation","","","","",""
"","1069","audio-keyboard-response","649","1838632","0.0-3.0-1.543","../audio/06-1-masc.mp3"," ","","Ouvimos","","","",""
"","1469","audio-keyboard-response","650","1844746","0.0-3.0-1.544","../audio/06-2-masc.mp3"," ","","a","","","",""
"","1192","audio-keyboard-response","651","1848759","0.0-3.0-1.545","../audio/06-3-masc.mp3"," ","","fala","","","",""
"","1709","audio-keyboard-response","652","1853795","0.0-3.0-1.546","../audio/06-4-masc.mp3"," ","","do","","","",""
"","869","audio-keyboard-response","653","1857488","0.0-3.0-1.547","../audio/06-5-masc.mp3"," ","","profeta","","","",""
"","789","audio-keyboard-response","654","1861904","0.0-3.0-1.548","../audio/06-6-masc.mp3"," ","","no","","","",""
"","1248","audio-keyboard-response","655","1864331","0.0-3.0-1.549","../audio/06-7-masc.mp3"," ","","púlpito","","","",""
"","979","audio-keyboard-response","656","1868610","0.0-3.0-1.550","../audio/06-8-masc.mp3"," ","","da","","","",""
"","1301","audio-keyboard-response","657","1873438","0.0-3.0-1.551","../audio/06-9-masc.mp3"," ","","igreja.","","","",""
"","null","html-keyboard-response","658","1874705","0.0-3.0-0.552-0.552","<span style= ""font-size:30px; font-family: monospace"">+</span>","null","fixation","","","","",""
"","109","audio-keyboard-response","659","1877510","0.0-3.0-1.552","../audio/08-1-masc.mp3"," ","","A","","","",""
"","1320","audio-keyboard-response","660","1880008","0.0-3.0-1.553","../audio/08-2-masc.mp3"," ","","receita","","","",""
"","1120","audio-keyboard-response","661","1884367","0.0-3.0-1.554","../audio/08-3-masc.mp3"," ","","pede","","","",""
"","240","audio-keyboard-response","662","1887945","0.0-3.0-1.555","../audio/08-4-masc.mp3"," ","","um","","","",""
"","1341","audio-keyboard-response","663","1890431","0.0-3.0-1.556","../audio/08-5-masc.mp3"," ","","litro","","","",""
"","1011","audio-keyboard-response","664","1894503","0.0-3.0-1.557","../audio/08-6-masc.mp3"," ","","de","","","",""
"","3680","audio-keyboard-response","665","1902148","0.0-3.0-1.558","../audio/08-7-masc.mp3"," ","","leite","","","",""
"","2501","audio-keyboard-response","666","1907520","0.0-3.0-1.559","../audio/08-8-masc.mp3"," ","","integral.","","","",""
"","null","html-keyboard-response","667","1908786","0.0-3.0-0.560-0.560","<span style= ""font-size:30px; font-family: monospace"">+</span>","null","fixation","","","","",""
"","1320","audio-keyboard-response","668","1912995","0.0-3.0-1.560","../audio/07-1-masc.mp3"," ","","Meu","","","",""
"","1219","audio-keyboard-response","669","1917767","0.0-3.0-1.561","../audio/07-2-masc.mp3"," ","","filho","","","",""
"","1168","audio-keyboard-response","670","1922176","0.0-3.0-1.562","../audio/07-3-masc.mp3"," ","","é","","","",""
"","1109","audio-keyboard-response","671","1926534","0.0-3.0-1.563","../audio/07-4-masc.mp3"," ","","muito","","","",""
"","1480","audio-keyboard-response","672","1932049","0.0-3.0-1.564","../audio/07-5-masc.mp3"," ","","responsável","","","",""
"","1109","audio-keyboard-response","673","1936187","0.0-3.0-1.565","../audio/07-6-masc.mp3"," ","","nos","","","",""
"","968","audio-keyboard-response","674","1940446","0.0-3.0-1.566","../audio/07-7-masc.mp3"," ","","estudos.","","","",""
"","null","html-keyboard-response","675","1941721","0.0-3.0-0.567-0.567","<span style= ""font-size:30px; font-family: monospace"">+</span>","null","fixation","","","","",""
"","1000","audio-keyboard-response","676","1945474","0.0-3.0-1.567","../audio/10-1-fem.mp3"," ","","O","","","",""
"","1731","audio-keyboard-response","677","1950857","0.0-3.0-1.568","../audio/10-2-fem.mp3"," ","","pássaro","","","",""
"","1320","audio-keyboard-response","678","1954996","0.0-3.0-1.569","../audio/10-3-fem.mp3"," ","","azul","","","",""
"","1371","audio-keyboard-response","679","1959497","0.0-3.0-1.570","../audio/10-4-fem.mp3"," ","","estava","","","",""
"","1669","audio-keyboard-response","680","1964189","0.0-3.0-1.571","../audio/10-5-fem.mp3"," ","","vivo","","","",""
"","1149","audio-keyboard-response","681","1968207","0.0-3.0-1.572","../audio/10-6-fem.mp3"," ","","e","","","",""
"","771","audio-keyboard-response","682","1972204","0.0-3.0-1.573","../audio/10-7-fem.mp3"," ","","em","","","",""
"","1368","audio-keyboard-response","683","1974774","0.0-3.0-1.574","../audio/10-8-fem.mp3"," ","","segurança.","","","",""
"","3909","html-keyboard-response","684","1978943","0.0-3.0-2.574-0.574","<span style=""font-size:25px; font-family: monospace"">O pássaro vermelho estava em segurança?</span>","s","","","O pássaro vermelho estava em segurança?","null","exp-sent","false"
"","null","html-keyboard-response","685","1980474","0.0-3.0-0.575-0.575","<span style= ""font-size:30px; font-family: monospace"">+</span>","null","fixation","","","","",""
"","1280","audio-keyboard-response","686","1984578","0.0-3.0-1.575","../audio/44-1-fem.mp3"," ","","Meus","","","",""
"","1040","audio-keyboard-response","687","1988819","0.0-3.0-1.576","../audio/44-2-fem.mp3"," ","","irmãos","","","",""
"","749","audio-keyboard-response","688","1993193","0.0-3.0-1.577","../audio/44-3-fem.mp3"," ","","brigam","","","",""
"","629","audio-keyboard-response","689","1994988","0.0-3.0-1.578","../audio/44-4-fem.mp3"," ","","por","","","",""
"","949","audio-keyboard-response","690","1997138","0.0-3.0-1.579","../audio/44-5-fem.mp3"," ","","bobagem","","","",""
"","2080","audio-keyboard-response","691","2002710","0.0-3.0-1.580","../audio/44-6-fem.mp3"," ","","todos","","","",""
"","1971","audio-keyboard-response","692","2007401","0.0-3.0-1.581","../audio/44-7-fem.mp3"," ","","os","","","",""
"","429","audio-keyboard-response","693","2010661","0.0-3.0-1.582","../audio/44-8-fem.mp3"," ","","dias.","","","",""
"","null","html-keyboard-response","694","2011924","0.0-3.0-0.583-0.583","<span style= ""font-size:30px; font-family: monospace"">+</span>","null","fixation","","","","",""
"","1109","audio-keyboard-response","695","2013343","0.0-3.0-1.583","../audio/43-1-masc.mp3"," ","","Eu","","","",""
"","1008","audio-keyboard-response","696","2014654","0.0-3.0-1.584","../audio/43-2-masc.mp3"," ","","achei","","","",""
"","808","audio-keyboard-response","697","2015775","0.0-3.0-1.585","../audio/43-3-masc.mp3"," ","","um","","","",""
"","840","audio-keyboard-response","698","2016928","0.0-3.0-1.586","../audio/43-4-masc.mp3"," ","","colchão","","","",""
"","709","audio-keyboard-response","699","2017952","0.0-3.0-1.587","../audio/43-5-masc.mp3"," ","","velho","","","",""
"","760","audio-keyboard-response","700","2019015","0.0-3.0-1.588","../audio/43-6-masc.mp3"," ","","e","","","",""
"","848","audio-keyboard-response","701","2020171","0.0-3.0-1.589","../audio/43-7-masc.mp3"," ","","imundo","","","",""
"","840","audio-keyboard-response","702","2021310","0.0-3.0-1.590","../audio/43-8-masc.mp3"," ","","na","","","",""
"","1112","audio-keyboard-response","703","2022723","0.0-3.0-1.591","../audio/43-9-masc.mp3"," ","","casa.","","","",""
"","null","html-keyboard-response","704","2024004","0.0-3.0-0.592-0.592","<span style= ""font-size:30px; font-family: monospace"">+</span>","null","fixation","","","","",""
"","211","audio-keyboard-response","705","2025403","0.0-3.0-1.592","../audio/41-1-masc.mp3"," ","","A","","","",""
"","69","audio-keyboard-response","706","2026697","0.0-3.0-1.593","../audio/41-2-masc.mp3"," ","","novela","","","",""
"","960","audio-keyboard-response","707","2028999","0.0-3.0-1.594","../audio/41-3-masc.mp3"," ","","falava","","","",""
"","1389","audio-keyboard-response","708","2033946","0.0-3.0-1.595","../audio/41-4-masc.mp3"," ","","de","","","",""
"","440","audio-keyboard-response","709","2037220","0.0-3.0-1.596","../audio/41-5-masc.mp3"," ","","paixão","","","",""
"","781","audio-keyboard-response","710","2039187","0.0-3.0-1.597","../audio/41-6-masc.mp3"," ","","e","","","",""
"","1120","audio-keyboard-response","711","2041478","0.0-3.0-1.598","../audio/41-7-masc.mp3"," ","","comédia.","","","",""
"","null","html-keyboard-response","712","2042749","0.0-3.0-0.599-0.599","<span style= ""font-size:30px; font-family: monospace"">+</span>","null","fixation","","","","",""
"","1181","audio-keyboard-response","713","2046786","0.0-3.0-1.599","../audio/42-1-fem.mp3"," ","","Eu","","","",""
"","971","audio-keyboard-response","714","2051077","0.0-3.0-1.600","../audio/42-2-fem.mp3"," ","","fui","","","",""
"","960","audio-keyboard-response","715","2057025","0.0-3.0-1.601","../audio/42-3-fem.mp3"," ","","a","","","",""
"","771","audio-keyboard-response","716","2061220","0.0-3.0-1.602","../audio/42-4-fem.mp3"," ","","uma","","","",""
"","931","audio-keyboard-response","717","2063322","0.0-3.0-1.603","../audio/42-5-fem.mp3"," ","","loja","","","",""
"","949","audio-keyboard-response","718","2067861","0.0-3.0-1.604","../audio/42-6-fem.mp3"," ","","de","","","",""
"","1629","audio-keyboard-response","719","2073050","0.0-3.0-1.605","../audio/42-7-fem.mp3"," ","","móveis","","","",""
"","1229","audio-keyboard-response","720","2077189","0.0-3.0-1.606","../audio/42-8-fem.mp3"," ","","no","","","",""
"","1251","audio-keyboard-response","721","2081877","0.0-3.0-1.607","../audio/42-9-fem.mp3"," ","","bairro.","","","",""
"","null","html-keyboard-response","722","2083153","0.0-3.0-0.608-0.608","<span style= ""font-size:30px; font-family: monospace"">+</span>","null","fixation","","","","",""
"","11","audio-keyboard-response","723","2085903","0.0-3.0-1.608","../audio/45-1-fem.mp3"," ","","O","","","",""
"","829","audio-keyboard-response","724","2087902","0.0-3.0-1.609","../audio/45-2-fem.mp3"," ","","homem","","","",""
"","40","audio-keyboard-response","725","2091805","0.0-3.0-1.610","../audio/45-3-fem.mp3"," ","","pagou","","","",""
"","709","audio-keyboard-response","726","2093810","0.0-3.0-1.611","../audio/45-4-fem.mp3"," ","","o","","","",""
"","1352","audio-keyboard-response","727","2096325","0.0-3.0-1.612","../audio/45-5-fem.mp3"," ","","aluguel","","","",""
"","1141","audio-keyboard-response","728","2100592","0.0-3.0-1.613","../audio/45-6-fem.mp3"," ","","com","","","",""
"","1280","audio-keyboard-response","729","2105260","0.0-3.0-1.614","../audio/45-7-fem.mp3"," ","","atraso.","","","",""
"","5277","html-keyboard-response","730","2110803","0.0-3.0-2.614-0.614","<span style=""font-size:25px; font-family: monospace"">O homem pagou o aluguel em dia?</span>","n","","","O homem pagou o aluguel em dia?","null","exp-sent","false"
"[{""page_index"":0,""viewing_time"":3848}]","3848","instructions","731","2115163","0.0-4.0","","","","","","","",""
