"view_history","rt","trial_type","trial_index","time_elapsed","internal_node_id","stimulus","response","trial_part","trial","word","question","answer","accuracy"
"[{""page_index"":0,""viewing_time"":21489},{""page_index"":1,""viewing_time"":1597}]","23086","instructions","0","23092","0.0-0.0","","","","","","","",""
"","null","html-keyboard-response","1","24219","0.0-1.0-0.0-0.0","<span style= ""font-size:30px; font-family: monospace"">+</span>","null","fixation","","","","",""
"","3477","html-keyboard-response","2","27952","0.0-1.0-1.0","<span style=""font-size:30px; font-family: monospace"">O</span>"," ","","prac-sent","O","","",""
"","929","html-keyboard-response","3","29136","0.0-1.0-1.1","<span style=""font-size:30px; font-family: monospace"">dia</span>"," ","","prac-sent","dia","","",""
"","799","html-keyboard-response","4","30202","0.0-1.0-1.2","<span style=""font-size:30px; font-family: monospace"">estará</span>"," ","","prac-sent","estará","","",""
"","899","html-keyboard-response","5","31363","0.0-1.0-1.3","<span style=""font-size:30px; font-family: monospace"">cheio</span>"," ","","prac-sent","cheio","","",""
"","696","html-keyboard-response","6","32313","0.0-1.0-1.4","<span style=""font-size:30px; font-family: monospace"">de</span>"," ","","prac-sent","de","","",""
"","674","html-keyboard-response","7","33255","0.0-1.0-1.5","<span style=""font-size:30px; font-family: monospace"">nuvens</span>"," ","","prac-sent","nuvens","","",""
"","736","html-keyboard-response","8","34257","0.0-1.0-1.6","<span style=""font-size:30px; font-family: monospace"">hoje.</span>"," ","","prac-sent","hoje.","","",""
"","null","html-keyboard-response","9","35521","0.0-1.0-0.7-0.7","<span style= ""font-size:30px; font-family: monospace"">+</span>","null","fixation","","","","",""
"","1650","html-keyboard-response","10","37437","0.0-1.0-1.7","<span style=""font-size:30px; font-family: monospace"">A</span>"," ","","prac-sent","A","","",""
"","806","html-keyboard-response","11","38511","0.0-1.0-1.8","<span style=""font-size:30px; font-family: monospace"">caneca</span>"," ","","prac-sent","caneca","","",""
"","905","html-keyboard-response","12","39672","0.0-1.0-1.9","<span style=""font-size:30px; font-family: monospace"">colorida</span>"," ","","prac-sent","colorida","","",""
"","685","html-keyboard-response","13","40609","0.0-1.0-1.10","<span style=""font-size:30px; font-family: monospace"">caiu</span>"," ","","prac-sent","caiu","","",""
"","685","html-keyboard-response","14","41546","0.0-1.0-1.11","<span style=""font-size:30px; font-family: monospace"">da</span>"," ","","prac-sent","da","","",""
"","793","html-keyboard-response","15","42591","0.0-1.0-1.12","<span style=""font-size:30px; font-family: monospace"">mesa</span>"," ","","prac-sent","mesa","","",""
"","589","html-keyboard-response","16","43436","0.0-1.0-1.13","<span style=""font-size:30px; font-family: monospace"">de</span>"," ","","prac-sent","de","","",""
"","808","html-keyboard-response","17","44497","0.0-1.0-1.14","<span style=""font-size:30px; font-family: monospace"">jantar.</span>"," ","","prac-comp","jantar.","","",""
"","2391","html-keyboard-response","18","47155","0.0-1.0-2.14-0.14","<span style=""font-size:30px; font-family: monospace"">A caneca permaneceu na mesa?</span>","n","","prac-comp","","A caneca permaneceu na mesa?","não","false"
"[{""page_index"":0,""viewing_time"":15897}]","15898","instructions","19","63555","0.0-2.0","","","","","","","",""
"","null","html-keyboard-response","20","64680","0.0-3.0-0.0-0.0","<span style= ""font-size:30px; font-family: monospace"">+</span>","null","fixation","","","","",""
"","1264","html-keyboard-response","21","66205","0.0-3.0-1.0","<span style=""font-size:30px; font-family: monospace"">Ganhamos</span>"," ","","exp-sent","Ganhamos","","",""
"","701","html-keyboard-response","22","67172","0.0-3.0-1.1","<span style=""font-size:30px; font-family: monospace"">passagem</span>"," ","","exp-sent","passagem","","",""
"","648","html-keyboard-response","23","68084","0.0-3.0-1.2","<span style=""font-size:30px; font-family: monospace"">para</span>"," ","","exp-sent","para","","",""
"","665","html-keyboard-response","24","69000","0.0-3.0-1.3","<span style=""font-size:30px; font-family: monospace"">uma</span>"," ","","exp-sent","uma","","",""
"","784","html-keyboard-response","25","70039","0.0-3.0-1.4","<span style=""font-size:30px; font-family: monospace"">viagem</span>"," ","","exp-sent","viagem","","",""
"","651","html-keyboard-response","26","70954","0.0-3.0-1.5","<span style=""font-size:30px; font-family: monospace"">de</span>"," ","","exp-sent","de","","",""
"","783","html-keyboard-response","27","71999","0.0-3.0-1.6","<span style=""font-size:30px; font-family: monospace"">férias.</span>"," ","","exp-sent","férias.","","",""
"","null","html-keyboard-response","28","73264","0.0-3.0-0.7-0.7","<span style= ""font-size:30px; font-family: monospace"">+</span>","null","fixation","","","","",""
"","1014","html-keyboard-response","29","74543","0.0-3.0-1.7","<span style=""font-size:30px; font-family: monospace"">Caiu</span>"," ","","exp-sent","Caiu","","",""
"","805","html-keyboard-response","30","75611","0.0-3.0-1.8","<span style=""font-size:30px; font-family: monospace"">algo</span>"," ","","exp-sent","algo","","",""
"","756","html-keyboard-response","31","76627","0.0-3.0-1.9","<span style=""font-size:30px; font-family: monospace"">no</span>"," ","","exp-sent","no","","",""
"","734","html-keyboard-response","32","77620","0.0-3.0-1.10","<span style=""font-size:30px; font-family: monospace"">meu</span>"," ","","exp-sent","meu","","",""
"","738","html-keyboard-response","33","78621","0.0-3.0-1.11","<span style=""font-size:30px; font-family: monospace"">olho</span>"," ","","exp-sent","olho","","",""
"","793","html-keyboard-response","34","79676","0.0-3.0-1.12","<span style=""font-size:30px; font-family: monospace"">ontem</span>"," ","","exp-sent","ontem","","",""
"","714","html-keyboard-response","35","80650","0.0-3.0-1.13","<span style=""font-size:30px; font-family: monospace"">de</span>"," ","","exp-sent","de","","",""
"","718","html-keyboard-response","36","81630","0.0-3.0-1.14","<span style=""font-size:30px; font-family: monospace"">tarde.</span>"," ","","exp-sent","tarde.","","",""
"","null","html-keyboard-response","37","82894","0.0-3.0-0.15-0.15","<span style= ""font-size:30px; font-family: monospace"">+</span>","null","fixation","","","","",""
"","874","html-keyboard-response","38","84027","0.0-3.0-1.15","<span style=""font-size:30px; font-family: monospace"">Não</span>"," ","","exp-sent","Não","","",""
"","763","html-keyboard-response","39","85054","0.0-3.0-1.16","<span style=""font-size:30px; font-family: monospace"">havia</span>"," ","","exp-sent","havia","","",""
"","783","html-keyboard-response","40","86099","0.0-3.0-1.17","<span style=""font-size:30px; font-family: monospace"">mais</span>"," ","","exp-sent","mais","","",""
"","744","html-keyboard-response","41","87105","0.0-3.0-1.18","<span style=""font-size:30px; font-family: monospace"">nenhum</span>"," ","","exp-sent","nenhum","","",""
"","694","html-keyboard-response","42","88054","0.0-3.0-1.19","<span style=""font-size:30px; font-family: monospace"">ingresso</span>"," ","","exp-sent","ingresso","","",""
"","665","html-keyboard-response","43","88978","0.0-3.0-1.20","<span style=""font-size:30px; font-family: monospace"">para</span>"," ","","exp-sent","para","","",""
"","753","html-keyboard-response","44","89994","0.0-3.0-1.21","<span style=""font-size:30px; font-family: monospace"">o</span>"," ","","exp-sent","o","","",""
"","658","html-keyboard-response","45","90904","0.0-3.0-1.22","<span style=""font-size:30px; font-family: monospace"">evento.</span>"," ","","exp-sent","evento.","","",""
"","null","html-keyboard-response","46","92163","0.0-3.0-0.23-0.23","<span style= ""font-size:30px; font-family: monospace"">+</span>","null","fixation","","","","",""
"","960","html-keyboard-response","47","93378","0.0-3.0-1.23","<span style=""font-size:30px; font-family: monospace"">A</span>"," ","","exp-sent","A","","",""
"","837","html-keyboard-response","48","94477","0.0-3.0-1.24","<span style=""font-size:30px; font-family: monospace"">médica</span>"," ","","exp-sent","médica","","",""
"","834","html-keyboard-response","49","95575","0.0-3.0-1.25","<span style=""font-size:30px; font-family: monospace"">descobriu</span>"," ","","exp-sent","descobriu","","",""
"","659","html-keyboard-response","50","96496","0.0-3.0-1.26","<span style=""font-size:30px; font-family: monospace"">uma</span>"," ","","exp-sent","uma","","",""
"","697","html-keyboard-response","51","97445","0.0-3.0-1.27","<span style=""font-size:30px; font-family: monospace"">cura</span>"," ","","exp-sent","cura","","",""
"","654","html-keyboard-response","52","98361","0.0-3.0-1.28","<span style=""font-size:30px; font-family: monospace"">para</span>"," ","","exp-sent","para","","",""
"","627","html-keyboard-response","53","99240","0.0-3.0-1.29","<span style=""font-size:30px; font-family: monospace"">a</span>"," ","","exp-sent","a","","",""
"","744","html-keyboard-response","54","100243","0.0-3.0-1.30","<span style=""font-size:30px; font-family: monospace"">doença.</span>"," ","","exp-sent","doença.","","",""
"","null","html-keyboard-response","55","101509","0.0-3.0-0.31-0.31","<span style= ""font-size:30px; font-family: monospace"">+</span>","null","fixation","","","","",""
"","605","html-keyboard-response","56","102379","0.0-3.0-1.31","<span style=""font-size:30px; font-family: monospace"">O</span>"," ","","exp-sent","O","","",""
"","663","html-keyboard-response","57","103300","0.0-3.0-1.32","<span style=""font-size:30px; font-family: monospace"">menino</span>"," ","","exp-sent","menino","","",""
"","700","html-keyboard-response","58","104254","0.0-3.0-1.33","<span style=""font-size:30px; font-family: monospace"">riscou</span>"," ","","exp-sent","riscou","","",""
"","601","html-keyboard-response","59","105119","0.0-3.0-1.34","<span style=""font-size:30px; font-family: monospace"">o</span>"," ","","exp-sent","o","","",""
"","911","html-keyboard-response","60","106303","0.0-3.0-1.35","<span style=""font-size:30px; font-family: monospace"">caderno</span>"," ","","exp-sent","caderno","","",""
"","754","html-keyboard-response","61","107325","0.0-3.0-1.36","<span style=""font-size:30px; font-family: monospace"">com</span>"," ","","exp-sent","com","","",""
"","764","html-keyboard-response","62","108351","0.0-3.0-1.37","<span style=""font-size:30px; font-family: monospace"">a</span>"," ","","exp-sent","a","","",""
"","856","html-keyboard-response","63","109469","0.0-3.0-1.38","<span style=""font-size:30px; font-family: monospace"">caneta.</span>"," ","","comp","caneta.","","",""
"","2877","html-keyboard-response","64","112606","0.0-3.0-2.38-0.38","<span style=""font-size:30px; font-family: monospace"">O menino riscou a parede com a caneta?</span>","s","","comp","","O menino riscou a parede com a caneta?","não","false"
"","null","html-keyboard-response","65","114134","0.0-3.0-0.39-0.39","<span style= ""font-size:30px; font-family: monospace"">+</span>","null","fixation","","","","",""
"","634","html-keyboard-response","66","115032","0.0-3.0-1.39","<span style=""font-size:30px; font-family: monospace"">O</span>"," ","","exp-sent","O","","",""
"","662","html-keyboard-response","67","115960","0.0-3.0-1.40","<span style=""font-size:30px; font-family: monospace"">texto</span>"," ","","exp-sent","texto","","",""
"","608","html-keyboard-response","68","116821","0.0-3.0-1.41","<span style=""font-size:30px; font-family: monospace"">trazia</span>"," ","","exp-sent","trazia","","",""
"","524","html-keyboard-response","69","117606","0.0-3.0-1.42","<span style=""font-size:30px; font-family: monospace"">um</span>"," ","","exp-sent","um","","",""
"","753","html-keyboard-response","70","118615","0.0-3.0-1.43","<span style=""font-size:30px; font-family: monospace"">argumento</span>"," ","","exp-sent","argumento","","",""
"","537","html-keyboard-response","71","119404","0.0-3.0-1.44","<span style=""font-size:30px; font-family: monospace"">central</span>"," ","","exp-sent","central","","",""
"","446","html-keyboard-response","72","120115","0.0-3.0-1.45","<span style=""font-size:30px; font-family: monospace"">para</span>"," ","","exp-sent","para","","",""
"","527","html-keyboard-response","73","120895","0.0-3.0-1.46","<span style=""font-size:30px; font-family: monospace"">a</span>"," ","","exp-sent","a","","",""
"","856","html-keyboard-response","74","122006","0.0-3.0-1.47","<span style=""font-size:30px; font-family: monospace"">conversa.</span>"," ","","exp-sent","conversa.","","",""
"","null","html-keyboard-response","75","123273","0.0-3.0-0.48-0.48","<span style= ""font-size:30px; font-family: monospace"">+</span>","null","fixation","","","","",""
"","752","html-keyboard-response","76","124278","0.0-3.0-1.48","<span style=""font-size:30px; font-family: monospace"">Ontem</span>"," ","","exp-sent","Ontem","","",""
"","608","html-keyboard-response","77","125147","0.0-3.0-1.49","<span style=""font-size:30px; font-family: monospace"">a</span>"," ","","exp-sent","a","","",""
"","727","html-keyboard-response","78","126135","0.0-3.0-1.50","<span style=""font-size:30px; font-family: monospace"">temperatura</span>"," ","","exp-sent","temperatura","","",""
"","625","html-keyboard-response","79","127026","0.0-3.0-1.51","<span style=""font-size:30px; font-family: monospace"">estava</span>"," ","","exp-sent","estava","","",""
"","667","html-keyboard-response","80","127967","0.0-3.0-1.52","<span style=""font-size:30px; font-family: monospace"">amena</span>"," ","","exp-sent","amena","","",""
"","582","html-keyboard-response","81","128808","0.0-3.0-1.53","<span style=""font-size:30px; font-family: monospace"">durante</span>"," ","","exp-sent","durante","","",""
"","607","html-keyboard-response","82","129670","0.0-3.0-1.54","<span style=""font-size:30px; font-family: monospace"">o</span>"," ","","exp-sent","o","","",""
"","826","html-keyboard-response","83","130748","0.0-3.0-1.55","<span style=""font-size:30px; font-family: monospace"">dia.</span>"," ","","exp-sent","dia.","","",""
"","null","html-keyboard-response","84","132023","0.0-3.0-0.56-0.56","<span style= ""font-size:30px; font-family: monospace"">+</span>","null","fixation","","","","",""
"","179","html-keyboard-response","85","132456","0.0-3.0-1.56","<span style=""font-size:30px; font-family: monospace"">Havia</span>"," ","","exp-sent","Havia","","",""
"","910","html-keyboard-response","86","133618","0.0-3.0-1.57","<span style=""font-size:30px; font-family: monospace"">um</span>"," ","","exp-sent","um","","",""
"","745","html-keyboard-response","87","134615","0.0-3.0-1.58","<span style=""font-size:30px; font-family: monospace"">machucado</span>"," ","","exp-sent","machucado","","",""
"","823","html-keyboard-response","88","135703","0.0-3.0-1.59","<span style=""font-size:30px; font-family: monospace"">no</span>"," ","","exp-sent","no","","",""
"","688","html-keyboard-response","89","136645","0.0-3.0-1.60","<span style=""font-size:30px; font-family: monospace"">dedo</span>"," ","","exp-sent","dedo","","",""
"","828","html-keyboard-response","90","137734","0.0-3.0-1.61","<span style=""font-size:30px; font-family: monospace"">da</span>"," ","","exp-sent","da","","",""
"","782","html-keyboard-response","91","138781","0.0-3.0-1.62","<span style=""font-size:30px; font-family: monospace"">criança.</span>"," ","","exp-sent","criança.","","",""
"","null","html-keyboard-response","92","140038","0.0-3.0-0.63-0.63","<span style= ""font-size:30px; font-family: monospace"">+</span>","null","fixation","","","","",""
"","609","html-keyboard-response","93","140914","0.0-3.0-1.63","<span style=""font-size:30px; font-family: monospace"">A</span>"," ","","exp-sent","A","","",""
"","645","html-keyboard-response","94","141814","0.0-3.0-1.64","<span style=""font-size:30px; font-family: monospace"">borboleta</span>"," ","","exp-sent","borboleta","","",""
"","747","html-keyboard-response","95","142824","0.0-3.0-1.65","<span style=""font-size:30px; font-family: monospace"">pousou</span>"," ","","exp-sent","pousou","","",""
"","1040","html-keyboard-response","96","144121","0.0-3.0-1.66","<span style=""font-size:30px; font-family: monospace"">no</span>"," ","","exp-sent","no","","",""
"","595","html-keyboard-response","97","144977","0.0-3.0-1.67","<span style=""font-size:30px; font-family: monospace"">ombro</span>"," ","","exp-sent","ombro","","",""
"","716","html-keyboard-response","98","145955","0.0-3.0-1.68","<span style=""font-size:30px; font-family: monospace"">daquela</span>"," ","","exp-sent","daquela","","",""
"","633","html-keyboard-response","99","146843","0.0-3.0-1.69","<span style=""font-size:30px; font-family: monospace"">moça.</span>"," ","","exp-sent","moça.","","",""
"","null","html-keyboard-response","100","148111","0.0-3.0-0.70-0.70","<span style= ""font-size:30px; font-family: monospace"">+</span>","null","fixation","","","","",""
"","861","html-keyboard-response","101","149230","0.0-3.0-1.70","<span style=""font-size:30px; font-family: monospace"">Eu</span>"," ","","exp-sent","Eu","","",""
"","579","html-keyboard-response","102","150062","0.0-3.0-1.71","<span style=""font-size:30px; font-family: monospace"">quero</span>"," ","","exp-sent","quero","","",""
"","633","html-keyboard-response","103","150952","0.0-3.0-1.72","<span style=""font-size:30px; font-family: monospace"">um</span>"," ","","exp-sent","um","","",""
"","843","html-keyboard-response","104","152058","0.0-3.0-1.73","<span style=""font-size:30px; font-family: monospace"">namorado</span>"," ","","exp-sent","namorado","","",""
"","637","html-keyboard-response","105","152958","0.0-3.0-1.74","<span style=""font-size:30px; font-family: monospace"">honesto</span>"," ","","exp-sent","honesto","","",""
"","550","html-keyboard-response","106","153767","0.0-3.0-1.75","<span style=""font-size:30px; font-family: monospace"">e</span>"," ","","exp-sent","e","","",""
"","677","html-keyboard-response","107","154706","0.0-3.0-1.76","<span style=""font-size:30px; font-family: monospace"">compreensivo.</span>"," ","","comp","compreensivo.","","",""
"","4356","html-keyboard-response","108","159321","0.0-3.0-2.76-0.76","<span style=""font-size:30px; font-family: monospace"">Eu quero um namorado honesto?</span>","s","","comp","","Eu quero um namorado honesto?","sim","false"
"","null","html-keyboard-response","109","160837","0.0-3.0-0.77-0.77","<span style= ""font-size:30px; font-family: monospace"">+</span>","null","fixation","","","","",""
"","429","html-keyboard-response","110","161532","0.0-3.0-1.77","<span style=""font-size:30px; font-family: monospace"">Minha</span>"," ","","exp-sent","Minha","","",""
"","1112","html-keyboard-response","111","162898","0.0-3.0-1.78","<span style=""font-size:30px; font-family: monospace"">prima</span>"," ","","exp-sent","prima","","",""
"","641","html-keyboard-response","112","163798","0.0-3.0-1.79","<span style=""font-size:30px; font-family: monospace"">trocou</span>"," ","","exp-sent","trocou","","",""
"","689","html-keyboard-response","113","164740","0.0-3.0-1.80","<span style=""font-size:30px; font-family: monospace"">a</span>"," ","","exp-sent","a","","",""
"","776","html-keyboard-response","114","165769","0.0-3.0-1.81","<span style=""font-size:30px; font-family: monospace"">tela</span>"," ","","exp-sent","tela","","",""
"","858","html-keyboard-response","115","166881","0.0-3.0-1.82","<span style=""font-size:30px; font-family: monospace"">do</span>"," ","","exp-sent","do","","",""
"","752","html-keyboard-response","116","167897","0.0-3.0-1.83","<span style=""font-size:30px; font-family: monospace"">celular</span>"," ","","exp-sent","celular","","",""
"","848","html-keyboard-response","117","168997","0.0-3.0-1.84","<span style=""font-size:30px; font-family: monospace"">duas</span>"," ","","exp-sent","duas","","",""
"","725","html-keyboard-response","118","169976","0.0-3.0-1.85","<span style=""font-size:30px; font-family: monospace"">vezes.</span>"," ","","exp-sent","vezes.","","",""
"","null","html-keyboard-response","119","171241","0.0-3.0-0.86-0.86","<span style= ""font-size:30px; font-family: monospace"">+</span>","null","fixation","","","","",""
"","768","html-keyboard-response","120","172271","0.0-3.0-1.86","<span style=""font-size:30px; font-family: monospace"">Agora</span>"," ","","exp-sent","Agora","","",""
"","405","html-keyboard-response","121","172941","0.0-3.0-1.87","<span style=""font-size:30px; font-family: monospace"">a</span>"," ","","exp-sent","a","","",""
"","431","html-keyboard-response","122","173635","0.0-3.0-1.88","<span style=""font-size:30px; font-family: monospace"">minha</span>"," ","","exp-sent","minha","","",""
"","824","html-keyboard-response","123","174711","0.0-3.0-1.89","<span style=""font-size:30px; font-family: monospace"">única</span>"," ","","exp-sent","única","","",""
"","390","html-keyboard-response","124","175362","0.0-3.0-1.90","<span style=""font-size:30px; font-family: monospace"">preocupação</span>"," ","","exp-sent","preocupação","","",""
"","470","html-keyboard-response","125","176095","0.0-3.0-1.91","<span style=""font-size:30px; font-family: monospace"">é</span>"," ","","exp-sent","é","","",""
"","444","html-keyboard-response","126","176797","0.0-3.0-1.92","<span style=""font-size:30px; font-family: monospace"">um</span>"," ","","exp-sent","um","","",""
"","512","html-keyboard-response","127","177565","0.0-3.0-1.93","<span style=""font-size:30px; font-family: monospace"">descanso</span>"," ","","exp-sent","descanso","","",""
"","551","html-keyboard-response","128","178371","0.0-3.0-1.94","<span style=""font-size:30px; font-family: monospace"">tranquilo.</span>"," ","","exp-sent","tranquilo.","","",""
"","null","html-keyboard-response","129","179640","0.0-3.0-0.95-0.95","<span style= ""font-size:30px; font-family: monospace"">+</span>","null","fixation","","","","",""
"","525","html-keyboard-response","130","180424","0.0-3.0-1.95","<span style=""font-size:30px; font-family: monospace"">A</span>"," ","","exp-sent","A","","",""
"","440","html-keyboard-response","131","181128","0.0-3.0-1.96","<span style=""font-size:30px; font-family: monospace"">criança</span>"," ","","exp-sent","criança","","",""
"","582","html-keyboard-response","132","181963","0.0-3.0-1.97","<span style=""font-size:30px; font-family: monospace"">ganhou</span>"," ","","exp-sent","ganhou","","",""
"","793","html-keyboard-response","133","183012","0.0-3.0-1.98","<span style=""font-size:30px; font-family: monospace"">um</span>"," ","","exp-sent","um","","",""
"","737","html-keyboard-response","134","184006","0.0-3.0-1.99","<span style=""font-size:30px; font-family: monospace"">presente</span>"," ","","exp-sent","presente","","",""
"","739","html-keyboard-response","135","185007","0.0-3.0-1.100","<span style=""font-size:30px; font-family: monospace"">maravilhoso.</span>"," ","","exp-sent","maravilhoso.","","",""
"","null","html-keyboard-response","136","186273","0.0-3.0-0.101-0.101","<span style= ""font-size:30px; font-family: monospace"">+</span>","null","fixation","","","","",""
"","434","html-keyboard-response","137","186973","0.0-3.0-1.101","<span style=""font-size:30px; font-family: monospace"">Os</span>"," ","","exp-sent","Os","","",""
"","804","html-keyboard-response","138","188038","0.0-3.0-1.102","<span style=""font-size:30px; font-family: monospace"">bichos</span>"," ","","exp-sent","bichos","","",""
"","640","html-keyboard-response","139","188933","0.0-3.0-1.103","<span style=""font-size:30px; font-family: monospace"">têm</span>"," ","","exp-sent","têm","","",""
"","609","html-keyboard-response","140","189808","0.0-3.0-1.104","<span style=""font-size:30px; font-family: monospace"">um</span>"," ","","exp-sent","um","","",""
"","648","html-keyboard-response","141","190712","0.0-3.0-1.105","<span style=""font-size:30px; font-family: monospace"">instinto</span>"," ","","exp-sent","instinto","","",""
"","783","html-keyboard-response","142","191747","0.0-3.0-1.106","<span style=""font-size:30px; font-family: monospace"">de</span>"," ","","exp-sent","de","","",""
"","821","html-keyboard-response","143","192819","0.0-3.0-1.107","<span style=""font-size:30px; font-family: monospace"">sobrevivência</span>"," ","","exp-sent","sobrevivência","","",""
"","816","html-keyboard-response","144","193895","0.0-3.0-1.108","<span style=""font-size:30px; font-family: monospace"">forte.</span>"," ","","exp-sent","forte.","","",""
"","null","html-keyboard-response","145","195168","0.0-3.0-0.109-0.109","<span style= ""font-size:30px; font-family: monospace"">+</span>","null","fixation","","","","",""
"","739","html-keyboard-response","146","196168","0.0-3.0-1.109","<span style=""font-size:30px; font-family: monospace"">Aquele</span>"," ","","exp-sent","Aquele","","",""
"","546","html-keyboard-response","147","196965","0.0-3.0-1.110","<span style=""font-size:30px; font-family: monospace"">menino</span>"," ","","exp-sent","menino","","",""
"","553","html-keyboard-response","148","197780","0.0-3.0-1.111","<span style=""font-size:30px; font-family: monospace"">alto</span>"," ","","exp-sent","alto","","",""
"","467","html-keyboard-response","149","198515","0.0-3.0-1.112","<span style=""font-size:30px; font-family: monospace"">é</span>"," ","","exp-sent","é","","",""
"","561","html-keyboard-response","150","199337","0.0-3.0-1.113","<span style=""font-size:30px; font-family: monospace"">exibido</span>"," ","","exp-sent","exibido","","",""
"","546","html-keyboard-response","151","200138","0.0-3.0-1.114","<span style=""font-size:30px; font-family: monospace"">e</span>"," ","","exp-sent","e","","",""
"","526","html-keyboard-response","152","200929","0.0-3.0-1.115","<span style=""font-size:30px; font-family: monospace"">sovina.</span>"," ","","comp","sovina.","","",""
"","2443","html-keyboard-response","153","203631","0.0-3.0-2.115-0.115","<span style=""font-size:30px; font-family: monospace"">Aquele menino é humilde?</span>","n","","comp","","Aquele menino é humilde?","não","false"
"","null","html-keyboard-response","154","205146","0.0-3.0-0.116-0.116","<span style= ""font-size:30px; font-family: monospace"">+</span>","null","fixation","","","","",""
"","741","html-keyboard-response","155","206139","0.0-3.0-1.116","<span style=""font-size:30px; font-family: monospace"">A</span>"," ","","exp-sent","A","","",""
"","805","html-keyboard-response","156","207205","0.0-3.0-1.117","<span style=""font-size:30px; font-family: monospace"">senhora</span>"," ","","exp-sent","senhora","","",""
"","684","html-keyboard-response","157","208154","0.0-3.0-1.118","<span style=""font-size:30px; font-family: monospace"">cumprimentou</span>"," ","","exp-sent","cumprimentou","","",""
"","500","html-keyboard-response","158","208906","0.0-3.0-1.119","<span style=""font-size:30px; font-family: monospace"">o</span>"," ","","exp-sent","o","","",""
"","604","html-keyboard-response","159","209761","0.0-3.0-1.120","<span style=""font-size:30px; font-family: monospace"">operador</span>"," ","","exp-sent","operador","","",""
"","453","html-keyboard-response","160","210477","0.0-3.0-1.121","<span style=""font-size:30px; font-family: monospace"">de</span>"," ","","exp-sent","de","","",""
"","522","html-keyboard-response","161","211259","0.0-3.0-1.122","<span style=""font-size:30px; font-family: monospace"">caixa.</span>"," ","","exp-sent","caixa.","","",""
"","null","html-keyboard-response","162","212529","0.0-3.0-0.123-0.123","<span style= ""font-size:30px; font-family: monospace"">+</span>","null","fixation","","","","",""
"","559","html-keyboard-response","163","213346","0.0-3.0-1.123","<span style=""font-size:30px; font-family: monospace"">A</span>"," ","","exp-sent","A","","",""
"","593","html-keyboard-response","164","214203","0.0-3.0-1.124","<span style=""font-size:30px; font-family: monospace"">gente</span>"," ","","exp-sent","gente","","",""
"","521","html-keyboard-response","165","214992","0.0-3.0-1.125","<span style=""font-size:30px; font-family: monospace"">viu</span>"," ","","exp-sent","viu","","",""
"","430","html-keyboard-response","166","215682","0.0-3.0-1.126","<span style=""font-size:30px; font-family: monospace"">o</span>"," ","","exp-sent","o","","",""
"","495","html-keyboard-response","167","216429","0.0-3.0-1.127","<span style=""font-size:30px; font-family: monospace"">eclipse</span>"," ","","exp-sent","eclipse","","",""
"","366","html-keyboard-response","168","217061","0.0-3.0-1.128","<span style=""font-size:30px; font-family: monospace"">lunar</span>"," ","","exp-sent","lunar","","",""
"","458","html-keyboard-response","169","217775","0.0-3.0-1.129","<span style=""font-size:30px; font-family: monospace"">durante</span>"," ","","exp-sent","durante","","",""
"","447","html-keyboard-response","170","218485","0.0-3.0-1.130","<span style=""font-size:30px; font-family: monospace"">o</span>"," ","","exp-sent","o","","",""
"","526","html-keyboard-response","171","219270","0.0-3.0-1.131","<span style=""font-size:30px; font-family: monospace"">dia.</span>"," ","","exp-sent","dia.","","",""
"","null","html-keyboard-response","172","220535","0.0-3.0-0.132-0.132","<span style= ""font-size:30px; font-family: monospace"">+</span>","null","fixation","","","","",""
"","51","html-keyboard-response","173","220850","0.0-3.0-1.132","<span style=""font-size:30px; font-family: monospace"">A</span>"," ","","exp-sent","A","","",""
"","692","html-keyboard-response","174","221794","0.0-3.0-1.133","<span style=""font-size:30px; font-family: monospace"">mordida</span>"," ","","exp-sent","mordida","","",""
"","448","html-keyboard-response","175","222507","0.0-3.0-1.134","<span style=""font-size:30px; font-family: monospace"">do</span>"," ","","exp-sent","do","","",""
"","618","html-keyboard-response","176","223386","0.0-3.0-1.135","<span style=""font-size:30px; font-family: monospace"">cachorro</span>"," ","","exp-sent","cachorro","","",""
"","511","html-keyboard-response","177","224157","0.0-3.0-1.136","<span style=""font-size:30px; font-family: monospace"">voraz</span>"," ","","exp-sent","voraz","","",""
"","569","html-keyboard-response","178","224994","0.0-3.0-1.137","<span style=""font-size:30px; font-family: monospace"">causou</span>"," ","","exp-sent","causou","","",""
"","442","html-keyboard-response","179","225691","0.0-3.0-1.138","<span style=""font-size:30px; font-family: monospace"">uma</span>"," ","","exp-sent","uma","","",""
"","711","html-keyboard-response","180","226657","0.0-3.0-1.139","<span style=""font-size:30px; font-family: monospace"">cicatriz.</span>"," ","","exp-sent","cicatriz.","","",""
"","null","html-keyboard-response","181","227929","0.0-3.0-0.140-0.140","<span style= ""font-size:30px; font-family: monospace"">+</span>","null","fixation","","","","",""
"","704","html-keyboard-response","182","228900","0.0-3.0-1.140","<span style=""font-size:30px; font-family: monospace"">Elas</span>"," ","","exp-sent","Elas","","",""
"","501","html-keyboard-response","183","229667","0.0-3.0-1.141","<span style=""font-size:30px; font-family: monospace"">não</span>"," ","","exp-sent","não","","",""
"","531","html-keyboard-response","184","230457","0.0-3.0-1.142","<span style=""font-size:30px; font-family: monospace"">viram</span>"," ","","exp-sent","viram","","",""
"","555","html-keyboard-response","185","231270","0.0-3.0-1.143","<span style=""font-size:30px; font-family: monospace"">nenhuma</span>"," ","","exp-sent","nenhuma","","",""
"","525","html-keyboard-response","186","232059","0.0-3.0-1.144","<span style=""font-size:30px; font-family: monospace"">diferença</span>"," ","","exp-sent","diferença","","",""
"","487","html-keyboard-response","187","232798","0.0-3.0-1.145","<span style=""font-size:30px; font-family: monospace"">entre</span>"," ","","exp-sent","entre","","",""
"","699","html-keyboard-response","188","233761","0.0-3.0-1.146","<span style=""font-size:30px; font-family: monospace"">os</span>"," ","","exp-sent","os","","",""
"","554","html-keyboard-response","189","234567","0.0-3.0-1.147","<span style=""font-size:30px; font-family: monospace"">textos.</span>"," ","","exp-sent","textos.","","",""
"","null","html-keyboard-response","190","235837","0.0-3.0-0.148-0.148","<span style= ""font-size:30px; font-family: monospace"">+</span>","null","fixation","","","","",""
"","826","html-keyboard-response","191","236919","0.0-3.0-1.148","<span style=""font-size:30px; font-family: monospace"">Amanhã</span>"," ","","exp-sent","Amanhã","","",""
"","545","html-keyboard-response","192","237718","0.0-3.0-1.149","<span style=""font-size:30px; font-family: monospace"">vai</span>"," ","","exp-sent","vai","","",""
"","629","html-keyboard-response","193","238607","0.0-3.0-1.150","<span style=""font-size:30px; font-family: monospace"">ter</span>"," ","","exp-sent","ter","","",""
"","557","html-keyboard-response","194","239428","0.0-3.0-1.151","<span style=""font-size:30px; font-family: monospace"">um</span>"," ","","exp-sent","um","","",""
"","526","html-keyboard-response","195","240210","0.0-3.0-1.152","<span style=""font-size:30px; font-family: monospace"">bazar</span>"," ","","exp-sent","bazar","","",""
"","603","html-keyboard-response","196","241078","0.0-3.0-1.153","<span style=""font-size:30px; font-family: monospace"">no</span>"," ","","exp-sent","no","","",""
"","594","html-keyboard-response","197","241935","0.0-3.0-1.154","<span style=""font-size:30px; font-family: monospace"">bairro.</span>"," ","","comp","bairro.","","",""
"","4088","html-keyboard-response","198","246285","0.0-3.0-2.154-0.154","<span style=""font-size:30px; font-family: monospace"">Amanhã vai acontecer um bazar no bairro?</span>","s","","comp","","Amanhã vai acontecer um bazar no bairro?","sim","false"
"","null","html-keyboard-response","199","247797","0.0-3.0-0.155-0.155","<span style= ""font-size:30px; font-family: monospace"">+</span>","null","fixation","","","","",""
"","914","html-keyboard-response","200","248970","0.0-3.0-1.155","<span style=""font-size:30px; font-family: monospace"">Este</span>"," ","","exp-sent","Este","","",""
"","909","html-keyboard-response","201","250136","0.0-3.0-1.156","<span style=""font-size:30px; font-family: monospace"">conto</span>"," ","","exp-sent","conto","","",""
"","679","html-keyboard-response","202","251082","0.0-3.0-1.157","<span style=""font-size:30px; font-family: monospace"">tem</span>"," ","","exp-sent","tem","","",""
"","620","html-keyboard-response","203","251967","0.0-3.0-1.158","<span style=""font-size:30px; font-family: monospace"">um</span>"," ","","exp-sent","um","","",""
"","731","html-keyboard-response","204","252953","0.0-3.0-1.159","<span style=""font-size:30px; font-family: monospace"">final</span>"," ","","exp-sent","final","","",""
"","88","html-keyboard-response","205","253307","0.0-3.0-1.160","<span style=""font-size:30px; font-family: monospace"">perfeito.</span>"," ","","exp-sent","perfeito.","","",""
"","null","html-keyboard-response","206","254584","0.0-3.0-0.161-0.161","<span style= ""font-size:30px; font-family: monospace"">+</span>","null","fixation","","","","",""
"","852","html-keyboard-response","207","255701","0.0-3.0-1.161","<span style=""font-size:30px; font-family: monospace"">Ele</span>"," ","","exp-sent","Ele","","",""
"","581","html-keyboard-response","208","256547","0.0-3.0-1.162","<span style=""font-size:30px; font-family: monospace"">precisa</span>"," ","","exp-sent","precisa","","",""
"","533","html-keyboard-response","209","257335","0.0-3.0-1.163","<span style=""font-size:30px; font-family: monospace"">de</span>"," ","","exp-sent","de","","",""
"","431","html-keyboard-response","210","258030","0.0-3.0-1.164","<span style=""font-size:30px; font-family: monospace"">um</span>"," ","","exp-sent","um","","",""
"","457","html-keyboard-response","211","258748","0.0-3.0-1.165","<span style=""font-size:30px; font-family: monospace"">protetor</span>"," ","","exp-sent","protetor","","",""
"","497","html-keyboard-response","212","259499","0.0-3.0-1.166","<span style=""font-size:30px; font-family: monospace"">de</span>"," ","","exp-sent","de","","",""
"","479","html-keyboard-response","213","260230","0.0-3.0-1.167","<span style=""font-size:30px; font-family: monospace"">ouvido.</span>"," ","","exp-sent","ouvido.","","",""
"","null","html-keyboard-response","214","261495","0.0-3.0-0.168-0.168","<span style= ""font-size:30px; font-family: monospace"">+</span>","null","fixation","","","","",""
"","633","html-keyboard-response","215","262393","0.0-3.0-1.168","<span style=""font-size:30px; font-family: monospace"">Os</span>"," ","","exp-sent","Os","","",""
"","691","html-keyboard-response","216","263339","0.0-3.0-1.169","<span style=""font-size:30px; font-family: monospace"">hábitos</span>"," ","","exp-sent","hábitos","","",""
"","472","html-keyboard-response","217","264076","0.0-3.0-1.170","<span style=""font-size:30px; font-family: monospace"">de</span>"," ","","exp-sent","de","","",""
"","522","html-keyboard-response","218","264859","0.0-3.0-1.171","<span style=""font-size:30px; font-family: monospace"">lugares</span>"," ","","exp-sent","lugares","","",""
"","527","html-keyboard-response","219","265639","0.0-3.0-1.172","<span style=""font-size:30px; font-family: monospace"">diferentes</span>"," ","","exp-sent","diferentes","","",""
"","571","html-keyboard-response","220","266469","0.0-3.0-1.173","<span style=""font-size:30px; font-family: monospace"">são</span>"," ","","exp-sent","são","","",""
"","656","html-keyboard-response","221","267386","0.0-3.0-1.174","<span style=""font-size:30px; font-family: monospace"">muito</span>"," ","","exp-sent","muito","","",""
"","521","html-keyboard-response","222","268167","0.0-3.0-1.175","<span style=""font-size:30px; font-family: monospace"">lindos.</span>"," ","","exp-sent","lindos.","","",""
"","null","html-keyboard-response","223","269430","0.0-3.0-0.176-0.176","<span style= ""font-size:30px; font-family: monospace"">+</span>","null","fixation","","","","",""
"","415","html-keyboard-response","224","270110","0.0-3.0-1.176","<span style=""font-size:30px; font-family: monospace"">O</span>"," ","","exp-sent","O","","",""
"","708","html-keyboard-response","225","271070","0.0-3.0-1.177","<span style=""font-size:30px; font-family: monospace"">médico</span>"," ","","exp-sent","médico","","",""
"","534","html-keyboard-response","226","271858","0.0-3.0-1.178","<span style=""font-size:30px; font-family: monospace"">corrigiu</span>"," ","","exp-sent","corrigiu","","",""
"","469","html-keyboard-response","227","272593","0.0-3.0-1.179","<span style=""font-size:30px; font-family: monospace"">a</span>"," ","","exp-sent","a","","",""
"","449","html-keyboard-response","228","273308","0.0-3.0-1.180","<span style=""font-size:30px; font-family: monospace"">postura</span>"," ","","exp-sent","postura","","",""
"","494","html-keyboard-response","229","274054","0.0-3.0-1.181","<span style=""font-size:30px; font-family: monospace"">das</span>"," ","","exp-sent","das","","",""
"","640","html-keyboard-response","230","274947","0.0-3.0-1.182","<span style=""font-size:30px; font-family: monospace"">costas</span>"," ","","exp-sent","costas","","",""
"","478","html-keyboard-response","231","275687","0.0-3.0-1.183","<span style=""font-size:30px; font-family: monospace"">da</span>"," ","","exp-sent","da","","",""
"","514","html-keyboard-response","232","276452","0.0-3.0-1.184","<span style=""font-size:30px; font-family: monospace"">pessoa.</span>"," ","","exp-sent","pessoa.","","",""
"","null","html-keyboard-response","233","277719","0.0-3.0-0.185-0.185","<span style= ""font-size:30px; font-family: monospace"">+</span>","null","fixation","","","","",""
"","669","html-keyboard-response","234","278648","0.0-3.0-1.185","<span style=""font-size:30px; font-family: monospace"">Aquele</span>"," ","","exp-sent","Aquele","","",""
"","548","html-keyboard-response","235","279455","0.0-3.0-1.186","<span style=""font-size:30px; font-family: monospace"">era</span>"," ","","exp-sent","era","","",""
"","584","html-keyboard-response","236","280293","0.0-3.0-1.187","<span style=""font-size:30px; font-family: monospace"">um</span>"," ","","exp-sent","um","","",""
"","583","html-keyboard-response","237","281128","0.0-3.0-1.188","<span style=""font-size:30px; font-family: monospace"">caso</span>"," ","","exp-sent","caso","","",""
"","553","html-keyboard-response","238","281940","0.0-3.0-1.189","<span style=""font-size:30px; font-family: monospace"">real</span>"," ","","exp-sent","real","","",""
"","514","html-keyboard-response","239","282718","0.0-3.0-1.190","<span style=""font-size:30px; font-family: monospace"">de</span>"," ","","exp-sent","de","","",""
"","647","html-keyboard-response","240","283616","0.0-3.0-1.191","<span style=""font-size:30px; font-family: monospace"">sequestro</span>"," ","","exp-sent","sequestro","","",""
"","692","html-keyboard-response","241","284562","0.0-3.0-1.192","<span style=""font-size:30px; font-family: monospace"">premeditado.</span>"," ","","comp","premeditado.","","",""
"","2398","html-keyboard-response","242","287221","0.0-3.0-2.192-0.192","<span style=""font-size:30px; font-family: monospace"">Aquele era um caso real de roubo?</span>","n","","comp","","Aquele era um caso real de roubo?","não","false"
"","null","html-keyboard-response","243","288735","0.0-3.0-0.193-0.193","<span style= ""font-size:30px; font-family: monospace"">+</span>","null","fixation","","","","",""
"","561","html-keyboard-response","244","289566","0.0-3.0-1.193","<span style=""font-size:30px; font-family: monospace"">A</span>"," ","","exp-sent","A","","",""
"","644","html-keyboard-response","245","290464","0.0-3.0-1.194","<span style=""font-size:30px; font-family: monospace"">motorista</span>"," ","","exp-sent","motorista","","",""
"","619","html-keyboard-response","246","291337","0.0-3.0-1.195","<span style=""font-size:30px; font-family: monospace"">fez</span>"," ","","exp-sent","fez","","",""
"","474","html-keyboard-response","247","292078","0.0-3.0-1.196","<span style=""font-size:30px; font-family: monospace"">o</span>"," ","","exp-sent","o","","",""
"","571","html-keyboard-response","248","292905","0.0-3.0-1.197","<span style=""font-size:30px; font-family: monospace"">retorno</span>"," ","","exp-sent","retorno","","",""
"","456","html-keyboard-response","249","293628","0.0-3.0-1.198","<span style=""font-size:30px; font-family: monospace"">com</span>"," ","","exp-sent","com","","",""
"","470","html-keyboard-response","250","294356","0.0-3.0-1.199","<span style=""font-size:30px; font-family: monospace"">cuidado.</span>"," ","","exp-sent","cuidado.","","",""
"","null","html-keyboard-response","251","295619","0.0-3.0-0.200-0.200","<span style= ""font-size:30px; font-family: monospace"">+</span>","null","fixation","","","","",""
"","619","html-keyboard-response","252","296502","0.0-3.0-1.200","<span style=""font-size:30px; font-family: monospace"">Contos</span>"," ","","exp-sent","Contos","","",""
"","525","html-keyboard-response","253","297290","0.0-3.0-1.201","<span style=""font-size:30px; font-family: monospace"">de</span>"," ","","exp-sent","de","","",""
"","607","html-keyboard-response","254","298154","0.0-3.0-1.202","<span style=""font-size:30px; font-family: monospace"">ação</span>"," ","","exp-sent","ação","","",""
"","481","html-keyboard-response","255","298898","0.0-3.0-1.203","<span style=""font-size:30px; font-family: monospace"">têm</span>"," ","","exp-sent","têm","","",""
"","433","html-keyboard-response","256","299587","0.0-3.0-1.204","<span style=""font-size:30px; font-family: monospace"">chantagem</span>"," ","","exp-sent","chantagem","","",""
"","468","html-keyboard-response","257","300318","0.0-3.0-1.205","<span style=""font-size:30px; font-family: monospace"">e</span>"," ","","exp-sent","e","","",""
"","401","html-keyboard-response","258","300982","0.0-3.0-1.206","<span style=""font-size:30px; font-family: monospace"">muita</span>"," ","","exp-sent","muita","","",""
"","539","html-keyboard-response","259","301799","0.0-3.0-1.207","<span style=""font-size:30px; font-family: monospace"">luta.</span>"," ","","exp-sent","luta.","","",""
"","null","html-keyboard-response","260","303056","0.0-3.0-0.208-0.208","<span style= ""font-size:30px; font-family: monospace"">+</span>","null","fixation","","","","",""
"","697","html-keyboard-response","261","304009","0.0-3.0-1.208","<span style=""font-size:30px; font-family: monospace"">A</span>"," ","","exp-sent","A","","",""
"","408","html-keyboard-response","262","304674","0.0-3.0-1.209","<span style=""font-size:30px; font-family: monospace"">bisavó</span>"," ","","exp-sent","bisavó","","",""
"","556","html-keyboard-response","263","305483","0.0-3.0-1.210","<span style=""font-size:30px; font-family: monospace"">recebeu</span>"," ","","exp-sent","recebeu","","",""
"","521","html-keyboard-response","264","306264","0.0-3.0-1.211","<span style=""font-size:30px; font-family: monospace"">um</span>"," ","","exp-sent","um","","",""
"","473","html-keyboard-response","265","307001","0.0-3.0-1.212","<span style=""font-size:30px; font-family: monospace"">benefício</span>"," ","","exp-sent","benefício","","",""
"","352","html-keyboard-response","266","307618","0.0-3.0-1.213","<span style=""font-size:30px; font-family: monospace"">temporário</span>"," ","","exp-sent","temporário","","",""
"","445","html-keyboard-response","267","308319","0.0-3.0-1.214","<span style=""font-size:30px; font-family: monospace"">do</span>"," ","","exp-sent","do","","",""
"","501","html-keyboard-response","268","309077","0.0-3.0-1.215","<span style=""font-size:30px; font-family: monospace"">governo.</span>"," ","","exp-sent","governo.","","",""
"","null","html-keyboard-response","269","310340","0.0-3.0-0.216-0.216","<span style= ""font-size:30px; font-family: monospace"">+</span>","null","fixation","","","","",""
"","489","html-keyboard-response","270","311096","0.0-3.0-1.216","<span style=""font-size:30px; font-family: monospace"">As</span>"," ","","exp-sent","As","","",""
"","450","html-keyboard-response","271","311808","0.0-3.0-1.217","<span style=""font-size:30px; font-family: monospace"">crianças</span>"," ","","exp-sent","crianças","","",""
"","481","html-keyboard-response","272","312553","0.0-3.0-1.218","<span style=""font-size:30px; font-family: monospace"">brincaram</span>"," ","","exp-sent","brincaram","","",""
"","438","html-keyboard-response","273","313249","0.0-3.0-1.219","<span style=""font-size:30px; font-family: monospace"">no</span>"," ","","exp-sent","no","","",""
"","496","html-keyboard-response","274","314000","0.0-3.0-1.220","<span style=""font-size:30px; font-family: monospace"">balanço</span>"," ","","exp-sent","balanço","","",""
"","464","html-keyboard-response","275","314723","0.0-3.0-1.221","<span style=""font-size:30px; font-family: monospace"">a</span>"," ","","exp-sent","a","","",""
"","524","html-keyboard-response","276","315514","0.0-3.0-1.222","<span style=""font-size:30px; font-family: monospace"">tarde</span>"," ","","exp-sent","tarde","","",""
"","616","html-keyboard-response","277","316389","0.0-3.0-1.223","<span style=""font-size:30px; font-family: monospace"">toda.</span>"," ","","exp-sent","toda.","","",""
"","null","html-keyboard-response","278","317668","0.0-3.0-0.224-0.224","<span style= ""font-size:30px; font-family: monospace"">+</span>","null","fixation","","","","",""
"","639","html-keyboard-response","279","318562","0.0-3.0-1.224","<span style=""font-size:30px; font-family: monospace"">Ela</span>"," ","","exp-sent","Ela","","",""
"","481","html-keyboard-response","280","319303","0.0-3.0-1.225","<span style=""font-size:30px; font-family: monospace"">gosta</span>"," ","","exp-sent","gosta","","",""
"","600","html-keyboard-response","281","320155","0.0-3.0-1.226","<span style=""font-size:30px; font-family: monospace"">de</span>"," ","","exp-sent","de","","",""
"","520","html-keyboard-response","282","320926","0.0-3.0-1.227","<span style=""font-size:30px; font-family: monospace"">comida</span>"," ","","exp-sent","comida","","",""
"","476","html-keyboard-response","283","321660","0.0-3.0-1.228","<span style=""font-size:30px; font-family: monospace"">natural</span>"," ","","exp-sent","natural","","",""
"","541","html-keyboard-response","284","322477","0.0-3.0-1.229","<span style=""font-size:30px; font-family: monospace"">no</span>"," ","","exp-sent","no","","",""
"","522","html-keyboard-response","285","323265","0.0-3.0-1.230","<span style=""font-size:30px; font-family: monospace"">almoço.</span>"," ","","comp","almoço.","","",""
"","2644","html-keyboard-response","286","326165","0.0-3.0-2.230-0.230","<span style=""font-size:30px; font-family: monospace"">Ela gosta de comida natural no almoço?</span>","s","","comp","","Ela gosta de comida natural no almoço?","sim","false"
"","null","html-keyboard-response","287","327682","0.0-3.0-0.231-0.231","<span style= ""font-size:30px; font-family: monospace"">+</span>","null","fixation","","","","",""
"","504","html-keyboard-response","288","328440","0.0-3.0-1.231","<span style=""font-size:30px; font-family: monospace"">As</span>"," ","","exp-sent","As","","",""
"","517","html-keyboard-response","289","329218","0.0-3.0-1.232","<span style=""font-size:30px; font-family: monospace"">crianças</span>"," ","","exp-sent","crianças","","",""
"","430","html-keyboard-response","290","329903","0.0-3.0-1.233","<span style=""font-size:30px; font-family: monospace"">viram</span>"," ","","exp-sent","viram","","",""
"","410","html-keyboard-response","291","330584","0.0-3.0-1.234","<span style=""font-size:30px; font-family: monospace"">um</span>"," ","","exp-sent","um","","",""
"","457","html-keyboard-response","292","331291","0.0-3.0-1.235","<span style=""font-size:30px; font-family: monospace"">vaga-lume</span>"," ","","exp-sent","vaga-lume","","",""
"","504","html-keyboard-response","293","332056","0.0-3.0-1.236","<span style=""font-size:30px; font-family: monospace"">nos</span>"," ","","exp-sent","nos","","",""
"","440","html-keyboard-response","294","332759","0.0-3.0-1.237","<span style=""font-size:30px; font-family: monospace"">arbustos.</span>"," ","","exp-sent","arbustos.","","",""
"","null","html-keyboard-response","295","334028","0.0-3.0-0.238-0.238","<span style= ""font-size:30px; font-family: monospace"">+</span>","null","fixation","","","","",""
"","502","html-keyboard-response","296","334787","0.0-3.0-1.238","<span style=""font-size:30px; font-family: monospace"">Ontem</span>"," ","","exp-sent","Ontem","","",""
"","445","html-keyboard-response","297","335492","0.0-3.0-1.239","<span style=""font-size:30px; font-family: monospace"">o</span>"," ","","exp-sent","o","","",""
"","600","html-keyboard-response","298","336345","0.0-3.0-1.240","<span style=""font-size:30px; font-family: monospace"">funcionário</span>"," ","","exp-sent","funcionário","","",""
"","431","html-keyboard-response","299","337030","0.0-3.0-1.241","<span style=""font-size:30px; font-family: monospace"">pediu</span>"," ","","exp-sent","pediu","","",""
"","594","html-keyboard-response","300","337875","0.0-3.0-1.242","<span style=""font-size:30px; font-family: monospace"">autorização</span>"," ","","exp-sent","autorização","","",""
"","448","html-keyboard-response","301","338576","0.0-3.0-1.243","<span style=""font-size:30px; font-family: monospace"">para</span>"," ","","exp-sent","para","","",""
"","497","html-keyboard-response","302","339326","0.0-3.0-1.244","<span style=""font-size:30px; font-family: monospace"">a</span>"," ","","exp-sent","a","","",""
"","597","html-keyboard-response","303","340176","0.0-3.0-1.245","<span style=""font-size:30px; font-family: monospace"">colega.</span>"," ","","exp-sent","colega.","","",""
"","null","html-keyboard-response","304","341436","0.0-3.0-0.246-0.246","<span style= ""font-size:30px; font-family: monospace"">+</span>","null","fixation","","","","",""
"","464","html-keyboard-response","305","342158","0.0-3.0-1.246","<span style=""font-size:30px; font-family: monospace"">Eu</span>"," ","","exp-sent","Eu","","",""
"","468","html-keyboard-response","306","342887","0.0-3.0-1.247","<span style=""font-size:30px; font-family: monospace"">sempre</span>"," ","","exp-sent","sempre","","",""
"","455","html-keyboard-response","307","343607","0.0-3.0-1.248","<span style=""font-size:30px; font-family: monospace"">fujo</span>"," ","","exp-sent","fujo","","",""
"","355","html-keyboard-response","308","344216","0.0-3.0-1.249","<span style=""font-size:30px; font-family: monospace"">de</span>"," ","","exp-sent","de","","",""
"","462","html-keyboard-response","309","344940","0.0-3.0-1.250","<span style=""font-size:30px; font-family: monospace"">conflito</span>"," ","","exp-sent","conflito","","",""
"","424","html-keyboard-response","310","345618","0.0-3.0-1.251","<span style=""font-size:30px; font-family: monospace"">com</span>"," ","","exp-sent","com","","",""
"","319","html-keyboard-response","311","346194","0.0-3.0-1.252","<span style=""font-size:30px; font-family: monospace"">as</span>"," ","","exp-sent","as","","",""
"","219","html-keyboard-response","312","346669","0.0-3.0-1.253","<span style=""font-size:30px; font-family: monospace"">pessoas.</span>"," ","","exp-sent","pessoas.","","",""
"","null","html-keyboard-response","313","347940","0.0-3.0-0.254-0.254","<span style= ""font-size:30px; font-family: monospace"">+</span>","null","fixation","","","","",""
"","245","html-keyboard-response","314","348438","0.0-3.0-1.254","<span style=""font-size:30px; font-family: monospace"">O</span>"," ","","exp-sent","O","","",""
"","710","html-keyboard-response","315","349405","0.0-3.0-1.255","<span style=""font-size:30px; font-family: monospace"">bolo</span>"," ","","exp-sent","bolo","","",""
"","770","html-keyboard-response","316","350437","0.0-3.0-1.256","<span style=""font-size:30px; font-family: monospace"">era</span>"," ","","exp-sent","era","","",""
"","327","html-keyboard-response","317","351019","0.0-3.0-1.257","<span style=""font-size:30px; font-family: monospace"">de</span>"," ","","exp-sent","de","","",""
"","410","html-keyboard-response","318","351689","0.0-3.0-1.258","<span style=""font-size:30px; font-family: monospace"">abacaxi</span>"," ","","exp-sent","abacaxi","","",""
"","424","html-keyboard-response","319","352367","0.0-3.0-1.259","<span style=""font-size:30px; font-family: monospace"">e</span>"," ","","exp-sent","e","","",""
"","647","html-keyboard-response","320","353269","0.0-3.0-1.260","<span style=""font-size:30px; font-family: monospace"">creme</span>"," ","","exp-sent","creme","","",""
"","277","html-keyboard-response","321","353801","0.0-3.0-1.261","<span style=""font-size:30px; font-family: monospace"">de</span>"," ","","exp-sent","de","","",""
"","687","html-keyboard-response","322","354745","0.0-3.0-1.262","<span style=""font-size:30px; font-family: monospace"">coco.</span>"," ","","exp-sent","coco.","","",""
"","null","html-keyboard-response","323","356019","0.0-3.0-0.263-0.263","<span style= ""font-size:30px; font-family: monospace"">+</span>","null","fixation","","","","",""
"","520","html-keyboard-response","324","356793","0.0-3.0-1.263","<span style=""font-size:30px; font-family: monospace"">As</span>"," ","","exp-sent","As","","",""
"","473","html-keyboard-response","325","357523","0.0-3.0-1.264","<span style=""font-size:30px; font-family: monospace"">crianças</span>"," ","","exp-sent","crianças","","",""
"","419","html-keyboard-response","326","358206","0.0-3.0-1.265","<span style=""font-size:30px; font-family: monospace"">brincaram</span>"," ","","exp-sent","brincaram","","",""
"","385","html-keyboard-response","327","358857","0.0-3.0-1.266","<span style=""font-size:30px; font-family: monospace"">com</span>"," ","","exp-sent","com","","",""
"","456","html-keyboard-response","328","359570","0.0-3.0-1.267","<span style=""font-size:30px; font-family: monospace"">bolhas</span>"," ","","exp-sent","bolhas","","",""
"","532","html-keyboard-response","329","360353","0.0-3.0-1.268","<span style=""font-size:30px; font-family: monospace"">no</span>"," ","","exp-sent","no","","",""
"","500","html-keyboard-response","330","361112","0.0-3.0-1.269","<span style=""font-size:30px; font-family: monospace"">banho.</span>"," ","","comp","banho.","","",""
"","3931","html-keyboard-response","331","365301","0.0-3.0-2.269-0.269","<span style=""font-size:30px; font-family: monospace"">As crianças brincaram com bolhas?</span>","n","","comp","","As crianças brincaram com bolhas?","sim","false"
"","null","html-keyboard-response","332","366819","0.0-3.0-0.270-0.270","<span style= ""font-size:30px; font-family: monospace"">+</span>","null","fixation","","","","",""
"","1209","html-keyboard-response","333","368291","0.0-3.0-1.270","<span style=""font-size:30px; font-family: monospace"">Ele</span>"," ","","exp-sent","Ele","","",""
"","488","html-keyboard-response","334","369035","0.0-3.0-1.271","<span style=""font-size:30px; font-family: monospace"">é</span>"," ","","exp-sent","é","","",""
"","438","html-keyboard-response","335","369731","0.0-3.0-1.272","<span style=""font-size:30px; font-family: monospace"">um</span>"," ","","exp-sent","um","","",""
"","441","html-keyboard-response","336","370431","0.0-3.0-1.273","<span style=""font-size:30px; font-family: monospace"">pai</span>"," ","","exp-sent","pai","","",""
"","933","html-keyboard-response","337","371624","0.0-3.0-1.274","<span style=""font-size:30px; font-family: monospace"">ausente</span>"," ","","exp-sent","ausente","","",""
"","509","html-keyboard-response","338","372395","0.0-3.0-1.275","<span style=""font-size:30px; font-family: monospace"">e</span>"," ","","exp-sent","e","","",""
"","345","html-keyboard-response","339","373003","0.0-3.0-1.276","<span style=""font-size:30px; font-family: monospace"">muito</span>"," ","","exp-sent","muito","","",""
"","361","html-keyboard-response","340","373637","0.0-3.0-1.277","<span style=""font-size:30px; font-family: monospace"">fofoqueiro.</span>"," ","","exp-sent","fofoqueiro.","","",""
"","null","html-keyboard-response","341","374907","0.0-3.0-0.278-0.278","<span style= ""font-size:30px; font-family: monospace"">+</span>","null","fixation","","","","",""
"","264","html-keyboard-response","342","375436","0.0-3.0-1.278","<span style=""font-size:30px; font-family: monospace"">O</span>"," ","","exp-sent","O","","",""
"","493","html-keyboard-response","343","376187","0.0-3.0-1.279","<span style=""font-size:30px; font-family: monospace"">filho</span>"," ","","exp-sent","filho","","",""
"","390","html-keyboard-response","344","376836","0.0-3.0-1.280","<span style=""font-size:30px; font-family: monospace"">lavou</span>"," ","","exp-sent","lavou","","",""
"","375","html-keyboard-response","345","377473","0.0-3.0-1.281","<span style=""font-size:30px; font-family: monospace"">a</span>"," ","","exp-sent","a","","",""
"","413","html-keyboard-response","346","378144","0.0-3.0-1.282","<span style=""font-size:30px; font-family: monospace"">roupa</span>"," ","","exp-sent","roupa","","",""
"","372","html-keyboard-response","347","378769","0.0-3.0-1.283","<span style=""font-size:30px; font-family: monospace"">sem</span>"," ","","exp-sent","sem","","",""
"","419","html-keyboard-response","348","379446","0.0-3.0-1.284","<span style=""font-size:30px; font-family: monospace"">nenhuma</span>"," ","","exp-sent","nenhuma","","",""
"","287","html-keyboard-response","349","379994","0.0-3.0-1.285","<span style=""font-size:30px; font-family: monospace"">ajuda.</span>"," ","","exp-sent","ajuda.","","",""
"","null","html-keyboard-response","350","381262","0.0-3.0-0.286-0.286","<span style= ""font-size:30px; font-family: monospace"">+</span>","null","fixation","","","","",""
"","492","html-keyboard-response","351","382024","0.0-3.0-1.286","<span style=""font-size:30px; font-family: monospace"">O</span>"," ","","exp-sent","O","","",""
"","396","html-keyboard-response","352","382673","0.0-3.0-1.287","<span style=""font-size:30px; font-family: monospace"">menino</span>"," ","","exp-sent","menino","","",""
"","608","html-keyboard-response","353","383547","0.0-3.0-1.288","<span style=""font-size:30px; font-family: monospace"">quebrou</span>"," ","","exp-sent","quebrou","","",""
"","520","html-keyboard-response","354","384332","0.0-3.0-1.289","<span style=""font-size:30px; font-family: monospace"">a</span>"," ","","exp-sent","a","","",""
"","653","html-keyboard-response","355","385244","0.0-3.0-1.290","<span style=""font-size:30px; font-family: monospace"">perna</span>"," ","","exp-sent","perna","","",""
"","532","html-keyboard-response","356","386040","0.0-3.0-1.291","<span style=""font-size:30px; font-family: monospace"">nos</span>"," ","","exp-sent","nos","","",""
"","675","html-keyboard-response","357","386974","0.0-3.0-1.292","<span style=""font-size:30px; font-family: monospace"">esportes.</span>"," ","","exp-sent","esportes.","","",""
"","null","html-keyboard-response","358","388240","0.0-3.0-0.293-0.293","<span style= ""font-size:30px; font-family: monospace"">+</span>","null","fixation","","","","",""
"","104","html-keyboard-response","359","388609","0.0-3.0-1.293","<span style=""font-size:30px; font-family: monospace"">Ela</span>"," ","","exp-sent","Ela","","",""
"","872","html-keyboard-response","360","389740","0.0-3.0-1.294","<span style=""font-size:30px; font-family: monospace"">brincou</span>"," ","","exp-sent","brincou","","",""
"","429","html-keyboard-response","361","390422","0.0-3.0-1.295","<span style=""font-size:30px; font-family: monospace"">com</span>"," ","","exp-sent","com","","",""
"","461","html-keyboard-response","362","391137","0.0-3.0-1.296","<span style=""font-size:30px; font-family: monospace"">uma</span>"," ","","exp-sent","uma","","",""
"","435","html-keyboard-response","363","391824","0.0-3.0-1.297","<span style=""font-size:30px; font-family: monospace"">menina</span>"," ","","exp-sent","menina","","",""
"","392","html-keyboard-response","364","392469","0.0-3.0-1.298","<span style=""font-size:30px; font-family: monospace"">da</span>"," ","","exp-sent","da","","",""
"","481","html-keyboard-response","365","393204","0.0-3.0-1.299","<span style=""font-size:30px; font-family: monospace"">turma.</span>"," ","","exp-sent","turma.","","",""
"","null","html-keyboard-response","366","394460","0.0-3.0-0.300-0.300","<span style= ""font-size:30px; font-family: monospace"">+</span>","null","fixation","","","","",""
"","682","html-keyboard-response","367","395401","0.0-3.0-1.300","<span style=""font-size:30px; font-family: monospace"">Ele</span>"," ","","exp-sent","Ele","","",""
"","562","html-keyboard-response","368","396221","0.0-3.0-1.301","<span style=""font-size:30px; font-family: monospace"">esteve</span>"," ","","exp-sent","esteve","","",""
"","489","html-keyboard-response","369","396967","0.0-3.0-1.302","<span style=""font-size:30px; font-family: monospace"">no</span>"," ","","exp-sent","no","","",""
"","577","html-keyboard-response","370","397795","0.0-3.0-1.303","<span style=""font-size:30px; font-family: monospace"">escritório</span>"," ","","exp-sent","escritório","","",""
"","468","html-keyboard-response","371","398521","0.0-3.0-1.304","<span style=""font-size:30px; font-family: monospace"">o</span>"," ","","exp-sent","o","","",""
"","496","html-keyboard-response","372","399282","0.0-3.0-1.305","<span style=""font-size:30px; font-family: monospace"">dia</span>"," ","","exp-sent","dia","","",""
"","457","html-keyboard-response","373","399991","0.0-3.0-1.306","<span style=""font-size:30px; font-family: monospace"">inteiro.</span>"," ","","comp","inteiro.","","",""
"","4871","html-keyboard-response","374","405114","0.0-3.0-2.306-0.306","<span style=""font-size:30px; font-family: monospace"">Ele esteve no parque o dia inteiro?</span>","s","","comp","","Ele esteve no parque o dia inteiro?","não","false"
"","null","html-keyboard-response","375","406635","0.0-3.0-0.307-0.307","<span style= ""font-size:30px; font-family: monospace"">+</span>","null","fixation","","","","",""
"","634","html-keyboard-response","376","407531","0.0-3.0-1.307","<span style=""font-size:30px; font-family: monospace"">Ursos</span>"," ","","exp-sent","Ursos","","",""
"","489","html-keyboard-response","377","408273","0.0-3.0-1.308","<span style=""font-size:30px; font-family: monospace"">têm</span>"," ","","exp-sent","têm","","",""
"","433","html-keyboard-response","378","408963","0.0-3.0-1.309","<span style=""font-size:30px; font-family: monospace"">uma</span>"," ","","exp-sent","uma","","",""
"","465","html-keyboard-response","379","409684","0.0-3.0-1.310","<span style=""font-size:30px; font-family: monospace"">patada</span>"," ","","exp-sent","patada","","",""
"","424","html-keyboard-response","380","410359","0.0-3.0-1.311","<span style=""font-size:30px; font-family: monospace"">brutal</span>"," ","","exp-sent","brutal","","",""
"","344","html-keyboard-response","381","410956","0.0-3.0-1.312","<span style=""font-size:30px; font-family: monospace"">e</span>"," ","","exp-sent","e","","",""
"","412","html-keyboard-response","382","411629","0.0-3.0-1.313","<span style=""font-size:30px; font-family: monospace"">poderosa.</span>"," ","","exp-sent","poderosa.","","",""
"","null","html-keyboard-response","383","412895","0.0-3.0-0.314-0.314","<span style= ""font-size:30px; font-family: monospace"">+</span>","null","fixation","","","","",""
"","388","html-keyboard-response","384","413548","0.0-3.0-1.314","<span style=""font-size:30px; font-family: monospace"">Eu</span>"," ","","exp-sent","Eu","","",""
"","442","html-keyboard-response","385","414261","0.0-3.0-1.315","<span style=""font-size:30px; font-family: monospace"">fiz</span>"," ","","exp-sent","fiz","","",""
"","408","html-keyboard-response","386","414934","0.0-3.0-1.316","<span style=""font-size:30px; font-family: monospace"">aulas</span>"," ","","exp-sent","aulas","","",""
"","435","html-keyboard-response","387","415621","0.0-3.0-1.317","<span style=""font-size:30px; font-family: monospace"">de</span>"," ","","exp-sent","de","","",""
"","567","html-keyboard-response","388","416455","0.0-3.0-1.318","<span style=""font-size:30px; font-family: monospace"">espanhol</span>"," ","","exp-sent","espanhol","","",""
"","468","html-keyboard-response","389","417178","0.0-3.0-1.319","<span style=""font-size:30px; font-family: monospace"">nesta</span>"," ","","exp-sent","nesta","","",""
"","389","html-keyboard-response","390","417832","0.0-3.0-1.320","<span style=""font-size:30px; font-family: monospace"">cidade.</span>"," ","","exp-sent","cidade.","","",""
"","null","html-keyboard-response","391","419105","0.0-3.0-0.321-0.321","<span style= ""font-size:30px; font-family: monospace"">+</span>","null","fixation","","","","",""
"","575","html-keyboard-response","392","419935","0.0-3.0-1.321","<span style=""font-size:30px; font-family: monospace"">Ele</span>"," ","","exp-sent","Ele","","",""
"","534","html-keyboard-response","393","420727","0.0-3.0-1.322","<span style=""font-size:30px; font-family: monospace"">comprou</span>"," ","","exp-sent","comprou","","",""
"","524","html-keyboard-response","394","421526","0.0-3.0-1.323","<span style=""font-size:30px; font-family: monospace"">mais</span>"," ","","exp-sent","mais","","",""
"","565","html-keyboard-response","395","422355","0.0-3.0-1.324","<span style=""font-size:30px; font-family: monospace"">uma</span>"," ","","exp-sent","uma","","",""
"","409","html-keyboard-response","396","423019","0.0-3.0-1.325","<span style=""font-size:30px; font-family: monospace"">esponja</span>"," ","","exp-sent","esponja","","",""
"","564","html-keyboard-response","397","423844","0.0-3.0-1.326","<span style=""font-size:30px; font-family: monospace"">para</span>"," ","","exp-sent","para","","",""
"","488","html-keyboard-response","398","424583","0.0-3.0-1.327","<span style=""font-size:30px; font-family: monospace"">a</span>"," ","","exp-sent","a","","",""
"","637","html-keyboard-response","399","425477","0.0-3.0-1.328","<span style=""font-size:30px; font-family: monospace"">cozinha.</span>"," ","","exp-sent","cozinha.","","",""
"","null","html-keyboard-response","400","426747","0.0-3.0-0.329-0.329","<span style= ""font-size:30px; font-family: monospace"">+</span>","null","fixation","","","","",""
"","1016","html-keyboard-response","401","428019","0.0-3.0-1.329","<span style=""font-size:30px; font-family: monospace"">Ele</span>"," ","","exp-sent","Ele","","",""
"","1057","html-keyboard-response","402","429327","0.0-3.0-1.330","<span style=""font-size:30px; font-family: monospace"">teve</span>"," ","","exp-sent","teve","","",""
"","767","html-keyboard-response","403","430361","0.0-3.0-1.331","<span style=""font-size:30px; font-family: monospace"">um</span>"," ","","exp-sent","um","","",""
"","649","html-keyboard-response","404","431267","0.0-3.0-1.332","<span style=""font-size:30px; font-family: monospace"">sono</span>"," ","","exp-sent","sono","","",""
"","597","html-keyboard-response","405","432124","0.0-3.0-1.333","<span style=""font-size:30px; font-family: monospace"">bizarro</span>"," ","","exp-sent","bizarro","","",""
"","456","html-keyboard-response","406","432843","0.0-3.0-1.334","<span style=""font-size:30px; font-family: monospace"">sem</span>"," ","","exp-sent","sem","","",""
"","567","html-keyboard-response","407","433671","0.0-3.0-1.335","<span style=""font-size:30px; font-family: monospace"">nenhum</span>"," ","","exp-sent","nenhum","","",""
"","508","html-keyboard-response","408","434450","0.0-3.0-1.336","<span style=""font-size:30px; font-family: monospace"">motivo.</span>"," ","","exp-sent","motivo.","","",""
"","null","html-keyboard-response","409","435730","0.0-3.0-0.337-0.337","<span style= ""font-size:30px; font-family: monospace"">+</span>","null","fixation","","","","",""
"","516","html-keyboard-response","410","436499","0.0-3.0-1.337","<span style=""font-size:30px; font-family: monospace"">A</span>"," ","","exp-sent","A","","",""
"","547","html-keyboard-response","411","437312","0.0-3.0-1.338","<span style=""font-size:30px; font-family: monospace"">moça</span>"," ","","exp-sent","moça","","",""
"","549","html-keyboard-response","412","438116","0.0-3.0-1.339","<span style=""font-size:30px; font-family: monospace"">comprou</span>"," ","","exp-sent","comprou","","",""
"","439","html-keyboard-response","413","438807","0.0-3.0-1.340","<span style=""font-size:30px; font-family: monospace"">um</span>"," ","","exp-sent","um","","",""
"","703","html-keyboard-response","414","439769","0.0-3.0-1.341","<span style=""font-size:30px; font-family: monospace"">diamante</span>"," ","","exp-sent","diamante","","",""
"","847","html-keyboard-response","415","440881","0.0-3.0-1.342","<span style=""font-size:30px; font-family: monospace"">para</span>"," ","","exp-sent","para","","",""
"","461","html-keyboard-response","416","441599","0.0-3.0-1.343","<span style=""font-size:30px; font-family: monospace"">sua</span>"," ","","exp-sent","sua","","",""
"","614","html-keyboard-response","417","442478","0.0-3.0-1.344","<span style=""font-size:30px; font-family: monospace"">prima.</span>"," ","","comp","prima.","","",""
"","4839","html-keyboard-response","418","447582","0.0-3.0-2.344-0.344","<span style=""font-size:30px; font-family: monospace"">A moça comprou um diamante?</span>","n","","comp","","A moça comprou um diamante?","sim","false"
"","null","html-keyboard-response","419","449114","0.0-3.0-0.345-0.345","<span style= ""font-size:30px; font-family: monospace"">+</span>","null","fixation","","","","",""
"","978","html-keyboard-response","420","450349","0.0-3.0-1.345","<span style=""font-size:30px; font-family: monospace"">Barulho</span>"," ","","exp-sent","Barulho","","",""
"","776","html-keyboard-response","421","451385","0.0-3.0-1.346","<span style=""font-size:30px; font-family: monospace"">de</span>"," ","","exp-sent","de","","",""
"","624","html-keyboard-response","422","452271","0.0-3.0-1.347","<span style=""font-size:30px; font-family: monospace"">carros</span>"," ","","exp-sent","carros","","",""
"","521","html-keyboard-response","423","453055","0.0-3.0-1.348","<span style=""font-size:30px; font-family: monospace"">é</span>"," ","","exp-sent","é","","",""
"","617","html-keyboard-response","424","453933","0.0-3.0-1.349","<span style=""font-size:30px; font-family: monospace"">irritante</span>"," ","","exp-sent","irritante","","",""
"","494","html-keyboard-response","425","454688","0.0-3.0-1.350","<span style=""font-size:30px; font-family: monospace"">para</span>"," ","","exp-sent","para","","",""
"","581","html-keyboard-response","426","455531","0.0-3.0-1.351","<span style=""font-size:30px; font-family: monospace"">a</span>"," ","","exp-sent","a","","",""
"","601","html-keyboard-response","427","456392","0.0-3.0-1.352","<span style=""font-size:30px; font-family: monospace"">moça.</span>"," ","","exp-sent","moça.","","",""
"","null","html-keyboard-response","428","457656","0.0-3.0-0.353-0.353","<span style= ""font-size:30px; font-family: monospace"">+</span>","null","fixation","","","","",""
"","586","html-keyboard-response","429","458494","0.0-3.0-1.353","<span style=""font-size:30px; font-family: monospace"">A</span>"," ","","exp-sent","A","","",""
"","657","html-keyboard-response","430","459415","0.0-3.0-1.354","<span style=""font-size:30px; font-family: monospace"">loja</span>"," ","","exp-sent","loja","","",""
"","475","html-keyboard-response","431","460149","0.0-3.0-1.355","<span style=""font-size:30px; font-family: monospace"">também</span>"," ","","exp-sent","também","","",""
"","478","html-keyboard-response","432","460893","0.0-3.0-1.356","<span style=""font-size:30px; font-family: monospace"">vende</span>"," ","","exp-sent","vende","","",""
"","542","html-keyboard-response","433","461707","0.0-3.0-1.357","<span style=""font-size:30px; font-family: monospace"">taça</span>"," ","","exp-sent","taça","","",""
"","568","html-keyboard-response","434","462541","0.0-3.0-1.358","<span style=""font-size:30px; font-family: monospace"">de</span>"," ","","exp-sent","de","","",""
"","901","html-keyboard-response","435","463694","0.0-3.0-1.359","<span style=""font-size:30px; font-family: monospace"">vinho</span>"," ","","exp-sent","vinho","","",""
"","500","html-keyboard-response","436","464469","0.0-3.0-1.360","<span style=""font-size:30px; font-family: monospace"">e</span>"," ","","exp-sent","e","","",""
"","607","html-keyboard-response","437","465330","0.0-3.0-1.361","<span style=""font-size:30px; font-family: monospace"">espumante.</span>"," ","","exp-sent","espumante.","","",""
"","null","html-keyboard-response","438","466611","0.0-3.0-0.362-0.362","<span style= ""font-size:30px; font-family: monospace"">+</span>","null","fixation","","","","",""
"","436","html-keyboard-response","439","467298","0.0-3.0-1.362","<span style=""font-size:30px; font-family: monospace"">A</span>"," ","","exp-sent","A","","",""
"","387","html-keyboard-response","440","467939","0.0-3.0-1.363","<span style=""font-size:30px; font-family: monospace"">bruxa</span>"," ","","exp-sent","bruxa","","",""
"","374","html-keyboard-response","441","468570","0.0-3.0-1.364","<span style=""font-size:30px; font-family: monospace"">tinha</span>"," ","","exp-sent","tinha","","",""
"","384","html-keyboard-response","442","469211","0.0-3.0-1.365","<span style=""font-size:30px; font-family: monospace"">uma</span>"," ","","exp-sent","uma","","",""
"","493","html-keyboard-response","443","469962","0.0-3.0-1.366","<span style=""font-size:30px; font-family: monospace"">vassoura</span>"," ","","exp-sent","vassoura","","",""
"","371","html-keyboard-response","444","470597","0.0-3.0-1.367","<span style=""font-size:30px; font-family: monospace"">e</span>"," ","","exp-sent","e","","",""
"","392","html-keyboard-response","445","471244","0.0-3.0-1.368","<span style=""font-size:30px; font-family: monospace"">um</span>"," ","","exp-sent","um","","",""
"","423","html-keyboard-response","446","471926","0.0-3.0-1.369","<span style=""font-size:30px; font-family: monospace"">gato.</span>"," ","","exp-sent","gato.","","",""
"","null","html-keyboard-response","447","473195","0.0-3.0-0.370-0.370","<span style= ""font-size:30px; font-family: monospace"">+</span>","null","fixation","","","","",""
"","763","html-keyboard-response","448","474215","0.0-3.0-1.370","<span style=""font-size:30px; font-family: monospace"">Eu</span>"," ","","exp-sent","Eu","","",""
"","486","html-keyboard-response","449","474955","0.0-3.0-1.371","<span style=""font-size:30px; font-family: monospace"">me</span>"," ","","exp-sent","me","","",""
"","447","html-keyboard-response","450","475667","0.0-3.0-1.372","<span style=""font-size:30px; font-family: monospace"">divirto</span>"," ","","exp-sent","divirto","","",""
"","443","html-keyboard-response","451","476368","0.0-3.0-1.373","<span style=""font-size:30px; font-family: monospace"">em</span>"," ","","exp-sent","em","","",""
"","424","html-keyboard-response","452","477050","0.0-3.0-1.374","<span style=""font-size:30px; font-family: monospace"">festas</span>"," ","","exp-sent","festas","","",""
"","449","html-keyboard-response","453","477759","0.0-3.0-1.375","<span style=""font-size:30px; font-family: monospace"">de</span>"," ","","exp-sent","de","","",""
"","671","html-keyboard-response","454","478691","0.0-3.0-1.376","<span style=""font-size:30px; font-family: monospace"">criança.</span>"," ","","exp-sent","criança.","","",""
"","null","html-keyboard-response","455","479961","0.0-3.0-0.377-0.377","<span style= ""font-size:30px; font-family: monospace"">+</span>","null","fixation","","","","",""
"","468","html-keyboard-response","456","480695","0.0-3.0-1.377","<span style=""font-size:30px; font-family: monospace"">A</span>"," ","","exp-sent","A","","",""
"","454","html-keyboard-response","457","481413","0.0-3.0-1.378","<span style=""font-size:30px; font-family: monospace"">janela</span>"," ","","exp-sent","janela","","",""
"","486","html-keyboard-response","458","482152","0.0-3.0-1.379","<span style=""font-size:30px; font-family: monospace"">alta</span>"," ","","exp-sent","alta","","",""
"","436","html-keyboard-response","459","482866","0.0-3.0-1.380","<span style=""font-size:30px; font-family: monospace"">estava</span>"," ","","exp-sent","estava","","",""
"","500","html-keyboard-response","460","483629","0.0-3.0-1.381","<span style=""font-size:30px; font-family: monospace"">quebrada</span>"," ","","exp-sent","quebrada","","",""
"","539","html-keyboard-response","461","484422","0.0-3.0-1.382","<span style=""font-size:30px; font-family: monospace"">desde</span>"," ","","exp-sent","desde","","",""
"","461","html-keyboard-response","462","485139","0.0-3.0-1.383","<span style=""font-size:30px; font-family: monospace"">ontem.</span>"," ","","comp","ontem.","","",""
"","3328","html-keyboard-response","463","488724","0.0-3.0-2.383-0.383","<span style=""font-size:30px; font-family: monospace"">A janela alta estava quebrada?</span>","s","","comp","","A janela alta estava quebrada?","sim","false"
"","null","html-keyboard-response","464","490239","0.0-3.0-0.384-0.384","<span style= ""font-size:30px; font-family: monospace"">+</span>","null","fixation","","","","",""
"","491","html-keyboard-response","465","490988","0.0-3.0-1.384","<span style=""font-size:30px; font-family: monospace"">O</span>"," ","","exp-sent","O","","",""
"","617","html-keyboard-response","466","491865","0.0-3.0-1.385","<span style=""font-size:30px; font-family: monospace"">travesseiro</span>"," ","","exp-sent","travesseiro","","",""
"","361","html-keyboard-response","467","492489","0.0-3.0-1.386","<span style=""font-size:30px; font-family: monospace"">era</span>"," ","","exp-sent","era","","",""
"","405","html-keyboard-response","468","493149","0.0-3.0-1.387","<span style=""font-size:30px; font-family: monospace"">muito</span>"," ","","exp-sent","muito","","",""
"","419","html-keyboard-response","469","493821","0.0-3.0-1.388","<span style=""font-size:30px; font-family: monospace"">macio</span>"," ","","exp-sent","macio","","",""
"","439","html-keyboard-response","470","494524","0.0-3.0-1.389","<span style=""font-size:30px; font-family: monospace"">e</span>"," ","","exp-sent","e","","",""
"","455","html-keyboard-response","471","495233","0.0-3.0-1.390","<span style=""font-size:30px; font-family: monospace"">confortável.</span>"," ","","exp-sent","confortável.","","",""
"","null","html-keyboard-response","472","496507","0.0-3.0-0.391-0.391","<span style= ""font-size:30px; font-family: monospace"">+</span>","null","fixation","","","","",""
"","413","html-keyboard-response","473","497177","0.0-3.0-1.391","<span style=""font-size:30px; font-family: monospace"">Hoje</span>"," ","","exp-sent","Hoje","","",""
"","378","html-keyboard-response","474","497819","0.0-3.0-1.392","<span style=""font-size:30px; font-family: monospace"">a</span>"," ","","exp-sent","a","","",""
"","402","html-keyboard-response","475","498474","0.0-3.0-1.393","<span style=""font-size:30px; font-family: monospace"">atendente</span>"," ","","exp-sent","atendente","","",""
"","443","html-keyboard-response","476","499175","0.0-3.0-1.394","<span style=""font-size:30px; font-family: monospace"">estava</span>"," ","","exp-sent","estava","","",""
"","404","html-keyboard-response","477","499830","0.0-3.0-1.395","<span style=""font-size:30px; font-family: monospace"">furiosa</span>"," ","","exp-sent","furiosa","","",""
"","502","html-keyboard-response","478","500583","0.0-3.0-1.396","<span style=""font-size:30px; font-family: monospace"">com</span>"," ","","exp-sent","com","","",""
"","325","html-keyboard-response","479","501164","0.0-3.0-1.397","<span style=""font-size:30px; font-family: monospace"">o</span>"," ","","exp-sent","o","","",""
"","649","html-keyboard-response","480","502079","0.0-3.0-1.398","<span style=""font-size:30px; font-family: monospace"">cliente.</span>"," ","","exp-sent","cliente.","","",""
"","null","html-keyboard-response","481","503343","0.0-3.0-0.399-0.399","<span style= ""font-size:30px; font-family: monospace"">+</span>","null","fixation","","","","",""
"","366","html-keyboard-response","482","503972","0.0-3.0-1.399","<span style=""font-size:30px; font-family: monospace"">O</span>"," ","","exp-sent","O","","",""
"","629","html-keyboard-response","483","504867","0.0-3.0-1.400","<span style=""font-size:30px; font-family: monospace"">vizinho</span>"," ","","exp-sent","vizinho","","",""
"","404","html-keyboard-response","484","505529","0.0-3.0-1.401","<span style=""font-size:30px; font-family: monospace"">é</span>"," ","","exp-sent","é","","",""
"","369","html-keyboard-response","485","506156","0.0-3.0-1.402","<span style=""font-size:30px; font-family: monospace"">um</span>"," ","","exp-sent","um","","",""
"","367","html-keyboard-response","486","506789","0.0-3.0-1.403","<span style=""font-size:30px; font-family: monospace"">arquiteto</span>"," ","","exp-sent","arquiteto","","",""
"","481","html-keyboard-response","487","507533","0.0-3.0-1.404","<span style=""font-size:30px; font-family: monospace"">muito</span>"," ","","exp-sent","muito","","",""
"","445","html-keyboard-response","488","508232","0.0-3.0-1.405","<span style=""font-size:30px; font-family: monospace"">excêntrico.</span>"," ","","exp-sent","excêntrico.","","",""
"","null","html-keyboard-response","489","509489","0.0-3.0-0.406-0.406","<span style= ""font-size:30px; font-family: monospace"">+</span>","null","fixation","","","","",""
"","444","html-keyboard-response","490","510198","0.0-3.0-1.406","<span style=""font-size:30px; font-family: monospace"">A</span>"," ","","exp-sent","A","","",""
"","486","html-keyboard-response","491","510945","0.0-3.0-1.407","<span style=""font-size:30px; font-family: monospace"">nossa</span>"," ","","exp-sent","nossa","","",""
"","394","html-keyboard-response","492","511597","0.0-3.0-1.408","<span style=""font-size:30px; font-family: monospace"">colega</span>"," ","","exp-sent","colega","","",""
"","398","html-keyboard-response","493","512251","0.0-3.0-1.409","<span style=""font-size:30px; font-family: monospace"">foi</span>"," ","","exp-sent","foi","","",""
"","414","html-keyboard-response","494","512931","0.0-3.0-1.410","<span style=""font-size:30px; font-family: monospace"">má</span>"," ","","exp-sent","má","","",""
"","490","html-keyboard-response","495","513680","0.0-3.0-1.411","<span style=""font-size:30px; font-family: monospace"">com</span>"," ","","exp-sent","com","","",""
"","412","html-keyboard-response","496","514345","0.0-3.0-1.412","<span style=""font-size:30px; font-family: monospace"">as</span>"," ","","exp-sent","as","","",""
"","579","html-keyboard-response","497","515177","0.0-3.0-1.413","<span style=""font-size:30px; font-family: monospace"">crianças.</span>"," ","","exp-sent","crianças.","","",""
"","null","html-keyboard-response","498","516445","0.0-3.0-0.414-0.414","<span style= ""font-size:30px; font-family: monospace"">+</span>","null","fixation","","","","",""
"","1140","html-keyboard-response","499","517850","0.0-3.0-1.414","<span style=""font-size:30px; font-family: monospace"">Virtudes</span>"," ","","exp-sent","Virtudes","","",""
"","467","html-keyboard-response","500","518582","0.0-3.0-1.415","<span style=""font-size:30px; font-family: monospace"">não</span>"," ","","exp-sent","não","","",""
"","587","html-keyboard-response","501","519436","0.0-3.0-1.416","<span style=""font-size:30px; font-family: monospace"">são</span>"," ","","exp-sent","são","","",""
"","698","html-keyboard-response","502","520388","0.0-3.0-1.417","<span style=""font-size:30px; font-family: monospace"">preguiça,</span>"," ","","exp-sent","preguiça,","","",""
"","496","html-keyboard-response","503","521139","0.0-3.0-1.418","<span style=""font-size:30px; font-family: monospace"">gula</span>"," ","","exp-sent","gula","","",""
"","471","html-keyboard-response","504","521873","0.0-3.0-1.419","<span style=""font-size:30px; font-family: monospace"">nem</span>"," ","","exp-sent","nem","","",""
"","533","html-keyboard-response","505","522658","0.0-3.0-1.420","<span style=""font-size:30px; font-family: monospace"">ganância.</span>"," ","","comp","ganância.","","",""
"","3361","html-keyboard-response","506","526277","0.0-3.0-2.420-0.420","<span style=""font-size:30px; font-family: monospace"">Preguiça é uma virtude?</span>","s","","comp","","Preguiça é uma virtude?","não","false"
"","null","html-keyboard-response","507","527790","0.0-3.0-0.421-0.421","<span style= ""font-size:30px; font-family: monospace"">+</span>","null","fixation","","","","",""
"","142","html-keyboard-response","508","528196","0.0-3.0-1.421","<span style=""font-size:30px; font-family: monospace"">No</span>"," ","","exp-sent","No","","",""
"","697","html-keyboard-response","509","529154","0.0-3.0-1.422","<span style=""font-size:30px; font-family: monospace"">passado</span>"," ","","exp-sent","passado","","",""
"","647","html-keyboard-response","510","530062","0.0-3.0-1.423","<span style=""font-size:30px; font-family: monospace"">houve</span>"," ","","exp-sent","houve","","",""
"","461","html-keyboard-response","511","530785","0.0-3.0-1.424","<span style=""font-size:30px; font-family: monospace"">uma</span>"," ","","exp-sent","uma","","",""
"","808","html-keyboard-response","512","531852","0.0-3.0-1.425","<span style=""font-size:30px; font-family: monospace"">rebelião</span>"," ","","exp-sent","rebelião","","",""
"","521","html-keyboard-response","513","532642","0.0-3.0-1.426","<span style=""font-size:30px; font-family: monospace"">nesta</span>"," ","","exp-sent","nesta","","",""
"","518","html-keyboard-response","514","533424","0.0-3.0-1.427","<span style=""font-size:30px; font-family: monospace"">cidade.</span>"," ","","exp-sent","cidade.","","",""
"","null","html-keyboard-response","515","534692","0.0-3.0-0.428-0.428","<span style= ""font-size:30px; font-family: monospace"">+</span>","null","fixation","","","","",""
"","417","html-keyboard-response","516","535364","0.0-3.0-1.428","<span style=""font-size:30px; font-family: monospace"">Ele</span>"," ","","exp-sent","Ele","","",""
"","390","html-keyboard-response","517","536019","0.0-3.0-1.429","<span style=""font-size:30px; font-family: monospace"">fundou</span>"," ","","exp-sent","fundou","","",""
"","393","html-keyboard-response","518","536674","0.0-3.0-1.430","<span style=""font-size:30px; font-family: monospace"">uma</span>"," ","","exp-sent","uma","","",""
"","471","html-keyboard-response","519","537410","0.0-3.0-1.431","<span style=""font-size:30px; font-family: monospace"">empresa</span>"," ","","exp-sent","empresa","","",""
"","388","html-keyboard-response","520","538052","0.0-3.0-1.432","<span style=""font-size:30px; font-family: monospace"">privada</span>"," ","","exp-sent","privada","","",""
"","390","html-keyboard-response","521","538698","0.0-3.0-1.433","<span style=""font-size:30px; font-family: monospace"">sem</span>"," ","","exp-sent","sem","","",""
"","296","html-keyboard-response","522","539256","0.0-3.0-1.434","<span style=""font-size:30px; font-family: monospace"">ajuda.</span>"," ","","exp-sent","ajuda.","","",""
"","null","html-keyboard-response","523","540522","0.0-3.0-0.435-0.435","<span style= ""font-size:30px; font-family: monospace"">+</span>","null","fixation","","","","",""
"","116","html-keyboard-response","524","540897","0.0-3.0-1.435","<span style=""font-size:30px; font-family: monospace"">As</span>"," ","","exp-sent","As","","",""
"","365","html-keyboard-response","525","541522","0.0-3.0-1.436","<span style=""font-size:30px; font-family: monospace"">meninas</span>"," ","","exp-sent","meninas","","",""
"","370","html-keyboard-response","526","542155","0.0-3.0-1.437","<span style=""font-size:30px; font-family: monospace"">encontraram</span>"," ","","exp-sent","encontraram","","",""
"","416","html-keyboard-response","527","542835","0.0-3.0-1.438","<span style=""font-size:30px; font-family: monospace"">um</span>"," ","","exp-sent","um","","",""
"","256","html-keyboard-response","528","543352","0.0-3.0-1.439","<span style=""font-size:30px; font-family: monospace"">rato</span>"," ","","exp-sent","rato","","",""
"","611","html-keyboard-response","529","544215","0.0-3.0-1.440","<span style=""font-size:30px; font-family: monospace"">dentro</span>"," ","","exp-sent","dentro","","",""
"","347","html-keyboard-response","530","544818","0.0-3.0-1.441","<span style=""font-size:30px; font-family: monospace"">de</span>"," ","","exp-sent","de","","",""
"","390","html-keyboard-response","531","545466","0.0-3.0-1.442","<span style=""font-size:30px; font-family: monospace"">casa.</span>"," ","","exp-sent","casa.","","",""
"","null","html-keyboard-response","532","546728","0.0-3.0-0.443-0.443","<span style= ""font-size:30px; font-family: monospace"">+</span>","null","fixation","","","","",""
"","434","html-keyboard-response","533","547420","0.0-3.0-1.443","<span style=""font-size:30px; font-family: monospace"">O</span>"," ","","exp-sent","O","","",""
"","401","html-keyboard-response","534","548076","0.0-3.0-1.444","<span style=""font-size:30px; font-family: monospace"">texto</span>"," ","","exp-sent","texto","","",""
"","423","html-keyboard-response","535","548750","0.0-3.0-1.445","<span style=""font-size:30px; font-family: monospace"">tinha</span>"," ","","exp-sent","tinha","","",""
"","439","html-keyboard-response","536","549448","0.0-3.0-1.446","<span style=""font-size:30px; font-family: monospace"">ideias</span>"," ","","exp-sent","ideias","","",""
"","424","html-keyboard-response","537","550126","0.0-3.0-1.447","<span style=""font-size:30px; font-family: monospace"">vagas</span>"," ","","exp-sent","vagas","","",""
"","368","html-keyboard-response","538","550755","0.0-3.0-1.448","<span style=""font-size:30px; font-family: monospace"">e</span>"," ","","exp-sent","e","","",""
"","432","html-keyboard-response","539","551439","0.0-3.0-1.449","<span style=""font-size:30px; font-family: monospace"">confusas.</span>"," ","","exp-sent","confusas.","","",""
"","null","html-keyboard-response","540","552717","0.0-3.0-0.450-0.450","<span style= ""font-size:30px; font-family: monospace"">+</span>","null","fixation","","","","",""
"","498","html-keyboard-response","541","553481","0.0-3.0-1.450","<span style=""font-size:30px; font-family: monospace"">As</span>"," ","","exp-sent","As","","",""
"","510","html-keyboard-response","542","554244","0.0-3.0-1.451","<span style=""font-size:30px; font-family: monospace"">crianças</span>"," ","","exp-sent","crianças","","",""
"","376","html-keyboard-response","543","554877","0.0-3.0-1.452","<span style=""font-size:30px; font-family: monospace"">viram</span>"," ","","exp-sent","viram","","",""
"","416","html-keyboard-response","544","555547","0.0-3.0-1.453","<span style=""font-size:30px; font-family: monospace"">a</span>"," ","","exp-sent","a","","",""
"","504","html-keyboard-response","545","556303","0.0-3.0-1.454","<span style=""font-size:30px; font-family: monospace"">acrobata</span>"," ","","exp-sent","acrobata","","",""
"","403","html-keyboard-response","546","556967","0.0-3.0-1.455","<span style=""font-size:30px; font-family: monospace"">talentosa</span>"," ","","exp-sent","talentosa","","",""
"","410","html-keyboard-response","547","557629","0.0-3.0-1.456","<span style=""font-size:30px; font-family: monospace"">no</span>"," ","","exp-sent","no","","",""
"","526","html-keyboard-response","548","558420","0.0-3.0-1.457","<span style=""font-size:30px; font-family: monospace"">circo.</span>"," ","","comp","circo.","","",""
"","3574","html-keyboard-response","549","562253","0.0-3.0-2.457-0.457","<span style=""font-size:30px; font-family: monospace"">As crianças viram o palhaço no circo?</span>","n","","comp","","As crianças viram o palhaço no circo?","não","false"
"","null","html-keyboard-response","550","563768","0.0-3.0-0.458-0.458","<span style= ""font-size:30px; font-family: monospace"">+</span>","null","fixation","","","","",""
"","587","html-keyboard-response","551","564616","0.0-3.0-1.458","<span style=""font-size:30px; font-family: monospace"">Eu</span>"," ","","exp-sent","Eu","","",""
"","592","html-keyboard-response","552","565472","0.0-3.0-1.459","<span style=""font-size:30px; font-family: monospace"">gosto</span>"," ","","exp-sent","gosto","","",""
"","527","html-keyboard-response","553","566252","0.0-3.0-1.460","<span style=""font-size:30px; font-family: monospace"">de</span>"," ","","exp-sent","de","","",""
"","464","html-keyboard-response","554","566978","0.0-3.0-1.461","<span style=""font-size:30px; font-family: monospace"">molho</span>"," ","","exp-sent","molho","","",""
"","480","html-keyboard-response","555","567732","0.0-3.0-1.462","<span style=""font-size:30px; font-family: monospace"">picante</span>"," ","","exp-sent","picante","","",""
"","531","html-keyboard-response","556","568522","0.0-3.0-1.463","<span style=""font-size:30px; font-family: monospace"">nas</span>"," ","","exp-sent","nas","","",""
"","413","html-keyboard-response","557","569195","0.0-3.0-1.464","<span style=""font-size:30px; font-family: monospace"">batatas.</span>"," ","","exp-sent","batatas.","","",""
"","null","html-keyboard-response","558","570462","0.0-3.0-0.465-0.465","<span style= ""font-size:30px; font-family: monospace"">+</span>","null","fixation","","","","",""
"","94","html-keyboard-response","559","570812","0.0-3.0-1.465","<span style=""font-size:30px; font-family: monospace"">As</span>"," ","","exp-sent","As","","",""
"","652","html-keyboard-response","560","571723","0.0-3.0-1.466","<span style=""font-size:30px; font-family: monospace"">pessoas</span>"," ","","exp-sent","pessoas","","",""
"","429","html-keyboard-response","561","572402","0.0-3.0-1.467","<span style=""font-size:30px; font-family: monospace"">têm</span>"," ","","exp-sent","têm","","",""
"","490","html-keyboard-response","562","573145","0.0-3.0-1.468","<span style=""font-size:30px; font-family: monospace"">sua</span>"," ","","exp-sent","sua","","",""
"","563","html-keyboard-response","563","573968","0.0-3.0-1.469","<span style=""font-size:30px; font-family: monospace"">liberdade</span>"," ","","exp-sent","liberdade","","",""
"","515","html-keyboard-response","564","574738","0.0-3.0-1.470","<span style=""font-size:30px; font-family: monospace"">até</span>"," ","","exp-sent","até","","",""
"","506","html-keyboard-response","565","575505","0.0-3.0-1.471","<span style=""font-size:30px; font-family: monospace"">certo</span>"," ","","exp-sent","certo","","",""
"","807","html-keyboard-response","566","576574","0.0-3.0-1.472","<span style=""font-size:30px; font-family: monospace"">ponto.</span>"," ","","exp-sent","ponto.","","",""
"","null","html-keyboard-response","567","577848","0.0-3.0-0.473-0.473","<span style= ""font-size:30px; font-family: monospace"">+</span>","null","fixation","","","","",""
"","186","html-keyboard-response","568","578292","0.0-3.0-1.473","<span style=""font-size:30px; font-family: monospace"">A</span>"," ","","exp-sent","A","","",""
"","646","html-keyboard-response","569","579197","0.0-3.0-1.474","<span style=""font-size:30px; font-family: monospace"">empresa</span>"," ","","exp-sent","empresa","","",""
"","454","html-keyboard-response","570","579909","0.0-3.0-1.475","<span style=""font-size:30px; font-family: monospace"">enviou</span>"," ","","exp-sent","enviou","","",""
"","470","html-keyboard-response","571","580631","0.0-3.0-1.476","<span style=""font-size:30px; font-family: monospace"">o</span>"," ","","exp-sent","o","","",""
"","631","html-keyboard-response","572","581519","0.0-3.0-1.477","<span style=""font-size:30px; font-family: monospace"">aviso</span>"," ","","exp-sent","aviso","","",""
"","518","html-keyboard-response","573","582292","0.0-3.0-1.478","<span style=""font-size:30px; font-family: monospace"">hoje</span>"," ","","exp-sent","hoje","","",""
"","434","html-keyboard-response","574","582987","0.0-3.0-1.479","<span style=""font-size:30px; font-family: monospace"">de</span>"," ","","exp-sent","de","","",""
"","654","html-keyboard-response","575","583896","0.0-3.0-1.480","<span style=""font-size:30px; font-family: monospace"">tarde.</span>"," ","","exp-sent","tarde.","","",""
"","null","html-keyboard-response","576","585166","0.0-3.0-0.481-0.481","<span style= ""font-size:30px; font-family: monospace"">+</span>","null","fixation","","","","",""
"","494","html-keyboard-response","577","585925","0.0-3.0-1.481","<span style=""font-size:30px; font-family: monospace"">A</span>"," ","","exp-sent","A","","",""
"","590","html-keyboard-response","578","586775","0.0-3.0-1.482","<span style=""font-size:30px; font-family: monospace"">loja</span>"," ","","exp-sent","loja","","",""
"","477","html-keyboard-response","579","587511","0.0-3.0-1.483","<span style=""font-size:30px; font-family: monospace"">vende</span>"," ","","exp-sent","vende","","",""
"","521","html-keyboard-response","580","588286","0.0-3.0-1.484","<span style=""font-size:30px; font-family: monospace"">tanto</span>"," ","","exp-sent","tanto","","",""
"","669","html-keyboard-response","581","589220","0.0-3.0-1.485","<span style=""font-size:30px; font-family: monospace"">frituras</span>"," ","","exp-sent","frituras","","",""
"","549","html-keyboard-response","582","590021","0.0-3.0-1.486","<span style=""font-size:30px; font-family: monospace"">quanto</span>"," ","","exp-sent","quanto","","",""
"","580","html-keyboard-response","583","590865","0.0-3.0-1.487","<span style=""font-size:30px; font-family: monospace"">comidas</span>"," ","","exp-sent","comidas","","",""
"","573","html-keyboard-response","584","591705","0.0-3.0-1.488","<span style=""font-size:30px; font-family: monospace"">leves.</span>"," ","","exp-sent","leves.","","",""
