"view_history","rt","trial_type","trial_index","time_elapsed","internal_node_id","stimulus","response","trial_part","word","question","answer","trial","accuracy"
"[{""page_index"":0,""viewing_time"":3250},{""page_index"":1,""viewing_time"":10088}]","13339","instructions","0","13340","0.0-0.0","","","","","","","",""
"","null","html-keyboard-response","1","14464","0.0-1.0-0.0-0.0","<span style= ""font-size:30px; font-family: monospace"">+</span>","null","fixation","","","","",""
"","1560","audio-keyboard-response","2","16307","0.0-1.0-1.0","../audio/prac-question-1-1.mp3"," ","","O","","","",""
"","1819","audio-keyboard-response","3","18402","0.0-1.0-1.1","../audio/prac-question-1-2.mp3"," ","","dia","","","",""
"","1491","audio-keyboard-response","4","20162","0.0-1.0-1.2","../audio/prac-question-1-3.mp3"," ","","estará","","","",""
"","2000","audio-keyboard-response","5","22434","0.0-1.0-1.3","../audio/prac-question-1-4.mp3"," ","","cheio","","","",""
"","848","audio-keyboard-response","6","23554","0.0-1.0-1.4","../audio/prac-question-1-5.mp3"," ","","de","","","",""
"","1669","audio-keyboard-response","7","25490","0.0-1.0-1.5","../audio/prac-question-1-6.mp3"," ","","nuvens","","","",""
"","1032","audio-keyboard-response","8","26786","0.0-1.0-1.6","../audio/prac-question-1-7.mp3"," ","","hoje.","","","",""
"","null","html-keyboard-response","9","28050","0.0-1.0-0.7-0.7","<span style= ""font-size:30px; font-family: monospace"">+</span>","null","fixation","","","","",""
"","952","audio-keyboard-response","10","29266","0.0-1.0-1.7","../audio/prac-question-2-1.mp3"," ","","A","","","",""
"","1528","audio-keyboard-response","11","31074","0.0-1.0-1.8","../audio/prac-question-2-2.mp3"," ","","caneca","","","",""
"","1411","audio-keyboard-response","12","32770","0.0-1.0-1.9","../audio/prac-question-2-3.mp3"," ","","colorida","","","",""
"","1091","audio-keyboard-response","13","34130","0.0-1.0-1.10","../audio/prac-question-2-4.mp3"," ","","caiu","","","",""
"","749","audio-keyboard-response","14","35154","0.0-1.0-1.11","../audio/prac-question-2-5.mp3"," ","","da","","","",""
"","1008","audio-keyboard-response","15","36434","0.0-1.0-1.12","../audio/prac-question-2-6.mp3"," ","","mesa","","","",""
"","640","audio-keyboard-response","16","37346","0.0-1.0-1.13","../audio/prac-question-2-7.mp3"," ","","de","","","",""
"","1059","audio-keyboard-response","17","38674","0.0-1.0-1.14","../audio/prac-question-2-8.mp3"," ","","jantar.","","","",""
"","18211","html-keyboard-response","18","57139","0.0-1.0-2.14-0.14","<span style=""font-size:25px; font-family: monospace"">A caneca era colorida?</span>","s","","","A caneca era colorida?","null","prac-sent","false"
"[{""page_index"":0,""viewing_time"":9635}]","9635","instructions","19","67275","0.0-2.0","","","","","","","",""
"","null","html-keyboard-response","20","68405","0.0-3.0-0.0-0.0","<span style= ""font-size:30px; font-family: monospace"">+</span>","null","fixation","","","","",""
"","3021","audio-keyboard-response","21","71698","0.0-3.0-1.0","../audio/22-1-fem.mp3"," ","","Eu","","","",""
"","3789","audio-keyboard-response","22","75762","0.0-3.0-1.1","../audio/22-2-fem.mp3"," ","","detesto","","","",""
"","21939","audio-keyboard-response","23","97986","0.0-3.0-1.2","../audio/22-3-fem.mp3"," ","","fumaça","","","",""
"","29","audio-keyboard-response","24","98290","0.0-3.0-1.3","../audio/22-4-fem.mp3"," ","","de","","","",""
"","2579","audio-keyboard-response","25","101154","0.0-3.0-1.4","../audio/22-5-fem.mp3"," ","","cachimbo","","","",""
"","1181","audio-keyboard-response","26","102610","0.0-3.0-1.5","../audio/22-6-fem.mp3"," ","","e","","","",""
"","1019","audio-keyboard-response","27","103906","0.0-3.0-1.6","../audio/22-7-fem.mp3"," ","","de","","","",""
"","1101","audio-keyboard-response","28","105298","0.0-3.0-1.7","../audio/22-8-fem.mp3"," ","","cigarro.","","","",""
"","null","html-keyboard-response","29","106564","0.0-3.0-0.8-0.8","<span style= ""font-size:30px; font-family: monospace"">+</span>","null","fixation","","","","",""
"","2051","audio-keyboard-response","30","108898","0.0-3.0-1.8","../audio/21-1-fem.mp3"," ","","Precisamos","","","",""
"","800","audio-keyboard-response","31","109986","0.0-3.0-1.9","../audio/21-2-fem.mp3"," ","","de","","","",""
"","1291","audio-keyboard-response","32","111570","0.0-3.0-1.10","../audio/21-3-fem.mp3"," ","","paciência","","","",""
"","789","audio-keyboard-response","33","112626","0.0-3.0-1.11","../audio/21-4-fem.mp3"," ","","e","","","",""
"","1352","audio-keyboard-response","34","114258","0.0-3.0-1.12","../audio/21-5-fem.mp3"," ","","bondade","","","",""
"","1419","audio-keyboard-response","35","115954","0.0-3.0-1.13","../audio/21-6-fem.mp3"," ","","para","","","",""
"","851","audio-keyboard-response","36","117090","0.0-3.0-1.14","../audio/21-7-fem.mp3"," ","","um","","","",""
"","1149","audio-keyboard-response","37","118514","0.0-3.0-1.15","../audio/21-8-fem.mp3"," ","","mundo","","","",""
"","1160","audio-keyboard-response","38","119954","0.0-3.0-1.16","../audio/21-9-fem.mp3"," ","","melhor.","","","",""
"","null","html-keyboard-response","39","121220","0.0-3.0-0.17-0.17","<span style= ""font-size:30px; font-family: monospace"">+</span>","null","fixation","","","","",""
"","2080","audio-keyboard-response","40","123586","0.0-3.0-1.17","../audio/24-1-masc.mp3"," ","","As","","","",""
"","1712","audio-keyboard-response","41","125570","0.0-3.0-1.18","../audio/24-2-masc.mp3"," ","","crianças","","","",""
"","1320","audio-keyboard-response","42","127170","0.0-3.0-1.19","../audio/24-3-masc.mp3"," ","","vão","","","",""
"","1080","audio-keyboard-response","43","128530","0.0-3.0-1.20","../audio/24-4-masc.mp3"," ","","ao","","","",""
"","1211","audio-keyboard-response","44","130018","0.0-3.0-1.21","../audio/24-5-masc.mp3"," ","","cinema","","","",""
"","941","audio-keyboard-response","45","131250","0.0-3.0-1.22","../audio/24-6-masc.mp3"," ","","mais","","","",""
"","909","audio-keyboard-response","46","132434","0.0-3.0-1.23","../audio/24-7-masc.mp3"," ","","tarde.","","","",""
"","null","html-keyboard-response","47","133693","0.0-3.0-0.24-0.24","<span style= ""font-size:30px; font-family: monospace"">+</span>","null","fixation","","","","",""
"","120","audio-keyboard-response","48","134082","0.0-3.0-1.24","../audio/23-1-masc.mp3"," ","","Português","","","",""
"","952","audio-keyboard-response","49","135298","0.0-3.0-1.25","../audio/23-2-masc.mp3"," ","","é","","","",""
"","771","audio-keyboard-response","50","136338","0.0-3.0-1.26","../audio/23-3-masc.mp3"," ","","um","","","",""
"","1320","audio-keyboard-response","51","137938","0.0-3.0-1.27","../audio/23-4-masc.mp3"," ","","assunto","","","",""
"","1560","audio-keyboard-response","52","139762","0.0-3.0-1.28","../audio/23-5-masc.mp3"," ","","elementar","","","",""
"","1021","audio-keyboard-response","53","141058","0.0-3.0-1.29","../audio/23-6-masc.mp3"," ","","para","","","",""
"","909","audio-keyboard-response","54","142242","0.0-3.0-1.30","../audio/23-7-masc.mp3"," ","","os","","","",""
"","1181","audio-keyboard-response","55","143698","0.0-3.0-1.31","../audio/23-8-masc.mp3"," ","","alunos.","","","",""
"","null","html-keyboard-response","56","144955","0.0-3.0-0.32-0.32","<span style= ""font-size:30px; font-family: monospace"">+</span>","null","fixation","","","","",""
"","1141","audio-keyboard-response","57","146370","0.0-3.0-1.32","../audio/25-1-fem.mp3"," ","","Ela","","","",""
"","1069","audio-keyboard-response","58","147714","0.0-3.0-1.33","../audio/25-2-fem.mp3"," ","","faz","","","",""
"","1200","audio-keyboard-response","59","149186","0.0-3.0-1.34","../audio/25-3-fem.mp3"," ","","tanto","","","",""
"","1101","audio-keyboard-response","60","150562","0.0-3.0-1.35","../audio/25-4-fem.mp3"," ","","cabelo","","","",""
"","1211","audio-keyboard-response","61","152050","0.0-3.0-1.36","../audio/25-5-fem.mp3"," ","","liso","","","",""
"","1011","audio-keyboard-response","62","153330","0.0-3.0-1.37","../audio/25-6-fem.mp3"," ","","quanto","","","",""
"","1499","audio-keyboard-response","63","155106","0.0-3.0-1.38","../audio/25-7-fem.mp3"," ","","cacheado.","","","",""
"","89658","html-keyboard-response","64","245026","0.0-3.0-2.38-0.38","<span style=""font-size:25px; font-family: monospace"">Ela só faz cabelo cacheado?</span>","s","","","Ela só faz cabelo cacheado?","null","exp-sent","false"
"","null","html-keyboard-response","65","246528","0.0-3.0-0.39-0.39","<span style= ""font-size:30px; font-family: monospace"">+</span>","null","fixation","","","","",""
"","3069","audio-keyboard-response","66","249922","0.0-3.0-1.39","../audio/59-1-fem.mp3"," ","","O","","","",""
"","3299","audio-keyboard-response","67","253506","0.0-3.0-1.40","../audio/59-2-fem.mp3"," ","","carteiro","","","",""
"","1741","audio-keyboard-response","68","255522","0.0-3.0-1.41","../audio/59-3-fem.mp3"," ","","fez","","","",""
"","931","audio-keyboard-response","69","256722","0.0-3.0-1.42","../audio/59-4-fem.mp3"," ","","uma","","","",""
"","1680","audio-keyboard-response","70","258690","0.0-3.0-1.43","../audio/59-5-fem.mp3"," ","","tentativa","","","",""
"","851","audio-keyboard-response","71","259810","0.0-3.0-1.44","../audio/59-6-fem.mp3"," ","","de","","","",""
"","2320","audio-keyboard-response","72","262402","0.0-3.0-1.45","../audio/59-7-fem.mp3"," ","","entrega.","","","",""
"","null","html-keyboard-response","73","263659","0.0-3.0-0.46-0.46","<span style= ""font-size:30px; font-family: monospace"">+</span>","null","fixation","","","","",""
"","1341","audio-keyboard-response","74","265282","0.0-3.0-1.46","../audio/58-1-fem.mp3"," ","","Havia","","","",""
"","1309","audio-keyboard-response","75","266866","0.0-3.0-1.47","../audio/58-2-fem.mp3"," ","","apenas","","","",""
"","1160","audio-keyboard-response","76","268306","0.0-3.0-1.48","../audio/58-3-fem.mp3"," ","","um","","","",""
"","1381","audio-keyboard-response","77","269970","0.0-3.0-1.49","../audio/58-4-fem.mp3"," ","","último","","","",""
"","1280","audio-keyboard-response","78","271522","0.0-3.0-1.50","../audio/58-5-fem.mp3"," ","","herdeiro","","","",""
"","869","audio-keyboard-response","79","272674","0.0-3.0-1.51","../audio/58-6-fem.mp3"," ","","do","","","",""
"","2549","audio-keyboard-response","80","275506","0.0-3.0-1.52","../audio/58-7-fem.mp3"," ","","dinheiro.","","","",""
"","null","html-keyboard-response","81","276768","0.0-3.0-0.53-0.53","<span style= ""font-size:30px; font-family: monospace"">+</span>","null","fixation","","","","",""
"","1109","audio-keyboard-response","82","278146","0.0-3.0-1.53","../audio/56-1-fem.mp3"," ","","A","","","",""
"","1051","audio-keyboard-response","83","279474","0.0-3.0-1.54","../audio/56-2-fem.mp3"," ","","moça","","","",""
"","1091","audio-keyboard-response","84","280850","0.0-3.0-1.55","../audio/56-3-fem.mp3"," ","","foi","","","",""
"","840","audio-keyboard-response","85","281970","0.0-3.0-1.56","../audio/56-4-fem.mp3"," ","","à","","","",""
"","1400","audio-keyboard-response","86","283650","0.0-3.0-1.57","../audio/56-5-fem.mp3"," ","","agência","","","",""
"","1131","audio-keyboard-response","87","285058","0.0-3.0-1.58","../audio/56-6-fem.mp3"," ","","bancária","","","",""
"","1251","audio-keyboard-response","88","286578","0.0-3.0-1.59","../audio/56-7-fem.mp3"," ","","ontem","","","",""
"","771","audio-keyboard-response","89","287618","0.0-3.0-1.60","../audio/56-8-fem.mp3"," ","","de","","","",""
"","1859","audio-keyboard-response","90","289746","0.0-3.0-1.61","../audio/56-9-fem.mp3"," ","","tarde.","","","",""
"","null","html-keyboard-response","91","291012","0.0-3.0-0.62-0.62","<span style= ""font-size:30px; font-family: monospace"">+</span>","null","fixation","","","","",""
"","1389","audio-keyboard-response","92","292674","0.0-3.0-1.62","../audio/57-1-masc.mp3"," ","","O","","","",""
"","1280","audio-keyboard-response","93","294226","0.0-3.0-1.63","../audio/57-2-masc.mp3"," ","","capitão","","","",""
"","821","audio-keyboard-response","94","295330","0.0-3.0-1.64","../audio/57-3-masc.mp3"," ","","deu","","","",""
"","840","audio-keyboard-response","95","296434","0.0-3.0-1.65","../audio/57-4-masc.mp3"," ","","uma","","","",""
"","1341","audio-keyboard-response","96","298050","0.0-3.0-1.66","../audio/57-5-masc.mp3"," ","","instrução","","","",""
"","869","audio-keyboard-response","97","299186","0.0-3.0-1.67","../audio/57-6-masc.mp3"," ","","para","","","",""
"","861","audio-keyboard-response","98","300322","0.0-3.0-1.68","../audio/57-7-masc.mp3"," ","","as","","","",""
"","909","audio-keyboard-response","99","301506","0.0-3.0-1.69","../audio/57-8-masc.mp3"," ","","pessoas.","","","",""
"","null","html-keyboard-response","100","302766","0.0-3.0-0.70-0.70","<span style= ""font-size:30px; font-family: monospace"">+</span>","null","fixation","","","","",""
"","1211","audio-keyboard-response","101","304258","0.0-3.0-1.70","../audio/60-1-fem.mp3"," ","","Ondas","","","",""
"","669","audio-keyboard-response","102","305201","0.0-3.0-1.71","../audio/60-2-fem.mp3"," ","","têm","","","",""
"","720","audio-keyboard-response","103","306193","0.0-3.0-1.72","../audio/60-3-fem.mp3"," ","","um","","","",""
"","280","audio-keyboard-response","104","306753","0.0-3.0-1.73","../audio/60-4-fem.mp3"," ","","impacto","","","",""
"","1120","audio-keyboard-response","105","308145","0.0-3.0-1.74","../audio/60-5-fem.mp3"," ","","destrutivo","","","",""
"","1109","audio-keyboard-response","106","309521","0.0-3.0-1.75","../audio/60-6-fem.mp3"," ","","no","","","",""
"","1400","audio-keyboard-response","107","311201","0.0-3.0-1.76","../audio/60-7-fem.mp3"," ","","litoral.","","","",""
"","16440","html-keyboard-response","108","327905","0.0-3.0-2.76-0.76","<span style=""font-size:25px; font-family: monospace"">Ondas têm um impacto destrutivo?</span>","s","","","Ondas têm um impacto destrutivo?","null","exp-sent","false"
"","null","html-keyboard-response","109","329436","0.0-3.0-0.77-0.77","<span style= ""font-size:30px; font-family: monospace"">+</span>","null","fixation","","","","",""
"","1840","audio-keyboard-response","110","331553","0.0-3.0-1.77","../audio/02-2-masc.mp3"," ","","Havia","","","",""
"","1179","audio-keyboard-response","111","332993","0.0-3.0-1.78","../audio/02-2-masc.mp3"," ","","um","","","",""
"","1861","audio-keyboard-response","112","335121","0.0-3.0-1.79","../audio/02-3-masc.mp3"," ","","cheiro","","","",""
"","1091","audio-keyboard-response","113","336481","0.0-3.0-1.80","../audio/02-4-masc.mp3"," ","","de","","","",""
"","1752","audio-keyboard-response","114","338497","0.0-3.0-1.81","../audio/02-5-masc.mp3"," ","","gasolina","","","",""
"","880","audio-keyboard-response","115","339649","0.0-3.0-1.82","../audio/02-6-masc.mp3"," ","","na","","","",""
"","1440","audio-keyboard-response","116","341377","0.0-3.0-1.83","../audio/02-7-masc.mp3"," ","","garagem.","","","",""
"","null","html-keyboard-response","117","342636","0.0-3.0-0.84-0.84","<span style= ""font-size:30px; font-family: monospace"">+</span>","null","fixation","","","","",""
"","829","audio-keyboard-response","118","343745","0.0-3.0-1.84","../audio/01-1-masc.mp3"," ","","O","","","",""
"","1008","audio-keyboard-response","119","345025","0.0-3.0-1.85","../audio/01-2-masc.mp3"," ","","menino","","","",""
"","1581","audio-keyboard-response","120","346881","0.0-3.0-1.86","../audio/01-3-masc.mp3"," ","","derrubou","","","",""
"","829","audio-keyboard-response","121","347985","0.0-3.0-1.87","../audio/01-4-masc.mp3"," ","","a","","","",""
"","1168","audio-keyboard-response","122","349425","0.0-3.0-1.88","../audio/01-5-masc.mp3"," ","","guitarra","","","",""
"","848","audio-keyboard-response","123","350545","0.0-3.0-1.89","../audio/01-6-masc.mp3"," ","","no","","","",""
"","941","audio-keyboard-response","124","351761","0.0-3.0-1.90","../audio/01-7-masc.mp3"," ","","chão.","","","",""
"","null","html-keyboard-response","125","353029","0.0-3.0-0.91-0.91","<span style= ""font-size:30px; font-family: monospace"">+</span>","null","fixation","","","","",""
"","1341","audio-keyboard-response","126","354657","0.0-3.0-1.91","../audio/04-1-fem.mp3"," ","","Duzentos","","","",""
"","968","audio-keyboard-response","127","355905","0.0-3.0-1.92","../audio/04-2-fem.mp3"," ","","carros","","","",""
"","1141","audio-keyboard-response","128","357329","0.0-3.0-1.93","../audio/04-3-fem.mp3"," ","","passaram","","","",""
"","880","audio-keyboard-response","129","358481","0.0-3.0-1.94","../audio/04-4-fem.mp3"," ","","pela","","","",""
"","931","audio-keyboard-response","130","359681","0.0-3.0-1.95","../audio/04-5-fem.mp3"," ","","ponte","","","",""
"","941","audio-keyboard-response","131","360897","0.0-3.0-1.96","../audio/04-6-fem.mp3"," ","","hoje","","","",""
"","760","audio-keyboard-response","132","361937","0.0-3.0-1.97","../audio/04-7-fem.mp3"," ","","de","","","",""
"","1080","audio-keyboard-response","133","363297","0.0-3.0-1.98","../audio/04-8-fem.mp3"," ","","tarde.","","","",""
"","null","html-keyboard-response","134","364561","0.0-3.0-0.99-0.99","<span style= ""font-size:30px; font-family: monospace"">+</span>","null","fixation","","","","",""
"","829","audio-keyboard-response","135","365665","0.0-3.0-1.99","../audio/03-1-masc.mp3"," ","","O","","","",""
"","1040","audio-keyboard-response","136","366977","0.0-3.0-1.100","../audio/03-2-masc.mp3"," ","","coelho","","","",""
"","771","audio-keyboard-response","137","368033","0.0-3.0-1.101","../audio/03-3-masc.mp3"," ","","foi","","","",""
"","1240","audio-keyboard-response","138","369553","0.0-3.0-1.102","../audio/03-4-masc.mp3"," ","","bastante","","","",""
"","1021","audio-keyboard-response","139","370850","0.0-3.0-1.103","../audio/03-5-masc.mp3"," ","","dócil","","","",""
"","891","audio-keyboard-response","140","372017","0.0-3.0-1.104","../audio/03-6-masc.mp3"," ","","com","","","",""
"","960","audio-keyboard-response","141","373249","0.0-3.0-1.105","../audio/03-7-masc.mp3"," ","","as","","","",""
"","1131","audio-keyboard-response","142","374641","0.0-3.0-1.106","../audio/03-8-masc.mp3"," ","","crianças.","","","",""
"","null","html-keyboard-response","143","375897","0.0-3.0-0.107-0.107","<span style= ""font-size:30px; font-family: monospace"">+</span>","null","fixation","","","","",""
"","920","audio-keyboard-response","144","377105","0.0-3.0-1.107","../audio/05-1-fem.mp3"," ","","A","","","",""
"","920","audio-keyboard-response","145","378305","0.0-3.0-1.108","../audio/05-2-fem.mp3"," ","","vendedora","","","",""
"","1240","audio-keyboard-response","146","379825","0.0-3.0-1.109","../audio/05-3-fem.mp3"," ","","ajudou","","","",""
"","749","audio-keyboard-response","147","380849","0.0-3.0-1.110","../audio/05-4-fem.mp3"," ","","um","","","",""
"","1051","audio-keyboard-response","148","382177","0.0-3.0-1.111","../audio/05-5-fem.mp3"," ","","turista","","","",""
"","819","audio-keyboard-response","149","383265","0.0-3.0-1.112","../audio/05-6-fem.mp3"," ","","na","","","",""
"","1520","audio-keyboard-response","150","385057","0.0-3.0-1.113","../audio/05-7-fem.mp3"," ","","loja.","","","",""
"","8574","html-keyboard-response","151","393890","0.0-3.0-2.113-0.113","<span style=""font-size:25px; font-family: monospace"">A vendedora ajudou um turista?</span>","s","","","A vendedora ajudou um turista?","null","exp-sent","false"
"","null","html-keyboard-response","152","395408","0.0-3.0-0.114-0.114","<span style= ""font-size:30px; font-family: monospace"">+</span>","null","fixation","","","","",""
"","1619","audio-keyboard-response","153","397313","0.0-3.0-1.114","../audio/31-1-masc.mp3"," ","","O","","","",""
"","1051","audio-keyboard-response","154","398641","0.0-3.0-1.115","../audio/31-2-masc.mp3"," ","","padeiro","","","",""
"","979","audio-keyboard-response","155","399905","0.0-3.0-1.116","../audio/31-3-masc.mp3"," ","","usou","","","",""
"","560","audio-keyboard-response","156","400737","0.0-3.0-1.117","../audio/31-4-masc.mp3"," ","","a","","","",""
"","1749","audio-keyboard-response","157","402753","0.0-3.0-1.118","../audio/31-5-masc.mp3"," ","","balança","","","",""
"","1091","audio-keyboard-response","158","404113","0.0-3.0-1.119","../audio/31-6-masc.mp3"," ","","o","","","",""
"","1221","audio-keyboard-response","159","405601","0.0-3.0-1.120","../audio/31-7-masc.mp3"," ","","dia","","","",""
"","1120","audio-keyboard-response","160","406993","0.0-3.0-1.121","../audio/31-8-masc.mp3"," ","","inteiro.","","","",""
"","null","html-keyboard-response","161","408255","0.0-3.0-0.122-0.122","<span style= ""font-size:30px; font-family: monospace"">+</span>","null","fixation","","","","",""
"","179","audio-keyboard-response","162","408705","0.0-3.0-1.122","../audio/32-1-masc.mp3"," ","","A","","","",""
"","949","audio-keyboard-response","163","409921","0.0-3.0-1.123","../audio/32-2-masc.mp3"," ","","tia","","","",""
"","1069","audio-keyboard-response","164","411265","0.0-3.0-1.124","../audio/32-3-masc.mp3"," ","","comprou","","","",""
"","741","audio-keyboard-response","165","412289","0.0-3.0-1.125","../audio/32-4-masc.mp3"," ","","um","","","",""
"","829","audio-keyboard-response","166","413393","0.0-3.0-1.126","../audio/32-5-masc.mp3"," ","","pilão","","","",""
"","1120","audio-keyboard-response","167","414785","0.0-3.0-1.127","../audio/32-6-masc.mp3"," ","","para","","","",""
"","731","audio-keyboard-response","168","415793","0.0-3.0-1.128","../audio/32-7-masc.mp3"," ","","a","","","",""
"","1381","audio-keyboard-response","169","417441","0.0-3.0-1.129","../audio/32-8-masc.mp3"," ","","cozinha.","","","",""
"","null","html-keyboard-response","170","418707","0.0-3.0-0.130-0.130","<span style= ""font-size:30px; font-family: monospace"">+</span>","null","fixation","","","","",""
"","171","audio-keyboard-response","171","419169","0.0-3.0-1.130","../audio/34-1-fem.mp3"," ","","Cobrança","","","",""
"","1339","audio-keyboard-response","172","420785","0.0-3.0-1.131","../audio/34-2-fem.mp3"," ","","excessiva","","","",""
"","688","audio-keyboard-response","173","421745","0.0-3.0-1.132","../audio/34-3-fem.mp3"," ","","é","","","",""
"","640","audio-keyboard-response","174","422657","0.0-3.0-1.133","../audio/34-4-fem.mp3"," ","","um","","","",""
"","771","audio-keyboard-response","175","423697","0.0-3.0-1.134","../audio/34-5-fem.mp3"," ","","fardo","","","",""
"","1011","audio-keyboard-response","176","424977","0.0-3.0-1.135","../audio/34-6-fem.mp3"," ","","para","","","",""
"","629","audio-keyboard-response","177","425890","0.0-3.0-1.136","../audio/34-7-fem.mp3"," ","","a","","","",""
"","2528","audio-keyboard-response","178","428706","0.0-3.0-1.137","../audio/34-8-fem.mp3"," ","","cabeça.","","","",""
"","null","html-keyboard-response","179","429974","0.0-3.0-0.138-0.138","<span style= ""font-size:30px; font-family: monospace"">+</span>","null","fixation","","","","",""
"","1099","audio-keyboard-response","180","431346","0.0-3.0-1.138","../audio/33-1-masc.mp3"," ","","Eles","","","",""
"","1112","audio-keyboard-response","181","432738","0.0-3.0-1.139","../audio/33-2-masc.mp3"," ","","sabem","","","",""
"","1480","audio-keyboard-response","182","434482","0.0-3.0-1.140","../audio/33-3-masc.mp3"," ","","do","","","",""
"","2011","audio-keyboard-response","183","436770","0.0-3.0-1.141","../audio/33-4-masc.mp3"," ","","seu","","","",""
"","1539","audio-keyboard-response","184","438594","0.0-3.0-1.142","../audio/33-5-masc.mp3"," ","","privilégio","","","",""
"","1061","audio-keyboard-response","185","439922","0.0-3.0-1.143","../audio/33-6-masc.mp3"," ","","nessa","","","",""
"","1149","audio-keyboard-response","186","441346","0.0-3.0-1.144","../audio/33-7-masc.mp3"," ","","confusão.","","","",""
"","null","html-keyboard-response","187","442615","0.0-3.0-0.145-0.145","<span style= ""font-size:30px; font-family: monospace"">+</span>","null","fixation","","","","",""
"","1240","audio-keyboard-response","188","444146","0.0-3.0-1.145","../audio/35-1-fem.mp3"," ","","A","","","",""
"","869","audio-keyboard-response","189","445282","0.0-3.0-1.146","../audio/35-2-fem.mp3"," ","","receita","","","",""
"","1131","audio-keyboard-response","190","446690","0.0-3.0-1.147","../audio/35-3-fem.mp3"," ","","para","","","",""
"","829","audio-keyboard-response","191","447794","0.0-3.0-1.148","../audio/35-4-fem.mp3"," ","","a","","","",""
"","1640","audio-keyboard-response","192","449714","0.0-3.0-1.149","../audio/35-5-fem.mp3"," ","","preparação","","","",""
"","720","audio-keyboard-response","193","450706","0.0-3.0-1.150","../audio/35-6-fem.mp3"," ","","do","","","",""
"","1051","audio-keyboard-response","194","452034","0.0-3.0-1.151","../audio/35-7-fem.mp3"," ","","bolo","","","",""
"","741","audio-keyboard-response","195","453042","0.0-3.0-1.152","../audio/35-8-fem.mp3"," ","","é","","","",""
"","1200","audio-keyboard-response","196","454514","0.0-3.0-1.153","../audio/35-9-fem.mp3"," ","","leve.","","","",""
"","10832","html-keyboard-response","197","465602","0.0-3.0-2.153-0.153","<span style=""font-size:25px; font-family: monospace"">A receita do bolo é pesada?</span>","n","","","A receita do bolo é pesada?","null","exp-sent","false"
"","null","html-keyboard-response","198","467126","0.0-3.0-0.154-0.154","<span style= ""font-size:30px; font-family: monospace"">+</span>","null","fixation","","","","",""
"","2669","audio-keyboard-response","199","470082","0.0-3.0-1.154","../audio/79-1-fem.mp3"," ","","A","","","",""
"","1451","audio-keyboard-response","200","471794","0.0-3.0-1.155","../audio/79-2-fem.mp3"," ","","médica","","","",""
"","1312","audio-keyboard-response","201","473378","0.0-3.0-1.156","../audio/79-3-fem.mp3"," ","","verificou","","","",""
"","851","audio-keyboard-response","202","474498","0.0-3.0-1.157","../audio/79-4-fem.mp3"," ","","a","","","",""
"","1189","audio-keyboard-response","203","475970","0.0-3.0-1.158","../audio/79-5-fem.mp3"," ","","gengiva","","","",""
"","691","audio-keyboard-response","204","476930","0.0-3.0-1.159","../audio/79-6-fem.mp3"," ","","por","","","",""
"","1179","audio-keyboard-response","205","478386","0.0-3.0-1.160","../audio/79-7-fem.mp3"," ","","último.","","","",""
"","null","html-keyboard-response","206","479656","0.0-3.0-0.161-0.161","<span style= ""font-size:30px; font-family: monospace"">+</span>","null","fixation","","","","",""
"","320","audio-keyboard-response","207","480242","0.0-3.0-1.161","../audio/78-1-masc.mp3"," ","","Eles","","","",""
"","1069","audio-keyboard-response","208","481586","0.0-3.0-1.162","../audio/78-2-masc.mp3"," ","","trazem","","","",""
"","840","audio-keyboard-response","209","482706","0.0-3.0-1.163","../audio/78-3-masc.mp3"," ","","um","","","",""
"","800","audio-keyboard-response","210","483778","0.0-3.0-1.164","../audio/78-4-masc.mp3"," ","","fato","","","",""
"","1091","audio-keyboard-response","211","485138","0.0-3.0-1.165","../audio/78-5-masc.mp3"," ","","urgente","","","",""
"","771","audio-keyboard-response","212","486177","0.0-3.0-1.166","../audio/78-6-masc.mp3"," ","","todos","","","",""
"","371","audio-keyboard-response","213","486817","0.0-3.0-1.167","../audio/78-7-masc.mp3"," ","","os","","","",""
"","840","audio-keyboard-response","214","487921","0.0-3.0-1.168","../audio/78-8-masc.mp3"," ","","dias.","","","",""
"","null","html-keyboard-response","215","489181","0.0-3.0-0.169-0.169","<span style= ""font-size:30px; font-family: monospace"">+</span>","null","fixation","","","","",""
"","1352","audio-keyboard-response","216","490817","0.0-3.0-1.169","../audio/76-1-fem.mp3"," ","","O","","","",""
"","1720","audio-keyboard-response","217","492817","0.0-3.0-1.170","../audio/76-2-fem.mp3"," ","","bisavô","","","",""
"","1800","audio-keyboard-response","218","494897","0.0-3.0-1.171","../audio/76-3-fem.mp3"," ","","comprou","","","",""
"","939","audio-keyboard-response","219","496113","0.0-3.0-1.172","../audio/76-4-fem.mp3"," ","","um","","","",""
"","1581","audio-keyboard-response","220","497969","0.0-3.0-1.173","../audio/76-5-fem.mp3"," ","","ralador","","","",""
"","29979","audio-keyboard-response","221","528225","0.0-3.0-1.174","../audio/76-6-fem.mp3"," ","","de","","","",""
"","1000","audio-keyboard-response","222","529505","0.0-3.0-1.175","../audio/76-7-fem.mp3"," ","","queijo.","","","",""
"","null","html-keyboard-response","223","530766","0.0-3.0-0.176-0.176","<span style= ""font-size:30px; font-family: monospace"">+</span>","null","fixation","","","","",""
"","1069","audio-keyboard-response","224","532129","0.0-3.0-1.176","../audio/77-1-fem.mp3"," ","","A","","","",""
"","1680","audio-keyboard-response","225","534081","0.0-3.0-1.177","../audio/77-2-fem.mp3"," ","","criança","","","",""
"","1061","audio-keyboard-response","226","535409","0.0-3.0-1.178","../audio/77-3-fem.mp3"," ","","ficou","","","",""
"","1109","audio-keyboard-response","227","536785","0.0-3.0-1.179","../audio/77-4-fem.mp3"," ","","muito","","","",""
"","1280","audio-keyboard-response","228","538337","0.0-3.0-1.180","../audio/77-5-fem.mp3"," ","","feliz","","","",""
"","880","audio-keyboard-response","229","539489","0.0-3.0-1.181","../audio/77-6-fem.mp3"," ","","com","","","",""
"","811","audio-keyboard-response","230","540561","0.0-3.0-1.182","../audio/77-7-fem.mp3"," ","","o","","","",""
"","1051","audio-keyboard-response","231","541889","0.0-3.0-1.183","../audio/77-8-fem.mp3"," ","","brinquedo.","","","",""
"","null","html-keyboard-response","232","543158","0.0-3.0-0.184-0.184","<span style= ""font-size:30px; font-family: monospace"">+</span>","null","fixation","","","","",""
"","1251","audio-keyboard-response","233","544673","0.0-3.0-1.184","../audio/80-1-masc.mp3"," ","","Meu","","","",""
"","931","audio-keyboard-response","234","545873","0.0-3.0-1.185","../audio/80-2-masc.mp3"," ","","primo","","","",""
"","1072","audio-keyboard-response","235","547217","0.0-3.0-1.186","../audio/80-3-masc.mp3"," ","","conheceu","","","",""
"","808","audio-keyboard-response","236","548305","0.0-3.0-1.187","../audio/80-4-masc.mp3"," ","","um","","","",""
"","1069","audio-keyboard-response","237","549650","0.0-3.0-1.188","../audio/80-5-masc.mp3"," ","","jovem","","","",""
"","1131","audio-keyboard-response","238","551041","0.0-3.0-1.189","../audio/80-6-masc.mp3"," ","","amável","","","",""
"","800","audio-keyboard-response","239","552113","0.0-3.0-1.190","../audio/80-7-masc.mp3"," ","","e","","","",""
"","1491","audio-keyboard-response","240","553873","0.0-3.0-1.191","../audio/80-8-masc.mp3"," ","","confiante.","","","",""
"","10807","html-keyboard-response","241","564945","0.0-3.0-2.191-0.191","<span style=""font-size:25px; font-family: monospace"">O primo conheceu um jovem irritante?</span>","n","","","O primo conheceu um jovem irritante?","null","exp-sent","false"
"","null","html-keyboard-response","242","566454","0.0-3.0-0.192-0.192","<span style= ""font-size:30px; font-family: monospace"">+</span>","null","fixation","","","","",""
"","2440","audio-keyboard-response","243","569169","0.0-3.0-1.192","../audio/71-1-masc.mp3"," ","","Minhas","","","",""
"","768","audio-keyboard-response","244","570225","0.0-3.0-1.193","../audio/71-2-masc.mp3"," ","","comidas","","","",""
"","1451","audio-keyboard-response","245","571953","0.0-3.0-1.194","../audio/71-3-masc.mp3"," ","","favoritas","","","",""
"","829","audio-keyboard-response","246","573041","0.0-3.0-1.195","../audio/71-4-masc.mp3"," ","","são","","","",""
"","701","audio-keyboard-response","247","574017","0.0-3.0-1.196","../audio/71-5-masc.mp3"," ","","morango","","","",""
"","659","audio-keyboard-response","248","574945","0.0-3.0-1.197","../audio/71-6-masc.mp3"," ","","e","","","",""
"","840","audio-keyboard-response","249","576049","0.0-3.0-1.198","../audio/71-7-masc.mp3"," ","","uva.","","","",""
"","null","html-keyboard-response","250","577318","0.0-3.0-0.199-0.199","<span style= ""font-size:30px; font-family: monospace"">+</span>","null","fixation","","","","",""
"","1029","audio-keyboard-response","251","578625","0.0-3.0-1.199","../audio/74-1-fem.mp3"," ","","Este","","","",""
"","1640","audio-keyboard-response","252","580545","0.0-3.0-1.200","../audio/74-2-fem.mp3"," ","","emprego","","","",""
"","1139","audio-keyboard-response","253","581953","0.0-3.0-1.201","../audio/74-3-fem.mp3"," ","","é","","","",""
"","901","audio-keyboard-response","254","583121","0.0-3.0-1.202","../audio/74-4-fem.mp3"," ","","muito","","","",""
"","1411","audio-keyboard-response","255","584801","0.0-3.0-1.203","../audio/74-5-fem.mp3"," ","","cansativo","","","",""
"","651","audio-keyboard-response","256","585729","0.0-3.0-1.204","../audio/74-6-fem.mp3"," ","","a","","","",""
"","1091","audio-keyboard-response","257","587089","0.0-3.0-1.205","../audio/74-7-fem.mp3"," ","","longo","","","",""
"","971","audio-keyboard-response","258","588337","0.0-3.0-1.206","../audio/74-8-fem.mp3"," ","","prazo.","","","",""
"","null","html-keyboard-response","259","589604","0.0-3.0-0.207-0.207","<span style= ""font-size:30px; font-family: monospace"">+</span>","null","fixation","","","","",""
"","840","audio-keyboard-response","260","590721","0.0-3.0-1.207","../audio/72-1-masc.mp3"," ","","A","","","",""
"","1341","audio-keyboard-response","261","592337","0.0-3.0-1.208","../audio/72-2-masc.mp3"," ","","vencedora","","","",""
"","1259","audio-keyboard-response","262","593873","0.0-3.0-1.209","../audio/72-3-masc.mp3"," ","","recebeu","","","",""
"","800","audio-keyboard-response","263","594945","0.0-3.0-1.210","../audio/72-4-masc.mp3"," ","","um","","","",""
"","952","audio-keyboard-response","264","596177","0.0-3.0-1.211","../audio/72-5-masc.mp3"," ","","prêmio","","","",""
"","909","audio-keyboard-response","265","597361","0.0-3.0-1.212","../audio/72-6-masc.mp3"," ","","em","","","",""
"","1331","audio-keyboard-response","266","598961","0.0-3.0-1.213","../audio/72-7-masc.mp3"," ","","dinheiro.","","","",""
"","null","html-keyboard-response","267","600242","0.0-3.0-0.214-0.214","<span style= ""font-size:30px; font-family: monospace"">+</span>","null","fixation","","","","",""
"","781","audio-keyboard-response","268","601297","0.0-3.0-1.214","../audio/73-1-masc.mp3"," ","","O","","","",""
"","869","audio-keyboard-response","269","602449","0.0-3.0-1.215","../audio/73-2-masc.mp3"," ","","cliente","","","",""
"","869","audio-keyboard-response","270","603585","0.0-3.0-1.216","../audio/73-3-masc.mp3"," ","","era","","","",""
"","760","audio-keyboard-response","271","604625","0.0-3.0-1.217","../audio/73-4-masc.mp3"," ","","um","","","",""
"","1021","audio-keyboard-response","272","605921","0.0-3.0-1.218","../audio/73-5-masc.mp3"," ","","homem","","","",""
"","1280","audio-keyboard-response","273","607474","0.0-3.0-1.219","../audio/73-6-masc.mp3"," ","","muito","","","",""
"","1440","audio-keyboard-response","274","609185","0.0-3.0-1.220","../audio/73-7-masc.mp3"," ","","educado.","","","",""
"","null","html-keyboard-response","275","610460","0.0-3.0-0.221-0.221","<span style= ""font-size:30px; font-family: monospace"">+</span>","null","fixation","","","","",""
"","821","audio-keyboard-response","276","611569","0.0-3.0-1.221","../audio/75-1-masc.mp3"," ","","Só","","","",""
"","1371","audio-keyboard-response","277","613201","0.0-3.0-1.222","../audio/75-2-masc.mp3"," ","","existe","","","",""
"","851","audio-keyboard-response","278","614321","0.0-3.0-1.223","../audio/75-3-masc.mp3"," ","","uma","","","",""
"","941","audio-keyboard-response","279","615537","0.0-3.0-1.224","../audio/75-4-masc.mp3"," ","","pessoa","","","",""
"","1480","audio-keyboard-response","280","617281","0.0-3.0-1.225","../audio/75-5-masc.mp3"," ","","canhota","","","",""
"","1219","audio-keyboard-response","281","618785","0.0-3.0-1.226","../audio/75-6-masc.mp3"," ","","nesta","","","",""
"","1059","audio-keyboard-response","282","620113","0.0-3.0-1.227","../audio/75-7-masc.mp3"," ","","cidade.","","","",""
"","6085","html-keyboard-response","283","626449","0.0-3.0-2.227-0.227","<span style=""font-size:25px; font-family: monospace"">Só existe uma pessoa canhota na cidade?</span>","s","","","Só existe uma pessoa canhota na cidade?","null","exp-sent","false"
"","null","html-keyboard-response","284","627964","0.0-3.0-0.228-0.228","<span style= ""font-size:30px; font-family: monospace"">+</span>","null","fixation","","","","",""
"","1499","audio-keyboard-response","285","629745","0.0-3.0-1.228","../audio/44-1-masc.mp3"," ","","Meus","","","",""
"","429","audio-keyboard-response","286","630449","0.0-3.0-1.229","../audio/44-2-masc.mp3"," ","","irmãos","","","",""
"","1000","audio-keyboard-response","287","631729","0.0-3.0-1.230","../audio/44-3-masc.mp3"," ","","brigam","","","",""
"","1539","audio-keyboard-response","288","633553","0.0-3.0-1.231","../audio/44-4-masc.mp3"," ","","por","","","",""
"","1669","audio-keyboard-response","289","635505","0.0-3.0-1.232","../audio/44-5-masc.mp3"," ","","bobagem","","","",""
"","899","audio-keyboard-response","290","636673","0.0-3.0-1.233","../audio/44-6-masc.mp3"," ","","todos","","","",""
"","859","audio-keyboard-response","291","637793","0.0-3.0-1.234","../audio/44-7-masc.mp3"," ","","os","","","",""
"","821","audio-keyboard-response","292","638881","0.0-3.0-1.235","../audio/44-8-masc.mp3"," ","","dias.","","","",""
"","null","html-keyboard-response","293","640158","0.0-3.0-0.236-0.236","<span style= ""font-size:30px; font-family: monospace"">+</span>","null","fixation","","","","",""
"","221","audio-keyboard-response","294","640641","0.0-3.0-1.236","../audio/42-1-fem.mp3"," ","","Eu","","","",""
"","880","audio-keyboard-response","295","641793","0.0-3.0-1.237","../audio/42-2-fem.mp3"," ","","fui","","","",""
"","781","audio-keyboard-response","296","642849","0.0-3.0-1.238","../audio/42-3-fem.mp3"," ","","a","","","",""
"","1211","audio-keyboard-response","297","644337","0.0-3.0-1.239","../audio/42-4-fem.mp3"," ","","uma","","","",""
"","7920","audio-keyboard-response","298","652545","0.0-3.0-1.240","../audio/42-5-fem.mp3"," ","","loja","","","",""
"","1181","audio-keyboard-response","299","654017","0.0-3.0-1.241","../audio/42-6-fem.mp3"," ","","de","","","",""
"","1440","audio-keyboard-response","300","655729","0.0-3.0-1.242","../audio/42-7-fem.mp3"," ","","móveis","","","",""
"","1360","audio-keyboard-response","301","657361","0.0-3.0-1.243","../audio/42-8-fem.mp3"," ","","no","","","",""
"","4960","audio-keyboard-response","302","662593","0.0-3.0-1.244","../audio/42-9-fem.mp3"," ","","bairro.","","","",""
"","null","html-keyboard-response","303","663859","0.0-3.0-0.245-0.245","<span style= ""font-size:30px; font-family: monospace"">+</span>","null","fixation","","","","",""
"","752","audio-keyboard-response","304","664897","0.0-3.0-1.245","../audio/41-1-fem.mp3"," ","","A","","","",""
"","1259","audio-keyboard-response","305","666433","0.0-3.0-1.246","../audio/41-2-fem.mp3"," ","","novela","","","",""
"","1331","audio-keyboard-response","306","668033","0.0-3.0-1.247","../audio/41-3-fem.mp3"," ","","falava","","","",""
"","800","audio-keyboard-response","307","669105","0.0-3.0-1.248","../audio/41-4-fem.mp3"," ","","de","","","",""
"","1120","audio-keyboard-response","308","670497","0.0-3.0-1.249","../audio/41-5-fem.mp3"," ","","paixão","","","",""
"","629","audio-keyboard-response","309","671409","0.0-3.0-1.250","../audio/41-6-fem.mp3"," ","","e","","","",""
"","840","audio-keyboard-response","310","672529","0.0-3.0-1.251","../audio/41-7-fem.mp3"," ","","comédia.","","","",""
"","null","html-keyboard-response","311","673801","0.0-3.0-0.252-0.252","<span style= ""font-size:30px; font-family: monospace"">+</span>","null","fixation","","","","",""
"","1480","audio-keyboard-response","312","675569","0.0-3.0-1.252","../audio/43-1-masc.mp3"," ","","Eu","","","",""
"","1011","audio-keyboard-response","313","676849","0.0-3.0-1.253","../audio/43-2-masc.mp3"," ","","achei","","","",""
"","789","audio-keyboard-response","314","677905","0.0-3.0-1.254","../audio/43-3-masc.mp3"," ","","um","","","",""
"","1051","audio-keyboard-response","315","679233","0.0-3.0-1.255","../audio/43-4-masc.mp3"," ","","colchão","","","",""
"","941","audio-keyboard-response","316","680449","0.0-3.0-1.256","../audio/43-5-masc.mp3"," ","","velho","","","",""
"","749","audio-keyboard-response","317","681473","0.0-3.0-1.257","../audio/43-6-masc.mp3"," ","","e","","","",""
"","1251","audio-keyboard-response","318","682993","0.0-3.0-1.258","../audio/43-7-masc.mp3"," ","","imundo","","","",""
"","821","audio-keyboard-response","319","684081","0.0-3.0-1.259","../audio/43-8-masc.mp3"," ","","na","","","",""
"","891","audio-keyboard-response","320","685233","0.0-3.0-1.260","../audio/43-9-masc.mp3"," ","","casa.","","","",""
"","null","html-keyboard-response","321","686492","0.0-3.0-0.261-0.261","<span style= ""font-size:30px; font-family: monospace"">+</span>","null","fixation","","","","",""
"","611","audio-keyboard-response","322","687377","0.0-3.0-1.261","../audio/45-1-masc.mp3"," ","","O","","","",""
"","949","audio-keyboard-response","323","688609","0.0-3.0-1.262","../audio/45-2-masc.mp3"," ","","homem","","","",""
"","909","audio-keyboard-response","324","689809","0.0-3.0-1.263","../audio/45-3-masc.mp3"," ","","pagou","","","",""
"","720","audio-keyboard-response","325","690801","0.0-3.0-1.264","../audio/45-4-masc.mp3"," ","","o","","","",""
"","931","audio-keyboard-response","326","692001","0.0-3.0-1.265","../audio/45-5-masc.mp3"," ","","aluguel","","","",""
"","749","audio-keyboard-response","327","693025","0.0-3.0-1.266","../audio/45-6-masc.mp3"," ","","com","","","",""
"","1069","audio-keyboard-response","328","694369","0.0-3.0-1.267","../audio/45-7-masc.mp3"," ","","atraso.","","","",""
"","8519","html-keyboard-response","329","703153","0.0-3.0-2.267-0.267","<span style=""font-size:25px; font-family: monospace"">O homem pagou o aluguel em dia?</span>","n","","","O homem pagou o aluguel em dia?","null","exp-sent","false"
"","null","html-keyboard-response","330","704667","0.0-3.0-0.268-0.268","<span style= ""font-size:30px; font-family: monospace"">+</span>","null","fixation","","","","",""
"","1680","audio-keyboard-response","331","706625","0.0-3.0-1.268","../audio/16-1-masc.mp3"," ","","Eu","","","",""
"","1149","audio-keyboard-response","332","708049","0.0-3.0-1.269","../audio/16-2-masc.mp3"," ","","nunca","","","",""
"","1211","audio-keyboard-response","333","709537","0.0-3.0-1.270","../audio/16-3-masc.mp3"," ","","conheci","","","",""
"","699","audio-keyboard-response","334","710513","0.0-3.0-1.271","../audio/16-4-masc.mp3"," ","","um","","","",""
"","1531","audio-keyboard-response","335","712321","0.0-3.0-1.272","../audio/16-5-masc.mp3"," ","","general","","","",""
"","749","audio-keyboard-response","336","713345","0.0-3.0-1.273","../audio/16-6-masc.mp3"," ","","do","","","",""
"","1432","audio-keyboard-response","337","715057","0.0-3.0-1.274","../audio/16-7-masc.mp3"," ","","exército.","","","",""
"","null","html-keyboard-response","338","716319","0.0-3.0-0.275-0.275","<span style= ""font-size:30px; font-family: monospace"">+</span>","null","fixation","","","","",""
"","21","audio-keyboard-response","339","716609","0.0-3.0-1.275","../audio/17-1-fem.mp3"," ","","Falaram","","","",""
"","920","audio-keyboard-response","340","717793","0.0-3.0-1.276","../audio/17-2-fem.mp3"," ","","da","","","",""
"","931","audio-keyboard-response","341","718993","0.0-3.0-1.277","../audio/17-3-fem.mp3"," ","","lei","","","",""
"","880","audio-keyboard-response","342","720145","0.0-3.0-1.278","../audio/17-4-fem.mp3"," ","","no","","","",""
"","1320","audio-keyboard-response","343","721745","0.0-3.0-1.279","../audio/17-5-fem.mp3"," ","","ministério","","","",""
"","1181","audio-keyboard-response","344","723201","0.0-3.0-1.280","../audio/17-6-fem.mp3"," ","","diversas","","","",""
"","899","audio-keyboard-response","345","724385","0.0-3.0-1.281","../audio/17-7-fem.mp3"," ","","vezes.","","","",""
"","null","html-keyboard-response","346","725654","0.0-3.0-0.282-0.282","<span style= ""font-size:30px; font-family: monospace"">+</span>","null","fixation","","","","",""
"","819","audio-keyboard-response","347","726753","0.0-3.0-1.282","../audio/19-1-masc.mp3"," ","","O","","","",""
"","1011","audio-keyboard-response","348","728032","0.0-3.0-1.283","../audio/19-2-masc.mp3"," ","","menino","","","",""
"","931","audio-keyboard-response","349","729232","0.0-3.0-1.284","../audio/19-3-masc.mp3"," ","","ganhou","","","",""
"","821","audio-keyboard-response","350","730336","0.0-3.0-1.285","../audio/19-4-masc.mp3"," ","","uma","","","",""
"","1048","audio-keyboard-response","351","731664","0.0-3.0-1.286","../audio/19-5-masc.mp3"," ","","bala","","","",""
"","971","audio-keyboard-response","352","732912","0.0-3.0-1.287","../audio/19-6-masc.mp3"," ","","depois","","","",""
"","771","audio-keyboard-response","353","733952","0.0-3.0-1.288","../audio/19-7-masc.mp3"," ","","do","","","",""
"","1731","audio-keyboard-response","354","735952","0.0-3.0-1.289","../audio/19-8-masc.mp3"," ","","almoço.","","","",""
"","null","html-keyboard-response","355","737221","0.0-3.0-0.290-0.290","<span style= ""font-size:30px; font-family: monospace"">+</span>","null","fixation","","","","",""
"","741","audio-keyboard-response","356","738240","0.0-3.0-1.290","../audio/18-1-fem.mp3"," ","","O","","","",""
"","1349","audio-keyboard-response","357","739872","0.0-3.0-1.291","../audio/18-2-fem.mp3"," ","","enredo","","","",""
"","941","audio-keyboard-response","358","741088","0.0-3.0-1.292","../audio/18-3-fem.mp3"," ","","traz","","","",""
"","829","audio-keyboard-response","359","742192","0.0-3.0-1.293","../audio/18-4-fem.mp3"," ","","um","","","",""
"","1232","audio-keyboard-response","360","743696","0.0-3.0-1.294","../audio/18-5-fem.mp3"," ","","dragão","","","",""
"","1080","audio-keyboard-response","361","745056","0.0-3.0-1.295","../audio/18-6-fem.mp3"," ","","forte","","","",""
"","640","audio-keyboard-response","362","745968","0.0-3.0-1.296","../audio/18-7-fem.mp3"," ","","e","","","",""
"","1120","audio-keyboard-response","363","747360","0.0-3.0-1.297","../audio/18-8-fem.mp3"," ","","solitário.","","","",""
"","null","html-keyboard-response","364","748627","0.0-3.0-0.298-0.298","<span style= ""font-size:30px; font-family: monospace"">+</span>","null","fixation","","","","",""
"","768","audio-keyboard-response","365","749664","0.0-3.0-1.298","../audio/20-1-fem.mp3"," ","","O","","","",""
"","1259","audio-keyboard-response","366","751184","0.0-3.0-1.299","../audio/20-2-fem.mp3"," ","","colega","","","",""
"","1229","audio-keyboard-response","367","752688","0.0-3.0-1.300","../audio/20-3-fem.mp3"," ","","parecia","","","",""
"","1280","audio-keyboard-response","368","754240","0.0-3.0-1.301","../audio/20-4-fem.mp3"," ","","muito","","","",""
"","1440","audio-keyboard-response","369","755952","0.0-3.0-1.302","../audio/20-5-fem.mp3"," ","","gripado","","","",""
"","920","audio-keyboard-response","370","757136","0.0-3.0-1.303","../audio/20-6-fem.mp3"," ","","no","","","",""
"","979","audio-keyboard-response","371","758384","0.0-3.0-1.304","../audio/20-7-fem.mp3"," ","","dia","","","",""
"","1459","audio-keyboard-response","372","760112","0.0-3.0-1.305","../audio/20-8-fem.mp3"," ","","anterior.","","","",""
"","30649","html-keyboard-response","373","791023","0.0-3.0-2.305-0.305","<span style=""font-size:25px; font-family: monospace"">O colega parecia muito gripado?</span>","n","","","O colega parecia muito gripado?","null","exp-sent","false"
"","null","html-keyboard-response","374","792525","0.0-3.0-0.306-0.306","<span style= ""font-size:30px; font-family: monospace"">+</span>","null","fixation","","","","",""
"","2979","audio-keyboard-response","375","795775","0.0-3.0-1.306","../audio/26-1-masc.mp3"," ","","Amanhã","","","",""
"","1109","audio-keyboard-response","376","797167","0.0-3.0-1.307","../audio/26-2-masc.mp3"," ","","temos","","","",""
"","1720","audio-keyboard-response","377","799150","0.0-3.0-1.308","../audio/26-3-masc.mp3"," ","","festa","","","",""
"","1331","audio-keyboard-response","378","800750","0.0-3.0-1.309","../audio/26-4-masc.mp3"," ","","na","","","",""
"","9491","audio-keyboard-response","379","810511","0.0-3.0-1.310","../audio/26-5-masc.mp3"," ","","piscina","","","",""
"","789","audio-keyboard-response","380","811582","0.0-3.0-1.311","../audio/26-6-masc.mp3"," ","","o","","","",""
"","1040","audio-keyboard-response","381","812895","0.0-3.0-1.312","../audio/26-7-masc.mp3"," ","","dia","","","",""
"","1701","audio-keyboard-response","382","814862","0.0-3.0-1.313","../audio/26-8-masc.mp3"," ","","todo.","","","",""
"","null","html-keyboard-response","383","816132","0.0-3.0-0.314-0.314","<span style= ""font-size:30px; font-family: monospace"">+</span>","null","fixation","","","","",""
"","621","audio-keyboard-response","384","817022","0.0-3.0-1.314","../audio/29-1-masc.mp3"," ","","Hoje","","","",""
"","901","audio-keyboard-response","385","818190","0.0-3.0-1.315","../audio/29-2-masc.mp3"," ","","vamos","","","",""
"","749","audio-keyboard-response","386","819214","0.0-3.0-1.316","../audio/29-3-masc.mp3"," ","","fazer","","","",""
"","680","audio-keyboard-response","387","820174","0.0-3.0-1.317","../audio/29-4-masc.mp3"," ","","uma","","","",""
"","1280","audio-keyboard-response","388","821743","0.0-3.0-1.318","../audio/29-5-masc.mp3"," ","","atividade","","","",""
"","1139","audio-keyboard-response","389","823167","0.0-3.0-1.319","../audio/29-6-masc.mp3"," ","","sobre","","","",""
"","1101","audio-keyboard-response","390","824542","0.0-3.0-1.320","../audio/29-7-masc.mp3"," ","","fauna","","","",""
"","1051","audio-keyboard-response","391","825870","0.0-3.0-1.321","../audio/29-8-masc.mp3"," ","","marinha.","","","",""
"","null","html-keyboard-response","392","827131","0.0-3.0-0.322-0.322","<span style= ""font-size:30px; font-family: monospace"">+</span>","null","fixation","","","","",""
"","312","audio-keyboard-response","393","827710","0.0-3.0-1.322","../audio/27-1-fem.mp3"," ","","O","","","",""
"","1189","audio-keyboard-response","394","829182","0.0-3.0-1.323","../audio/27-2-fem.mp3"," ","","dinheiro","","","",""
"","1061","audio-keyboard-response","395","830511","0.0-3.0-1.324","../audio/27-3-fem.mp3"," ","","chegou","","","",""
"","851","audio-keyboard-response","396","831630","0.0-3.0-1.325","../audio/27-4-fem.mp3"," ","","à","","","",""
"","648","audio-keyboard-response","397","832559","0.0-3.0-1.326","../audio/27-5-fem.mp3"," ","","elite","","","",""
"","1000","audio-keyboard-response","398","833822","0.0-3.0-1.327","../audio/27-6-fem.mp3"," ","","deste","","","",""
"","771","audio-keyboard-response","399","834862","0.0-3.0-1.328","../audio/27-7-fem.mp3"," ","","país.","","","",""
"","null","html-keyboard-response","400","836123","0.0-3.0-0.329-0.329","<span style= ""font-size:30px; font-family: monospace"">+</span>","null","fixation","","","","",""
"","640","audio-keyboard-response","401","837038","0.0-3.0-1.329","../audio/28-1-masc.mp3"," ","","O","","","",""
"","720","audio-keyboard-response","402","838030","0.0-3.0-1.330","../audio/28-2-masc.mp3"," ","","time","","","",""
"","781","audio-keyboard-response","403","839070","0.0-3.0-1.331","../audio/28-3-masc.mp3"," ","","quer","","","",""
"","611","audio-keyboard-response","404","839950","0.0-3.0-1.332","../audio/28-4-masc.mp3"," ","","a","","","",""
"","928","audio-keyboard-response","405","841166","0.0-3.0-1.333","../audio/28-5-masc.mp3"," ","","vitória","","","",""
"","819","audio-keyboard-response","406","842254","0.0-3.0-1.334","../audio/28-6-masc.mp3"," ","","no","","","",""
"","1112","audio-keyboard-response","407","843631","0.0-3.0-1.335","../audio/28-7-masc.mp3"," ","","jogo","","","",""
"","800","audio-keyboard-response","408","844702","0.0-3.0-1.336","../audio/28-8-masc.mp3"," ","","de","","","",""
"","1000","audio-keyboard-response","409","845982","0.0-3.0-1.337","../audio/28-9-masc.mp3"," ","","vôlei.","","","",""
"","null","html-keyboard-response","410","847246","0.0-3.0-0.338-0.338","<span style= ""font-size:30px; font-family: monospace"">+</span>","null","fixation","","","","",""
"","629","audio-keyboard-response","411","848158","0.0-3.0-1.338","../audio/30-1-fem.mp3"," ","","O","","","",""
"","749","audio-keyboard-response","412","849182","0.0-3.0-1.339","../audio/30-2-fem.mp3"," ","","funcionário","","","",""
"","901","audio-keyboard-response","413","850349","0.0-3.0-1.340","../audio/30-3-fem.mp3"," ","","entregou","","","",""
"","669","audio-keyboard-response","414","851293","0.0-3.0-1.341","../audio/30-4-fem.mp3"," ","","o","","","",""
"","1149","audio-keyboard-response","415","852717","0.0-3.0-1.342","../audio/30-5-fem.mp3"," ","","restante","","","",""
"","600","audio-keyboard-response","416","853597","0.0-3.0-1.343","../audio/30-6-fem.mp3"," ","","do","","","",""
"","960","audio-keyboard-response","417","854845","0.0-3.0-1.344","../audio/30-7-fem.mp3"," ","","dinheiro.","","","",""
"","7346","html-keyboard-response","418","862445","0.0-3.0-2.344-0.344","<span style=""font-size:25px; font-family: monospace"">O funcionário entregou o contrato?</span>","n","","","O funcionário entregou o contrato?","null","exp-sent","false"
"","null","html-keyboard-response","419","863965","0.0-3.0-0.345-0.345","<span style= ""font-size:30px; font-family: monospace"">+</span>","null","fixation","","","","",""
"","1811","audio-keyboard-response","420","866061","0.0-3.0-1.345","../audio/13-1-fem.mp3"," ","","Para","","","",""
"","880","audio-keyboard-response","421","867213","0.0-3.0-1.346","../audio/13-2-fem.mp3"," ","","mim","","","",""
"","901","audio-keyboard-response","422","868380","0.0-3.0-1.347","../audio/13-3-fem.mp3"," ","","é","","","",""
"","2029","audio-keyboard-response","423","870685","0.0-3.0-1.348","../audio/13-4-fem.mp3"," ","","muito","","","",""
"","1200","audio-keyboard-response","424","872157","0.0-3.0-1.349","../audio/13-5-fem.mp3"," ","","difícil","","","",""
"","1200","audio-keyboard-response","425","873645","0.0-3.0-1.350","../audio/13-6-fem.mp3"," ","","acordar","","","",""
"","1029","audio-keyboard-response","426","874957","0.0-3.0-1.351","../audio/13-7-fem.mp3"," ","","cedo.","","","",""
"","null","html-keyboard-response","427","876228","0.0-3.0-0.352-0.352","<span style= ""font-size:30px; font-family: monospace"">+</span>","null","fixation","","","","",""
"","779","audio-keyboard-response","428","877293","0.0-3.0-1.352","../audio/12-1-masc.mp3"," ","","O","","","",""
"","749","audio-keyboard-response","429","878317","0.0-3.0-1.353","../audio/12-2-masc.mp3"," ","","dia","","","",""
"","1141","audio-keyboard-response","430","879741","0.0-3.0-1.354","../audio/12-3-masc.mp3"," ","","estava","","","",""
"","971","audio-keyboard-response","431","880989","0.0-3.0-1.355","../audio/12-4-masc.mp3"," ","","quente,","","","",""
"","1611","audio-keyboard-response","432","882877","0.0-3.0-1.356","../audio/12-5-masc.mp3"," ","","tranquilo","","","",""
"","749","audio-keyboard-response","433","883901","0.0-3.0-1.357","../audio/12-6-masc.mp3"," ","","e","","","",""
"","1389","audio-keyboard-response","434","885565","0.0-3.0-1.358","../audio/12-7-masc.mp3"," ","","ensolarado.","","","",""
"","null","html-keyboard-response","435","886841","0.0-3.0-0.359-0.359","<span style= ""font-size:30px; font-family: monospace"">+</span>","null","fixation","","","","",""
"","1240","audio-keyboard-response","436","888349","0.0-3.0-1.359","../audio/11-1-masc.mp3"," ","","Elas","","","",""
"","899","audio-keyboard-response","437","889533","0.0-3.0-1.360","../audio/11-2-masc.mp3"," ","","gostam","","","",""
"","1131","audio-keyboard-response","438","890941","0.0-3.0-1.361","../audio/11-3-masc.mp3"," ","","muito","","","",""
"","789","audio-keyboard-response","439","891997","0.0-3.0-1.362","../audio/11-4-masc.mp3"," ","","de","","","",""
"","1680","audio-keyboard-response","440","893949","0.0-3.0-1.363","../audio/11-5-masc.mp3"," ","","aritmética","","","",""
"","1200","audio-keyboard-response","441","895421","0.0-3.0-1.364","../audio/11-6-masc.mp3"," ","","e","","","",""
"","901","audio-keyboard-response","442","896589","0.0-3.0-1.365","../audio/11-7-masc.mp3"," ","","de","","","",""
"","1349","audio-keyboard-response","443","898221","0.0-3.0-1.366","../audio/11-8-masc.mp3"," ","","leitura.","","","",""
"","null","html-keyboard-response","444","899486","0.0-3.0-0.367-0.367","<span style= ""font-size:30px; font-family: monospace"">+</span>","null","fixation","","","","",""
"","851","audio-keyboard-response","445","900621","0.0-3.0-1.367","../audio/14-1-masc.mp3"," ","","O","","","",""
"","1069","audio-keyboard-response","446","901964","0.0-3.0-1.368","../audio/14-2-masc.mp3"," ","","cachorro","","","",""
"","752","audio-keyboard-response","447","902989","0.0-3.0-1.369","../audio/14-3-masc.mp3"," ","","é","","","",""
"","1019","audio-keyboard-response","448","904285","0.0-3.0-1.370","../audio/14-4-masc.mp3"," ","","muito","","","",""
"","960","audio-keyboard-response","449","905517","0.0-3.0-1.371","../audio/14-5-masc.mp3"," ","","fiel","","","",""
"","699","audio-keyboard-response","450","906493","0.0-3.0-1.372","../audio/14-6-masc.mp3"," ","","a","","","",""
"","1080","audio-keyboard-response","451","907837","0.0-3.0-1.373","../audio/14-7-masc.mp3"," ","","seus","","","",""
"","1608","audio-keyboard-response","452","909725","0.0-3.0-1.374","../audio/14-8-masc.mp3"," ","","donos.","","","",""
"","null","html-keyboard-response","453","910988","0.0-3.0-0.375-0.375","<span style= ""font-size:30px; font-family: monospace"">+</span>","null","fixation","","","","",""
"","1149","audio-keyboard-response","454","912412","0.0-3.0-1.375","../audio/15-1-fem.mp3"," ","","Meu","","","",""
"","1069","audio-keyboard-response","455","913756","0.0-3.0-1.376","../audio/15-2-fem.mp3"," ","","primo","","","",""
"","749","audio-keyboard-response","456","914780","0.0-3.0-1.377","../audio/15-3-fem.mp3"," ","","é","","","",""
"","821","audio-keyboard-response","457","915868","0.0-3.0-1.378","../audio/15-4-fem.mp3"," ","","um","","","",""
"","1480","audio-keyboard-response","458","917628","0.0-3.0-1.379","../audio/15-5-fem.mp3"," ","","grande","","","",""
"","1320","audio-keyboard-response","459","919228","0.0-3.0-1.380","../audio/15-6-fem.mp3"," ","","vendedor","","","",""
"","800","audio-keyboard-response","460","920300","0.0-3.0-1.381","../audio/15-7-fem.mp3"," ","","de","","","",""
"","1101","audio-keyboard-response","461","921676","0.0-3.0-1.382","../audio/15-8-fem.mp3"," ","","carros.","","","",""
"","6136","html-keyboard-response","462","928076","0.0-3.0-2.382-0.382","<span style=""font-size:25px; font-family: monospace"">O primo é um vendedor de carros?</span>","s","","","O primo é um vendedor de carros?","null","exp-sent","false"
"","null","html-keyboard-response","463","929581","0.0-3.0-0.383-0.383","<span style= ""font-size:30px; font-family: monospace"">+</span>","null","fixation","","","","",""
"","1299","audio-keyboard-response","464","931164","0.0-3.0-1.383","../audio/38-1-masc.mp3"," ","","A","","","",""
"","1120","audio-keyboard-response","465","932556","0.0-3.0-1.384","../audio/38-2-masc.mp3"," ","","empresa","","","",""
"","749","audio-keyboard-response","466","933580","0.0-3.0-1.385","../audio/38-3-masc.mp3"," ","","criou","","","",""
"","520","audio-keyboard-response","467","934380","0.0-3.0-1.386","../audio/38-4-masc.mp3"," ","","a","","","",""
"","1141","audio-keyboard-response","468","935788","0.0-3.0-1.387","../audio/38-5-masc.mp3"," ","","patente","","","",""
"","739","audio-keyboard-response","469","936796","0.0-3.0-1.388","../audio/38-6-masc.mp3"," ","","da","","","",""
"","1168","audio-keyboard-response","470","938236","0.0-3.0-1.389","../audio/38-7-masc.mp3"," ","","frigideira.","","","",""
"","null","html-keyboard-response","471","939494","0.0-3.0-0.390-0.390","<span style= ""font-size:30px; font-family: monospace"">+</span>","null","fixation","","","","",""
"","579","audio-keyboard-response","472","940364","0.0-3.0-1.390","../audio/39-1-masc.mp3"," ","","O","","","",""
"","1531","audio-keyboard-response","473","942172","0.0-3.0-1.391","../audio/39-2-masc.mp3"," ","","conselho","","","",""
"","832","audio-keyboard-response","474","943276","0.0-3.0-1.392","../audio/39-3-masc.mp3"," ","","foi","","","",""
"","4560","audio-keyboard-response","475","948108","0.0-3.0-1.393","../audio/39-4-masc.mp3"," ","","muito","","","",""
"","1200","audio-keyboard-response","476","949580","0.0-3.0-1.394","../audio/39-5-masc.mp3"," ","","útil","","","",""
"","811","audio-keyboard-response","477","950668","0.0-3.0-1.395","../audio/39-6-masc.mp3"," ","","para","","","",""
"","941","audio-keyboard-response","478","951900","0.0-3.0-1.396","../audio/39-7-masc.mp3"," ","","minha","","","",""
"","1819","audio-keyboard-response","479","953996","0.0-3.0-1.397","../audio/39-8-masc.mp3"," ","","tia.","","","",""
"","null","html-keyboard-response","480","955262","0.0-3.0-0.398-0.398","<span style= ""font-size:30px; font-family: monospace"">+</span>","null","fixation","","","","",""
"","891","audio-keyboard-response","481","956427","0.0-3.0-1.398","../audio/37-1-fem.mp3"," ","","Eu","","","",""
"","1339","audio-keyboard-response","482","958044","0.0-3.0-1.399","../audio/37-2-fem.mp3"," ","","adoro","","","",""
"","1251","audio-keyboard-response","483","959580","0.0-3.0-1.400","../audio/37-3-fem.mp3"," ","","suco","","","",""
"","789","audio-keyboard-response","484","960636","0.0-3.0-1.401","../audio/37-4-fem.mp3"," ","","de","","","",""
"","1259","audio-keyboard-response","485","962172","0.0-3.0-1.402","../audio/37-5-fem.mp3"," ","","manga","","","",""
"","920","audio-keyboard-response","486","963372","0.0-3.0-1.403","../audio/37-6-fem.mp3"," ","","com","","","",""
"","1429","audio-keyboard-response","487","965084","0.0-3.0-1.404","../audio/37-7-fem.mp3"," ","","hortelã.","","","",""
"","null","html-keyboard-response","488","966359","0.0-3.0-0.405-0.405","<span style= ""font-size:30px; font-family: monospace"">+</span>","null","fixation","","","","",""
"","832","audio-keyboard-response","489","967468","0.0-3.0-1.405","../audio/36-1-fem.mp3"," ","","Meu","","","",""
"","861","audio-keyboard-response","490","968588","0.0-3.0-1.406","../audio/36-2-fem.mp3"," ","","tio","","","",""
"","979","audio-keyboard-response","491","969852","0.0-3.0-1.407","../audio/36-3-fem.mp3"," ","","comprou","","","",""
"","731","audio-keyboard-response","492","970860","0.0-3.0-1.408","../audio/36-4-fem.mp3"," ","","um","","","",""
"","1200","audio-keyboard-response","493","972330","0.0-3.0-1.409","../audio/36-5-fem.mp3"," ","","filtro","","","",""
"","771","audio-keyboard-response","494","973370","0.0-3.0-1.410","../audio/36-6-fem.mp3"," ","","de","","","",""
"","941","audio-keyboard-response","495","974586","0.0-3.0-1.411","../audio/36-7-fem.mp3"," ","","água","","","",""
"","979","audio-keyboard-response","496","975834","0.0-3.0-1.412","../audio/36-8-fem.mp3"," ","","hoje","","","",""
"","1011","audio-keyboard-response","497","977130","0.0-3.0-1.413","../audio/36-9-fem.mp3"," ","","cedo.","","","",""
"","null","html-keyboard-response","498","978410","0.0-3.0-0.414-0.414","<span style= ""font-size:30px; font-family: monospace"">+</span>","null","fixation","","","","",""
"","760","audio-keyboard-response","499","979450","0.0-3.0-1.414","../audio/40-1-masc.mp3"," ","","O","","","",""
"","909","audio-keyboard-response","500","980634","0.0-3.0-1.415","../audio/40-2-masc.mp3"," ","","jogo","","","",""
"","629","audio-keyboard-response","501","981530","0.0-3.0-1.416","../audio/40-3-masc.mp3"," ","","falava","","","",""
"","680","audio-keyboard-response","502","982474","0.0-3.0-1.417","../audio/40-4-masc.mp3"," ","","de","","","",""
"","1040","audio-keyboard-response","503","983802","0.0-3.0-1.418","../audio/40-5-masc.mp3"," ","","fantasia","","","",""
"","960","audio-keyboard-response","504","985034","0.0-3.0-1.419","../audio/40-6-masc.mp3"," ","","e","","","",""
"","709","audio-keyboard-response","505","986010","0.0-3.0-1.420","../audio/40-7-masc.mp3"," ","","de","","","",""
"","1109","audio-keyboard-response","506","987402","0.0-3.0-1.421","../audio/40-8-masc.mp3"," ","","aventura.","","","",""
"","7673","html-keyboard-response","507","995338","0.0-3.0-2.421-0.421","<span style=""font-size:25px; font-family: monospace"">O jogo tinha fantasia e aventura?</span>","s","","","O jogo tinha fantasia e aventura?","null","exp-sent","false"
"","null","html-keyboard-response","508","996858","0.0-3.0-0.422-0.422","<span style= ""font-size:30px; font-family: monospace"">+</span>","null","fixation","","","","",""
"","1349","audio-keyboard-response","509","998474","0.0-3.0-1.422","../audio/51-1-fem.mp3"," ","","Suco","","","",""
"","491","audio-keyboard-response","510","999226","0.0-3.0-1.423","../audio/51-2-fem.mp3"," ","","de","","","",""
"","400","audio-keyboard-response","511","999898","0.0-3.0-1.424","../audio/51-3-fem.mp3"," ","","acerola","","","",""
"","640","audio-keyboard-response","512","1000810","0.0-3.0-1.425","../audio/51-4-fem.mp3"," ","","é","","","",""
"","909","audio-keyboard-response","513","1001994","0.0-3.0-1.426","../audio/51-5-fem.mp3"," ","","azedo","","","",""
"","629","audio-keyboard-response","514","1002890","0.0-3.0-1.427","../audio/51-6-fem.mp3"," ","","e","","","",""
"","949","audio-keyboard-response","515","1004122","0.0-3.0-1.428","../audio/51-7-fem.mp3"," ","","até","","","",""
"","1120","audio-keyboard-response","516","1005514","0.0-3.0-1.429","../audio/51-8-fem.mp3"," ","","barato.","","","",""
"","null","html-keyboard-response","517","1006770","0.0-3.0-0.430-0.430","<span style= ""font-size:30px; font-family: monospace"">+</span>","null","fixation","","","","",""
"","280","audio-keyboard-response","518","1007322","0.0-3.0-1.430","../audio/53-1-fem.mp3"," ","","O","","","",""
"","832","audio-keyboard-response","519","1008426","0.0-3.0-1.431","../audio/53-2-fem.mp3"," ","","médico","","","",""
"","1669","audio-keyboard-response","520","1010378","0.0-3.0-1.432","../audio/53-3-fem.mp3"," ","","foi","","","",""
"","1029","audio-keyboard-response","521","1011690","0.0-3.0-1.433","../audio/53-4-fem.mp3"," ","","bastante","","","",""
"","949","audio-keyboard-response","522","1012922","0.0-3.0-1.434","../audio/53-5-fem.mp3"," ","","preciso","","","",""
"","1131","audio-keyboard-response","523","1014330","0.0-3.0-1.435","../audio/53-6-fem.mp3"," ","","durante","","","",""
"","621","audio-keyboard-response","524","1015226","0.0-3.0-1.436","../audio/53-7-fem.mp3"," ","","a","","","",""
"","1219","audio-keyboard-response","525","1016714","0.0-3.0-1.437","../audio/53-8-fem.mp3"," ","","cirurgia.","","","",""
"","null","html-keyboard-response","526","1017978","0.0-3.0-0.438-0.438","<span style= ""font-size:30px; font-family: monospace"">+</span>","null","fixation","","","","",""
"","899","audio-keyboard-response","527","1019162","0.0-3.0-1.438","../audio/54-1-masc.mp3"," ","","Estou","","","",""
"","701","audio-keyboard-response","528","1020138","0.0-3.0-1.439","../audio/54-2-masc.mp3"," ","","com","","","",""
"","821","audio-keyboard-response","529","1021226","0.0-3.0-1.440","../audio/54-3-masc.mp3"," ","","medo","","","",""
"","739","audio-keyboard-response","530","1022250","0.0-3.0-1.441","../audio/54-4-masc.mp3"," ","","da","","","",""
"","872","audio-keyboard-response","531","1023386","0.0-3.0-1.442","../audio/54-5-masc.mp3"," ","","atual","","","",""
"","1368","audio-keyboard-response","532","1025034","0.0-3.0-1.443","../audio/54-6-masc.mp3"," ","","organização","","","",""
"","669","audio-keyboard-response","533","1025978","0.0-3.0-1.444","../audio/54-7-masc.mp3"," ","","do","","","",""
"","880","audio-keyboard-response","534","1027130","0.0-3.0-1.445","../audio/54-8-masc.mp3"," ","","país.","","","",""
"","null","html-keyboard-response","535","1028395","0.0-3.0-0.446-0.446","<span style= ""font-size:30px; font-family: monospace"">+</span>","null","fixation","","","","",""
"","968","audio-keyboard-response","536","1029642","0.0-3.0-1.446","../audio/52-1-fem.mp3"," ","","Às","","","",""
"","1101","audio-keyboard-response","537","1031018","0.0-3.0-1.447","../audio/52-2-fem.mp3"," ","","vezes","","","",""
"","749","audio-keyboard-response","538","1032040","0.0-3.0-1.448","../audio/52-3-fem.mp3"," ","","eu","","","",""
"","861","audio-keyboard-response","539","1033176","0.0-3.0-1.449","../audio/52-4-fem.mp3"," ","","tenho","","","",""
"","1240","audio-keyboard-response","540","1034696","0.0-3.0-1.450","../audio/52-5-fem.mp3"," ","","azia","","","",""
"","1171","audio-keyboard-response","541","1036153","0.0-3.0-1.451","../audio/52-6-fem.mp3"," ","","depois","","","",""
"","829","audio-keyboard-response","542","1037256","0.0-3.0-1.452","../audio/52-7-fem.mp3"," ","","da","","","",""
"","1179","audio-keyboard-response","543","1038712","0.0-3.0-1.453","../audio/52-8-fem.mp3"," ","","janta.","","","",""
"","null","html-keyboard-response","544","1039973","0.0-3.0-0.454-0.454","<span style= ""font-size:30px; font-family: monospace"">+</span>","null","fixation","","","","",""
"","709","audio-keyboard-response","545","1040969","0.0-3.0-1.454","../audio/55-1-masc.mp3"," ","","O","","","",""
"","891","audio-keyboard-response","546","1042137","0.0-3.0-1.455","../audio/55-2-masc.mp3"," ","","insulto","","","",""
"","960","audio-keyboard-response","547","1043368","0.0-3.0-1.456","../audio/55-3-masc.mp3"," ","","recente","","","",""
"","851","audio-keyboard-response","548","1044488","0.0-3.0-1.457","../audio/55-4-masc.mp3"," ","","causou","","","",""
"","1491","audio-keyboard-response","549","1046264","0.0-3.0-1.458","../audio/55-5-masc.mp3"," ","","indignação","","","",""
"","819","audio-keyboard-response","550","1047352","0.0-3.0-1.459","../audio/55-6-masc.mp3"," ","","em","","","",""
"","808","audio-keyboard-response","551","1048440","0.0-3.0-1.460","../audio/55-7-masc.mp3"," ","","todos.","","","",""
"","17637","html-keyboard-response","552","1066329","0.0-3.0-2.460-0.460","<span style=""font-size:25px; font-family: monospace"">O insulto causou calmaria?</span>","s","","","O insulto causou calmaria?","null","exp-sent","false"
"","null","html-keyboard-response","553","1067846","0.0-3.0-0.461-0.461","<span style= ""font-size:30px; font-family: monospace"">+</span>","null","fixation","","","","",""
"","1880","audio-keyboard-response","554","1070008","0.0-3.0-1.461","../audio/66-1-fem.mp3"," ","","Não","","","",""
"","1240","audio-keyboard-response","555","1071529","0.0-3.0-1.462","../audio/66-2-fem.mp3"," ","","gosto","","","",""
"","629","audio-keyboard-response","556","1072440","0.0-3.0-1.463","../audio/66-3-fem.mp3"," ","","de","","","",""
"","709","audio-keyboard-response","557","1073416","0.0-3.0-1.464","../audio/66-4-fem.mp3"," ","","gente","","","",""
"","1139","audio-keyboard-response","558","1074840","0.0-3.0-1.465","../audio/66-5-fem.mp3"," ","","egoísta","","","",""
"","819","audio-keyboard-response","559","1075928","0.0-3.0-1.466","../audio/66-6-fem.mp3"," ","","nem","","","",""
"","1109","audio-keyboard-response","560","1077321","0.0-3.0-1.467","../audio/66-7-fem.mp3"," ","","chata.","","","",""
"","null","html-keyboard-response","561","1078582","0.0-3.0-0.468-0.468","<span style= ""font-size:30px; font-family: monospace"">+</span>","null","fixation","","","","",""
"","688","audio-keyboard-response","562","1079560","0.0-3.0-1.468","../audio/69-1-masc.mp3"," ","","A","","","",""
"","789","audio-keyboard-response","563","1080616","0.0-3.0-1.469","../audio/69-2-masc.mp3"," ","","loja","","","",""
"","949","audio-keyboard-response","564","1081848","0.0-3.0-1.470","../audio/69-3-masc.mp3"," ","","recebeu","","","",""
"","800","audio-keyboard-response","565","1082920","0.0-3.0-1.471","../audio/69-4-masc.mp3"," ","","uma","","","",""
"","928","audio-keyboard-response","566","1084120","0.0-3.0-1.472","../audio/69-5-masc.mp3"," ","","poltrona","","","",""
"","720","audio-keyboard-response","567","1085112","0.0-3.0-1.473","../audio/69-6-masc.mp3"," ","","de","","","",""
"","1019","audio-keyboard-response","568","1086408","0.0-3.0-1.474","../audio/69-7-masc.mp3"," ","","couro","","","",""
"","1509","audio-keyboard-response","569","1088200","0.0-3.0-1.475","../audio/69-8-masc.mp3"," ","","preto.","","","",""
"","null","html-keyboard-response","570","1089464","0.0-3.0-0.476-0.476","<span style= ""font-size:30px; font-family: monospace"">+</span>","null","fixation","","","","",""
"","9411","audio-keyboard-response","571","1099143","0.0-3.0-1.476","../audio/67-1-fem.mp3"," ","","Minha","","","",""
"","1320","audio-keyboard-response","572","1100743","0.0-3.0-1.477","../audio/67-2-fem.mp3"," ","","tia","","","",""
"","939","audio-keyboard-response","573","1101959","0.0-3.0-1.478","../audio/67-3-fem.mp3"," ","","comprou","","","",""
"","701","audio-keyboard-response","574","1102935","0.0-3.0-1.479","../audio/67-4-fem.mp3"," ","","um","","","",""
"","1061","audio-keyboard-response","575","1104263","0.0-3.0-1.480","../audio/67-5-fem.mp3"," ","","cordão","","","",""
"","899","audio-keyboard-response","576","1105431","0.0-3.0-1.481","../audio/67-6-fem.mp3"," ","","para","","","",""
"","669","audio-keyboard-response","577","1106375","0.0-3.0-1.482","../audio/67-7-fem.mp3"," ","","o","","","",""
"","1139","audio-keyboard-response","578","1107799","0.0-3.0-1.483","../audio/67-8-fem.mp3"," ","","varal.","","","",""
"","null","html-keyboard-response","579","1109064","0.0-3.0-0.484-0.484","<span style= ""font-size:30px; font-family: monospace"">+</span>","null","fixation","","","","",""
"","909","audio-keyboard-response","580","1110247","0.0-3.0-1.484","../audio/68-1-fem.mp3"," ","","Meu","","","",""
"","960","audio-keyboard-response","581","1111479","0.0-3.0-1.485","../audio/68-2-fem.mp3"," ","","irmão","","","",""
"","629","audio-keyboard-response","582","1112375","0.0-3.0-1.486","../audio/68-3-fem.mp3"," ","","teve","","","",""
"","771","audio-keyboard-response","583","1113415","0.0-3.0-1.487","../audio/68-4-fem.mp3"," ","","um","","","",""
"","1211","audio-keyboard-response","584","1114903","0.0-3.0-1.488","../audio/68-5-fem.mp3"," ","","noivado","","","",""
"","949","audio-keyboard-response","585","1116135","0.0-3.0-1.489","../audio/68-6-fem.mp3"," ","","longo","","","",""
"","709","audio-keyboard-response","586","1117111","0.0-3.0-1.490","../audio/68-7-fem.mp3"," ","","e","","","",""
"","1459","audio-keyboard-response","587","1118839","0.0-3.0-1.491","../audio/68-8-fem.mp3"," ","","maravilhoso.","","","",""
"","null","html-keyboard-response","588","1120114","0.0-3.0-0.492-0.492","<span style= ""font-size:30px; font-family: monospace"">+</span>","null","fixation","","","","",""
"","659","audio-keyboard-response","589","1121047","0.0-3.0-1.492","../audio/70-1-masc.mp3"," ","","O","","","",""
"","811","audio-keyboard-response","590","1122135","0.0-3.0-1.493","../audio/70-2-masc.mp3"," ","","meu","","","",""
"","931","audio-keyboard-response","591","1123335","0.0-3.0-1.494","../audio/70-3-masc.mp3"," ","","filho","","","",""
"","829","audio-keyboard-response","592","1124439","0.0-3.0-1.495","../audio/70-4-masc.mp3"," ","","tem","","","",""
"","861","audio-keyboard-response","593","1125575","0.0-3.0-1.496","../audio/70-5-masc.mp3"," ","","medo","","","",""
"","749","audio-keyboard-response","594","1126599","0.0-3.0-1.497","../audio/70-6-masc.mp3"," ","","de","","","",""
"","1101","audio-keyboard-response","595","1127975","0.0-3.0-1.498","../audio/70-7-masc.mp3"," ","","enguia","","","",""
"","741","audio-keyboard-response","596","1128983","0.0-3.0-1.499","../audio/70-8-masc.mp3"," ","","e","","","",""
"","1488","audio-keyboard-response","597","1130759","0.0-3.0-1.500","../audio/70-9-masc.mp3"," ","","beija-flor.","","","",""
"","32158","html-keyboard-response","598","1163175","0.0-3.0-2.500-0.500","<span style=""font-size:25px; font-family: monospace"">O filho tem medo de tigre?</span>","s","","","O filho tem medo de tigre?","null","exp-sent","false"
"","null","html-keyboard-response","599","1164677","0.0-3.0-0.501-0.501","<span style= ""font-size:30px; font-family: monospace"">+</span>","null","fixation","","","","",""
"","1149","audio-keyboard-response","600","1166103","0.0-3.0-1.501","../audio/61-1-fem.mp3"," ","","Aquele","","","",""
"","600","audio-keyboard-response","601","1166983","0.0-3.0-1.502","../audio/61-2-fem.mp3"," ","","senhor","","","",""
"","661","audio-keyboard-response","602","1167911","0.0-3.0-1.503","../audio/61-3-fem.mp3"," ","","é","","","",""
"","861","audio-keyboard-response","603","1169047","0.0-3.0-1.504","../audio/61-4-fem.mp3"," ","","muito","","","",""
"","859","audio-keyboard-response","604","1170183","0.0-3.0-1.505","../audio/61-5-fem.mp3"," ","","sovina","","","",""
"","629","audio-keyboard-response","605","1171095","0.0-3.0-1.506","../audio/61-6-fem.mp3"," ","","e","","","",""
"","571","audio-keyboard-response","606","1171943","0.0-3.0-1.507","../audio/61-7-fem.mp3"," ","","inflexível.","","","",""
"","null","html-keyboard-response","607","1173198","0.0-3.0-0.508-0.508","<span style= ""font-size:30px; font-family: monospace"">+</span>","null","fixation","","","","",""
"","869","audio-keyboard-response","608","1174359","0.0-3.0-1.508","../audio/62-1-fem.mp3"," ","","As","","","",""
"","811","audio-keyboard-response","609","1175447","0.0-3.0-1.509","../audio/62-2-fem.mp3"," ","","artesãs","","","",""
"","760","audio-keyboard-response","610","1176487","0.0-3.0-1.510","../audio/62-3-fem.mp3"," ","","gostam","","","",""
"","709","audio-keyboard-response","611","1177479","0.0-3.0-1.511","../audio/62-4-fem.mp3"," ","","de","","","",""
"","1109","audio-keyboard-response","612","1178871","0.0-3.0-1.512","../audio/62-5-fem.mp3"," ","","maquiagem","","","",""
"","611","audio-keyboard-response","613","1179751","0.0-3.0-1.513","../audio/62-6-fem.mp3"," ","","e","","","",""
"","691","audio-keyboard-response","614","1180711","0.0-3.0-1.514","../audio/62-7-fem.mp3"," ","","de","","","",""
"","1051","audio-keyboard-response","615","1182039","0.0-3.0-1.515","../audio/62-8-fem.mp3"," ","","crochê.","","","",""
"","null","html-keyboard-response","616","1183296","0.0-3.0-0.516-0.516","<span style= ""font-size:30px; font-family: monospace"">+</span>","null","fixation","","","","",""
"","749","audio-keyboard-response","617","1184311","0.0-3.0-1.516","../audio/63-1-fem.mp3"," ","","A","","","",""
"","1192","audio-keyboard-response","618","1185767","0.0-3.0-1.517","../audio/63-2-fem.mp3"," ","","chuva","","","",""
"","941","audio-keyboard-response","619","1186999","0.0-3.0-1.518","../audio/63-3-fem.mp3"," ","","entrou","","","",""
"","560","audio-keyboard-response","620","1187847","0.0-3.0-1.519","../audio/63-4-fem.mp3"," ","","pela","","","",""
"","1160","audio-keyboard-response","621","1189287","0.0-3.0-1.520","../audio/63-5-fem.mp3"," ","","abertura","","","",""
"","568","audio-keyboard-response","622","1190135","0.0-3.0-1.521","../audio/63-6-fem.mp3"," ","","na","","","",""
"","1192","audio-keyboard-response","623","1191607","0.0-3.0-1.522","../audio/63-7-fem.mp3"," ","","janela.","","","",""
"","null","html-keyboard-response","624","1192888","0.0-3.0-0.523-0.523","<span style= ""font-size:30px; font-family: monospace"">+</span>","null","fixation","","","","",""
"","709","audio-keyboard-response","625","1193863","0.0-3.0-1.523","../audio/64-1-fem.mp3"," ","","O","","","",""
"","840","audio-keyboard-response","626","1194983","0.0-3.0-1.524","../audio/64-2-fem.mp3"," ","","dia","","","",""
"","1120","audio-keyboard-response","627","1196375","0.0-3.0-1.525","../audio/64-3-fem.mp3"," ","","começou","","","",""
"","789","audio-keyboard-response","628","1197431","0.0-3.0-1.526","../audio/64-4-fem.mp3"," ","","com","","","",""
"","880","audio-keyboard-response","629","1198583","0.0-3.0-1.527","../audio/64-5-fem.mp3"," ","","garoa","","","",""
"","1381","audio-keyboard-response","630","1200247","0.0-3.0-1.528","../audio/64-6-fem.mp3"," ","","gelada","","","",""
"","629","audio-keyboard-response","631","1201143","0.0-3.0-1.529","../audio/64-7-fem.mp3"," ","","e","","","",""
"","1621","audio-keyboard-response","632","1203047","0.0-3.0-1.530","../audio/64-8-fem.mp3"," ","","leve.","","","",""
"","null","html-keyboard-response","633","1204305","0.0-3.0-0.531-0.531","<span style= ""font-size:30px; font-family: monospace"">+</span>","null","fixation","","","","",""
"","749","audio-keyboard-response","634","1205335","0.0-3.0-1.531","../audio/65-1-fem.mp3"," ","","O","","","",""
"","1408","audio-keyboard-response","635","1207015","0.0-3.0-1.532","../audio/65-2-fem.mp3"," ","","fantasma","","","",""
"","840","audio-keyboard-response","636","1208135","0.0-3.0-1.533","../audio/65-3-fem.mp3"," ","","veio","","","",""
"","800","audio-keyboard-response","637","1209207","0.0-3.0-1.534","../audio/65-4-fem.mp3"," ","","da","","","",""
"","920","audio-keyboard-response","638","1210407","0.0-3.0-1.535","../audio/65-5-fem.mp3"," ","","escuridão","","","",""
"","680","audio-keyboard-response","639","1211351","0.0-3.0-1.536","../audio/65-6-fem.mp3"," ","","do","","","",""
"","1341","audio-keyboard-response","640","1212951","0.0-3.0-1.537","../audio/65-7-fem.mp3"," ","","armário.","","","",""
"","7820","html-keyboard-response","641","1221030","0.0-3.0-2.537-0.537","<span style=""font-size:25px; font-family: monospace"">O fantasma veio da escuridão do armário?</span>","s","","","O fantasma veio da escuridão do armário?","null","exp-sent","false"
"","null","html-keyboard-response","642","1222552","0.0-3.0-0.538-0.538","<span style= ""font-size:30px; font-family: monospace"">+</span>","null","fixation","","","","",""
"","5251","audio-keyboard-response","643","1228086","0.0-3.0-1.538","../audio/08-1-masc.mp3"," ","","A","","","",""
"","2008","audio-keyboard-response","644","1230374","0.0-3.0-1.539","../audio/08-2-masc.mp3"," ","","receita","","","",""
"","1181","audio-keyboard-response","645","1231846","0.0-3.0-1.540","../audio/08-3-masc.mp3"," ","","pede","","","",""
"","779","audio-keyboard-response","646","1232902","0.0-3.0-1.541","../audio/08-4-masc.mp3"," ","","um","","","",""
"","1061","audio-keyboard-response","647","1234230","0.0-3.0-1.542","../audio/08-5-masc.mp3"," ","","litro","","","",""
"","731","audio-keyboard-response","648","1235222","0.0-3.0-1.543","../audio/08-6-masc.mp3"," ","","de","","","",""
"","1120","audio-keyboard-response","649","1236614","0.0-3.0-1.544","../audio/08-7-masc.mp3"," ","","leite","","","",""
"","1389","audio-keyboard-response","650","1238278","0.0-3.0-1.545","../audio/08-8-masc.mp3"," ","","integral.","","","",""
"","null","html-keyboard-response","651","1239546","0.0-3.0-0.546-0.546","<span style= ""font-size:30px; font-family: monospace"">+</span>","null","fixation","","","","",""
"","629","audio-keyboard-response","652","1240454","0.0-3.0-1.546","../audio/07-1-masc.mp3"," ","","Meu","","","",""
"","1139","audio-keyboard-response","653","1241862","0.0-3.0-1.547","../audio/07-2-masc.mp3"," ","","filho","","","",""
"","728","audio-keyboard-response","654","1242854","0.0-3.0-1.548","../audio/07-3-masc.mp3"," ","","é","","","",""
"","989","audio-keyboard-response","655","1244118","0.0-3.0-1.549","../audio/07-4-masc.mp3"," ","","muito","","","",""
"","1291","audio-keyboard-response","656","1245686","0.0-3.0-1.550","../audio/07-5-masc.mp3"," ","","responsável","","","",""
"","920","audio-keyboard-response","657","1246886","0.0-3.0-1.551","../audio/07-6-masc.mp3"," ","","nos","","","",""
"","1240","audio-keyboard-response","658","1248390","0.0-3.0-1.552","../audio/07-7-masc.mp3"," ","","estudos.","","","",""
"","null","html-keyboard-response","659","1249646","0.0-3.0-0.553-0.553","<span style= ""font-size:30px; font-family: monospace"">+</span>","null","fixation","","","","",""
"","1291","audio-keyboard-response","660","1251222","0.0-3.0-1.553","../audio/06-1-masc.mp3"," ","","Ouvimos","","","",""
"","821","audio-keyboard-response","661","1252310","0.0-3.0-1.554","../audio/06-2-masc.mp3"," ","","a","","","",""
"","909","audio-keyboard-response","662","1253494","0.0-3.0-1.555","../audio/06-3-masc.mp3"," ","","fala","","","",""
"","749","audio-keyboard-response","663","1254518","0.0-3.0-1.556","../audio/06-4-masc.mp3"," ","","do","","","",""
"","1219","audio-keyboard-response","664","1256022","0.0-3.0-1.557","../audio/06-5-masc.mp3"," ","","profeta","","","",""
"","891","audio-keyboard-response","665","1257190","0.0-3.0-1.558","../audio/06-6-masc.mp3"," ","","no","","","",""
"","1360","audio-keyboard-response","666","1258822","0.0-3.0-1.559","../audio/06-7-masc.mp3"," ","","púlpito","","","",""
"","832","audio-keyboard-response","667","1259926","0.0-3.0-1.560","../audio/06-8-masc.mp3"," ","","da","","","",""
"","1080","audio-keyboard-response","668","1261270","0.0-3.0-1.561","../audio/06-9-masc.mp3"," ","","igreja.","","","",""
"","null","html-keyboard-response","669","1262541","0.0-3.0-0.562-0.562","<span style= ""font-size:30px; font-family: monospace"">+</span>","null","fixation","","","","",""
"","680","audio-keyboard-response","670","1263494","0.0-3.0-1.562","../audio/09-1-fem.mp3"," ","","O","","","",""
"","1021","audio-keyboard-response","671","1264806","0.0-3.0-1.563","../audio/09-2-fem.mp3"," ","","rapaz","","","",""
"","1149","audio-keyboard-response","672","1266230","0.0-3.0-1.564","../audio/09-3-fem.mp3"," ","","limpou","","","",""
"","651","audio-keyboard-response","673","1267158","0.0-3.0-1.565","../audio/09-4-fem.mp3"," ","","o","","","",""
"","1229","audio-keyboard-response","674","1268662","0.0-3.0-1.566","../audio/09-5-fem.mp3"," ","","terreno","","","",""
"","672","audio-keyboard-response","675","1269606","0.0-3.0-1.567","../audio/09-6-fem.mp3"," ","","com","","","",""
"","899","audio-keyboard-response","676","1270774","0.0-3.0-1.568","../audio/09-7-fem.mp3"," ","","uma","","","",""
"","720","audio-keyboard-response","677","1271766","0.0-3.0-1.569","../audio/09-8-fem.mp3"," ","","pá.","","","",""
"","null","html-keyboard-response","678","1273027","0.0-3.0-0.570-0.570","<span style= ""font-size:30px; font-family: monospace"">+</span>","null","fixation","","","","",""
"","640","audio-keyboard-response","679","1273942","0.0-3.0-1.570","../audio/10-1-fem.mp3"," ","","O","","","",""
"","1200","audio-keyboard-response","680","1275414","0.0-3.0-1.571","../audio/10-2-fem.mp3"," ","","pássaro","","","",""
"","909","audio-keyboard-response","681","1276598","0.0-3.0-1.572","../audio/10-3-fem.mp3"," ","","azul","","","",""
"","1131","audio-keyboard-response","682","1277990","0.0-3.0-1.573","../audio/10-4-fem.mp3"," ","","estava","","","",""
"","971","audio-keyboard-response","683","1279238","0.0-3.0-1.574","../audio/10-5-fem.mp3"," ","","vivo","","","",""
"","611","audio-keyboard-response","684","1280118","0.0-3.0-1.575","../audio/10-6-fem.mp3"," ","","e","","","",""
"","760","audio-keyboard-response","685","1281157","0.0-3.0-1.576","../audio/10-7-fem.mp3"," ","","em","","","",""
"","1459","audio-keyboard-response","686","1282901","0.0-3.0-1.577","../audio/10-8-fem.mp3"," ","","segurança.","","","",""
"","9631","html-keyboard-response","687","1292790","0.0-3.0-2.577-0.577","<span style=""font-size:25px; font-family: monospace"">O pássaro vermelho estava em segurança?</span>","n","","","O pássaro vermelho estava em segurança?","null","exp-sent","false"
"","null","html-keyboard-response","688","1294303","0.0-3.0-0.578-0.578","<span style= ""font-size:30px; font-family: monospace"">+</span>","null","fixation","","","","",""
"","1021","audio-keyboard-response","689","1295605","0.0-3.0-1.578","../audio/48-1-masc.mp3"," ","","Ela","","","",""
"","931","audio-keyboard-response","690","1296805","0.0-3.0-1.579","../audio/48-2-masc.mp3"," ","","come","","","",""
"","1000","audio-keyboard-response","691","1298086","0.0-3.0-1.580","../audio/48-3-masc.mp3"," ","","feijão","","","",""
"","771","audio-keyboard-response","692","1299125","0.0-3.0-1.581","../audio/48-4-masc.mp3"," ","","com","","","",""
"","1040","audio-keyboard-response","693","1300438","0.0-3.0-1.582","../audio/48-5-masc.mp3"," ","","arroz","","","",""
"","720","audio-keyboard-response","694","1301429","0.0-3.0-1.583","../audio/48-6-masc.mp3"," ","","todos","","","",""
"","800","audio-keyboard-response","695","1302501","0.0-3.0-1.584","../audio/48-7-masc.mp3"," ","","os","","","",""
"","800","audio-keyboard-response","696","1303574","0.0-3.0-1.585","../audio/48-8-masc.mp3"," ","","dias.","","","",""
"","null","html-keyboard-response","697","1304838","0.0-3.0-0.586-0.586","<span style= ""font-size:30px; font-family: monospace"">+</span>","null","fixation","","","","",""
"","269","audio-keyboard-response","698","1305397","0.0-3.0-1.586","../audio/46-1-fem.mp3"," ","","Meu","","","",""
"","909","audio-keyboard-response","699","1306581","0.0-3.0-1.587","../audio/46-2-fem.mp3"," ","","primo","","","",""
"","1072","audio-keyboard-response","700","1307925","0.0-3.0-1.588","../audio/46-3-fem.mp3"," ","","estava","","","",""
"","888","audio-keyboard-response","701","1309093","0.0-3.0-1.589","../audio/46-4-fem.mp3"," ","","muito","","","",""
"","1461","audio-keyboard-response","702","1310837","0.0-3.0-1.590","../audio/46-5-fem.mp3"," ","","deprimido","","","",""
"","811","audio-keyboard-response","703","1311925","0.0-3.0-1.591","../audio/46-6-fem.mp3"," ","","no","","","",""
"","1368","audio-keyboard-response","704","1313573","0.0-3.0-1.592","../audio/46-7-fem.mp3"," ","","inverno.","","","",""
"","null","html-keyboard-response","705","1314847","0.0-3.0-0.593-0.593","<span style= ""font-size:30px; font-family: monospace"">+</span>","null","fixation","","","","",""
"","701","audio-keyboard-response","706","1315829","0.0-3.0-1.593","../audio/47-1-masc.mp3"," ","","O","","","",""
"","781","audio-keyboard-response","707","1316885","0.0-3.0-1.594","../audio/47-2-masc.mp3"," ","","tio","","","",""
"","760","audio-keyboard-response","708","1317909","0.0-3.0-1.595","../audio/47-3-masc.mp3"," ","","recusou","","","",""
"","651","audio-keyboard-response","709","1318837","0.0-3.0-1.596","../audio/47-4-masc.mp3"," ","","a","","","",""
"","829","audio-keyboard-response","710","1319941","0.0-3.0-1.597","../audio/47-5-masc.mp3"," ","","sobremesa","","","",""
"","741","audio-keyboard-response","711","1320965","0.0-3.0-1.598","../audio/47-6-masc.mp3"," ","","no","","","",""
"","1549","audio-keyboard-response","712","1322789","0.0-3.0-1.599","../audio/47-7-masc.mp3"," ","","almoço.","","","",""
"","null","html-keyboard-response","713","1324068","0.0-3.0-0.600-0.600","<span style= ""font-size:30px; font-family: monospace"">+</span>","null","fixation","","","","",""
"","880","audio-keyboard-response","714","1325221","0.0-3.0-1.600","../audio/49-1-fem.mp3"," ","","Eu","","","",""
"","800","audio-keyboard-response","715","1326293","0.0-3.0-1.601","../audio/49-2-fem.mp3"," ","","quero","","","",""
"","680","audio-keyboard-response","716","1327253","0.0-3.0-1.602","../audio/49-3-fem.mp3"," ","","um","","","",""
"","1101","audio-keyboard-response","717","1328629","0.0-3.0-1.603","../audio/49-4-fem.mp3"," ","","lanche","","","",""
"","640","audio-keyboard-response","718","1329558","0.0-3.0-1.604","../audio/49-5-fem.mp3"," ","","duplo","","","",""
"","760","audio-keyboard-response","719","1330597","0.0-3.0-1.605","../audio/49-6-fem.mp3"," ","","e","","","",""
"","749","audio-keyboard-response","720","1331621","0.0-3.0-1.606","../audio/49-7-fem.mp3"," ","","um","","","",""
"","1011","audio-keyboard-response","721","1332917","0.0-3.0-1.607","../audio/49-8-fem.mp3"," ","","suco.","","","",""
"","null","html-keyboard-response","722","1334179","0.0-3.0-0.608-0.608","<span style= ""font-size:30px; font-family: monospace"">+</span>","null","fixation","","","","",""
"","648","audio-keyboard-response","723","1335093","0.0-3.0-1.608","../audio/50-1-fem.mp3"," ","","O","","","",""
"","941","audio-keyboard-response","724","1336310","0.0-3.0-1.609","../audio/50-2-fem.mp3"," ","","pássaro","","","",""
"","811","audio-keyboard-response","725","1337397","0.0-3.0-1.610","../audio/50-3-fem.mp3"," ","","fugiu","","","",""
"","821","audio-keyboard-response","726","1338485","0.0-3.0-1.611","../audio/50-4-fem.mp3"," ","","da","","","",""
"","1080","audio-keyboard-response","727","1339845","0.0-3.0-1.612","../audio/50-5-fem.mp3"," ","","gaiola","","","",""
"","920","audio-keyboard-response","728","1341029","0.0-3.0-1.613","../audio/50-6-fem.mp3"," ","","pela","","","",""
"","1371","audio-keyboard-response","729","1342677","0.0-3.0-1.614","../audio/50-7-fem.mp3"," ","","portinhola.","","","",""
"","8164","html-keyboard-response","730","1351093","0.0-3.0-2.614-0.614","<span style=""font-size:25px; font-family: monospace"">O pássaro fugiu da gaiola?</span>","s","","","O pássaro fugiu da gaiola?","null","exp-sent","false"
"[{""page_index"":0,""viewing_time"":8122}]","8122","instructions","731","1359717","0.0-4.0","","","","","","","",""
