[
	{
		"view_history": [
			{
				"page_index": 0,
				"viewing_time": 2012
			}
		],
		"rt": 2012,
		"trial_type": "instructions",
		"trial_index": 0,
		"time_elapsed": 2014,
		"internal_node_id": "0.0-0.0"
	},
	{
		"rt": 145519,
		"response": {
			"reading_habits_printed_magazines": "Alguns dias da semana",
			"reading_habits_printed_newspapers": "Nunca",
			"reading_habits_books": "Uma vez por semana",
			"reading_habits_printed_socialmedias": "Todos os dias"
		},
		"question_order": [
			0,
			1,
			2,
			3
		],
		"trial_type": "survey-multi-choice",
		"trial_index": 1,
		"time_elapsed": 147636,
		"internal_node_id": "0.0-1.0"
	},
	{
		"rt": 52057,
		"response": {
			"reading_habits_virtual_magazines": "Todos os dias",
			"reading_habits_virtual_newspapers": "Todos os dias",
			"reading_habits_books": "Todos os dias",
			"reading_habits_virtual_socialmedias": "Todos os dias"
		},
		"question_order": [
			0,
			1,
			2,
			3
		],
		"trial_type": "survey-multi-choice",
		"trial_index": 2,
		"time_elapsed": 199796,
		"internal_node_id": "0.0-2.0"
	},
	{
		"rt": 190241,
		"response": {
			"reading_habits_other_which": "esportes, leis",
			"reading_habits_other_frequency": "todos osdias"
		},
		"trial_type": "survey-text",
		"trial_index": 3,
		"time_elapsed": 390138,
		"internal_node_id": "0.0-3.0"
	}
]