"view_history","rt","trial_type","trial_index","time_elapsed","internal_node_id","stimulus","response","class","status","answer","correct","trial","letters"
"[{""page_index"":0,""viewing_time"":48658}]","48658","instructions","0","48660","0.0-0.0","","","","","","","",""
"","null","html-keyboard-response","1","49269","0.0-1.0-0.0","+","null","","","","","",""
"","31309","html-keyboard-response","2","80579","0.0-1.0-1.0","crante","n","null","noncog","pseudo","N","prac","null"
"","null","html-keyboard-response","3","81080","0.0-1.0-0.1","+","null","","","","","",""
"","2746","html-keyboard-response","4","83826","0.0-1.0-1.1","daja","s","null","noncog","pseudo","N","prac","null"
"","null","html-keyboard-response","5","84328","0.0-1.0-0.2","+","null","","","","","",""
"","4202","html-keyboard-response","6","88530","0.0-1.0-1.2","plibar","s","null","noncog","pseudo","N","prac","null"
"","null","html-keyboard-response","7","89032","0.0-1.0-0.3","+","null","","","","","",""
"","6986","html-keyboard-response","8","96018","0.0-1.0-1.3","oliva","n","null","cog","word","S","prac","null"
"","null","html-keyboard-response","9","96520","0.0-1.0-0.4","+","null","","","","","",""
"","2458","html-keyboard-response","10","98978","0.0-1.0-1.4","chassi","s","null","cog","word","S","prac","null"
"","null","html-keyboard-response","11","99480","0.0-1.0-0.5","+","null","","","","","",""
"","6858","html-keyboard-response","12","106338","0.0-1.0-1.5","órgão","n","null","noncog","word","S","prac","null"
"","null","html-keyboard-response","13","106840","0.0-1.0-0.6","+","null","","","","","",""
"","10793","html-keyboard-response","14","117635","0.0-1.0-1.6","calmaria","s","null","noncog","word","S","prac","null"
"[{""page_index"":0,""viewing_time"":5095}]","5096","instructions","15","122731","0.0-2.0","","","","","","","",""
"","null","html-keyboard-response","16","123333","0.0-3.0-0.0","+","null","","","","","",""
"","25693","html-keyboard-response","17","149026","0.0-3.0-1.0","aparme","n","null","noncog","pseudo","N","exp","null"
"","null","html-keyboard-response","18","149528","0.0-3.0-0.1","+","null","","","","","",""
"","6362","html-keyboard-response","19","155890","0.0-3.0-1.1","adoçar","s","v","noncog","word","S","exp","6"
"","null","html-keyboard-response","20","156403","0.0-3.0-0.2","+","null","","","","","",""
"","14687","html-keyboard-response","21","171091","0.0-3.0-1.2","quenzina","n","null","noncog","pseudo","N","exp","null"
"","null","html-keyboard-response","22","171592","0.0-3.0-0.3","+","null","","","","","",""
"","4506","html-keyboard-response","23","176098","0.0-3.0-1.3","socorro","n","n","noncog","word","S","exp","7"
"","null","html-keyboard-response","24","176600","0.0-3.0-0.4","+","null","","","","","",""
"","9114","html-keyboard-response","25","185714","0.0-3.0-1.4","candifência","n","null","noncog","pseudo","N","exp","null"
"","null","html-keyboard-response","26","186215","0.0-3.0-0.5","+","null","","","","","",""
"","3658","html-keyboard-response","27","189874","0.0-3.0-1.5","bracos","s","null","noncog","pseudo","N","exp","null"
"","null","html-keyboard-response","28","190375","0.0-3.0-0.6","+","null","","","","","",""
"","4970","html-keyboard-response","29","195346","0.0-3.0-1.6","espinho","n","n","noncog","word","S","exp","7"
"","null","html-keyboard-response","30","195847","0.0-3.0-0.7","+","null","","","","","",""
"","4267","html-keyboard-response","31","200114","0.0-3.0-1.7","nevela","s","null","noncog","pseudo","N","exp","null"
"","null","html-keyboard-response","32","200615","0.0-3.0-0.8","+","null","","","","","",""
"","6426","html-keyboard-response","33","207042","0.0-3.0-1.8","dobradiça","n","n","noncog","word","S","exp","9"
"","null","html-keyboard-response","34","207543","0.0-3.0-0.9","+","null","","","","","",""
"","6251","html-keyboard-response","35","213794","0.0-3.0-1.9","pimada","s","null","noncog","pseudo","N","exp","null"
"","null","html-keyboard-response","36","214295","0.0-3.0-0.10","+","null","","","","","",""
"","5083","html-keyboard-response","37","219378","0.0-3.0-1.10","farcas","s","null","noncog","pseudo","N","exp","null"
"","null","html-keyboard-response","38","219880","0.0-3.0-0.11","+","null","","","","","",""
"","1850","html-keyboard-response","39","221730","0.0-3.0-1.11","país","s","n","noncog","word","S","exp","4"
"","null","html-keyboard-response","40","222231","0.0-3.0-0.12","+","null","","","","","",""
"","7339","html-keyboard-response","41","229570","0.0-3.0-1.12","cerca","s","n","noncog","word","S","exp","5"
"","null","html-keyboard-response","42","230072","0.0-3.0-0.13","+","null","","","","","",""
"","7994","html-keyboard-response","43","238066","0.0-3.0-1.13","distraído","n","a","cog","word","S","exp","9"
"","null","html-keyboard-response","44","238567","0.0-3.0-0.14","+","null","","","","","",""
"","7435","html-keyboard-response","45","246002","0.0-3.0-1.14","mabras","s","null","noncog","pseudo","N","exp","null"
"","null","html-keyboard-response","46","246504","0.0-3.0-0.15","+","null","","","","","",""
"","4202","html-keyboard-response","47","250706","0.0-3.0-1.15","faínas","n","null","noncog","pseudo","N","exp","null"
"","null","html-keyboard-response","48","251207","0.0-3.0-0.16","+","null","","","","","",""
"","4379","html-keyboard-response","49","255586","0.0-3.0-1.16","perbas","n","null","noncog","pseudo","N","exp","null"
"","null","html-keyboard-response","50","256088","0.0-3.0-0.17","+","null","","","","","",""
"","4330","html-keyboard-response","51","260418","0.0-3.0-1.17","grátis","s","a","cog","word","S","exp","6"
"","null","html-keyboard-response","52","260919","0.0-3.0-0.18","+","null","","","","","",""
"","7370","html-keyboard-response","53","268290","0.0-3.0-1.18","multiplicar","s","v","cog","word","S","exp","11"
"","null","html-keyboard-response","54","268791","0.0-3.0-0.19","+","null","","","","","",""
"","3706","html-keyboard-response","55","272498","0.0-3.0-1.19","nervoso","s","a","noncog","word","S","exp","7"
"","null","html-keyboard-response","56","272999","0.0-3.0-0.20","+","null","","","","","",""
"","4187","html-keyboard-response","57","277186","0.0-3.0-1.20","taberia","s","null","noncog","pseudo","N","exp","null"
"","null","html-keyboard-response","58","277687","0.0-3.0-0.21","+","null","","","","","",""
"","4682","html-keyboard-response","59","282370","0.0-3.0-1.21","dipata","s","null","noncog","pseudo","N","exp","null"
"","null","html-keyboard-response","60","282870","0.0-3.0-0.22","+","null","","","","","",""
"","1035","html-keyboard-response","61","283906","0.0-3.0-1.22","verde","s","a","noncog","word","S","exp","5"
"","null","html-keyboard-response","62","284406","0.0-3.0-0.23","+","null","","","","","",""
"","1963","html-keyboard-response","63","286370","0.0-3.0-1.23","civil","s","a","cog","word","S","exp","5"
"","null","html-keyboard-response","64","286870","0.0-3.0-0.24","+","null","","","","","",""
"","2827","html-keyboard-response","65","289698","0.0-3.0-1.24","esprotiar","s","null","noncog","pseudo","N","exp","null"
"","null","html-keyboard-response","66","290199","0.0-3.0-0.25","+","null","","","","","",""
"","2699","html-keyboard-response","67","292898","0.0-3.0-1.25","instruído","s","a","noncog","word","S","exp","9"
"","null","html-keyboard-response","68","293399","0.0-3.0-0.26","+","null","","","","","",""
"","3082","html-keyboard-response","69","296482","0.0-3.0-1.26","hébies","s","null","noncog","pseudo","N","exp","null"
"","null","html-keyboard-response","70","296983","0.0-3.0-0.27","+","null","","","","","",""
"","3323","html-keyboard-response","71","300306","0.0-3.0-1.27","motre","s","null","noncog","pseudo","N","exp","null"
"","null","html-keyboard-response","72","300807","0.0-3.0-0.28","+","null","","","","","",""
"","2250","html-keyboard-response","73","303058","0.0-3.0-1.28","medalha","s","n","cog","word","S","exp","7"
"","null","html-keyboard-response","74","303560","0.0-3.0-0.29","+","null","","","","","",""
"","1401","html-keyboard-response","75","304962","0.0-3.0-1.29","espaço","s","n","cog","word","S","exp","6"
"","null","html-keyboard-response","76","305462","0.0-3.0-0.30","+","null","","","","","",""
"","1739","html-keyboard-response","77","307202","0.0-3.0-1.30","animado","s","a","noncog","word","S","exp","7"
"","null","html-keyboard-response","78","307709","0.0-3.0-0.31","+","null","","","","","",""
"","3828","html-keyboard-response","79","311538","0.0-3.0-1.31","ensuas","s","null","noncog","pseudo","N","exp","null"
"","null","html-keyboard-response","80","312039","0.0-3.0-0.32","+","null","","","","","",""
"","650","html-keyboard-response","81","312690","0.0-3.0-1.32","dia","s","n","noncog","word","S","exp","3"
"","null","html-keyboard-response","82","313191","0.0-3.0-0.33","+","null","","","","","",""
"","1771","html-keyboard-response","83","314962","0.0-3.0-1.33","agravar","s","v","cog","word","S","exp","7"
"","null","html-keyboard-response","84","315464","0.0-3.0-0.34","+","null","","","","","",""
"","8570","html-keyboard-response","85","324034","0.0-3.0-1.34","jastor","n","null","noncog","pseudo","N","exp","null"
"","null","html-keyboard-response","86","324535","0.0-3.0-0.35","+","null","","","","","",""
"","7338","html-keyboard-response","87","331874","0.0-3.0-1.35","dacada","n","null","noncog","pseudo","N","exp","null"
"","null","html-keyboard-response","88","332375","0.0-3.0-0.36","+","null","","","","","",""
"","1227","html-keyboard-response","89","333602","0.0-3.0-1.36","uchães","n","null","noncog","pseudo","N","exp","null"
"","null","html-keyboard-response","90","334102","0.0-3.0-0.37","+","null","","","","","",""
"","5115","html-keyboard-response","91","339218","0.0-3.0-1.37","pulmão","s","n","noncog","word","S","exp","6"
"","null","html-keyboard-response","92","339719","0.0-3.0-0.38","+","null","","","","","",""
"","1226","html-keyboard-response","93","340946","0.0-3.0-1.38","liberal","s","a","cog","word","S","exp","7"
"","null","html-keyboard-response","94","341447","0.0-3.0-0.39","+","null","","","","","",""
"","1243","html-keyboard-response","95","342690","0.0-3.0-1.39","revista","s","n","cog","word","S","exp","7"
"","null","html-keyboard-response","96","343192","0.0-3.0-0.40","+","null","","","","","",""
"","4985","html-keyboard-response","97","348178","0.0-3.0-1.40","filosofia","s","n","cog","word","S","exp","9"
"","null","html-keyboard-response","98","348679","0.0-3.0-0.41","+","null","","","","","",""
"","1690","html-keyboard-response","99","350370","0.0-3.0-1.41","glória","s","n","cog","word","S","exp","6"
"","null","html-keyboard-response","100","350871","0.0-3.0-0.42","+","null","","","","","",""
"","1546","html-keyboard-response","101","352418","0.0-3.0-1.42","costra","s","null","noncog","pseudo","N","exp","null"
"","null","html-keyboard-response","102","352919","0.0-3.0-0.43","+","null","","","","","",""
"","890","html-keyboard-response","103","353810","0.0-3.0-1.43","jantar","s","v","noncog","word","S","exp","6"
"","null","html-keyboard-response","104","354310","0.0-3.0-0.44","+","null","","","","","",""
"","1867","html-keyboard-response","105","356178","0.0-3.0-1.44","morija","s","null","noncog","pseudo","N","exp","null"
"","null","html-keyboard-response","106","356679","0.0-3.0-0.45","+","null","","","","","",""
"","1579","html-keyboard-response","107","358258","0.0-3.0-1.45","destino","s","n","cog","word","S","exp","7"
"","null","html-keyboard-response","108","358759","0.0-3.0-0.46","+","null","","","","","",""
"","2443","html-keyboard-response","109","361202","0.0-3.0-1.46","carona","s","n","noncog","word","S","exp","6"
"","null","html-keyboard-response","110","361716","0.0-3.0-0.47","+","null","","","","","",""
"","925","html-keyboard-response","111","362642","0.0-3.0-1.47","livro","s","n","cog","word","S","exp","5"
"","null","html-keyboard-response","112","363142","0.0-3.0-0.48","+","null","","","","","",""
"","4555","html-keyboard-response","113","367697","0.0-3.0-1.48","cascata","n","n","noncog","word","S","exp","7"
"","null","html-keyboard-response","114","368199","0.0-3.0-0.49","+","null","","","","","",""
"","2714","html-keyboard-response","115","370914","0.0-3.0-1.49","suipestar","n","null","noncog","pseudo","N","exp","null"
"","null","html-keyboard-response","116","371414","0.0-3.0-0.50","+","null","","","","","",""
"","6139","html-keyboard-response","117","377554","0.0-3.0-1.50","oricia","s","null","noncog","pseudo","N","exp","null"
"","null","html-keyboard-response","118","378055","0.0-3.0-0.51","+","null","","","","","",""
"","1018","html-keyboard-response","119","379074","0.0-3.0-1.51","mal","s","a","cog","word","S","exp","3"
"","null","html-keyboard-response","120","379575","0.0-3.0-0.52","+","null","","","","","",""
"","1082","html-keyboard-response","121","380657","0.0-3.0-1.52","filme","s","n","cog","word","S","exp","5"
"","null","html-keyboard-response","122","381158","0.0-3.0-0.53","+","null","","","","","",""
"","859","html-keyboard-response","123","382018","0.0-3.0-1.53","telefone","s","n","cog","word","S","exp","8"
"","null","html-keyboard-response","124","382520","0.0-3.0-0.54","+","null","","","","","",""
"","4793","html-keyboard-response","125","387314","0.0-3.0-1.54","detative","n","null","noncog","pseudo","N","exp","null"
"","null","html-keyboard-response","126","387815","0.0-3.0-0.55","+","null","","","","","",""
"","2442","html-keyboard-response","127","390258","0.0-3.0-1.55","atitro","n","null","noncog","pseudo","N","exp","null"
"","null","html-keyboard-response","128","390758","0.0-3.0-0.56","+","null","","","","","",""
"","2234","html-keyboard-response","129","392994","0.0-3.0-1.56","enedro","n","null","noncog","pseudo","N","exp","null"
"","null","html-keyboard-response","130","393496","0.0-3.0-0.57","+","null","","","","","",""
"","5641","html-keyboard-response","131","399138","0.0-3.0-1.57","anjo","n","n","cog","word","S","exp","4"
"","null","html-keyboard-response","132","399639","0.0-3.0-0.58","+","null","","","","","",""
"","30410","html-keyboard-response","133","430050","0.0-3.0-1.58","disbrituir","n","null","noncog","pseudo","N","exp","null"
"","null","html-keyboard-response","134","430551","0.0-3.0-0.59","+","null","","","","","",""
"","3514","html-keyboard-response","135","434066","0.0-3.0-1.59","fofo","n","a","noncog","word","S","exp","4"
"","null","html-keyboard-response","136","434566","0.0-3.0-0.60","+","null","","","","","",""
"","4682","html-keyboard-response","137","439250","0.0-3.0-1.60","árovre","n","null","noncog","pseudo","N","exp","null"
"","null","html-keyboard-response","138","439750","0.0-3.0-0.61","+","null","","","","","",""
"","2971","html-keyboard-response","139","442722","0.0-3.0-1.61","francês","s","a","cog","word","S","exp","7"
"","null","html-keyboard-response","140","443223","0.0-3.0-0.62","+","null","","","","","",""
"","3690","html-keyboard-response","141","446913","0.0-3.0-1.62","irratinte","n","null","noncog","pseudo","N","exp","null"
"","null","html-keyboard-response","142","447415","0.0-3.0-0.63","+","null","","","","","",""
"","2618","html-keyboard-response","143","450033","0.0-3.0-1.63","arranjar","s","v","cog","word","S","exp","8"
"","null","html-keyboard-response","144","450535","0.0-3.0-0.64","+","null","","","","","",""
"","2650","html-keyboard-response","145","453186","0.0-3.0-1.64","trair","s","v","cog","word","S","exp","5"
"","null","html-keyboard-response","146","453687","0.0-3.0-0.65","+","null","","","","","",""
"","6570","html-keyboard-response","147","460257","0.0-3.0-1.65","sanque","n","null","noncog","pseudo","N","exp","null"
"","null","html-keyboard-response","148","460759","0.0-3.0-0.66","+","null","","","","","",""
"","4282","html-keyboard-response","149","465042","0.0-3.0-1.66","delirar","s","v","noncog","word","S","exp","7"
"","null","html-keyboard-response","150","465542","0.0-3.0-0.67","+","null","","","","","",""
"","1290","html-keyboard-response","151","466833","0.0-3.0-1.67","fogão","s","n","noncog","word","S","exp","5"
"","null","html-keyboard-response","152","467335","0.0-3.0-0.68","+","null","","","","","",""
"","2330","html-keyboard-response","153","469665","0.0-3.0-1.68","crutas","s","null","noncog","pseudo","N","exp","null"
"","null","html-keyboard-response","154","470167","0.0-3.0-0.69","+","null","","","","","",""
"","3290","html-keyboard-response","155","473457","0.0-3.0-1.69","verdade","s","n","cog","word","S","exp","7"
"","null","html-keyboard-response","156","473960","0.0-3.0-0.70","+","null","","","","","",""
"","34777","html-keyboard-response","157","508738","0.0-3.0-1.70","garastia","s","null","noncog","pseudo","N","exp","null"
"","null","html-keyboard-response","158","509243","0.0-3.0-0.71","+","null","","","","","",""
"","2022","html-keyboard-response","159","511265","0.0-3.0-1.71","conjerto","s","null","noncog","pseudo","N","exp","null"
"","null","html-keyboard-response","160","511767","0.0-3.0-0.72","+","null","","","","","",""
"","2393","html-keyboard-response","161","514161","0.0-3.0-1.72","matinal","s","a","cog","word","S","exp","7"
"","null","html-keyboard-response","162","514663","0.0-3.0-0.73","+","null","","","","","",""
"","1274","html-keyboard-response","163","515937","0.0-3.0-1.73","liso","s","n","noncog","word","S","exp","4"
"","null","html-keyboard-response","164","516439","0.0-3.0-0.74","+","null","","","","","",""
"","2874","html-keyboard-response","165","519313","0.0-3.0-1.74","refletir","s","v","cog","word","S","exp","8"
"","null","html-keyboard-response","166","519815","0.0-3.0-0.75","+","null","","","","","",""
"","1834","html-keyboard-response","167","521649","0.0-3.0-1.75","berquesa","s","null","noncog","pseudo","N","exp","null"
"","null","html-keyboard-response","168","522151","0.0-3.0-0.76","+","null","","","","","",""
"","2442","html-keyboard-response","169","524593","0.0-3.0-1.76","oper","s","null","noncog","pseudo","N","exp","null"
"","null","html-keyboard-response","170","525095","0.0-3.0-0.77","+","null","","","","","",""
"","922","html-keyboard-response","171","526017","0.0-3.0-1.77","tênis","s","n","cog","word","S","exp","5"
"","null","html-keyboard-response","172","526520","0.0-3.0-0.78","+","null","","","","","",""
"","1913","html-keyboard-response","173","528433","0.0-3.0-1.78","beima","s","null","noncog","pseudo","N","exp","null"
"","null","html-keyboard-response","174","528935","0.0-3.0-0.79","+","null","","","","","",""
"","2042","html-keyboard-response","175","530977","0.0-3.0-1.79","burtos","s","null","noncog","pseudo","N","exp","null"
"","null","html-keyboard-response","176","531479","0.0-3.0-0.80","+","null","","","","","",""
"","1898","html-keyboard-response","177","533377","0.0-3.0-1.80","atrasar","s","v","noncog","word","S","exp","7"
"","null","html-keyboard-response","178","533878","0.0-3.0-0.81","+","null","","","","","",""
"","1595","html-keyboard-response","179","535473","0.0-3.0-1.81","nivelado","s","a","cog","word","S","exp","8"
"","null","html-keyboard-response","180","535974","0.0-3.0-0.82","+","null","","","","","",""
"","2043","html-keyboard-response","181","538017","0.0-3.0-1.82","aperor","s","null","noncog","pseudo","N","exp","null"
"","null","html-keyboard-response","182","538519","0.0-3.0-0.83","+","null","","","","","",""
"","1482","html-keyboard-response","183","540001","0.0-3.0-1.83","vervas","s","null","noncog","pseudo","N","exp","null"
"","null","html-keyboard-response","184","540503","0.0-3.0-0.84","+","null","","","","","",""
"","4490","html-keyboard-response","185","544993","0.0-3.0-1.84","manfa","n","null","noncog","pseudo","N","exp","null"
"","null","html-keyboard-response","186","545494","0.0-3.0-0.85","+","null","","","","","",""
"","1531","html-keyboard-response","187","547025","0.0-3.0-1.85","pangos","s","null","noncog","pseudo","N","exp","null"
"","null","html-keyboard-response","188","547538","0.0-3.0-0.86","+","null","","","","","",""
"","2527","html-keyboard-response","189","550065","0.0-3.0-1.86","mua","n","null","noncog","pseudo","N","exp","null"
"","null","html-keyboard-response","190","550567","0.0-3.0-0.87","+","null","","","","","",""
"","825","html-keyboard-response","191","551393","0.0-3.0-1.87","grave","s","a","cog","word","S","exp","5"
"","null","html-keyboard-response","192","551895","0.0-3.0-0.88","+","null","","","","","",""
"","1578","html-keyboard-response","193","553473","0.0-3.0-1.88","carregar","s","v","noncog","word","S","exp","8"
"","null","html-keyboard-response","194","553974","0.0-3.0-0.89","+","null","","","","","",""
"","923","html-keyboard-response","195","554897","0.0-3.0-1.89","melão","s","n","cog","word","S","exp","5"
"","null","html-keyboard-response","196","555399","0.0-3.0-0.90","+","null","","","","","",""
"","858","html-keyboard-response","197","556258","0.0-3.0-1.90","tio","s","n","noncog","word","S","exp","3"
"","null","html-keyboard-response","198","556758","0.0-3.0-0.91","+","null","","","","","",""
"","4538","html-keyboard-response","199","561297","0.0-3.0-1.91","bibarconato","s","null","noncog","pseudo","N","exp","null"
"","null","html-keyboard-response","200","561800","0.0-3.0-0.92","+","null","","","","","",""
"","3481","html-keyboard-response","201","565281","0.0-3.0-1.92","pneucania","s","null","noncog","pseudo","N","exp","null"
"","null","html-keyboard-response","202","565782","0.0-3.0-0.93","+","null","","","","","",""
"","1243","html-keyboard-response","203","567025","0.0-3.0-1.93","traduzir","s","v","cog","word","S","exp","8"
"","null","html-keyboard-response","204","567527","0.0-3.0-0.94","+","null","","","","","",""
"","1018","html-keyboard-response","205","568545","0.0-3.0-1.94","casuas","s","null","noncog","pseudo","N","exp","null"
"","null","html-keyboard-response","206","569047","0.0-3.0-0.95","+","null","","","","","",""
"","1834","html-keyboard-response","207","570881","0.0-3.0-1.95","boreta","s","null","noncog","pseudo","N","exp","null"
"","null","html-keyboard-response","208","571383","0.0-3.0-0.96","+","null","","","","","",""
"","730","html-keyboard-response","209","572113","0.0-3.0-1.96","tela","s","n","noncog","word","S","exp","4"
"","null","html-keyboard-response","210","572615","0.0-3.0-0.97","+","null","","","","","",""
"","3658","html-keyboard-response","211","576273","0.0-3.0-1.97","enxarto","s","null","noncog","pseudo","N","exp","null"
"","null","html-keyboard-response","212","576773","0.0-3.0-0.98","+","null","","","","","",""
"","2459","html-keyboard-response","213","579233","0.0-3.0-1.98","encelhor","s","null","noncog","pseudo","N","exp","null"
"","null","html-keyboard-response","214","579736","0.0-3.0-0.99","+","null","","","","","",""
"","2104","html-keyboard-response","215","581841","0.0-3.0-1.99","barco","s","n","cog","word","S","exp","5"
"","null","html-keyboard-response","216","582342","0.0-3.0-0.100","+","null","","","","","",""
"","2810","html-keyboard-response","217","585153","0.0-3.0-1.100","planalto","s","n","cog","word","S","exp","8"
"","null","html-keyboard-response","218","585653","0.0-3.0-0.101","+","null","","","","","",""
"","1595","html-keyboard-response","219","587249","0.0-3.0-1.101","alpica","s","null","noncog","pseudo","N","exp","null"
"","null","html-keyboard-response","220","587752","0.0-3.0-0.102","+","null","","","","","",""
"","2584","html-keyboard-response","221","590337","0.0-3.0-1.102","ilhure","n","null","noncog","pseudo","N","exp","null"
"","null","html-keyboard-response","222","590839","0.0-3.0-0.103","+","null","","","","","",""
"","3529","html-keyboard-response","223","594369","0.0-3.0-1.103","ronronar","s","v","cog","word","S","exp","8"
"","null","html-keyboard-response","224","594873","0.0-3.0-0.104","+","null","","","","","",""
"","1303","html-keyboard-response","225","596177","0.0-3.0-1.104","perdão","s","n","noncog","word","S","exp","6"
"","null","html-keyboard-response","226","596679","0.0-3.0-0.105","+","null","","","","","",""
"","1225","html-keyboard-response","227","597905","0.0-3.0-1.105","ótimo","s","a","noncog","word","S","exp","5"
"","null","html-keyboard-response","228","598406","0.0-3.0-0.106","+","null","","","","","",""
"","1914","html-keyboard-response","229","600321","0.0-3.0-1.106","sábio","s","n","noncog","word","S","exp","5"
"","null","html-keyboard-response","230","600823","0.0-3.0-0.107","+","null","","","","","",""
"","1817","html-keyboard-response","231","602641","0.0-3.0-1.107","drama","s","n","cog","word","S","exp","5"
"","null","html-keyboard-response","232","603157","0.0-3.0-0.108","+","null","","","","","",""
"","1291","html-keyboard-response","233","604449","0.0-3.0-1.108","aivões","s","null","noncog","pseudo","N","exp","null"
"","null","html-keyboard-response","234","604949","0.0-3.0-0.109","+","null","","","","","",""
"","4123","html-keyboard-response","235","609073","0.0-3.0-1.109","hedoru","s","null","noncog","pseudo","N","exp","null"
"","null","html-keyboard-response","236","609574","0.0-3.0-0.110","+","null","","","","","",""
"","2602","html-keyboard-response","237","612177","0.0-3.0-1.110","temperar","s","v","noncog","word","S","exp","8"
"","null","html-keyboard-response","238","612679","0.0-3.0-0.111","+","null","","","","","",""
"","1514","html-keyboard-response","239","614193","0.0-3.0-1.111","tímido","s","a","cog","word","S","exp","6"
"","null","html-keyboard-response","240","614693","0.0-3.0-0.112","+","null","","","","","",""
"","2203","html-keyboard-response","241","616897","0.0-3.0-1.112","deselegante","s","a","noncog","word","S","exp","11"
"","null","html-keyboard-response","242","617399","0.0-3.0-0.113","+","null","","","","","",""
"","1130","html-keyboard-response","243","618529","0.0-3.0-1.113","frotes","s","null","noncog","pseudo","N","exp","null"
"","null","html-keyboard-response","244","619030","0.0-3.0-0.114","+","null","","","","","",""
"","2410","html-keyboard-response","245","621441","0.0-3.0-1.114","ênclio","s","null","noncog","pseudo","N","exp","null"
"","null","html-keyboard-response","246","621942","0.0-3.0-0.115","+","null","","","","","",""
"","970","html-keyboard-response","247","622913","0.0-3.0-1.115","cristal","s","n","cog","word","S","exp","7"
"","null","html-keyboard-response","248","623413","0.0-3.0-0.116","+","null","","","","","",""
"","1067","html-keyboard-response","249","624481","0.0-3.0-1.116","bambu","s","n","cog","word","S","exp","5"
"","null","html-keyboard-response","250","624982","0.0-3.0-0.117","+","null","","","","","",""
"","1642","html-keyboard-response","251","626625","0.0-3.0-1.117","ejerro","n","null","noncog","pseudo","N","exp","null"
"","null","html-keyboard-response","252","627126","0.0-3.0-0.118","+","null","","","","","",""
"","4730","html-keyboard-response","253","631857","0.0-3.0-1.118","morno","n","a","noncog","word","S","exp","5"
"","null","html-keyboard-response","254","632358","0.0-3.0-0.119","+","null","","","","","",""
"","1434","html-keyboard-response","255","633793","0.0-3.0-1.119","avenas","s","null","noncog","pseudo","N","exp","null"
"","null","html-keyboard-response","256","634294","0.0-3.0-0.120","+","null","","","","","",""
"","2266","html-keyboard-response","257","636561","0.0-3.0-1.120","podilo","s","null","noncog","pseudo","N","exp","null"
"","null","html-keyboard-response","258","637061","0.0-3.0-0.121","+","null","","","","","",""
"","1995","html-keyboard-response","259","639056","0.0-3.0-1.121","enxerido","s","a","noncog","word","S","exp","8"
"","null","html-keyboard-response","260","639557","0.0-3.0-0.122","+","null","","","","","",""
"","3146","html-keyboard-response","261","642704","0.0-3.0-1.122","aletiê","s","null","noncog","pseudo","N","exp","null"
"","null","html-keyboard-response","262","643206","0.0-3.0-0.123","+","null","","","","","",""
"","2314","html-keyboard-response","263","645520","0.0-3.0-1.123","prantal","s","null","noncog","pseudo","N","exp","null"
"","null","html-keyboard-response","264","646022","0.0-3.0-0.124","+","null","","","","","",""
"","2346","html-keyboard-response","265","648368","0.0-3.0-1.124","aitrou","n","null","noncog","pseudo","N","exp","null"
"","null","html-keyboard-response","266","648869","0.0-3.0-0.125","+","null","","","","","",""
"","698","html-keyboard-response","267","649568","0.0-3.0-1.125","areia","n","n","noncog","word","S","exp","5"
"","null","html-keyboard-response","268","650071","0.0-3.0-0.126","+","null","","","","","",""
"","1880","html-keyboard-response","269","651952","0.0-3.0-1.126","bandido","s","n","cog","word","S","exp","7"
"","null","html-keyboard-response","270","652455","0.0-3.0-0.127","+","null","","","","","",""
"","2025","html-keyboard-response","271","654480","0.0-3.0-1.127","propaganda","s","n","cog","word","S","exp","10"
"","null","html-keyboard-response","272","654981","0.0-3.0-0.128","+","null","","","","","",""
"","891","html-keyboard-response","273","655872","0.0-3.0-1.128","viver","s","v","cog","word","S","exp","5"
"","null","html-keyboard-response","274","656373","0.0-3.0-0.129","+","null","","","","","",""
"","27066","html-keyboard-response","275","683440","0.0-3.0-1.129","revear","s","null","noncog","pseudo","N","exp","null"
"","null","html-keyboard-response","276","683942","0.0-3.0-0.130","+","null","","","","","",""
"","1946","html-keyboard-response","277","685888","0.0-3.0-1.130","especial","s","a","cog","word","S","exp","8"
"","null","html-keyboard-response","278","686399","0.0-3.0-0.131","+","null","","","","","",""
"","4112","html-keyboard-response","279","690512","0.0-3.0-1.131","dilheira","s","null","noncog","pseudo","N","exp","null"
"","null","html-keyboard-response","280","691013","0.0-3.0-0.132","+","null","","","","","",""
"","2443","html-keyboard-response","281","693456","0.0-3.0-1.132","imitar","s","v","cog","word","S","exp","6"
"","null","html-keyboard-response","282","693958","0.0-3.0-0.133","+","null","","","","","",""
"","2586","html-keyboard-response","283","696544","0.0-3.0-1.133","preferir","s","v","cog","word","S","exp","8"
"","null","html-keyboard-response","284","697045","0.0-3.0-0.134","+","null","","","","","",""
"","1578","html-keyboard-response","285","698623","0.0-3.0-1.134","azul","s","n","noncog","word","S","exp","4"
"","null","html-keyboard-response","286","699124","0.0-3.0-0.135","+","null","","","","","",""
"","4379","html-keyboard-response","287","703504","0.0-3.0-1.135","lagoa","s","n","cog","word","S","exp","5"
"","null","html-keyboard-response","288","704004","0.0-3.0-0.136","+","null","","","","","",""
"","4203","html-keyboard-response","289","708207","0.0-3.0-1.136","parceter","s","null","noncog","pseudo","N","exp","null"
"","null","html-keyboard-response","290","708723","0.0-3.0-0.137","+","null","","","","","",""
"","1500","html-keyboard-response","291","710223","0.0-3.0-1.137","ofreta","s","null","noncog","pseudo","N","exp","null"
"","null","html-keyboard-response","292","710725","0.0-3.0-0.138","+","null","","","","","",""
"","1370","html-keyboard-response","293","712095","0.0-3.0-1.138","esfoce","s","null","noncog","pseudo","N","exp","null"
"","null","html-keyboard-response","294","712598","0.0-3.0-0.139","+","null","","","","","",""
"","1560","html-keyboard-response","295","714159","0.0-3.0-1.139","fusbão","s","null","noncog","pseudo","N","exp","null"
"","null","html-keyboard-response","296","714661","0.0-3.0-0.140","+","null","","","","","",""
"","1834","html-keyboard-response","297","716495","0.0-3.0-1.140","telafonir","s","null","noncog","pseudo","N","exp","null"
"","null","html-keyboard-response","298","716996","0.0-3.0-0.141","+","null","","","","","",""
"","4379","html-keyboard-response","299","721375","0.0-3.0-1.141","promeção","s","null","noncog","pseudo","N","exp","null"
"","null","html-keyboard-response","300","721878","0.0-3.0-0.142","+","null","","","","","",""
"","2073","html-keyboard-response","301","723951","0.0-3.0-1.142","undivídio","s","null","noncog","pseudo","N","exp","null"
"","null","html-keyboard-response","302","724452","0.0-3.0-0.143","+","null","","","","","",""
"","1562","html-keyboard-response","303","726015","0.0-3.0-1.143","extravagante","s","a","cog","word","S","exp","12"
"","null","html-keyboard-response","304","726516","0.0-3.0-0.144","+","null","","","","","",""
"","1691","html-keyboard-response","305","728207","0.0-3.0-1.144","tartos","s","null","noncog","pseudo","N","exp","null"
"","null","html-keyboard-response","306","728708","0.0-3.0-0.145","+","null","","","","","",""
"","2554","html-keyboard-response","307","731263","0.0-3.0-1.145","grótis","s","null","noncog","pseudo","N","exp","null"
"","null","html-keyboard-response","308","731766","0.0-3.0-0.146","+","null","","","","","",""
"","1289","html-keyboard-response","309","733055","0.0-3.0-1.146","cápsula","s","n","noncog","word","S","exp","7"
"","null","html-keyboard-response","310","733556","0.0-3.0-0.147","+","null","","","","","",""
"","938","html-keyboard-response","311","734495","0.0-3.0-1.147","chato","s","n","noncog","word","S","exp","5"
"","null","html-keyboard-response","312","734997","0.0-3.0-0.148","+","null","","","","","",""
"","2298","html-keyboard-response","313","737296","0.0-3.0-1.148","macras","s","null","noncog","pseudo","N","exp","null"
"","null","html-keyboard-response","314","737797","0.0-3.0-0.149","+","null","","","","","",""
"","1034","html-keyboard-response","315","738831","0.0-3.0-1.149","protas","s","null","noncog","pseudo","N","exp","null"
"","null","html-keyboard-response","316","739347","0.0-3.0-0.150","+","null","","","","","",""
"","2380","html-keyboard-response","317","741727","0.0-3.0-1.150","crolatário","s","null","noncog","pseudo","N","exp","null"
"","null","html-keyboard-response","318","742228","0.0-3.0-0.151","+","null","","","","","",""
"","3915","html-keyboard-response","319","746143","0.0-3.0-1.151","usfiga","n","null","noncog","pseudo","N","exp","null"
"","null","html-keyboard-response","320","746645","0.0-3.0-0.152","+","null","","","","","",""
"","4698","html-keyboard-response","321","751344","0.0-3.0-1.152","ocinto","s","null","noncog","pseudo","N","exp","null"
"","null","html-keyboard-response","322","751845","0.0-3.0-0.153","+","null","","","","","",""
"","1962","html-keyboard-response","323","753807","0.0-3.0-1.153","raspar","s","v","noncog","word","S","exp","6"
"","null","html-keyboard-response","324","754308","0.0-3.0-0.154","+","null","","","","","",""
"","4987","html-keyboard-response","325","759295","0.0-3.0-1.154","salpicado","s","a","noncog","word","S","exp","9"
"","null","html-keyboard-response","326","759795","0.0-3.0-0.155","+","null","","","","","",""
"","1115","html-keyboard-response","327","760911","0.0-3.0-1.155","mudança","s","n","noncog","word","S","exp","7"
"","null","html-keyboard-response","328","761413","0.0-3.0-0.156","+","null","","","","","",""
"","2970","html-keyboard-response","329","764383","0.0-3.0-1.156","mania","s","n","cog","word","S","exp","5"
"","null","html-keyboard-response","330","764884","0.0-3.0-0.157","+","null","","","","","",""
"","4778","html-keyboard-response","331","769663","0.0-3.0-1.157","tronca","n","null","noncog","pseudo","N","exp","null"
"","null","html-keyboard-response","332","770164","0.0-3.0-0.158","+","null","","","","","",""
"","4906","html-keyboard-response","333","775071","0.0-3.0-1.158","terdia","n","null","noncog","pseudo","N","exp","null"
"","null","html-keyboard-response","334","775572","0.0-3.0-0.159","+","null","","","","","",""
"","4714","html-keyboard-response","335","780287","0.0-3.0-1.159","incomodar","n","v","noncog","word","S","exp","9"
"","null","html-keyboard-response","336","780788","0.0-3.0-0.160","+","null","","","","","",""
"","3338","html-keyboard-response","337","784127","0.0-3.0-1.160","delomir","n","null","noncog","pseudo","N","exp","null"
"","null","html-keyboard-response","338","784630","0.0-3.0-0.161","+","null","","","","","",""
"","1800","html-keyboard-response","339","786431","0.0-3.0-1.161","rédesa","n","null","noncog","pseudo","N","exp","null"
"","null","html-keyboard-response","340","786932","0.0-3.0-0.162","+","null","","","","","",""
"","3370","html-keyboard-response","341","790303","0.0-3.0-1.162","bachir","s","null","noncog","pseudo","N","exp","null"
"","null","html-keyboard-response","342","790804","0.0-3.0-0.163","+","null","","","","","",""
"","4698","html-keyboard-response","343","795503","0.0-3.0-1.163","hipócrita","s","a","noncog","word","S","exp","9"
"","null","html-keyboard-response","344","796004","0.0-3.0-0.164","+","null","","","","","",""
"","2234","html-keyboard-response","345","798239","0.0-3.0-1.164","nacional","s","a","cog","word","S","exp","8"
"","null","html-keyboard-response","346","798754","0.0-3.0-0.165","+","null","","","","","",""
"","1837","html-keyboard-response","347","800591","0.0-3.0-1.165","chorão","s","a","noncog","word","S","exp","6"
"","null","html-keyboard-response","348","801092","0.0-3.0-0.166","+","null","","","","","",""
"","3354","html-keyboard-response","349","804447","0.0-3.0-1.166","cravo","s","n","noncog","word","S","exp","5"
"","null","html-keyboard-response","350","804952","0.0-3.0-0.167","+","null","","","","","",""
"","1062","html-keyboard-response","351","806015","0.0-3.0-1.167","risbos","s","null","noncog","pseudo","N","exp","null"
"","null","html-keyboard-response","352","806515","0.0-3.0-0.168","+","null","","","","","",""
"","1515","html-keyboard-response","353","808031","0.0-3.0-1.168","aemaça","s","null","noncog","pseudo","N","exp","null"
"","null","html-keyboard-response","354","808532","0.0-3.0-0.169","+","null","","","","","",""
"","1210","html-keyboard-response","355","809743","0.0-3.0-1.169","montanha","s","n","cog","word","S","exp","8"
"","null","html-keyboard-response","356","810244","0.0-3.0-0.170","+","null","","","","","",""
"","2458","html-keyboard-response","357","812703","0.0-3.0-1.170","reduzir","s","v","cog","word","S","exp","7"
"","null","html-keyboard-response","358","813205","0.0-3.0-0.171","+","null","","","","","",""
"","1177","html-keyboard-response","359","814383","0.0-3.0-1.171","cinema","s","n","cog","word","S","exp","6"
"","null","html-keyboard-response","360","814884","0.0-3.0-0.172","+","null","","","","","",""
"","1722","html-keyboard-response","361","816606","0.0-3.0-1.172","esperar","s","v","cog","word","S","exp","7"
"","null","html-keyboard-response","362","817116","0.0-3.0-0.173","+","null","","","","","",""
"","1489","html-keyboard-response","363","818606","0.0-3.0-1.173","gordo","s","a","noncog","word","S","exp","5"
"","null","html-keyboard-response","364","819118","0.0-3.0-0.174","+","null","","","","","",""
"","1679","html-keyboard-response","365","820798","0.0-3.0-1.174","lagras","s","null","noncog","pseudo","N","exp","null"
"","null","html-keyboard-response","366","821300","0.0-3.0-0.175","+","null","","","","","",""
"","4874","html-keyboard-response","367","826174","0.0-3.0-1.175","abieso","s","null","noncog","pseudo","N","exp","null"
"","null","html-keyboard-response","368","826677","0.0-3.0-0.176","+","null","","","","","",""
"","1320","html-keyboard-response","369","827998","0.0-3.0-1.176","escumo","s","null","noncog","pseudo","N","exp","null"
"","null","html-keyboard-response","370","828499","0.0-3.0-0.177","+","null","","","","","",""
"","2282","html-keyboard-response","371","830782","0.0-3.0-1.177","independente","s","a","noncog","word","S","exp","12"
"","null","html-keyboard-response","372","831284","0.0-3.0-0.178","+","null","","","","","",""
"","4410","html-keyboard-response","373","835694","0.0-3.0-1.178","afual","n","null","noncog","pseudo","N","exp","null"
"","null","html-keyboard-response","374","836195","0.0-3.0-0.179","+","null","","","","","",""
"","5034","html-keyboard-response","375","841230","0.0-3.0-1.179","sustentar","s","v","noncog","word","S","exp","9"
"","null","html-keyboard-response","376","841732","0.0-3.0-0.180","+","null","","","","","",""
"","4170","html-keyboard-response","377","845902","0.0-3.0-1.180","cenada","s","null","noncog","pseudo","N","exp","null"
"","null","html-keyboard-response","378","846404","0.0-3.0-0.181","+","null","","","","","",""
"","3514","html-keyboard-response","379","849918","0.0-3.0-1.181","afonher","s","null","noncog","pseudo","N","exp","null"
"","null","html-keyboard-response","380","850419","0.0-3.0-0.182","+","null","","","","","",""
"","1578","html-keyboard-response","381","851998","0.0-3.0-1.182","uçar","s","null","noncog","pseudo","N","exp","null"
"","null","html-keyboard-response","382","852500","0.0-3.0-0.183","+","null","","","","","",""
"","2746","html-keyboard-response","383","855246","0.0-3.0-1.183","euorpa","n","null","noncog","pseudo","N","exp","null"
"","null","html-keyboard-response","384","855747","0.0-3.0-0.184","+","null","","","","","",""
"","4906","html-keyboard-response","385","860654","0.0-3.0-1.184","vitrive","s","null","noncog","pseudo","N","exp","null"
"","null","html-keyboard-response","386","861163","0.0-3.0-0.185","+","null","","","","","",""
"","1986","html-keyboard-response","387","863150","0.0-3.0-1.185","espionar","s","v","cog","word","S","exp","8"
"","null","html-keyboard-response","388","863651","0.0-3.0-0.186","+","null","","","","","",""
"","1115","html-keyboard-response","389","864766","0.0-3.0-1.186","trabalhar","s","v","noncog","word","S","exp","9"
"","null","html-keyboard-response","390","865267","0.0-3.0-0.187","+","null","","","","","",""
"","3626","html-keyboard-response","391","868894","0.0-3.0-1.187","comércio","s","n","noncog","word","S","exp","8"
"","null","html-keyboard-response","392","869396","0.0-3.0-0.188","+","null","","","","","",""
"","3274","html-keyboard-response","393","872670","0.0-3.0-1.188","pantufa","s","n","cog","word","S","exp","7"
"","null","html-keyboard-response","394","873172","0.0-3.0-0.189","+","null","","","","","",""
"","1514","html-keyboard-response","395","874686","0.0-3.0-1.189","gertas","s","null","noncog","pseudo","N","exp","null"
"","null","html-keyboard-response","396","875187","0.0-3.0-0.190","+","null","","","","","",""
"","5946","html-keyboard-response","397","881133","0.0-3.0-1.190","atapdar","s","null","noncog","pseudo","N","exp","null"
"","null","html-keyboard-response","398","881635","0.0-3.0-0.191","+","null","","","","","",""
"","1866","html-keyboard-response","399","883502","0.0-3.0-1.191","trenos","s","null","noncog","pseudo","N","exp","null"
"","null","html-keyboard-response","400","884002","0.0-3.0-0.192","+","null","","","","","",""
"","2826","html-keyboard-response","401","886829","0.0-3.0-1.192","tatear","n","v","cog","word","S","exp","6"
"","null","html-keyboard-response","402","887331","0.0-3.0-0.193","+","null","","","","","",""
"","2090","html-keyboard-response","403","889421","0.0-3.0-1.193","motros","s","null","noncog","pseudo","N","exp","null"
"","null","html-keyboard-response","404","889924","0.0-3.0-0.194","+","null","","","","","",""
"","2185","html-keyboard-response","405","892109","0.0-3.0-1.194","loaco","s","null","noncog","pseudo","N","exp","null"
"","null","html-keyboard-response","406","892611","0.0-3.0-0.195","+","null","","","","","",""
"","1578","html-keyboard-response","407","894190","0.0-3.0-1.195","fasdas","s","null","noncog","pseudo","N","exp","null"
"","null","html-keyboard-response","408","894691","0.0-3.0-0.196","+","null","","","","","",""
"","1082","html-keyboard-response","409","895774","0.0-3.0-1.196","fino","s","a","cog","word","S","exp","4"
"","null","html-keyboard-response","410","896275","0.0-3.0-0.197","+","null","","","","","",""
"","1178","html-keyboard-response","411","897453","0.0-3.0-1.197","pedaço","s","n","noncog","word","S","exp","6"
"","null","html-keyboard-response","412","897955","0.0-3.0-0.198","+","null","","","","","",""
"","1626","html-keyboard-response","413","899581","0.0-3.0-1.198","sintonizar","s","v","noncog","word","S","exp","10"
"","null","html-keyboard-response","414","900088","0.0-3.0-0.199","+","null","","","","","",""
"","1301","html-keyboard-response","415","901389","0.0-3.0-1.199","manais","s","null","noncog","pseudo","N","exp","null"
"","null","html-keyboard-response","416","901891","0.0-3.0-0.200","+","null","","","","","",""
"","970","html-keyboard-response","417","902861","0.0-3.0-1.200","carro","s","n","noncog","word","S","exp","5"
"","null","html-keyboard-response","418","903367","0.0-3.0-0.201","+","null","","","","","",""
"","2069","html-keyboard-response","419","905437","0.0-3.0-1.201","lorfaz","s","null","noncog","pseudo","N","exp","null"
"","null","html-keyboard-response","420","905939","0.0-3.0-0.202","+","null","","","","","",""
"","1786","html-keyboard-response","421","907725","0.0-3.0-1.202","apontar","s","v","noncog","word","S","exp","7"
"","null","html-keyboard-response","422","908226","0.0-3.0-0.203","+","null","","","","","",""
"","3482","html-keyboard-response","423","911709","0.0-3.0-1.203","franda","s","null","noncog","pseudo","N","exp","null"
"","null","html-keyboard-response","424","912211","0.0-3.0-0.204","+","null","","","","","",""
"","1578","html-keyboard-response","425","913789","0.0-3.0-1.204","promessa","s","n","noncog","word","S","exp","8"
"","null","html-keyboard-response","426","914293","0.0-3.0-0.205","+","null","","","","","",""
"","5016","html-keyboard-response","427","919310","0.0-3.0-1.205","orupas","s","null","noncog","pseudo","N","exp","null"
"","null","html-keyboard-response","428","919811","0.0-3.0-0.206","+","null","","","","","",""
"","2074","html-keyboard-response","429","921886","0.0-3.0-1.206","pitada","s","n","noncog","word","S","exp","6"
"","null","html-keyboard-response","430","922388","0.0-3.0-0.207","+","null","","","","","",""
"","1305","html-keyboard-response","431","923693","0.0-3.0-1.207","selir","s","null","noncog","pseudo","N","exp","null"
"","null","html-keyboard-response","432","924195","0.0-3.0-0.208","+","null","","","","","",""
"","2330","html-keyboard-response","433","926525","0.0-3.0-1.208","senareta","s","null","noncog","pseudo","N","exp","null"
"","null","html-keyboard-response","434","927029","0.0-3.0-0.209","+","null","","","","","",""
"","2808","html-keyboard-response","435","929837","0.0-3.0-1.209","usnado","s","null","noncog","pseudo","N","exp","null"
"","null","html-keyboard-response","436","930340","0.0-3.0-0.210","+","null","","","","","",""
"","1929","html-keyboard-response","437","932269","0.0-3.0-1.210","convidado","s","n","noncog","word","S","exp","9"
"","null","html-keyboard-response","438","932771","0.0-3.0-0.211","+","null","","","","","",""
"","2762","html-keyboard-response","439","935533","0.0-3.0-1.211","plinta","s","null","noncog","pseudo","N","exp","null"
"","null","html-keyboard-response","440","936034","0.0-3.0-0.212","+","null","","","","","",""
"","1371","html-keyboard-response","441","937405","0.0-3.0-1.212","agressivo","s","a","cog","word","S","exp","9"
"","null","html-keyboard-response","442","937906","0.0-3.0-0.213","+","null","","","","","",""
"","955","html-keyboard-response","443","938861","0.0-3.0-1.213","prever","s","v","cog","word","S","exp","6"
"","null","html-keyboard-response","444","939362","0.0-3.0-0.214","+","null","","","","","",""
"","10827","html-keyboard-response","445","950189","0.0-3.0-1.214","âgnulo","n","null","noncog","pseudo","N","exp","null"
"","null","html-keyboard-response","446","950691","0.0-3.0-0.215","+","null","","","","","",""
"","4090","html-keyboard-response","447","954781","0.0-3.0-1.215","brincar","s","v","noncog","word","S","exp","7"
"","null","html-keyboard-response","448","955297","0.0-3.0-0.216","+","null","","","","","",""
"","2203","html-keyboard-response","449","957501","0.0-3.0-1.216","papai","s","n","cog","word","S","exp","5"
"","null","html-keyboard-response","450","958003","0.0-3.0-0.217","+","null","","","","","",""
"","1370","html-keyboard-response","451","959373","0.0-3.0-1.217","gruja","s","null","noncog","pseudo","N","exp","null"
"","null","html-keyboard-response","452","959875","0.0-3.0-0.218","+","null","","","","","",""
"","3146","html-keyboard-response","453","963021","0.0-3.0-1.218","lapestra","s","null","noncog","pseudo","N","exp","null"
"","null","html-keyboard-response","454","963531","0.0-3.0-0.219","+","null","","","","","",""
"","866","html-keyboard-response","455","964397","0.0-3.0-1.219","morar","s","v","noncog","word","S","exp","5"
"","null","html-keyboard-response","456","964899","0.0-3.0-0.220","+","null","","","","","",""
"","1577","html-keyboard-response","457","966477","0.0-3.0-1.220","bagunceira","s","a","noncog","word","S","exp","10"
"","null","html-keyboard-response","458","966977","0.0-3.0-0.221","+","null","","","","","",""
"","1899","html-keyboard-response","459","968877","0.0-3.0-1.221","ideisa","s","null","noncog","pseudo","N","exp","null"
"","null","html-keyboard-response","460","969379","0.0-3.0-0.222","+","null","","","","","",""
"","1114","html-keyboard-response","461","970493","0.0-3.0-1.222","nome","s","n","cog","word","S","exp","4"
"","null","html-keyboard-response","462","970994","0.0-3.0-0.223","+","null","","","","","",""
"","1067","html-keyboard-response","463","972061","0.0-3.0-1.223","gilha","s","null","noncog","pseudo","N","exp","null"
"","null","html-keyboard-response","464","972562","0.0-3.0-0.224","+","null","","","","","",""
"","1498","html-keyboard-response","465","974061","0.0-3.0-1.224","cirado","s","null","noncog","pseudo","N","exp","null"
"","null","html-keyboard-response","466","974562","0.0-3.0-0.225","+","null","","","","","",""
"","858","html-keyboard-response","467","975421","0.0-3.0-1.225","bancada","s","n","noncog","word","S","exp","7"
"","null","html-keyboard-response","468","975922","0.0-3.0-0.226","+","null","","","","","",""
"","970","html-keyboard-response","469","976893","0.0-3.0-1.226","memória","s","n","cog","word","S","exp","7"
"","null","html-keyboard-response","470","977394","0.0-3.0-0.227","+","null","","","","","",""
"","1098","html-keyboard-response","471","978493","0.0-3.0-1.227","açúcar","s","n","noncog","word","S","exp","6"
"","null","html-keyboard-response","472","978994","0.0-3.0-0.228","+","null","","","","","",""
"","987","html-keyboard-response","473","979981","0.0-3.0-1.228","prenas","s","null","noncog","pseudo","N","exp","null"
"","null","html-keyboard-response","474","980482","0.0-3.0-0.229","+","null","","","","","",""
"","3675","html-keyboard-response","475","984157","0.0-3.0-1.229","pega-pega","s","n","noncog","word","S","exp","8"
"","null","html-keyboard-response","476","984658","0.0-3.0-0.230","+","null","","","","","",""
"","6027","html-keyboard-response","477","990685","0.0-3.0-1.230","oecano","n","null","noncog","pseudo","N","exp","null"
"","null","html-keyboard-response","478","991186","0.0-3.0-0.231","+","null","","","","","",""
"","4154","html-keyboard-response","479","995341","0.0-3.0-1.231","resmungar","s","v","noncog","word","S","exp","9"
"","null","html-keyboard-response","480","995842","0.0-3.0-0.232","+","null","","","","","",""
"","1370","html-keyboard-response","481","997212","0.0-3.0-1.232","verceja","s","null","noncog","pseudo","N","exp","null"
"","null","html-keyboard-response","482","997714","0.0-3.0-0.233","+","null","","","","","",""
"","1418","html-keyboard-response","483","999132","0.0-3.0-1.233","pritas","s","null","noncog","pseudo","N","exp","null"
"","null","html-keyboard-response","484","999633","0.0-3.0-0.234","+","null","","","","","",""
"","939","html-keyboard-response","485","1000572","0.0-3.0-1.234","fratos","s","null","noncog","pseudo","N","exp","null"
"","null","html-keyboard-response","486","1001074","0.0-3.0-0.235","+","null","","","","","",""
"","6394","html-keyboard-response","487","1007469","0.0-3.0-1.235","dencosto","n","null","noncog","pseudo","N","exp","null"
"","null","html-keyboard-response","488","1007970","0.0-3.0-0.236","+","null","","","","","",""
"","1706","html-keyboard-response","489","1009676","0.0-3.0-1.236","rovaz","s","null","noncog","pseudo","N","exp","null"
"","null","html-keyboard-response","490","1010178","0.0-3.0-0.237","+","null","","","","","",""
"","1914","html-keyboard-response","491","1012092","0.0-3.0-1.237","alfabeto","s","n","cog","word","S","exp","8"
"","null","html-keyboard-response","492","1012593","0.0-3.0-0.238","+","null","","","","","",""
"","1898","html-keyboard-response","493","1014492","0.0-3.0-1.238","braras","s","null","noncog","pseudo","N","exp","null"
"","null","html-keyboard-response","494","1014993","0.0-3.0-0.239","+","null","","","","","",""
"","1131","html-keyboard-response","495","1016124","0.0-3.0-1.239","tinta","s","n","cog","word","S","exp","5"
