[
	{
		"view_history": [
			{
				"page_index": 0,
				"viewing_time": 1481
			}
		],
		"rt": 1481,
		"trial_type": "instructions",
		"trial_index": 0,
		"time_elapsed": 1483,
		"internal_node_id": "0.0-0.0"
	},
	{
		"rt": 10903,
		"response": {
			"age": "34"
		},
		"trial_type": "survey-text",
		"trial_index": 1,
		"time_elapsed": 12489,
		"internal_node_id": "0.0-1.0"
	},
	{
		"rt": 4522,
		"response": {
			"sex": "Masculino"
		},
		"question_order": [
			0
		],
		"trial_type": "survey-multi-choice",
		"trial_index": 2,
		"time_elapsed": 17121,
		"internal_node_id": "0.0-2.0"
	},
	{
		"rt": 5939,
		"response": {
			"own_schooling": "Ensino Fundamental"
		},
		"question_order": [
			0
		],
		"trial_type": "survey-multi-choice",
		"trial_index": 3,
		"time_elapsed": 23161,
		"internal_node_id": "0.0-3.0"
	},
	{
		"rt": 23169,
		"response": {
			"mother_schooling": "Educação infantil"
		},
		"question_order": [
			0
		],
		"trial_type": "survey-multi-choice",
		"trial_index": 4,
		"time_elapsed": 46433,
		"internal_node_id": "0.0-4.0"
	},
	{
		"rt": 5266,
		"response": {
			"father_schooling": "Educação infantil"
		},
		"question_order": [
			0
		],
		"trial_type": "survey-multi-choice",
		"trial_index": 5,
		"time_elapsed": 51801,
		"internal_node_id": "0.0-5.0"
	},
	{
		"rt": 54899,
		"response": {
			"language_0": "creoulo",
			"listening_0": "1",
			"speaking_0": "1",
			"reading_0": "5",
			"writing_0": "5",
			"language_1": "",
			"listening_1": "",
			"speaking_1": "",
			"reading_1": "",
			"writing_1": "",
			"language_2": "",
			"listening_2": "",
			"speaking_2": "",
			"reading_2": "",
			"writing_2": "",
			"language_3": "",
			"listening_3": "",
			"speaking_3": "",
			"reading_3": "",
			"writing_3": ""
		},
		"trial_type": "survey-html-form",
		"trial_index": 6,
		"time_elapsed": 106802,
		"internal_node_id": "0.0-6.0"
	},
	{
		"rt": 69658,
		"response": {
			"language_3": "",
			"listening_3": "",
			"speaking_3": "",
			"reading_3": "",
			"writing_3": "",
			"language_1": "",
			"listening_1": "",
			"speaking_1": "",
			"reading_1": "",
			"writing_1": "",
			"language_2": "",
			"listening_2": "",
			"speaking_2": "",
			"reading_2": "",
			"writing_2": ""
		},
		"trial_type": "survey-html-form",
		"trial_index": 7,
		"time_elapsed": 176561,
		"internal_node_id": "0.0-7.0"
	},
	{
		"rt": 14369,
		"response": {
			"country_of_origin": "HAITI"
		},
		"trial_type": "survey-text",
		"trial_index": 8,
		"time_elapsed": 191033,
		"internal_node_id": "0.0-8.0"
	},
	{
		"rt": 28002,
		"response": {
			"country_of_residence": "DO BRASIL"
		},
		"trial_type": "survey-text",
		"trial_index": 9,
		"time_elapsed": 219137,
		"internal_node_id": "0.0-9.0"
	},
	{
		"rt": 47876,
		"response": {
			"country_0": "nunca",
			"duration_0": "nunca",
			"language_0": "nunca",
			"frequency_0": "nunca",
			"country_1": "",
			"duration_1": "",
			"language_1": "",
			"frequency_1": "",
			"country_2": "",
			"duration_2": "",
			"language_2": "",
			"frequency_2": "",
			"country_3": "",
			"duration_3": "",
			"language_3": "",
			"frequency_3": ""
		},
		"trial_type": "survey-html-form",
		"trial_index": 10,
		"time_elapsed": 267114,
		"internal_node_id": "0.0-10.0"
	},
	{
		"rt": 89632,
		"response": {
			"language_0": "BRASIL",
			"context_0": "2",
			"language_1": "",
			"context_1": "",
			"language_2": "",
			"context_2": "",
			"language_3": "",
			"context_3": ""
		},
		"trial_type": "survey-html-form",
		"trial_index": 11,
		"time_elapsed": 356848,
		"internal_node_id": "0.0-11.0"
	},
	{
		"rt": 73570,
		"response": {
			"language_0": "BRASIL",
			"home_0": "2",
			"friends_0": "2",
			"school_0": "2",
			"work_0": "2",
			"computer_0": "2",
			"games_0": "2",
			"language_1": "",
			"home_1": "",
			"friends_1": "",
			"school_1": "",
			"work_1": "",
			"computer_1": "",
			"games_1": "",
			"language_2": "",
			"home_2": "",
			"friends_2": "",
			"school_2": "",
			"work_2": "",
			"computer_2": "",
			"games_2": "",
			"language_3": "",
			"home_3": "",
			"friends_3": "",
			"school_3": "",
			"work_3": "",
			"computer_3": "",
			"games_3": ""
		},
		"trial_type": "survey-html-form",
		"trial_index": 12,
		"time_elapsed": 430520,
		"internal_node_id": "0.0-12.0"
	},
	{
		"rt": 30066,
		"response": {
			"new_languages": 4
		},
		"question_order": [
			0
		],
		"trial_type": "survey-likert",
		"trial_index": 13,
		"time_elapsed": 460689,
		"internal_node_id": "0.0-13.0"
	},
	{
		"rt": 83546,
		"response": {
			"language_0": "BRASIL",
			"listen_0": "3",
			"talk_0": "2",
			"read_0": "3",
			"write_0": "3",
			"language_1": "",
			"listen_1": "",
			"talk_1": "",
			"read_1": "",
			"write_1": "",
			"language_2": "",
			"listen_2": "",
			"talk_2": "",
			"read_2": "",
			"write_2": "",
			"language_3": "",
			"listen_3": "",
			"talk_3": "",
			"read_3": "",
			"write_3": ""
		},
		"trial_type": "survey-html-form",
		"trial_index": 14,
		"time_elapsed": 544336,
		"internal_node_id": "0.0-14.0"
	},
	{
		"rt": 333737,
		"response": {
			"language_0": "BRASIL",
			"tv_0": "2 m",
			"radio_0": "1hora",
			"read_fun_0": "11 m",
			"read_work_0": "30 m ",
			"write_0": "",
			"social_nets_0": "2 horas",
			"language_1": "",
			"tv_1": "",
			"radio_1": "",
			"read_fun_1": "",
			"read_work_1": "",
			"write_1": "",
			"social_nets_1": "",
			"language_2": "",
			"tv_2": "",
			"radio_2": "",
			"read_fun_2": "",
			"read_work_2": "",
			"write_2": "",
			"social_nets_2": "",
			"language_3": "",
			"tv_3": "",
			"radio_3": "",
			"read_fun_3": "",
			"read_work_3": "",
			"write_3": "",
			"social_nets_3": ""
		},
		"trial_type": "survey-html-form",
		"trial_index": 15,
		"time_elapsed": 878176,
		"internal_node_id": "0.0-15.0"
	},
	{
		"rt": 190824,
		"response": {
			"language_0": "BRASIL",
			"family_0": "3horas",
			"friends_0": "3 horass",
			"work_0": "14horas",
			"school_0": "",
			"language_1": "",
			"family_1": "",
			"friends_1": "",
			"work_1": "",
			"school_1": "",
			"language_2": "",
			"family_2": "",
			"friends_2": "",
			"work_2": "",
			"school_2": "",
			"language_3": "",
			"family_3": "",
			"friends_3": "",
			"work_3": "",
			"school_3": ""
		},
		"trial_type": "survey-html-form",
		"trial_index": 16,
		"time_elapsed": 1069102,
		"internal_node_id": "0.0-16.0"
	},
	{
		"rt": 598224,
		"response": {
			"language_0_0": "CREOULO",
			"language_0_1": "CREOULO",
			"language_0_2": "CREOULO",
			"language_0_3": "CREOULO",
			"language_1_0": "PORTUG",
			"language_1_1": "PORTUG E CREOULO",
			"language_1_2": "PORTUG E CREOULO",
			"language_1_3": "PORTUG E CREOULO",
			"language_2_0": "PORTUG",
			"language_2_1": "PORTUG",
			"language_2_2": "PORTUG",
			"language_2_3": "PORTUG",
			"language_3_0": "PORTUG",
			"language_3_1": "PORTUG",
			"language_3_2": "PORTUG",
			"language_3_3": "PORTUG"
		},
		"trial_type": "survey-html-form",
		"trial_index": 17,
		"time_elapsed": 1667429,
		"internal_node_id": "0.0-17.0"
	},
	{
		"rt": 390994,
		"response": {
			"language_2": "FRANCES",
			"think_2": "",
			"selftalk_2": "4",
			"emotions_2": "",
			"dream_2": "",
			"math_2": "",
			"remember_2": "",
			"pray_2": "",
			"language_1": "CREOULO",
			"think_1": "2",
			"selftalk_1": "3",
			"emotions_1": "4",
			"dream_1": "2",
			"math_1": "3",
			"remember_1": "3",
			"pray_1": "",
			"language_3": "",
			"think_3": "",
			"selftalk_3": "",
			"emotions_3": "",
			"dream_3": "",
			"math_3": "",
			"remember_3": "",
			"pray_3": ""
		},
		"trial_type": "survey-html-form",
		"trial_index": 18,
		"time_elapsed": 2058524,
		"internal_node_id": "0.0-18.0"
	},
	{
		"rt": 17441,
		"response": {
			"dificuldade_visao_ou_audicao": "Não"
		},
		"question_order": [
			0
		],
		"trial_type": "survey-multi-choice",
		"trial_index": 19,
		"time_elapsed": 2076067,
		"internal_node_id": "0.0-19.0"
	},
	{
		"rt": 7155,
		"response": {
			"detalhes_dificuldades_audicao_ou_visao": ""
		},
		"trial_type": "survey-text",
		"trial_index": 20,
		"time_elapsed": 2083331,
		"internal_node_id": "0.0-20.0"
	},
	{
		"rt": 46793,
		"response": {
			"additional_info": "EU GOSTO"
		},
		"trial_type": "survey-text",
		"trial_index": 21,
		"time_elapsed": 2130227,
		"internal_node_id": "0.0-21.0"
	}
]