[
	{
		"view_history": [
			{
				"page_index": 0,
				"viewing_time": 2543
			},
			{
				"page_index": 1,
				"viewing_time": 18248
			}
		],
		"rt": 20792,
		"trial_type": "instructions",
		"trial_index": 0,
		"time_elapsed": 20793,
		"internal_node_id": "0.0-0.0"
	},
	{
		"rt": null,
		"stimulus": "<span style= \"font-size:30px; font-family: monospace\">+</span>",
		"response": null,
		"trial_part": "fixation",
		"trial_type": "html-keyboard-response",
		"trial_index": 1,
		"time_elapsed": 21920,
		"internal_node_id": "0.0-1.0-0.0-0.0"
	},
	{
		"rt": 2673,
		"stimulus": "<span style=\"font-size:30px; font-family: monospace\">O</span>",
		"response": " ",
		"trial": "prac-sent",
		"word": "O",
		"trial_type": "html-keyboard-response",
		"trial_index": 2,
		"time_elapsed": 24849,
		"internal_node_id": "0.0-1.0-1.0"
	},
	{
		"rt": 12034,
		"stimulus": "<span style=\"font-size:30px; font-family: monospace\">dia</span>",
		"response": " ",
		"trial": "prac-sent",
		"word": "dia",
		"trial_type": "html-keyboard-response",
		"trial_index": 3,
		"time_elapsed": 37136,
		"internal_node_id": "0.0-1.0-1.1"
	},
	{
		"rt": 2566,
		"stimulus": "<span style=\"font-size:30px; font-family: monospace\">estará</span>",
		"response": " ",
		"trial": "prac-sent",
		"word": "estará",
		"trial_type": "html-keyboard-response",
		"trial_index": 4,
		"time_elapsed": 39952,
		"internal_node_id": "0.0-1.0-1.2"
	},
	{
		"rt": 2325,
		"stimulus": "<span style=\"font-size:30px; font-family: monospace\">cheio</span>",
		"response": " ",
		"trial": "prac-sent",
		"word": "cheio",
		"trial_type": "html-keyboard-response",
		"trial_index": 5,
		"time_elapsed": 42528,
		"internal_node_id": "0.0-1.0-1.3"
	},
	{
		"rt": 2037,
		"stimulus": "<span style=\"font-size:30px; font-family: monospace\">de</span>",
		"response": " ",
		"trial": "prac-sent",
		"word": "de",
		"trial_type": "html-keyboard-response",
		"trial_index": 6,
		"time_elapsed": 44816,
		"internal_node_id": "0.0-1.0-1.4"
	},
	{
		"rt": 1541,
		"stimulus": "<span style=\"font-size:30px; font-family: monospace\">nuvens</span>",
		"response": " ",
		"trial": "prac-sent",
		"word": "nuvens",
		"trial_type": "html-keyboard-response",
		"trial_index": 7,
		"time_elapsed": 46608,
		"internal_node_id": "0.0-1.0-1.5"
	},
	{
		"rt": 1701,
		"stimulus": "<span style=\"font-size:30px; font-family: monospace\">hoje.</span>",
		"response": " ",
		"trial": "prac-sent",
		"word": "hoje.",
		"trial_type": "html-keyboard-response",
		"trial_index": 8,
		"time_elapsed": 48560,
		"internal_node_id": "0.0-1.0-1.6"
	},
	{
		"rt": null,
		"stimulus": "<span style= \"font-size:30px; font-family: monospace\">+</span>",
		"response": null,
		"trial_part": "fixation",
		"trial_type": "html-keyboard-response",
		"trial_index": 9,
		"time_elapsed": 49811,
		"internal_node_id": "0.0-1.0-0.7-0.7"
	},
	{
		"rt": 1265,
		"stimulus": "<span style=\"font-size:30px; font-family: monospace\">A</span>",
		"response": " ",
		"trial": "prac-sent",
		"word": "A",
		"trial_type": "html-keyboard-response",
		"trial_index": 10,
		"time_elapsed": 51328,
		"internal_node_id": "0.0-1.0-1.7"
	},
	{
		"rt": 5141,
		"stimulus": "<span style=\"font-size:30px; font-family: monospace\">caneca</span>",
		"response": " ",
		"trial": "prac-sent",
		"word": "caneca",
		"trial_type": "html-keyboard-response",
		"trial_index": 11,
		"time_elapsed": 56720,
		"internal_node_id": "0.0-1.0-1.8"
	},
	{
		"rt": 1829,
		"stimulus": "<span style=\"font-size:30px; font-family: monospace\">colorida</span>",
		"response": " ",
		"trial": "prac-sent",
		"word": "colorida",
		"trial_type": "html-keyboard-response",
		"trial_index": 12,
		"time_elapsed": 58800,
		"internal_node_id": "0.0-1.0-1.9"
	},
	{
		"rt": 1669,
		"stimulus": "<span style=\"font-size:30px; font-family: monospace\">caiu</span>",
		"response": " ",
		"trial": "prac-sent",
		"word": "caiu",
		"trial_type": "html-keyboard-response",
		"trial_index": 13,
		"time_elapsed": 60720,
		"internal_node_id": "0.0-1.0-1.10"
	},
	{
		"rt": 757,
		"stimulus": "<span style=\"font-size:30px; font-family: monospace\">da</span>",
		"response": " ",
		"trial": "prac-sent",
		"word": "da",
		"trial_type": "html-keyboard-response",
		"trial_index": 14,
		"time_elapsed": 61728,
		"internal_node_id": "0.0-1.0-1.11"
	},
	{
		"rt": 916,
		"stimulus": "<span style=\"font-size:30px; font-family: monospace\">mesa</span>",
		"response": " ",
		"trial": "prac-sent",
		"word": "mesa",
		"trial_type": "html-keyboard-response",
		"trial_index": 15,
		"time_elapsed": 62896,
		"internal_node_id": "0.0-1.0-1.12"
	},
	{
		"rt": 710,
		"stimulus": "<span style=\"font-size:30px; font-family: monospace\">de</span>",
		"response": " ",
		"trial": "prac-sent",
		"word": "de",
		"trial_type": "html-keyboard-response",
		"trial_index": 16,
		"time_elapsed": 63856,
		"internal_node_id": "0.0-1.0-1.13"
	},
	{
		"rt": 1349,
		"stimulus": "<span style=\"font-size:30px; font-family: monospace\">jantar.</span>",
		"response": " ",
		"trial": "prac-comp",
		"word": "jantar.",
		"trial_type": "html-keyboard-response",
		"trial_index": 17,
		"time_elapsed": 65456,
		"internal_node_id": "0.0-1.0-1.14"
	},
	{
		"rt": 14677,
		"stimulus": "<span style=\"font-size:30px; font-family: monospace\">A caneca permaneceu na mesa?</span>",
		"response": "n",
		"question": "A caneca permaneceu na mesa?",
		"answer": "não",
		"trial": "prac-comp",
		"trial_type": "html-keyboard-response",
		"trial_index": 18,
		"time_elapsed": 80384,
		"internal_node_id": "0.0-1.0-2.14-0.14",
		"accuracy": false
	},
	{
		"view_history": [
			{
				"page_index": 0,
				"viewing_time": 6558
			}
		],
		"rt": 6558,
		"trial_type": "instructions",
		"trial_index": 19,
		"time_elapsed": 87448,
		"internal_node_id": "0.0-2.0"
	},
	{
		"rt": null,
		"stimulus": "<span style= \"font-size:30px; font-family: monospace\">+</span>",
		"response": null,
		"trial_part": "fixation",
		"trial_type": "html-keyboard-response",
		"trial_index": 20,
		"time_elapsed": 88550,
		"internal_node_id": "0.0-3.0-0.0-0.0"
	},
	{
		"rt": 174,
		"stimulus": "<span style=\"font-size:30px; font-family: monospace\">O</span>",
		"response": " ",
		"trial": "exp-sent",
		"word": "O",
		"trial_type": "html-keyboard-response",
		"trial_index": 21,
		"time_elapsed": 88976,
		"internal_node_id": "0.0-3.0-1.0"
	},
	{
		"rt": 6438,
		"stimulus": "<span style=\"font-size:30px; font-family: monospace\">travesseiro</span>",
		"response": " ",
		"trial": "exp-sent",
		"word": "travesseiro",
		"trial_type": "html-keyboard-response",
		"trial_index": 22,
		"time_elapsed": 95664,
		"internal_node_id": "0.0-3.0-1.1"
	},
	{
		"rt": 996,
		"stimulus": "<span style=\"font-size:30px; font-family: monospace\">era</span>",
		"response": " ",
		"trial": "exp-sent",
		"word": "era",
		"trial_type": "html-keyboard-response",
		"trial_index": 23,
		"time_elapsed": 96912,
		"internal_node_id": "0.0-3.0-1.2"
	},
	{
		"rt": 837,
		"stimulus": "<span style=\"font-size:30px; font-family: monospace\">muito</span>",
		"response": " ",
		"trial": "exp-sent",
		"word": "muito",
		"trial_type": "html-keyboard-response",
		"trial_index": 24,
		"time_elapsed": 98000,
		"internal_node_id": "0.0-3.0-1.3"
	},
	{
		"rt": 1541,
		"stimulus": "<span style=\"font-size:30px; font-family: monospace\">macio</span>",
		"response": " ",
		"trial": "exp-sent",
		"word": "macio",
		"trial_type": "html-keyboard-response",
		"trial_index": 25,
		"time_elapsed": 99792,
		"internal_node_id": "0.0-3.0-1.4"
	},
	{
		"rt": 709,
		"stimulus": "<span style=\"font-size:30px; font-family: monospace\">e</span>",
		"response": " ",
		"trial": "exp-sent",
		"word": "e",
		"trial_type": "html-keyboard-response",
		"trial_index": 26,
		"time_elapsed": 100752,
		"internal_node_id": "0.0-3.0-1.5"
	},
	{
		"rt": 3300,
		"stimulus": "<span style=\"font-size:30px; font-family: monospace\">confortável.</span>",
		"response": " ",
		"trial": "exp-sent",
		"word": "confortável.",
		"trial_type": "html-keyboard-response",
		"trial_index": 27,
		"time_elapsed": 104304,
		"internal_node_id": "0.0-3.0-1.6"
	},
	{
		"rt": null,
		"stimulus": "<span style= \"font-size:30px; font-family: monospace\">+</span>",
		"response": null,
		"trial_part": "fixation",
		"trial_type": "html-keyboard-response",
		"trial_index": 28,
		"time_elapsed": 105556,
		"internal_node_id": "0.0-3.0-0.7-0.7"
	},
	{
		"rt": 1121,
		"stimulus": "<span style=\"font-size:30px; font-family: monospace\">Hoje</span>",
		"response": " ",
		"trial": "exp-sent",
		"word": "Hoje",
		"trial_type": "html-keyboard-response",
		"trial_index": 29,
		"time_elapsed": 106928,
		"internal_node_id": "0.0-3.0-1.7"
	},
	{
		"rt": 756,
		"stimulus": "<span style=\"font-size:30px; font-family: monospace\">a</span>",
		"response": " ",
		"trial": "exp-sent",
		"word": "a",
		"trial_type": "html-keyboard-response",
		"trial_index": 30,
		"time_elapsed": 107935,
		"internal_node_id": "0.0-3.0-1.8"
	},
	{
		"rt": 1094,
		"stimulus": "<span style=\"font-size:30px; font-family: monospace\">atendente</span>",
		"response": " ",
		"trial": "exp-sent",
		"word": "atendente",
		"trial_type": "html-keyboard-response",
		"trial_index": 31,
		"time_elapsed": 109280,
		"internal_node_id": "0.0-3.0-1.9"
	},
	{
		"rt": 1236,
		"stimulus": "<span style=\"font-size:30px; font-family: monospace\">estava</span>",
		"response": " ",
		"trial": "exp-sent",
		"word": "estava",
		"trial_type": "html-keyboard-response",
		"trial_index": 32,
		"time_elapsed": 110768,
		"internal_node_id": "0.0-3.0-1.10"
	},
	{
		"rt": 2869,
		"stimulus": "<span style=\"font-size:30px; font-family: monospace\">furiosa</span>",
		"response": " ",
		"trial": "exp-sent",
		"word": "furiosa",
		"trial_type": "html-keyboard-response",
		"trial_index": 33,
		"time_elapsed": 113888,
		"internal_node_id": "0.0-3.0-1.11"
	},
	{
		"rt": 757,
		"stimulus": "<span style=\"font-size:30px; font-family: monospace\">com</span>",
		"response": " ",
		"trial": "exp-sent",
		"word": "com",
		"trial_type": "html-keyboard-response",
		"trial_index": 34,
		"time_elapsed": 114896,
		"internal_node_id": "0.0-3.0-1.12"
	},
	{
		"rt": 694,
		"stimulus": "<span style=\"font-size:30px; font-family: monospace\">o</span>",
		"response": " ",
		"trial": "exp-sent",
		"word": "o",
		"trial_type": "html-keyboard-response",
		"trial_index": 35,
		"time_elapsed": 115840,
		"internal_node_id": "0.0-3.0-1.13"
	},
	{
		"rt": 1029,
		"stimulus": "<span style=\"font-size:30px; font-family: monospace\">cliente.</span>",
		"response": " ",
		"trial": "exp-sent",
		"word": "cliente.",
		"trial_type": "html-keyboard-response",
		"trial_index": 36,
		"time_elapsed": 117120,
		"internal_node_id": "0.0-3.0-1.14"
	},
	{
		"rt": null,
		"stimulus": "<span style= \"font-size:30px; font-family: monospace\">+</span>",
		"response": null,
		"trial_part": "fixation",
		"trial_type": "html-keyboard-response",
		"trial_index": 37,
		"time_elapsed": 118372,
		"internal_node_id": "0.0-3.0-0.15-0.15"
	},
	{
		"rt": 497,
		"stimulus": "<span style=\"font-size:30px; font-family: monospace\">O</span>",
		"response": " ",
		"trial": "exp-sent",
		"word": "O",
		"trial_type": "html-keyboard-response",
		"trial_index": 38,
		"time_elapsed": 119120,
		"internal_node_id": "0.0-3.0-1.15"
	},
	{
		"rt": 1573,
		"stimulus": "<span style=\"font-size:30px; font-family: monospace\">vizinho</span>",
		"response": " ",
		"trial": "exp-sent",
		"word": "vizinho",
		"trial_type": "html-keyboard-response",
		"trial_index": 39,
		"time_elapsed": 120944,
		"internal_node_id": "0.0-3.0-1.16"
	},
	{
		"rt": 581,
		"stimulus": "<span style=\"font-size:30px; font-family: monospace\">é</span>",
		"response": " ",
		"trial": "exp-sent",
		"word": "é",
		"trial_type": "html-keyboard-response",
		"trial_index": 40,
		"time_elapsed": 121776,
		"internal_node_id": "0.0-3.0-1.17"
	},
	{
		"rt": 726,
		"stimulus": "<span style=\"font-size:30px; font-family: monospace\">um</span>",
		"response": " ",
		"trial": "exp-sent",
		"word": "um",
		"trial_type": "html-keyboard-response",
		"trial_index": 41,
		"time_elapsed": 122752,
		"internal_node_id": "0.0-3.0-1.18"
	},
	{
		"rt": 4352,
		"stimulus": "<span style=\"font-size:30px; font-family: monospace\">arquiteto</span>",
		"response": " ",
		"trial": "exp-sent",
		"word": "arquiteto",
		"trial_type": "html-keyboard-response",
		"trial_index": 42,
		"time_elapsed": 127360,
		"internal_node_id": "0.0-3.0-1.19"
	},
	{
		"rt": 821,
		"stimulus": "<span style=\"font-size:30px; font-family: monospace\">muito</span>",
		"response": " ",
		"trial": "exp-sent",
		"word": "muito",
		"trial_type": "html-keyboard-response",
		"trial_index": 43,
		"time_elapsed": 128432,
		"internal_node_id": "0.0-3.0-1.20"
	},
	{
		"rt": 2581,
		"stimulus": "<span style=\"font-size:30px; font-family: monospace\">excêntrico.</span>",
		"response": " ",
		"trial": "exp-sent",
		"word": "excêntrico.",
		"trial_type": "html-keyboard-response",
		"trial_index": 44,
		"time_elapsed": 131264,
		"internal_node_id": "0.0-3.0-1.21"
	},
	{
		"rt": null,
		"stimulus": "<span style= \"font-size:30px; font-family: monospace\">+</span>",
		"response": null,
		"trial_part": "fixation",
		"trial_type": "html-keyboard-response",
		"trial_index": 45,
		"time_elapsed": 132518,
		"internal_node_id": "0.0-3.0-0.22-0.22"
	},
	{
		"rt": 511,
		"stimulus": "<span style=\"font-size:30px; font-family: monospace\">A</span>",
		"response": " ",
		"trial": "exp-sent",
		"word": "A",
		"trial_type": "html-keyboard-response",
		"trial_index": 46,
		"time_elapsed": 133280,
		"internal_node_id": "0.0-3.0-1.22"
	},
	{
		"rt": 694,
		"stimulus": "<span style=\"font-size:30px; font-family: monospace\">nossa</span>",
		"response": " ",
		"trial": "exp-sent",
		"word": "nossa",
		"trial_type": "html-keyboard-response",
		"trial_index": 47,
		"time_elapsed": 134224,
		"internal_node_id": "0.0-3.0-1.23"
	},
	{
		"rt": 805,
		"stimulus": "<span style=\"font-size:30px; font-family: monospace\">colega</span>",
		"response": " ",
		"trial": "exp-sent",
		"word": "colega",
		"trial_type": "html-keyboard-response",
		"trial_index": 48,
		"time_elapsed": 135280,
		"internal_node_id": "0.0-3.0-1.24"
	},
	{
		"rt": 709,
		"stimulus": "<span style=\"font-size:30px; font-family: monospace\">foi</span>",
		"response": " ",
		"trial": "exp-sent",
		"word": "foi",
		"trial_type": "html-keyboard-response",
		"trial_index": 49,
		"time_elapsed": 136239,
		"internal_node_id": "0.0-3.0-1.25"
	},
	{
		"rt": 683,
		"stimulus": "<span style=\"font-size:30px; font-family: monospace\">má</span>",
		"response": " ",
		"trial": "exp-sent",
		"word": "má",
		"trial_type": "html-keyboard-response",
		"trial_index": 50,
		"time_elapsed": 137184,
		"internal_node_id": "0.0-3.0-1.26"
	},
	{
		"rt": 709,
		"stimulus": "<span style=\"font-size:30px; font-family: monospace\">com</span>",
		"response": " ",
		"trial": "exp-sent",
		"word": "com",
		"trial_type": "html-keyboard-response",
		"trial_index": 51,
		"time_elapsed": 138144,
		"internal_node_id": "0.0-3.0-1.27"
	},
	{
		"rt": 709,
		"stimulus": "<span style=\"font-size:30px; font-family: monospace\">as</span>",
		"response": " ",
		"trial": "exp-sent",
		"word": "as",
		"trial_type": "html-keyboard-response",
		"trial_index": 52,
		"time_elapsed": 139104,
		"internal_node_id": "0.0-3.0-1.28"
	},
	{
		"rt": 1077,
		"stimulus": "<span style=\"font-size:30px; font-family: monospace\">crianças.</span>",
		"response": " ",
		"trial": "exp-sent",
		"word": "crianças.",
		"trial_type": "html-keyboard-response",
		"trial_index": 53,
		"time_elapsed": 140432,
		"internal_node_id": "0.0-3.0-1.29"
	},
	{
		"rt": null,
		"stimulus": "<span style= \"font-size:30px; font-family: monospace\">+</span>",
		"response": null,
		"trial_part": "fixation",
		"trial_type": "html-keyboard-response",
		"trial_index": 54,
		"time_elapsed": 141684,
		"internal_node_id": "0.0-3.0-0.30-0.30"
	},
	{
		"rt": 656,
		"stimulus": "<span style=\"font-size:30px; font-family: monospace\">Virtudes</span>",
		"response": " ",
		"trial": "exp-sent",
		"word": "Virtudes",
		"trial_type": "html-keyboard-response",
		"trial_index": 55,
		"time_elapsed": 142592,
		"internal_node_id": "0.0-3.0-1.30"
	},
	{
		"rt": 693,
		"stimulus": "<span style=\"font-size:30px; font-family: monospace\">não</span>",
		"response": " ",
		"trial": "exp-sent",
		"word": "não",
		"trial_type": "html-keyboard-response",
		"trial_index": 56,
		"time_elapsed": 143536,
		"internal_node_id": "0.0-3.0-1.31"
	},
	{
		"rt": 981,
		"stimulus": "<span style=\"font-size:30px; font-family: monospace\">são</span>",
		"response": " ",
		"trial": "exp-sent",
		"word": "são",
		"trial_type": "html-keyboard-response",
		"trial_index": 57,
		"time_elapsed": 144768,
		"internal_node_id": "0.0-3.0-1.32"
	},
	{
		"rt": 2949,
		"stimulus": "<span style=\"font-size:30px; font-family: monospace\">preguiça,</span>",
		"response": " ",
		"trial": "exp-sent",
		"word": "preguiça,",
		"trial_type": "html-keyboard-response",
		"trial_index": 58,
		"time_elapsed": 147968,
		"internal_node_id": "0.0-3.0-1.33"
	},
	{
		"rt": 1573,
		"stimulus": "<span style=\"font-size:30px; font-family: monospace\">gula</span>",
		"response": " ",
		"trial": "exp-sent",
		"word": "gula",
		"trial_type": "html-keyboard-response",
		"trial_index": 59,
		"time_elapsed": 149792,
		"internal_node_id": "0.0-3.0-1.34"
	},
	{
		"rt": 485,
		"stimulus": "<span style=\"font-size:30px; font-family: monospace\">nem</span>",
		"response": " ",
		"trial": "exp-sent",
		"word": "nem",
		"trial_type": "html-keyboard-response",
		"trial_index": 60,
		"time_elapsed": 150528,
		"internal_node_id": "0.0-3.0-1.35"
	},
	{
		"rt": 949,
		"stimulus": "<span style=\"font-size:30px; font-family: monospace\">ganância.</span>",
		"response": " ",
		"trial": "comp",
		"word": "ganância.",
		"trial_type": "html-keyboard-response",
		"trial_index": 61,
		"time_elapsed": 151728,
		"internal_node_id": "0.0-3.0-1.36"
	},
	{
		"rt": 10182,
		"stimulus": "<span style=\"font-size:30px; font-family: monospace\">Preguiça é uma virtude?</span>",
		"response": "n",
		"question": "Preguiça é uma virtude?",
		"answer": "não",
		"trial": "comp",
		"trial_type": "html-keyboard-response",
		"trial_index": 62,
		"time_elapsed": 162160,
		"internal_node_id": "0.0-3.0-2.36-0.36",
		"accuracy": false
	},
	{
		"rt": null,
		"stimulus": "<span style= \"font-size:30px; font-family: monospace\">+</span>",
		"response": null,
		"trial_part": "fixation",
		"trial_type": "html-keyboard-response",
		"trial_index": 63,
		"time_elapsed": 163662,
		"internal_node_id": "0.0-3.0-0.37-0.37"
	},
	{
		"rt": 3302,
		"stimulus": "<span style=\"font-size:30px; font-family: monospace\">Ursos</span>",
		"response": " ",
		"trial": "exp-sent",
		"word": "Ursos",
		"trial_type": "html-keyboard-response",
		"trial_index": 64,
		"time_elapsed": 167215,
		"internal_node_id": "0.0-3.0-1.37"
	},
	{
		"rt": 853,
		"stimulus": "<span style=\"font-size:30px; font-family: monospace\">têm</span>",
		"response": " ",
		"trial": "exp-sent",
		"word": "têm",
		"trial_type": "html-keyboard-response",
		"trial_index": 65,
		"time_elapsed": 168320,
		"internal_node_id": "0.0-3.0-1.38"
	},
	{
		"rt": 708,
		"stimulus": "<span style=\"font-size:30px; font-family: monospace\">uma</span>",
		"response": " ",
		"trial": "exp-sent",
		"word": "uma",
		"trial_type": "html-keyboard-response",
		"trial_index": 66,
		"time_elapsed": 169280,
		"internal_node_id": "0.0-3.0-1.39"
	},
	{
		"rt": 1476,
		"stimulus": "<span style=\"font-size:30px; font-family: monospace\">patada</span>",
		"response": " ",
		"trial": "exp-sent",
		"word": "patada",
		"trial_type": "html-keyboard-response",
		"trial_index": 67,
		"time_elapsed": 171007,
		"internal_node_id": "0.0-3.0-1.40"
	},
	{
		"rt": 1045,
		"stimulus": "<span style=\"font-size:30px; font-family: monospace\">brutal</span>",
		"response": " ",
		"trial": "exp-sent",
		"word": "brutal",
		"trial_type": "html-keyboard-response",
		"trial_index": 68,
		"time_elapsed": 172304,
		"internal_node_id": "0.0-3.0-1.41"
	},
	{
		"rt": 1093,
		"stimulus": "<span style=\"font-size:30px; font-family: monospace\">e</span>",
		"response": " ",
		"trial": "exp-sent",
		"word": "e",
		"trial_type": "html-keyboard-response",
		"trial_index": 69,
		"time_elapsed": 173647,
		"internal_node_id": "0.0-3.0-1.42"
	},
	{
		"rt": 4676,
		"stimulus": "<span style=\"font-size:30px; font-family: monospace\">poderosa.</span>",
		"response": " ",
		"trial": "exp-sent",
		"word": "poderosa.",
		"trial_type": "html-keyboard-response",
		"trial_index": 70,
		"time_elapsed": 178575,
		"internal_node_id": "0.0-3.0-1.43"
	},
	{
		"rt": null,
		"stimulus": "<span style= \"font-size:30px; font-family: monospace\">+</span>",
		"response": null,
		"trial_part": "fixation",
		"trial_type": "html-keyboard-response",
		"trial_index": 71,
		"time_elapsed": 179844,
		"internal_node_id": "0.0-3.0-0.44-0.44"
	},
	{
		"rt": 720,
		"stimulus": "<span style=\"font-size:30px; font-family: monospace\">Eu</span>",
		"response": " ",
		"trial": "exp-sent",
		"word": "Eu",
		"trial_type": "html-keyboard-response",
		"trial_index": 72,
		"time_elapsed": 180815,
		"internal_node_id": "0.0-3.0-1.44"
	},
	{
		"rt": 965,
		"stimulus": "<span style=\"font-size:30px; font-family: monospace\">fiz</span>",
		"response": " ",
		"trial": "exp-sent",
		"word": "fiz",
		"trial_type": "html-keyboard-response",
		"trial_index": 73,
		"time_elapsed": 182031,
		"internal_node_id": "0.0-3.0-1.45"
	},
	{
		"rt": 1557,
		"stimulus": "<span style=\"font-size:30px; font-family: monospace\">aulas</span>",
		"response": " ",
		"trial": "exp-sent",
		"word": "aulas",
		"trial_type": "html-keyboard-response",
		"trial_index": 74,
		"time_elapsed": 183840,
		"internal_node_id": "0.0-3.0-1.46"
	},
	{
		"rt": 1109,
		"stimulus": "<span style=\"font-size:30px; font-family: monospace\">de</span>",
		"response": " ",
		"trial": "exp-sent",
		"word": "de",
		"trial_type": "html-keyboard-response",
		"trial_index": 75,
		"time_elapsed": 185199,
		"internal_node_id": "0.0-3.0-1.47"
	},
	{
		"rt": 1413,
		"stimulus": "<span style=\"font-size:30px; font-family: monospace\">espanhol</span>",
		"response": " ",
		"trial": "exp-sent",
		"word": "espanhol",
		"trial_type": "html-keyboard-response",
		"trial_index": 76,
		"time_elapsed": 186863,
		"internal_node_id": "0.0-3.0-1.48"
	},
	{
		"rt": 965,
		"stimulus": "<span style=\"font-size:30px; font-family: monospace\">nesta</span>",
		"response": " ",
		"trial": "exp-sent",
		"word": "nesta",
		"trial_type": "html-keyboard-response",
		"trial_index": 77,
		"time_elapsed": 188080,
		"internal_node_id": "0.0-3.0-1.49"
	},
	{
		"rt": 1333,
		"stimulus": "<span style=\"font-size:30px; font-family: monospace\">cidade.</span>",
		"response": " ",
		"trial": "exp-sent",
		"word": "cidade.",
		"trial_type": "html-keyboard-response",
		"trial_index": 78,
		"time_elapsed": 189664,
		"internal_node_id": "0.0-3.0-1.50"
	},
	{
		"rt": null,
		"stimulus": "<span style= \"font-size:30px; font-family: monospace\">+</span>",
		"response": null,
		"trial_part": "fixation",
		"trial_type": "html-keyboard-response",
		"trial_index": 79,
		"time_elapsed": 190927,
		"internal_node_id": "0.0-3.0-0.51-0.51"
	},
	{
		"rt": 933,
		"stimulus": "<span style=\"font-size:30px; font-family: monospace\">Ele</span>",
		"response": " ",
		"trial": "exp-sent",
		"word": "Ele",
		"trial_type": "html-keyboard-response",
		"trial_index": 80,
		"time_elapsed": 192111,
		"internal_node_id": "0.0-3.0-1.51"
	},
	{
		"rt": 9371,
		"stimulus": "<span style=\"font-size:30px; font-family: monospace\">comprou</span>",
		"response": " ",
		"trial": "exp-sent",
		"word": "comprou",
		"trial_type": "html-keyboard-response",
		"trial_index": 81,
		"time_elapsed": 201744,
		"internal_node_id": "0.0-3.0-1.52"
	},
	{
		"rt": 773,
		"stimulus": "<span style=\"font-size:30px; font-family: monospace\">mais</span>",
		"response": " ",
		"trial": "exp-sent",
		"word": "mais",
		"trial_type": "html-keyboard-response",
		"trial_index": 82,
		"time_elapsed": 202767,
		"internal_node_id": "0.0-3.0-1.53"
	},
	{
		"rt": 661,
		"stimulus": "<span style=\"font-size:30px; font-family: monospace\">uma</span>",
		"response": " ",
		"trial": "exp-sent",
		"word": "uma",
		"trial_type": "html-keyboard-response",
		"trial_index": 83,
		"time_elapsed": 203679,
		"internal_node_id": "0.0-3.0-1.54"
	},
	{
		"rt": 1813,
		"stimulus": "<span style=\"font-size:30px; font-family: monospace\">esponja</span>",
		"response": " ",
		"trial": "exp-sent",
		"word": "esponja",
		"trial_type": "html-keyboard-response",
		"trial_index": 84,
		"time_elapsed": 205743,
		"internal_node_id": "0.0-3.0-1.55"
	},
	{
		"rt": 997,
		"stimulus": "<span style=\"font-size:30px; font-family: monospace\">para</span>",
		"response": " ",
		"trial": "exp-sent",
		"word": "para",
		"trial_type": "html-keyboard-response",
		"trial_index": 85,
		"time_elapsed": 206991,
		"internal_node_id": "0.0-3.0-1.56"
	},
	{
		"rt": 613,
		"stimulus": "<span style=\"font-size:30px; font-family: monospace\">a</span>",
		"response": " ",
		"trial": "exp-sent",
		"word": "a",
		"trial_type": "html-keyboard-response",
		"trial_index": 86,
		"time_elapsed": 207855,
		"internal_node_id": "0.0-3.0-1.57"
	},
	{
		"rt": 2197,
		"stimulus": "<span style=\"font-size:30px; font-family: monospace\">cozinha.</span>",
		"response": " ",
		"trial": "exp-sent",
		"word": "cozinha.",
		"trial_type": "html-keyboard-response",
		"trial_index": 87,
		"time_elapsed": 210303,
		"internal_node_id": "0.0-3.0-1.58"
	},
	{
		"rt": null,
		"stimulus": "<span style= \"font-size:30px; font-family: monospace\">+</span>",
		"response": null,
		"trial_part": "fixation",
		"trial_type": "html-keyboard-response",
		"trial_index": 88,
		"time_elapsed": 211556,
		"internal_node_id": "0.0-3.0-0.59-0.59"
	},
	{
		"rt": 32,
		"stimulus": "<span style=\"font-size:30px; font-family: monospace\">Ele</span>",
		"response": " ",
		"trial": "exp-sent",
		"word": "Ele",
		"trial_type": "html-keyboard-response",
		"trial_index": 89,
		"time_elapsed": 211840,
		"internal_node_id": "0.0-3.0-1.59"
	},
	{
		"rt": 1413,
		"stimulus": "<span style=\"font-size:30px; font-family: monospace\">teve</span>",
		"response": " ",
		"trial": "exp-sent",
		"word": "teve",
		"trial_type": "html-keyboard-response",
		"trial_index": 90,
		"time_elapsed": 213503,
		"internal_node_id": "0.0-3.0-1.60"
	},
	{
		"rt": 789,
		"stimulus": "<span style=\"font-size:30px; font-family: monospace\">um</span>",
		"response": " ",
		"trial": "exp-sent",
		"word": "um",
		"trial_type": "html-keyboard-response",
		"trial_index": 91,
		"time_elapsed": 214543,
		"internal_node_id": "0.0-3.0-1.61"
	},
	{
		"rt": 900,
		"stimulus": "<span style=\"font-size:30px; font-family: monospace\">sono</span>",
		"response": " ",
		"trial": "exp-sent",
		"word": "sono",
		"trial_type": "html-keyboard-response",
		"trial_index": 92,
		"time_elapsed": 215696,
		"internal_node_id": "0.0-3.0-1.62"
	},
	{
		"rt": 1429,
		"stimulus": "<span style=\"font-size:30px; font-family: monospace\">bizarro</span>",
		"response": " ",
		"trial": "exp-sent",
		"word": "bizarro",
		"trial_type": "html-keyboard-response",
		"trial_index": 93,
		"time_elapsed": 217375,
		"internal_node_id": "0.0-3.0-1.63"
	},
	{
		"rt": 1317,
		"stimulus": "<span style=\"font-size:30px; font-family: monospace\">sem</span>",
		"response": " ",
		"trial": "exp-sent",
		"word": "sem",
		"trial_type": "html-keyboard-response",
		"trial_index": 94,
		"time_elapsed": 218943,
		"internal_node_id": "0.0-3.0-1.64"
	},
	{
		"rt": 2229,
		"stimulus": "<span style=\"font-size:30px; font-family: monospace\">nenhum</span>",
		"response": " ",
		"trial": "exp-sent",
		"word": "nenhum",
		"trial_type": "html-keyboard-response",
		"trial_index": 95,
		"time_elapsed": 221423,
		"internal_node_id": "0.0-3.0-1.65"
	},
	{
		"rt": 1141,
		"stimulus": "<span style=\"font-size:30px; font-family: monospace\">motivo.</span>",
		"response": " ",
		"trial": "exp-sent",
		"word": "motivo.",
		"trial_type": "html-keyboard-response",
		"trial_index": 96,
		"time_elapsed": 222816,
		"internal_node_id": "0.0-3.0-1.66"
	},
	{
		"rt": null,
		"stimulus": "<span style= \"font-size:30px; font-family: monospace\">+</span>",
		"response": null,
		"trial_part": "fixation",
		"trial_type": "html-keyboard-response",
		"trial_index": 97,
		"time_elapsed": 224067,
		"internal_node_id": "0.0-3.0-0.67-0.67"
	},
	{
		"rt": 882,
		"stimulus": "<span style=\"font-size:30px; font-family: monospace\">A</span>",
		"response": " ",
		"trial": "exp-sent",
		"word": "A",
		"trial_type": "html-keyboard-response",
		"trial_index": 98,
		"time_elapsed": 225199,
		"internal_node_id": "0.0-3.0-1.67"
	},
	{
		"rt": 2021,
		"stimulus": "<span style=\"font-size:30px; font-family: monospace\">moça</span>",
		"response": " ",
		"trial": "exp-sent",
		"word": "moça",
		"trial_type": "html-keyboard-response",
		"trial_index": 99,
		"time_elapsed": 227471,
		"internal_node_id": "0.0-3.0-1.68"
	},
	{
		"rt": 916,
		"stimulus": "<span style=\"font-size:30px; font-family: monospace\">comprou</span>",
		"response": " ",
		"trial": "exp-sent",
		"word": "comprou",
		"trial_type": "html-keyboard-response",
		"trial_index": 100,
		"time_elapsed": 228639,
		"internal_node_id": "0.0-3.0-1.69"
	},
	{
		"rt": 581,
		"stimulus": "<span style=\"font-size:30px; font-family: monospace\">um</span>",
		"response": " ",
		"trial": "exp-sent",
		"word": "um",
		"trial_type": "html-keyboard-response",
		"trial_index": 101,
		"time_elapsed": 229471,
		"internal_node_id": "0.0-3.0-1.70"
	},
	{
		"rt": 1349,
		"stimulus": "<span style=\"font-size:30px; font-family: monospace\">diamante</span>",
		"response": " ",
		"trial": "exp-sent",
		"word": "diamante",
		"trial_type": "html-keyboard-response",
		"trial_index": 102,
		"time_elapsed": 231071,
		"internal_node_id": "0.0-3.0-1.71"
	},
	{
		"rt": 773,
		"stimulus": "<span style=\"font-size:30px; font-family: monospace\">para</span>",
		"response": " ",
		"trial": "exp-sent",
		"word": "para",
		"trial_type": "html-keyboard-response",
		"trial_index": 103,
		"time_elapsed": 232095,
		"internal_node_id": "0.0-3.0-1.72"
	},
	{
		"rt": 709,
		"stimulus": "<span style=\"font-size:30px; font-family: monospace\">sua</span>",
		"response": " ",
		"trial": "exp-sent",
		"word": "sua",
		"trial_type": "html-keyboard-response",
		"trial_index": 104,
		"time_elapsed": 233056,
		"internal_node_id": "0.0-3.0-1.73"
	},
	{
		"rt": 836,
		"stimulus": "<span style=\"font-size:30px; font-family: monospace\">prima.</span>",
		"response": " ",
		"trial": "comp",
		"word": "prima.",
		"trial_type": "html-keyboard-response",
		"trial_index": 105,
		"time_elapsed": 234143,
		"internal_node_id": "0.0-3.0-1.74"
	},
	{
		"rt": 9989,
		"stimulus": "<span style=\"font-size:30px; font-family: monospace\">A moça comprou um diamante?</span>",
		"response": "s",
		"question": "A moça comprou um diamante?",
		"answer": "sim",
		"trial": "comp",
		"trial_type": "html-keyboard-response",
		"trial_index": 106,
		"time_elapsed": 244383,
		"internal_node_id": "0.0-3.0-2.74-0.74",
		"accuracy": false
	},
	{
		"rt": null,
		"stimulus": "<span style= \"font-size:30px; font-family: monospace\">+</span>",
		"response": null,
		"trial_part": "fixation",
		"trial_type": "html-keyboard-response",
		"trial_index": 107,
		"time_elapsed": 245885,
		"internal_node_id": "0.0-3.0-0.75-0.75"
	},
	{
		"rt": 1992,
		"stimulus": "<span style=\"font-size:30px; font-family: monospace\">Minha</span>",
		"response": " ",
		"trial": "exp-sent",
		"word": "Minha",
		"trial_type": "html-keyboard-response",
		"trial_index": 108,
		"time_elapsed": 248127,
		"internal_node_id": "0.0-3.0-1.75"
	},
	{
		"rt": 822,
		"stimulus": "<span style=\"font-size:30px; font-family: monospace\">prima</span>",
		"response": " ",
		"trial": "exp-sent",
		"word": "prima",
		"trial_type": "html-keyboard-response",
		"trial_index": 109,
		"time_elapsed": 249199,
		"internal_node_id": "0.0-3.0-1.76"
	},
	{
		"rt": 1012,
		"stimulus": "<span style=\"font-size:30px; font-family: monospace\">trocou</span>",
		"response": " ",
		"trial": "exp-sent",
		"word": "trocou",
		"trial_type": "html-keyboard-response",
		"trial_index": 110,
		"time_elapsed": 250463,
		"internal_node_id": "0.0-3.0-1.77"
	},
	{
		"rt": 565,
		"stimulus": "<span style=\"font-size:30px; font-family: monospace\">a</span>",
		"response": " ",
		"trial": "exp-sent",
		"word": "a",
		"trial_type": "html-keyboard-response",
		"trial_index": 111,
		"time_elapsed": 251279,
		"internal_node_id": "0.0-3.0-1.78"
	},
	{
		"rt": 949,
		"stimulus": "<span style=\"font-size:30px; font-family: monospace\">tela</span>",
		"response": " ",
		"trial": "exp-sent",
		"word": "tela",
		"trial_type": "html-keyboard-response",
		"trial_index": 112,
		"time_elapsed": 252479,
		"internal_node_id": "0.0-3.0-1.79"
	},
	{
		"rt": 581,
		"stimulus": "<span style=\"font-size:30px; font-family: monospace\">do</span>",
		"response": " ",
		"trial": "exp-sent",
		"word": "do",
		"trial_type": "html-keyboard-response",
		"trial_index": 113,
		"time_elapsed": 253311,
		"internal_node_id": "0.0-3.0-1.80"
	},
	{
		"rt": 1509,
		"stimulus": "<span style=\"font-size:30px; font-family: monospace\">celular</span>",
		"response": " ",
		"trial": "exp-sent",
		"word": "celular",
		"trial_type": "html-keyboard-response",
		"trial_index": 114,
		"time_elapsed": 255072,
		"internal_node_id": "0.0-3.0-1.81"
	},
	{
		"rt": 884,
		"stimulus": "<span style=\"font-size:30px; font-family: monospace\">duas</span>",
		"response": " ",
		"trial": "exp-sent",
		"word": "duas",
		"trial_type": "html-keyboard-response",
		"trial_index": 115,
		"time_elapsed": 256207,
		"internal_node_id": "0.0-3.0-1.82"
	},
	{
		"rt": 772,
		"stimulus": "<span style=\"font-size:30px; font-family: monospace\">vezes.</span>",
		"response": " ",
		"trial": "exp-sent",
		"word": "vezes.",
		"trial_type": "html-keyboard-response",
		"trial_index": 116,
		"time_elapsed": 257231,
		"internal_node_id": "0.0-3.0-1.83"
	},
	{
		"rt": null,
		"stimulus": "<span style= \"font-size:30px; font-family: monospace\">+</span>",
		"response": null,
		"trial_part": "fixation",
		"trial_type": "html-keyboard-response",
		"trial_index": 117,
		"time_elapsed": 258484,
		"internal_node_id": "0.0-3.0-0.84-0.84"
	},
	{
		"rt": 1089,
		"stimulus": "<span style=\"font-size:30px; font-family: monospace\">Agora</span>",
		"response": " ",
		"trial": "exp-sent",
		"word": "Agora",
		"trial_type": "html-keyboard-response",
		"trial_index": 118,
		"time_elapsed": 259823,
		"internal_node_id": "0.0-3.0-1.84"
	},
	{
		"rt": 709,
		"stimulus": "<span style=\"font-size:30px; font-family: monospace\">a</span>",
		"response": " ",
		"trial": "exp-sent",
		"word": "a",
		"trial_type": "html-keyboard-response",
		"trial_index": 119,
		"time_elapsed": 260783,
		"internal_node_id": "0.0-3.0-1.85"
	},
	{
		"rt": 1012,
		"stimulus": "<span style=\"font-size:30px; font-family: monospace\">minha</span>",
		"response": " ",
		"trial": "exp-sent",
		"word": "minha",
		"trial_type": "html-keyboard-response",
		"trial_index": 120,
		"time_elapsed": 262047,
		"internal_node_id": "0.0-3.0-1.86"
	},
	{
		"rt": 1189,
		"stimulus": "<span style=\"font-size:30px; font-family: monospace\">única</span>",
		"response": " ",
		"trial": "exp-sent",
		"word": "única",
		"trial_type": "html-keyboard-response",
		"trial_index": 121,
		"time_elapsed": 263487,
		"internal_node_id": "0.0-3.0-1.87"
	},
	{
		"rt": 4052,
		"stimulus": "<span style=\"font-size:30px; font-family: monospace\">preocupação</span>",
		"response": " ",
		"trial": "exp-sent",
		"word": "preocupação",
		"trial_type": "html-keyboard-response",
		"trial_index": 122,
		"time_elapsed": 267791,
		"internal_node_id": "0.0-3.0-1.88"
	},
	{
		"rt": 677,
		"stimulus": "<span style=\"font-size:30px; font-family: monospace\">é</span>",
		"response": " ",
		"trial": "exp-sent",
		"word": "é",
		"trial_type": "html-keyboard-response",
		"trial_index": 123,
		"time_elapsed": 268719,
		"internal_node_id": "0.0-3.0-1.89"
	},
	{
		"rt": 580,
		"stimulus": "<span style=\"font-size:30px; font-family: monospace\">um</span>",
		"response": " ",
		"trial": "exp-sent",
		"word": "um",
		"trial_type": "html-keyboard-response",
		"trial_index": 124,
		"time_elapsed": 269551,
		"internal_node_id": "0.0-3.0-1.90"
	},
	{
		"rt": 3477,
		"stimulus": "<span style=\"font-size:30px; font-family: monospace\">descanso</span>",
		"response": " ",
		"trial": "exp-sent",
		"word": "descanso",
		"trial_type": "html-keyboard-response",
		"trial_index": 125,
		"time_elapsed": 273279,
		"internal_node_id": "0.0-3.0-1.91"
	},
	{
		"rt": 5574,
		"stimulus": "<span style=\"font-size:30px; font-family: monospace\">tranquilo.</span>",
		"response": " ",
		"trial": "exp-sent",
		"word": "tranquilo.",
		"trial_type": "html-keyboard-response",
		"trial_index": 126,
		"time_elapsed": 279103,
		"internal_node_id": "0.0-3.0-1.92"
	},
	{
		"rt": null,
		"stimulus": "<span style= \"font-size:30px; font-family: monospace\">+</span>",
		"response": null,
		"trial_part": "fixation",
		"trial_type": "html-keyboard-response",
		"trial_index": 127,
		"time_elapsed": 280355,
		"internal_node_id": "0.0-3.0-0.93-0.93"
	},
	{
		"rt": 400,
		"stimulus": "<span style=\"font-size:30px; font-family: monospace\">A</span>",
		"response": " ",
		"trial": "exp-sent",
		"word": "A",
		"trial_type": "html-keyboard-response",
		"trial_index": 128,
		"time_elapsed": 281007,
		"internal_node_id": "0.0-3.0-1.93"
	},
	{
		"rt": 854,
		"stimulus": "<span style=\"font-size:30px; font-family: monospace\">criança</span>",
		"response": " ",
		"trial": "exp-sent",
		"word": "criança",
		"trial_type": "html-keyboard-response",
		"trial_index": 129,
		"time_elapsed": 282111,
		"internal_node_id": "0.0-3.0-1.94"
	},
	{
		"rt": 1125,
		"stimulus": "<span style=\"font-size:30px; font-family: monospace\">ganhou</span>",
		"response": " ",
		"trial": "exp-sent",
		"word": "ganhou",
		"trial_type": "html-keyboard-response",
		"trial_index": 130,
		"time_elapsed": 283487,
		"internal_node_id": "0.0-3.0-1.95"
	},
	{
		"rt": 692,
		"stimulus": "<span style=\"font-size:30px; font-family: monospace\">um</span>",
		"response": " ",
		"trial": "exp-sent",
		"word": "um",
		"trial_type": "html-keyboard-response",
		"trial_index": 131,
		"time_elapsed": 284431,
		"internal_node_id": "0.0-3.0-1.96"
	},
	{
		"rt": 1029,
		"stimulus": "<span style=\"font-size:30px; font-family: monospace\">presente</span>",
		"response": " ",
		"trial": "exp-sent",
		"word": "presente",
		"trial_type": "html-keyboard-response",
		"trial_index": 132,
		"time_elapsed": 285711,
		"internal_node_id": "0.0-3.0-1.97"
	},
	{
		"rt": 10101,
		"stimulus": "<span style=\"font-size:30px; font-family: monospace\">maravilhoso.</span>",
		"response": " ",
		"trial": "exp-sent",
		"word": "maravilhoso.",
		"trial_type": "html-keyboard-response",
		"trial_index": 133,
		"time_elapsed": 296063,
		"internal_node_id": "0.0-3.0-1.98"
	},
	{
		"rt": null,
		"stimulus": "<span style= \"font-size:30px; font-family: monospace\">+</span>",
		"response": null,
		"trial_part": "fixation",
		"trial_type": "html-keyboard-response",
		"trial_index": 134,
		"time_elapsed": 297316,
		"internal_node_id": "0.0-3.0-0.99-0.99"
	},
	{
		"rt": 832,
		"stimulus": "<span style=\"font-size:30px; font-family: monospace\">Os</span>",
		"response": " ",
		"trial": "exp-sent",
		"word": "Os",
		"trial_type": "html-keyboard-response",
		"trial_index": 135,
		"time_elapsed": 298399,
		"internal_node_id": "0.0-3.0-1.99"
	},
	{
		"rt": 2580,
		"stimulus": "<span style=\"font-size:30px; font-family: monospace\">bichos</span>",
		"response": " ",
		"trial": "exp-sent",
		"word": "bichos",
		"trial_type": "html-keyboard-response",
		"trial_index": 136,
		"time_elapsed": 301231,
		"internal_node_id": "0.0-3.0-1.100"
	},
	{
		"rt": 773,
		"stimulus": "<span style=\"font-size:30px; font-family: monospace\">têm</span>",
		"response": " ",
		"trial": "exp-sent",
		"word": "têm",
		"trial_type": "html-keyboard-response",
		"trial_index": 137,
		"time_elapsed": 302255,
		"internal_node_id": "0.0-3.0-1.101"
	},
	{
		"rt": 1268,
		"stimulus": "<span style=\"font-size:30px; font-family: monospace\">um</span>",
		"response": " ",
		"trial": "exp-sent",
		"word": "um",
		"trial_type": "html-keyboard-response",
		"trial_index": 138,
		"time_elapsed": 303775,
		"internal_node_id": "0.0-3.0-1.102"
	},
	{
		"rt": 1733,
		"stimulus": "<span style=\"font-size:30px; font-family: monospace\">instinto</span>",
		"response": " ",
		"trial": "exp-sent",
		"word": "instinto",
		"trial_type": "html-keyboard-response",
		"trial_index": 139,
		"time_elapsed": 305759,
		"internal_node_id": "0.0-3.0-1.103"
	},
	{
		"rt": 757,
		"stimulus": "<span style=\"font-size:30px; font-family: monospace\">de</span>",
		"response": " ",
		"trial": "exp-sent",
		"word": "de",
		"trial_type": "html-keyboard-response",
		"trial_index": 140,
		"time_elapsed": 306767,
		"internal_node_id": "0.0-3.0-1.104"
	},
	{
		"rt": 1349,
		"stimulus": "<span style=\"font-size:30px; font-family: monospace\">sobrevivência</span>",
		"response": " ",
		"trial": "exp-sent",
		"word": "sobrevivência",
		"trial_type": "html-keyboard-response",
		"trial_index": 141,
		"time_elapsed": 308367,
		"internal_node_id": "0.0-3.0-1.105"
	},
	{
		"rt": 1029,
		"stimulus": "<span style=\"font-size:30px; font-family: monospace\">forte.</span>",
		"response": " ",
		"trial": "exp-sent",
		"word": "forte.",
		"trial_type": "html-keyboard-response",
		"trial_index": 142,
		"time_elapsed": 309647,
		"internal_node_id": "0.0-3.0-1.106"
	},
	{
		"rt": null,
		"stimulus": "<span style= \"font-size:30px; font-family: monospace\">+</span>",
		"response": null,
		"trial_part": "fixation",
		"trial_type": "html-keyboard-response",
		"trial_index": 143,
		"time_elapsed": 310907,
		"internal_node_id": "0.0-3.0-0.107-0.107"
	},
	{
		"rt": 1817,
		"stimulus": "<span style=\"font-size:30px; font-family: monospace\">Aquele</span>",
		"response": " ",
		"trial": "exp-sent",
		"word": "Aquele",
		"trial_type": "html-keyboard-response",
		"trial_index": 144,
		"time_elapsed": 312975,
		"internal_node_id": "0.0-3.0-1.107"
	},
	{
		"rt": 2773,
		"stimulus": "<span style=\"font-size:30px; font-family: monospace\">menino</span>",
		"response": " ",
		"trial": "exp-sent",
		"word": "menino",
		"trial_type": "html-keyboard-response",
		"trial_index": 145,
		"time_elapsed": 315999,
		"internal_node_id": "0.0-3.0-1.108"
	},
	{
		"rt": 1093,
		"stimulus": "<span style=\"font-size:30px; font-family: monospace\">alto</span>",
		"response": " ",
		"trial": "exp-sent",
		"word": "alto",
		"trial_type": "html-keyboard-response",
		"trial_index": 146,
		"time_elapsed": 317343,
		"internal_node_id": "0.0-3.0-1.109"
	},
	{
		"rt": 628,
		"stimulus": "<span style=\"font-size:30px; font-family: monospace\">é</span>",
		"response": " ",
		"trial": "exp-sent",
		"word": "é",
		"trial_type": "html-keyboard-response",
		"trial_index": 147,
		"time_elapsed": 318223,
		"internal_node_id": "0.0-3.0-1.110"
	},
	{
		"rt": 2149,
		"stimulus": "<span style=\"font-size:30px; font-family: monospace\">exibido</span>",
		"response": " ",
		"trial": "exp-sent",
		"word": "exibido",
		"trial_type": "html-keyboard-response",
		"trial_index": 148,
		"time_elapsed": 320623,
		"internal_node_id": "0.0-3.0-1.111"
	},
	{
		"rt": 628,
		"stimulus": "<span style=\"font-size:30px; font-family: monospace\">e</span>",
		"response": " ",
		"trial": "exp-sent",
		"word": "e",
		"trial_type": "html-keyboard-response",
		"trial_index": 149,
		"time_elapsed": 321503,
		"internal_node_id": "0.0-3.0-1.112"
	},
	{
		"rt": 2469,
		"stimulus": "<span style=\"font-size:30px; font-family: monospace\">sovina.</span>",
		"response": " ",
		"trial": "comp",
		"word": "sovina.",
		"trial_type": "html-keyboard-response",
		"trial_index": 150,
		"time_elapsed": 324223,
		"internal_node_id": "0.0-3.0-1.113"
	},
	{
		"rt": 8096,
		"stimulus": "<span style=\"font-size:30px; font-family: monospace\">Aquele menino é humilde?</span>",
		"response": "n",
		"question": "Aquele menino é humilde?",
		"answer": "não",
		"trial": "comp",
		"trial_type": "html-keyboard-response",
		"trial_index": 151,
		"time_elapsed": 332575,
		"internal_node_id": "0.0-3.0-2.113-0.113",
		"accuracy": false
	},
	{
		"rt": null,
		"stimulus": "<span style= \"font-size:30px; font-family: monospace\">+</span>",
		"response": null,
		"trial_part": "fixation",
		"trial_type": "html-keyboard-response",
		"trial_index": 152,
		"time_elapsed": 334077,
		"internal_node_id": "0.0-3.0-0.114-0.114"
	},
	{
		"rt": 2007,
		"stimulus": "<span style=\"font-size:30px; font-family: monospace\">O</span>",
		"response": " ",
		"trial": "exp-sent",
		"word": "O",
		"trial_type": "html-keyboard-response",
		"trial_index": 153,
		"time_elapsed": 336335,
		"internal_node_id": "0.0-3.0-1.114"
	},
	{
		"rt": 13141,
		"stimulus": "<span style=\"font-size:30px; font-family: monospace\">texto</span>",
		"response": " ",
		"trial": "exp-sent",
		"word": "texto",
		"trial_type": "html-keyboard-response",
		"trial_index": 154,
		"time_elapsed": 349727,
		"internal_node_id": "0.0-3.0-1.115"
	},
	{
		"rt": 2149,
		"stimulus": "<span style=\"font-size:30px; font-family: monospace\">trazia</span>",
		"response": " ",
		"trial": "exp-sent",
		"word": "trazia",
		"trial_type": "html-keyboard-response",
		"trial_index": 155,
		"time_elapsed": 352127,
		"internal_node_id": "0.0-3.0-1.116"
	},
	{
		"rt": 1606,
		"stimulus": "<span style=\"font-size:30px; font-family: monospace\">um</span>",
		"response": " ",
		"trial": "exp-sent",
		"word": "um",
		"trial_type": "html-keyboard-response",
		"trial_index": 156,
		"time_elapsed": 353983,
		"internal_node_id": "0.0-3.0-1.117"
	},
	{
		"rt": 7509,
		"stimulus": "<span style=\"font-size:30px; font-family: monospace\">argumento</span>",
		"response": " ",
		"trial": "exp-sent",
		"word": "argumento",
		"trial_type": "html-keyboard-response",
		"trial_index": 157,
		"time_elapsed": 361743,
		"internal_node_id": "0.0-3.0-1.118"
	},
	{
		"rt": 1536,
		"stimulus": "<span style=\"font-size:30px; font-family: monospace\">central</span>",
		"response": " ",
		"trial": "exp-sent",
		"word": "central",
		"trial_type": "html-keyboard-response",
		"trial_index": 158,
		"time_elapsed": 363535,
		"internal_node_id": "0.0-3.0-1.119"
	},
	{
		"rt": 693,
		"stimulus": "<span style=\"font-size:30px; font-family: monospace\">para</span>",
		"response": " ",
		"trial": "exp-sent",
		"word": "para",
		"trial_type": "html-keyboard-response",
		"trial_index": 159,
		"time_elapsed": 364479,
		"internal_node_id": "0.0-3.0-1.120"
	},
	{
		"rt": 658,
		"stimulus": "<span style=\"font-size:30px; font-family: monospace\">a</span>",
		"response": " ",
		"trial": "exp-sent",
		"word": "a",
		"trial_type": "html-keyboard-response",
		"trial_index": 160,
		"time_elapsed": 365391,
		"internal_node_id": "0.0-3.0-1.121"
	},
	{
		"rt": 1013,
		"stimulus": "<span style=\"font-size:30px; font-family: monospace\">conversa.</span>",
		"response": " ",
		"trial": "exp-sent",
		"word": "conversa.",
		"trial_type": "html-keyboard-response",
		"trial_index": 161,
		"time_elapsed": 366655,
		"internal_node_id": "0.0-3.0-1.122"
	},
	{
		"rt": null,
		"stimulus": "<span style= \"font-size:30px; font-family: monospace\">+</span>",
		"response": null,
		"trial_part": "fixation",
		"trial_type": "html-keyboard-response",
		"trial_index": 162,
		"time_elapsed": 367907,
		"internal_node_id": "0.0-3.0-0.123-0.123"
	},
	{
		"rt": 736,
		"stimulus": "<span style=\"font-size:30px; font-family: monospace\">Ontem</span>",
		"response": " ",
		"trial": "exp-sent",
		"word": "Ontem",
		"trial_type": "html-keyboard-response",
		"trial_index": 163,
		"time_elapsed": 368895,
		"internal_node_id": "0.0-3.0-1.123"
	},
	{
		"rt": 485,
		"stimulus": "<span style=\"font-size:30px; font-family: monospace\">a</span>",
		"response": " ",
		"trial": "exp-sent",
		"word": "a",
		"trial_type": "html-keyboard-response",
		"trial_index": 164,
		"time_elapsed": 369631,
		"internal_node_id": "0.0-3.0-1.124"
	},
	{
		"rt": 1253,
		"stimulus": "<span style=\"font-size:30px; font-family: monospace\">temperatura</span>",
		"response": " ",
		"trial": "exp-sent",
		"word": "temperatura",
		"trial_type": "html-keyboard-response",
		"trial_index": 165,
		"time_elapsed": 371135,
		"internal_node_id": "0.0-3.0-1.125"
	},
	{
		"rt": 885,
		"stimulus": "<span style=\"font-size:30px; font-family: monospace\">estava</span>",
		"response": " ",
		"trial": "exp-sent",
		"word": "estava",
		"trial_type": "html-keyboard-response",
		"trial_index": 166,
		"time_elapsed": 372271,
		"internal_node_id": "0.0-3.0-1.126"
	},
	{
		"rt": 1461,
		"stimulus": "<span style=\"font-size:30px; font-family: monospace\">amena</span>",
		"response": " ",
		"trial": "exp-sent",
		"word": "amena",
		"trial_type": "html-keyboard-response",
		"trial_index": 167,
		"time_elapsed": 373983,
		"internal_node_id": "0.0-3.0-1.127"
	},
	{
		"rt": 1429,
		"stimulus": "<span style=\"font-size:30px; font-family: monospace\">durante</span>",
		"response": " ",
		"trial": "exp-sent",
		"word": "durante",
		"trial_type": "html-keyboard-response",
		"trial_index": 168,
		"time_elapsed": 375663,
		"internal_node_id": "0.0-3.0-1.128"
	},
	{
		"rt": 1173,
		"stimulus": "<span style=\"font-size:30px; font-family: monospace\">o</span>",
		"response": " ",
		"trial": "exp-sent",
		"word": "o",
		"trial_type": "html-keyboard-response",
		"trial_index": 169,
		"time_elapsed": 377087,
		"internal_node_id": "0.0-3.0-1.129"
	},
	{
		"rt": 1061,
		"stimulus": "<span style=\"font-size:30px; font-family: monospace\">dia.</span>",
		"response": " ",
		"trial": "exp-sent",
		"word": "dia.",
		"trial_type": "html-keyboard-response",
		"trial_index": 170,
		"time_elapsed": 378399,
		"internal_node_id": "0.0-3.0-1.130"
	},
	{
		"rt": null,
		"stimulus": "<span style= \"font-size:30px; font-family: monospace\">+</span>",
		"response": null,
		"trial_part": "fixation",
		"trial_type": "html-keyboard-response",
		"trial_index": 171,
		"time_elapsed": 379656,
		"internal_node_id": "0.0-3.0-0.131-0.131"
	},
	{
		"rt": 2204,
		"stimulus": "<span style=\"font-size:30px; font-family: monospace\">Havia</span>",
		"response": " ",
		"trial": "exp-sent",
		"word": "Havia",
		"trial_type": "html-keyboard-response",
		"trial_index": 172,
		"time_elapsed": 382111,
		"internal_node_id": "0.0-3.0-1.131"
	},
	{
		"rt": 709,
		"stimulus": "<span style=\"font-size:30px; font-family: monospace\">um</span>",
		"response": " ",
		"trial": "exp-sent",
		"word": "um",
		"trial_type": "html-keyboard-response",
		"trial_index": 173,
		"time_elapsed": 383071,
		"internal_node_id": "0.0-3.0-1.132"
	},
	{
		"rt": 2661,
		"stimulus": "<span style=\"font-size:30px; font-family: monospace\">machucado</span>",
		"response": " ",
		"trial": "exp-sent",
		"word": "machucado",
		"trial_type": "html-keyboard-response",
		"trial_index": 174,
		"time_elapsed": 385983,
		"internal_node_id": "0.0-3.0-1.133"
	},
	{
		"rt": 565,
		"stimulus": "<span style=\"font-size:30px; font-family: monospace\">no</span>",
		"response": " ",
		"trial": "exp-sent",
		"word": "no",
		"trial_type": "html-keyboard-response",
		"trial_index": 175,
		"time_elapsed": 386799,
		"internal_node_id": "0.0-3.0-1.134"
	},
	{
		"rt": 1056,
		"stimulus": "<span style=\"font-size:30px; font-family: monospace\">dedo</span>",
		"response": " ",
		"trial": "exp-sent",
		"word": "dedo",
		"trial_type": "html-keyboard-response",
		"trial_index": 176,
		"time_elapsed": 388111,
		"internal_node_id": "0.0-3.0-1.135"
	},
	{
		"rt": 1092,
		"stimulus": "<span style=\"font-size:30px; font-family: monospace\">da</span>",
		"response": " ",
		"trial": "exp-sent",
		"word": "da",
		"trial_type": "html-keyboard-response",
		"trial_index": 177,
		"time_elapsed": 389455,
		"internal_node_id": "0.0-3.0-1.136"
	},
	{
		"rt": 949,
		"stimulus": "<span style=\"font-size:30px; font-family: monospace\">criança.</span>",
		"response": " ",
		"trial": "exp-sent",
		"word": "criança.",
		"trial_type": "html-keyboard-response",
		"trial_index": 178,
		"time_elapsed": 390655,
		"internal_node_id": "0.0-3.0-1.137"
	},
	{
		"rt": null,
		"stimulus": "<span style= \"font-size:30px; font-family: monospace\">+</span>",
		"response": null,
		"trial_part": "fixation",
		"trial_type": "html-keyboard-response",
		"trial_index": 179,
		"time_elapsed": 391907,
		"internal_node_id": "0.0-3.0-0.138-0.138"
	},
	{
		"rt": 625,
		"stimulus": "<span style=\"font-size:30px; font-family: monospace\">A</span>",
		"response": " ",
		"trial": "exp-sent",
		"word": "A",
		"trial_type": "html-keyboard-response",
		"trial_index": 180,
		"time_elapsed": 392783,
		"internal_node_id": "0.0-3.0-1.138"
	},
	{
		"rt": 5589,
		"stimulus": "<span style=\"font-size:30px; font-family: monospace\">borboleta</span>",
		"response": " ",
		"trial": "exp-sent",
		"word": "borboleta",
		"trial_type": "html-keyboard-response",
		"trial_index": 181,
		"time_elapsed": 398623,
		"internal_node_id": "0.0-3.0-1.139"
	},
	{
		"rt": 1909,
		"stimulus": "<span style=\"font-size:30px; font-family: monospace\">pousou</span>",
		"response": " ",
		"trial": "exp-sent",
		"word": "pousou",
		"trial_type": "html-keyboard-response",
		"trial_index": 182,
		"time_elapsed": 400783,
		"internal_node_id": "0.0-3.0-1.140"
	},
	{
		"rt": 644,
		"stimulus": "<span style=\"font-size:30px; font-family: monospace\">no</span>",
		"response": " ",
		"trial": "exp-sent",
		"word": "no",
		"trial_type": "html-keyboard-response",
		"trial_index": 183,
		"time_elapsed": 401679,
		"internal_node_id": "0.0-3.0-1.141"
	},
	{
		"rt": 1781,
		"stimulus": "<span style=\"font-size:30px; font-family: monospace\">ombro</span>",
		"response": " ",
		"trial": "exp-sent",
		"word": "ombro",
		"trial_type": "html-keyboard-response",
		"trial_index": 184,
		"time_elapsed": 403711,
		"internal_node_id": "0.0-3.0-1.142"
	},
	{
		"rt": 2244,
		"stimulus": "<span style=\"font-size:30px; font-family: monospace\">daquela</span>",
		"response": " ",
		"trial": "exp-sent",
		"word": "daquela",
		"trial_type": "html-keyboard-response",
		"trial_index": 185,
		"time_elapsed": 406207,
		"internal_node_id": "0.0-3.0-1.143"
	},
	{
		"rt": 2037,
		"stimulus": "<span style=\"font-size:30px; font-family: monospace\">moça.</span>",
		"response": " ",
		"trial": "exp-sent",
		"word": "moça.",
		"trial_type": "html-keyboard-response",
		"trial_index": 186,
		"time_elapsed": 408495,
		"internal_node_id": "0.0-3.0-1.144"
	},
	{
		"rt": null,
		"stimulus": "<span style= \"font-size:30px; font-family: monospace\">+</span>",
		"response": null,
		"trial_part": "fixation",
		"trial_type": "html-keyboard-response",
		"trial_index": 187,
		"time_elapsed": 409747,
		"internal_node_id": "0.0-3.0-0.145-0.145"
	},
	{
		"rt": 721,
		"stimulus": "<span style=\"font-size:30px; font-family: monospace\">Eu</span>",
		"response": " ",
		"trial": "exp-sent",
		"word": "Eu",
		"trial_type": "html-keyboard-response",
		"trial_index": 188,
		"time_elapsed": 410719,
		"internal_node_id": "0.0-3.0-1.145"
	},
	{
		"rt": 773,
		"stimulus": "<span style=\"font-size:30px; font-family: monospace\">quero</span>",
		"response": " ",
		"trial": "exp-sent",
		"word": "quero",
		"trial_type": "html-keyboard-response",
		"trial_index": 189,
		"time_elapsed": 411743,
		"internal_node_id": "0.0-3.0-1.146"
	},
	{
		"rt": 757,
		"stimulus": "<span style=\"font-size:30px; font-family: monospace\">um</span>",
		"response": " ",
		"trial": "exp-sent",
		"word": "um",
		"trial_type": "html-keyboard-response",
		"trial_index": 190,
		"time_elapsed": 412751,
		"internal_node_id": "0.0-3.0-1.147"
	},
	{
		"rt": 5717,
		"stimulus": "<span style=\"font-size:30px; font-family: monospace\">namorado</span>",
		"response": " ",
		"trial": "exp-sent",
		"word": "namorado",
		"trial_type": "html-keyboard-response",
		"trial_index": 191,
		"time_elapsed": 418719,
		"internal_node_id": "0.0-3.0-1.148"
	},
	{
		"rt": 1957,
		"stimulus": "<span style=\"font-size:30px; font-family: monospace\">honesto</span>",
		"response": " ",
		"trial": "exp-sent",
		"word": "honesto",
		"trial_type": "html-keyboard-response",
		"trial_index": 192,
		"time_elapsed": 420927,
		"internal_node_id": "0.0-3.0-1.149"
	},
	{
		"rt": 821,
		"stimulus": "<span style=\"font-size:30px; font-family: monospace\">e</span>",
		"response": " ",
		"trial": "exp-sent",
		"word": "e",
		"trial_type": "html-keyboard-response",
		"trial_index": 193,
		"time_elapsed": 421999,
		"internal_node_id": "0.0-3.0-1.150"
	},
	{
		"rt": 2485,
		"stimulus": "<span style=\"font-size:30px; font-family: monospace\">compreensivo.</span>",
		"response": " ",
		"trial": "comp",
		"word": "compreensivo.",
		"trial_type": "html-keyboard-response",
		"trial_index": 194,
		"time_elapsed": 424735,
		"internal_node_id": "0.0-3.0-1.151"
	},
	{
		"rt": 28822,
		"stimulus": "<span style=\"font-size:30px; font-family: monospace\">Eu quero um namorado honesto?</span>",
		"response": "s",
		"question": "Eu quero um namorado honesto?",
		"answer": "sim",
		"trial": "comp",
		"trial_type": "html-keyboard-response",
		"trial_index": 195,
		"time_elapsed": 453807,
		"internal_node_id": "0.0-3.0-2.151-0.151",
		"accuracy": false
	},
	{
		"rt": null,
		"stimulus": "<span style= \"font-size:30px; font-family: monospace\">+</span>",
		"response": null,
		"trial_part": "fixation",
		"trial_type": "html-keyboard-response",
		"trial_index": 196,
		"time_elapsed": 455309,
		"internal_node_id": "0.0-3.0-0.152-0.152"
	},
	{
		"rt": 1335,
		"stimulus": "<span style=\"font-size:30px; font-family: monospace\">Barulho</span>",
		"response": " ",
		"trial": "exp-sent",
		"word": "Barulho",
		"trial_type": "html-keyboard-response",
		"trial_index": 197,
		"time_elapsed": 456895,
		"internal_node_id": "0.0-3.0-1.152"
	},
	{
		"rt": 1557,
		"stimulus": "<span style=\"font-size:30px; font-family: monospace\">de</span>",
		"response": " ",
		"trial": "exp-sent",
		"word": "de",
		"trial_type": "html-keyboard-response",
		"trial_index": 198,
		"time_elapsed": 458703,
		"internal_node_id": "0.0-3.0-1.153"
	},
	{
		"rt": 629,
		"stimulus": "<span style=\"font-size:30px; font-family: monospace\">carros</span>",
		"response": " ",
		"trial": "exp-sent",
		"word": "carros",
		"trial_type": "html-keyboard-response",
		"trial_index": 199,
		"time_elapsed": 459583,
		"internal_node_id": "0.0-3.0-1.154"
	},
	{
		"rt": 533,
		"stimulus": "<span style=\"font-size:30px; font-family: monospace\">é</span>",
		"response": " ",
		"trial": "exp-sent",
		"word": "é",
		"trial_type": "html-keyboard-response",
		"trial_index": 200,
		"time_elapsed": 460367,
		"internal_node_id": "0.0-3.0-1.155"
	},
	{
		"rt": 1045,
		"stimulus": "<span style=\"font-size:30px; font-family: monospace\">irritante</span>",
		"response": " ",
		"trial": "exp-sent",
		"word": "irritante",
		"trial_type": "html-keyboard-response",
		"trial_index": 201,
		"time_elapsed": 461663,
		"internal_node_id": "0.0-3.0-1.156"
	},
	{
		"rt": 565,
		"stimulus": "<span style=\"font-size:30px; font-family: monospace\">para</span>",
		"response": " ",
		"trial": "exp-sent",
		"word": "para",
		"trial_type": "html-keyboard-response",
		"trial_index": 202,
		"time_elapsed": 462479,
		"internal_node_id": "0.0-3.0-1.157"
	},
	{
		"rt": 452,
		"stimulus": "<span style=\"font-size:30px; font-family: monospace\">a</span>",
		"response": " ",
		"trial": "exp-sent",
		"word": "a",
		"trial_type": "html-keyboard-response",
		"trial_index": 203,
		"time_elapsed": 463183,
		"internal_node_id": "0.0-3.0-1.158"
	},
	{
		"rt": 372,
		"stimulus": "<span style=\"font-size:30px; font-family: monospace\">moça.</span>",
		"response": " ",
		"trial": "exp-sent",
		"word": "moça.",
		"trial_type": "html-keyboard-response",
		"trial_index": 204,
		"time_elapsed": 463807,
		"internal_node_id": "0.0-3.0-1.159"
	},
	{
		"rt": null,
		"stimulus": "<span style= \"font-size:30px; font-family: monospace\">+</span>",
		"response": null,
		"trial_part": "fixation",
		"trial_type": "html-keyboard-response",
		"trial_index": 205,
		"time_elapsed": 465072,
		"internal_node_id": "0.0-3.0-0.160-0.160"
	},
	{
		"rt": 548,
		"stimulus": "<span style=\"font-size:30px; font-family: monospace\">A</span>",
		"response": " ",
		"trial": "exp-sent",
		"word": "A",
		"trial_type": "html-keyboard-response",
		"trial_index": 206,
		"time_elapsed": 465871,
		"internal_node_id": "0.0-3.0-1.160"
	},
	{
		"rt": 1125,
		"stimulus": "<span style=\"font-size:30px; font-family: monospace\">loja</span>",
		"response": " ",
		"trial": "exp-sent",
		"word": "loja",
		"trial_type": "html-keyboard-response",
		"trial_index": 207,
		"time_elapsed": 467247,
		"internal_node_id": "0.0-3.0-1.161"
	},
	{
		"rt": 997,
		"stimulus": "<span style=\"font-size:30px; font-family: monospace\">também</span>",
		"response": " ",
		"trial": "exp-sent",
		"word": "também",
		"trial_type": "html-keyboard-response",
		"trial_index": 208,
		"time_elapsed": 468495,
		"internal_node_id": "0.0-3.0-1.162"
	},
	{
		"rt": 757,
		"stimulus": "<span style=\"font-size:30px; font-family: monospace\">vende</span>",
		"response": " ",
		"trial": "exp-sent",
		"word": "vende",
		"trial_type": "html-keyboard-response",
		"trial_index": 209,
		"time_elapsed": 469503,
		"internal_node_id": "0.0-3.0-1.163"
	},
	{
		"rt": 932,
		"stimulus": "<span style=\"font-size:30px; font-family: monospace\">taça</span>",
		"response": " ",
		"trial": "exp-sent",
		"word": "taça",
		"trial_type": "html-keyboard-response",
		"trial_index": 210,
		"time_elapsed": 470687,
		"internal_node_id": "0.0-3.0-1.164"
	},
	{
		"rt": 1413,
		"stimulus": "<span style=\"font-size:30px; font-family: monospace\">de</span>",
		"response": " ",
		"trial": "exp-sent",
		"word": "de",
		"trial_type": "html-keyboard-response",
		"trial_index": 211,
		"time_elapsed": 472351,
		"internal_node_id": "0.0-3.0-1.165"
	},
	{
		"rt": 916,
		"stimulus": "<span style=\"font-size:30px; font-family: monospace\">vinho</span>",
		"response": " ",
		"trial": "exp-sent",
		"word": "vinho",
		"trial_type": "html-keyboard-response",
		"trial_index": 212,
		"time_elapsed": 473519,
		"internal_node_id": "0.0-3.0-1.166"
	},
	{
		"rt": 725,
		"stimulus": "<span style=\"font-size:30px; font-family: monospace\">e</span>",
		"response": " ",
		"trial": "exp-sent",
		"word": "e",
		"trial_type": "html-keyboard-response",
		"trial_index": 213,
		"time_elapsed": 474495,
		"internal_node_id": "0.0-3.0-1.167"
	},
	{
		"rt": 2901,
		"stimulus": "<span style=\"font-size:30px; font-family: monospace\">espumante.</span>",
		"response": " ",
		"trial": "exp-sent",
		"word": "espumante.",
		"trial_type": "html-keyboard-response",
		"trial_index": 214,
		"time_elapsed": 477647,
		"internal_node_id": "0.0-3.0-1.168"
	},
	{
		"rt": null,
		"stimulus": "<span style= \"font-size:30px; font-family: monospace\">+</span>",
		"response": null,
		"trial_part": "fixation",
		"trial_type": "html-keyboard-response",
		"trial_index": 215,
		"time_elapsed": 478900,
		"internal_node_id": "0.0-3.0-0.169-0.169"
	},
	{
		"rt": 607,
		"stimulus": "<span style=\"font-size:30px; font-family: monospace\">A</span>",
		"response": " ",
		"trial": "exp-sent",
		"word": "A",
		"trial_type": "html-keyboard-response",
		"trial_index": 216,
		"time_elapsed": 479759,
		"internal_node_id": "0.0-3.0-1.169"
	},
	{
		"rt": 1237,
		"stimulus": "<span style=\"font-size:30px; font-family: monospace\">bruxa</span>",
		"response": " ",
		"trial": "exp-sent",
		"word": "bruxa",
		"trial_type": "html-keyboard-response",
		"trial_index": 217,
		"time_elapsed": 481247,
		"internal_node_id": "0.0-3.0-1.170"
	},
	{
		"rt": 868,
		"stimulus": "<span style=\"font-size:30px; font-family: monospace\">tinha</span>",
		"response": " ",
		"trial": "exp-sent",
		"word": "tinha",
		"trial_type": "html-keyboard-response",
		"trial_index": 218,
		"time_elapsed": 482366,
		"internal_node_id": "0.0-3.0-1.171"
	},
	{
		"rt": 629,
		"stimulus": "<span style=\"font-size:30px; font-family: monospace\">uma</span>",
		"response": " ",
		"trial": "exp-sent",
		"word": "uma",
		"trial_type": "html-keyboard-response",
		"trial_index": 219,
		"time_elapsed": 483247,
		"internal_node_id": "0.0-3.0-1.172"
	},
	{
		"rt": 3524,
		"stimulus": "<span style=\"font-size:30px; font-family: monospace\">vassoura</span>",
		"response": " ",
		"trial": "exp-sent",
		"word": "vassoura",
		"trial_type": "html-keyboard-response",
		"trial_index": 220,
		"time_elapsed": 487023,
		"internal_node_id": "0.0-3.0-1.173"
	},
	{
		"rt": 741,
		"stimulus": "<span style=\"font-size:30px; font-family: monospace\">e</span>",
		"response": " ",
		"trial": "exp-sent",
		"word": "e",
		"trial_type": "html-keyboard-response",
		"trial_index": 221,
		"time_elapsed": 488015,
		"internal_node_id": "0.0-3.0-1.174"
	},
	{
		"rt": 629,
		"stimulus": "<span style=\"font-size:30px; font-family: monospace\">um</span>",
		"response": " ",
		"trial": "exp-sent",
		"word": "um",
		"trial_type": "html-keyboard-response",
		"trial_index": 222,
		"time_elapsed": 488895,
		"internal_node_id": "0.0-3.0-1.175"
	},
	{
		"rt": 1558,
		"stimulus": "<span style=\"font-size:30px; font-family: monospace\">gato.</span>",
		"response": " ",
		"trial": "exp-sent",
		"word": "gato.",
		"trial_type": "html-keyboard-response",
		"trial_index": 223,
		"time_elapsed": 490703,
		"internal_node_id": "0.0-3.0-1.176"
	},
	{
		"rt": null,
		"stimulus": "<span style= \"font-size:30px; font-family: monospace\">+</span>",
		"response": null,
		"trial_part": "fixation",
		"trial_type": "html-keyboard-response",
		"trial_index": 224,
		"time_elapsed": 491955,
		"internal_node_id": "0.0-3.0-0.177-0.177"
	},
	{
		"rt": 768,
		"stimulus": "<span style=\"font-size:30px; font-family: monospace\">Eu</span>",
		"response": " ",
		"trial": "exp-sent",
		"word": "Eu",
		"trial_type": "html-keyboard-response",
		"trial_index": 225,
		"time_elapsed": 492975,
		"internal_node_id": "0.0-3.0-1.177"
	},
	{
		"rt": 1269,
		"stimulus": "<span style=\"font-size:30px; font-family: monospace\">me</span>",
		"response": " ",
		"trial": "exp-sent",
		"word": "me",
		"trial_type": "html-keyboard-response",
		"trial_index": 226,
		"time_elapsed": 494495,
		"internal_node_id": "0.0-3.0-1.178"
	},
	{
		"rt": 2068,
		"stimulus": "<span style=\"font-size:30px; font-family: monospace\">divirto</span>",
		"response": " ",
		"trial": "exp-sent",
		"word": "divirto",
		"trial_type": "html-keyboard-response",
		"trial_index": 227,
		"time_elapsed": 496814,
		"internal_node_id": "0.0-3.0-1.179"
	},
	{
		"rt": 998,
		"stimulus": "<span style=\"font-size:30px; font-family: monospace\">em</span>",
		"response": " ",
		"trial": "exp-sent",
		"word": "em",
		"trial_type": "html-keyboard-response",
		"trial_index": 228,
		"time_elapsed": 498063,
		"internal_node_id": "0.0-3.0-1.180"
	},
	{
		"rt": 1429,
		"stimulus": "<span style=\"font-size:30px; font-family: monospace\">festas</span>",
		"response": " ",
		"trial": "exp-sent",
		"word": "festas",
		"trial_type": "html-keyboard-response",
		"trial_index": 229,
		"time_elapsed": 499743,
		"internal_node_id": "0.0-3.0-1.181"
	},
	{
		"rt": 965,
		"stimulus": "<span style=\"font-size:30px; font-family: monospace\">de</span>",
		"response": " ",
		"trial": "exp-sent",
		"word": "de",
		"trial_type": "html-keyboard-response",
		"trial_index": 230,
		"time_elapsed": 500959,
		"internal_node_id": "0.0-3.0-1.182"
	},
	{
		"rt": 939,
		"stimulus": "<span style=\"font-size:30px; font-family: monospace\">criança.</span>",
		"response": " ",
		"trial": "exp-sent",
		"word": "criança.",
		"trial_type": "html-keyboard-response",
		"trial_index": 231,
		"time_elapsed": 502159,
		"internal_node_id": "0.0-3.0-1.183"
	},
	{
		"rt": null,
		"stimulus": "<span style= \"font-size:30px; font-family: monospace\">+</span>",
		"response": null,
		"trial_part": "fixation",
		"trial_type": "html-keyboard-response",
		"trial_index": 232,
		"time_elapsed": 503411,
		"internal_node_id": "0.0-3.0-0.184-0.184"
	},
	{
		"rt": 967,
		"stimulus": "<span style=\"font-size:30px; font-family: monospace\">A</span>",
		"response": " ",
		"trial": "exp-sent",
		"word": "A",
		"trial_type": "html-keyboard-response",
		"trial_index": 233,
		"time_elapsed": 504638,
		"internal_node_id": "0.0-3.0-1.184"
	},
	{
		"rt": 2037,
		"stimulus": "<span style=\"font-size:30px; font-family: monospace\">janela</span>",
		"response": " ",
		"trial": "exp-sent",
		"word": "janela",
		"trial_type": "html-keyboard-response",
		"trial_index": 234,
		"time_elapsed": 506927,
		"internal_node_id": "0.0-3.0-1.185"
	},
	{
		"rt": 1429,
		"stimulus": "<span style=\"font-size:30px; font-family: monospace\">alta</span>",
		"response": " ",
		"trial": "exp-sent",
		"word": "alta",
		"trial_type": "html-keyboard-response",
		"trial_index": 235,
		"time_elapsed": 508607,
		"internal_node_id": "0.0-3.0-1.186"
	},
	{
		"rt": 1189,
		"stimulus": "<span style=\"font-size:30px; font-family: monospace\">estava</span>",
		"response": " ",
		"trial": "exp-sent",
		"word": "estava",
		"trial_type": "html-keyboard-response",
		"trial_index": 236,
		"time_elapsed": 510047,
		"internal_node_id": "0.0-3.0-1.187"
	},
	{
		"rt": 2565,
		"stimulus": "<span style=\"font-size:30px; font-family: monospace\">quebrada</span>",
		"response": " ",
		"trial": "exp-sent",
		"word": "quebrada",
		"trial_type": "html-keyboard-response",
		"trial_index": 237,
		"time_elapsed": 512863,
		"internal_node_id": "0.0-3.0-1.188"
	},
	{
		"rt": 1189,
		"stimulus": "<span style=\"font-size:30px; font-family: monospace\">desde</span>",
		"response": " ",
		"trial": "exp-sent",
		"word": "desde",
		"trial_type": "html-keyboard-response",
		"trial_index": 238,
		"time_elapsed": 514303,
		"internal_node_id": "0.0-3.0-1.189"
	},
	{
		"rt": 1109,
		"stimulus": "<span style=\"font-size:30px; font-family: monospace\">ontem.</span>",
		"response": " ",
		"trial": "comp",
		"word": "ontem.",
		"trial_type": "html-keyboard-response",
		"trial_index": 239,
		"time_elapsed": 515663,
		"internal_node_id": "0.0-3.0-1.190"
	},
	{
		"rt": 17541,
		"stimulus": "<span style=\"font-size:30px; font-family: monospace\">A janela alta estava quebrada?</span>",
		"response": "s",
		"question": "A janela alta estava quebrada?",
		"answer": "sim",
		"trial": "comp",
		"trial_type": "html-keyboard-response",
		"trial_index": 240,
		"time_elapsed": 533455,
		"internal_node_id": "0.0-3.0-2.190-0.190",
		"accuracy": false
	},
	{
		"rt": null,
		"stimulus": "<span style= \"font-size:30px; font-family: monospace\">+</span>",
		"response": null,
		"trial_part": "fixation",
		"trial_type": "html-keyboard-response",
		"trial_index": 241,
		"time_elapsed": 534958,
		"internal_node_id": "0.0-3.0-0.191-0.191"
	},
	{
		"rt": 4262,
		"stimulus": "<span style=\"font-size:30px; font-family: monospace\">A</span>",
		"response": " ",
		"trial": "exp-sent",
		"word": "A",
		"trial_type": "html-keyboard-response",
		"trial_index": 242,
		"time_elapsed": 539471,
		"internal_node_id": "0.0-3.0-1.191"
	},
	{
		"rt": 1445,
		"stimulus": "<span style=\"font-size:30px; font-family: monospace\">motorista</span>",
		"response": " ",
		"trial": "exp-sent",
		"word": "motorista",
		"trial_type": "html-keyboard-response",
		"trial_index": 243,
		"time_elapsed": 541167,
		"internal_node_id": "0.0-3.0-1.192"
	},
	{
		"rt": 997,
		"stimulus": "<span style=\"font-size:30px; font-family: monospace\">fez</span>",
		"response": " ",
		"trial": "exp-sent",
		"word": "fez",
		"trial_type": "html-keyboard-response",
		"trial_index": 244,
		"time_elapsed": 542414,
		"internal_node_id": "0.0-3.0-1.193"
	},
	{
		"rt": 1108,
		"stimulus": "<span style=\"font-size:30px; font-family: monospace\">o</span>",
		"response": " ",
		"trial": "exp-sent",
		"word": "o",
		"trial_type": "html-keyboard-response",
		"trial_index": 245,
		"time_elapsed": 543775,
		"internal_node_id": "0.0-3.0-1.194"
	},
	{
		"rt": 1269,
		"stimulus": "<span style=\"font-size:30px; font-family: monospace\">retorno</span>",
		"response": " ",
		"trial": "exp-sent",
		"word": "retorno",
		"trial_type": "html-keyboard-response",
		"trial_index": 246,
		"time_elapsed": 545295,
		"internal_node_id": "0.0-3.0-1.195"
	},
	{
		"rt": 835,
		"stimulus": "<span style=\"font-size:30px; font-family: monospace\">com</span>",
		"response": " ",
		"trial": "exp-sent",
		"word": "com",
		"trial_type": "html-keyboard-response",
		"trial_index": 247,
		"time_elapsed": 546383,
		"internal_node_id": "0.0-3.0-1.196"
	},
	{
		"rt": 1845,
		"stimulus": "<span style=\"font-size:30px; font-family: monospace\">cuidado.</span>",
		"response": " ",
		"trial": "exp-sent",
		"word": "cuidado.",
		"trial_type": "html-keyboard-response",
		"trial_index": 248,
		"time_elapsed": 548479,
		"internal_node_id": "0.0-3.0-1.197"
	},
	{
		"rt": null,
		"stimulus": "<span style= \"font-size:30px; font-family: monospace\">+</span>",
		"response": null,
		"trial_part": "fixation",
		"trial_type": "html-keyboard-response",
		"trial_index": 249,
		"time_elapsed": 549730,
		"internal_node_id": "0.0-3.0-0.198-0.198"
	},
	{
		"rt": 2369,
		"stimulus": "<span style=\"font-size:30px; font-family: monospace\">Contos</span>",
		"response": " ",
		"trial": "exp-sent",
		"word": "Contos",
		"trial_type": "html-keyboard-response",
		"trial_index": 250,
		"time_elapsed": 552351,
		"internal_node_id": "0.0-3.0-1.198"
	},
	{
		"rt": 756,
		"stimulus": "<span style=\"font-size:30px; font-family: monospace\">de</span>",
		"response": " ",
		"trial": "exp-sent",
		"word": "de",
		"trial_type": "html-keyboard-response",
		"trial_index": 251,
		"time_elapsed": 553359,
		"internal_node_id": "0.0-3.0-1.199"
	},
	{
		"rt": 981,
		"stimulus": "<span style=\"font-size:30px; font-family: monospace\">ação</span>",
		"response": " ",
		"trial": "exp-sent",
		"word": "ação",
		"trial_type": "html-keyboard-response",
		"trial_index": 252,
		"time_elapsed": 554591,
		"internal_node_id": "0.0-3.0-1.200"
	},
	{
		"rt": 821,
		"stimulus": "<span style=\"font-size:30px; font-family: monospace\">têm</span>",
		"response": " ",
		"trial": "exp-sent",
		"word": "têm",
		"trial_type": "html-keyboard-response",
		"trial_index": 253,
		"time_elapsed": 555663,
		"internal_node_id": "0.0-3.0-1.201"
	},
	{
		"rt": 1077,
		"stimulus": "<span style=\"font-size:30px; font-family: monospace\">chantagem</span>",
		"response": " ",
		"trial": "exp-sent",
		"word": "chantagem",
		"trial_type": "html-keyboard-response",
		"trial_index": 254,
		"time_elapsed": 556990,
		"internal_node_id": "0.0-3.0-1.202"
	},
	{
		"rt": 581,
		"stimulus": "<span style=\"font-size:30px; font-family: monospace\">e</span>",
		"response": " ",
		"trial": "exp-sent",
		"word": "e",
		"trial_type": "html-keyboard-response",
		"trial_index": 255,
		"time_elapsed": 557823,
		"internal_node_id": "0.0-3.0-1.203"
	},
	{
		"rt": 869,
		"stimulus": "<span style=\"font-size:30px; font-family: monospace\">muita</span>",
		"response": " ",
		"trial": "exp-sent",
		"word": "muita",
		"trial_type": "html-keyboard-response",
		"trial_index": 256,
		"time_elapsed": 558942,
		"internal_node_id": "0.0-3.0-1.204"
	},
	{
		"rt": 1957,
		"stimulus": "<span style=\"font-size:30px; font-family: monospace\">luta.</span>",
		"response": " ",
		"trial": "exp-sent",
		"word": "luta.",
		"trial_type": "html-keyboard-response",
		"trial_index": 257,
		"time_elapsed": 561151,
		"internal_node_id": "0.0-3.0-1.205"
	},
	{
		"rt": null,
		"stimulus": "<span style= \"font-size:30px; font-family: monospace\">+</span>",
		"response": null,
		"trial_part": "fixation",
		"trial_type": "html-keyboard-response",
		"trial_index": 258,
		"time_elapsed": 562402,
		"internal_node_id": "0.0-3.0-0.206-0.206"
	},
	{
		"rt": 507,
		"stimulus": "<span style=\"font-size:30px; font-family: monospace\">A</span>",
		"response": " ",
		"trial": "exp-sent",
		"word": "A",
		"trial_type": "html-keyboard-response",
		"trial_index": 259,
		"time_elapsed": 563167,
		"internal_node_id": "0.0-3.0-1.206"
	},
	{
		"rt": 2453,
		"stimulus": "<span style=\"font-size:30px; font-family: monospace\">bisavó</span>",
		"response": " ",
		"trial": "exp-sent",
		"word": "bisavó",
		"trial_type": "html-keyboard-response",
		"trial_index": 260,
		"time_elapsed": 565871,
		"internal_node_id": "0.0-3.0-1.207"
	},
	{
		"rt": 1349,
		"stimulus": "<span style=\"font-size:30px; font-family: monospace\">recebeu</span>",
		"response": " ",
		"trial": "exp-sent",
		"word": "recebeu",
		"trial_type": "html-keyboard-response",
		"trial_index": 261,
		"time_elapsed": 567470,
		"internal_node_id": "0.0-3.0-1.208"
	},
	{
		"rt": 677,
		"stimulus": "<span style=\"font-size:30px; font-family: monospace\">um</span>",
		"response": " ",
		"trial": "exp-sent",
		"word": "um",
		"trial_type": "html-keyboard-response",
		"trial_index": 262,
		"time_elapsed": 568398,
		"internal_node_id": "0.0-3.0-1.209"
	},
	{
		"rt": 1221,
		"stimulus": "<span style=\"font-size:30px; font-family: monospace\">benefício</span>",
		"response": " ",
		"trial": "exp-sent",
		"word": "benefício",
		"trial_type": "html-keyboard-response",
		"trial_index": 263,
		"time_elapsed": 569870,
		"internal_node_id": "0.0-3.0-1.210"
	},
	{
		"rt": 2004,
		"stimulus": "<span style=\"font-size:30px; font-family: monospace\">temporário</span>",
		"response": " ",
		"trial": "exp-sent",
		"word": "temporário",
		"trial_type": "html-keyboard-response",
		"trial_index": 264,
		"time_elapsed": 572127,
		"internal_node_id": "0.0-3.0-1.211"
	},
	{
		"rt": 997,
		"stimulus": "<span style=\"font-size:30px; font-family: monospace\">do</span>",
		"response": " ",
		"trial": "exp-sent",
		"word": "do",
		"trial_type": "html-keyboard-response",
		"trial_index": 265,
		"time_elapsed": 573374,
		"internal_node_id": "0.0-3.0-1.212"
	},
	{
		"rt": 1205,
		"stimulus": "<span style=\"font-size:30px; font-family: monospace\">governo.</span>",
		"response": " ",
		"trial": "exp-sent",
		"word": "governo.",
		"trial_type": "html-keyboard-response",
		"trial_index": 266,
		"time_elapsed": 574831,
		"internal_node_id": "0.0-3.0-1.213"
	},
	{
		"rt": null,
		"stimulus": "<span style= \"font-size:30px; font-family: monospace\">+</span>",
		"response": null,
		"trial_part": "fixation",
		"trial_type": "html-keyboard-response",
		"trial_index": 267,
		"time_elapsed": 576082,
		"internal_node_id": "0.0-3.0-0.214-0.214"
	},
	{
		"rt": 1041,
		"stimulus": "<span style=\"font-size:30px; font-family: monospace\">As</span>",
		"response": " ",
		"trial": "exp-sent",
		"word": "As",
		"trial_type": "html-keyboard-response",
		"trial_index": 268,
		"time_elapsed": 577374,
		"internal_node_id": "0.0-3.0-1.214"
	},
	{
		"rt": 997,
		"stimulus": "<span style=\"font-size:30px; font-family: monospace\">crianças</span>",
		"response": " ",
		"trial": "exp-sent",
		"word": "crianças",
		"trial_type": "html-keyboard-response",
		"trial_index": 269,
		"time_elapsed": 578623,
		"internal_node_id": "0.0-3.0-1.215"
	},
	{
		"rt": 6709,
		"stimulus": "<span style=\"font-size:30px; font-family: monospace\">brincaram</span>",
		"response": " ",
		"trial": "exp-sent",
		"word": "brincaram",
		"trial_type": "html-keyboard-response",
		"trial_index": 270,
		"time_elapsed": 585583,
		"internal_node_id": "0.0-3.0-1.216"
	},
	{
		"rt": 870,
		"stimulus": "<span style=\"font-size:30px; font-family: monospace\">no</span>",
		"response": " ",
		"trial": "exp-sent",
		"word": "no",
		"trial_type": "html-keyboard-response",
		"trial_index": 271,
		"time_elapsed": 586703,
		"internal_node_id": "0.0-3.0-1.217"
	},
	{
		"rt": 1317,
		"stimulus": "<span style=\"font-size:30px; font-family: monospace\">balanço</span>",
		"response": " ",
		"trial": "exp-sent",
		"word": "balanço",
		"trial_type": "html-keyboard-response",
		"trial_index": 272,
		"time_elapsed": 588271,
		"internal_node_id": "0.0-3.0-1.218"
	},
	{
		"rt": 709,
		"stimulus": "<span style=\"font-size:30px; font-family: monospace\">a</span>",
		"response": " ",
		"trial": "exp-sent",
		"word": "a",
		"trial_type": "html-keyboard-response",
		"trial_index": 273,
		"time_elapsed": 589230,
		"internal_node_id": "0.0-3.0-1.219"
	},
	{
		"rt": 1253,
		"stimulus": "<span style=\"font-size:30px; font-family: monospace\">tarde</span>",
		"response": " ",
		"trial": "exp-sent",
		"word": "tarde",
		"trial_type": "html-keyboard-response",
		"trial_index": 274,
		"time_elapsed": 590734,
		"internal_node_id": "0.0-3.0-1.220"
	},
	{
		"rt": 2053,
		"stimulus": "<span style=\"font-size:30px; font-family: monospace\">toda.</span>",
		"response": " ",
		"trial": "exp-sent",
		"word": "toda.",
		"trial_type": "html-keyboard-response",
		"trial_index": 275,
		"time_elapsed": 593038,
		"internal_node_id": "0.0-3.0-1.221"
	},
	{
		"rt": null,
		"stimulus": "<span style= \"font-size:30px; font-family: monospace\">+</span>",
		"response": null,
		"trial_part": "fixation",
		"trial_type": "html-keyboard-response",
		"trial_index": 276,
		"time_elapsed": 594290,
		"internal_node_id": "0.0-3.0-0.222-0.222"
	},
	{
		"rt": 1649,
		"stimulus": "<span style=\"font-size:30px; font-family: monospace\">Ela</span>",
		"response": " ",
		"trial": "exp-sent",
		"word": "Ela",
		"trial_type": "html-keyboard-response",
		"trial_index": 277,
		"time_elapsed": 596190,
		"internal_node_id": "0.0-3.0-1.222"
	},
	{
		"rt": 1365,
		"stimulus": "<span style=\"font-size:30px; font-family: monospace\">gosta</span>",
		"response": " ",
		"trial": "exp-sent",
		"word": "gosta",
		"trial_type": "html-keyboard-response",
		"trial_index": 278,
		"time_elapsed": 597806,
		"internal_node_id": "0.0-3.0-1.223"
	},
	{
		"rt": 821,
		"stimulus": "<span style=\"font-size:30px; font-family: monospace\">de</span>",
		"response": " ",
		"trial": "exp-sent",
		"word": "de",
		"trial_type": "html-keyboard-response",
		"trial_index": 279,
		"time_elapsed": 598879,
		"internal_node_id": "0.0-3.0-1.224"
	},
	{
		"rt": 1317,
		"stimulus": "<span style=\"font-size:30px; font-family: monospace\">comida</span>",
		"response": " ",
		"trial": "exp-sent",
		"word": "comida",
		"trial_type": "html-keyboard-response",
		"trial_index": 280,
		"time_elapsed": 600446,
		"internal_node_id": "0.0-3.0-1.225"
	},
	{
		"rt": 1317,
		"stimulus": "<span style=\"font-size:30px; font-family: monospace\">natural</span>",
		"response": " ",
		"trial": "exp-sent",
		"word": "natural",
		"trial_type": "html-keyboard-response",
		"trial_index": 281,
		"time_elapsed": 602014,
		"internal_node_id": "0.0-3.0-1.226"
	},
	{
		"rt": 838,
		"stimulus": "<span style=\"font-size:30px; font-family: monospace\">no</span>",
		"response": " ",
		"trial": "exp-sent",
		"word": "no",
		"trial_type": "html-keyboard-response",
		"trial_index": 282,
		"time_elapsed": 603103,
		"internal_node_id": "0.0-3.0-1.227"
	},
	{
		"rt": 2116,
		"stimulus": "<span style=\"font-size:30px; font-family: monospace\">almoço.</span>",
		"response": " ",
		"trial": "comp",
		"word": "almoço.",
		"trial_type": "html-keyboard-response",
		"trial_index": 283,
		"time_elapsed": 605470,
		"internal_node_id": "0.0-3.0-1.228"
	},
	{
		"rt": 9172,
		"stimulus": "<span style=\"font-size:30px; font-family: monospace\">Ela gosta de comida natural no almoço?</span>",
		"response": "s",
		"question": "Ela gosta de comida natural no almoço?",
		"answer": "sim",
		"trial": "comp",
		"trial_type": "html-keyboard-response",
		"trial_index": 284,
		"time_elapsed": 614894,
		"internal_node_id": "0.0-3.0-2.228-0.228",
		"accuracy": false
	},
	{
		"rt": null,
		"stimulus": "<span style= \"font-size:30px; font-family: monospace\">+</span>",
		"response": null,
		"trial_part": "fixation",
		"trial_type": "html-keyboard-response",
		"trial_index": 285,
		"time_elapsed": 616397,
		"internal_node_id": "0.0-3.0-0.229-0.229"
	},
	{
		"rt": 1847,
		"stimulus": "<span style=\"font-size:30px; font-family: monospace\">Este</span>",
		"response": " ",
		"trial": "exp-sent",
		"word": "Este",
		"trial_type": "html-keyboard-response",
		"trial_index": 286,
		"time_elapsed": 618494,
		"internal_node_id": "0.0-3.0-1.229"
	},
	{
		"rt": 261,
		"stimulus": "<span style=\"font-size:30px; font-family: monospace\">conto</span>",
		"response": " ",
		"trial": "exp-sent",
		"word": "conto",
		"trial_type": "html-keyboard-response",
		"trial_index": 287,
		"time_elapsed": 619006,
		"internal_node_id": "0.0-3.0-1.230"
	},
	{
		"rt": 69,
		"stimulus": "<span style=\"font-size:30px; font-family: monospace\">tem</span>",
		"response": " ",
		"trial": "exp-sent",
		"word": "tem",
		"trial_type": "html-keyboard-response",
		"trial_index": 288,
		"time_elapsed": 619326,
		"internal_node_id": "0.0-3.0-1.231"
	},
	{
		"rt": 85,
		"stimulus": "<span style=\"font-size:30px; font-family: monospace\">um</span>",
		"response": " ",
		"trial": "exp-sent",
		"word": "um",
		"trial_type": "html-keyboard-response",
		"trial_index": 289,
		"time_elapsed": 619662,
		"internal_node_id": "0.0-3.0-1.232"
	},
	{
		"rt": 68,
		"stimulus": "<span style=\"font-size:30px; font-family: monospace\">final</span>",
		"response": " ",
		"trial": "exp-sent",
		"word": "final",
		"trial_type": "html-keyboard-response",
		"trial_index": 290,
		"time_elapsed": 619982,
		"internal_node_id": "0.0-3.0-1.233"
	},
	{
		"rt": 677,
		"stimulus": "<span style=\"font-size:30px; font-family: monospace\">perfeito.</span>",
		"response": " ",
		"trial": "exp-sent",
		"word": "perfeito.",
		"trial_type": "html-keyboard-response",
		"trial_index": 291,
		"time_elapsed": 620910,
		"internal_node_id": "0.0-3.0-1.234"
	},
	{
		"rt": null,
		"stimulus": "<span style= \"font-size:30px; font-family: monospace\">+</span>",
		"response": null,
		"trial_part": "fixation",
		"trial_type": "html-keyboard-response",
		"trial_index": 292,
		"time_elapsed": 622162,
		"internal_node_id": "0.0-3.0-0.235-0.235"
	},
	{
		"rt": 320,
		"stimulus": "<span style=\"font-size:30px; font-family: monospace\">Ele</span>",
		"response": " ",
		"trial": "exp-sent",
		"word": "Ele",
		"trial_type": "html-keyboard-response",
		"trial_index": 293,
		"time_elapsed": 622734,
		"internal_node_id": "0.0-3.0-1.235"
	},
	{
		"rt": 597,
		"stimulus": "<span style=\"font-size:30px; font-family: monospace\">precisa</span>",
		"response": " ",
		"trial": "exp-sent",
		"word": "precisa",
		"trial_type": "html-keyboard-response",
		"trial_index": 294,
		"time_elapsed": 623582,
		"internal_node_id": "0.0-3.0-1.236"
	},
	{
		"rt": 453,
		"stimulus": "<span style=\"font-size:30px; font-family: monospace\">de</span>",
		"response": " ",
		"trial": "exp-sent",
		"word": "de",
		"trial_type": "html-keyboard-response",
		"trial_index": 295,
		"time_elapsed": 624286,
		"internal_node_id": "0.0-3.0-1.237"
	},
	{
		"rt": 325,
		"stimulus": "<span style=\"font-size:30px; font-family: monospace\">um</span>",
		"response": " ",
		"trial": "exp-sent",
		"word": "um",
		"trial_type": "html-keyboard-response",
		"trial_index": 296,
		"time_elapsed": 624863,
		"internal_node_id": "0.0-3.0-1.238"
	},
	{
		"rt": 1572,
		"stimulus": "<span style=\"font-size:30px; font-family: monospace\">protetor</span>",
		"response": " ",
		"trial": "exp-sent",
		"word": "protetor",
		"trial_type": "html-keyboard-response",
		"trial_index": 297,
		"time_elapsed": 626686,
		"internal_node_id": "0.0-3.0-1.239"
	},
	{
		"rt": 517,
		"stimulus": "<span style=\"font-size:30px; font-family: monospace\">de</span>",
		"response": " ",
		"trial": "exp-sent",
		"word": "de",
		"trial_type": "html-keyboard-response",
		"trial_index": 298,
		"time_elapsed": 627454,
		"internal_node_id": "0.0-3.0-1.240"
	},
	{
		"rt": 917,
		"stimulus": "<span style=\"font-size:30px; font-family: monospace\">ouvido.</span>",
		"response": " ",
		"trial": "exp-sent",
		"word": "ouvido.",
		"trial_type": "html-keyboard-response",
		"trial_index": 299,
		"time_elapsed": 628622,
		"internal_node_id": "0.0-3.0-1.241"
	},
	{
		"rt": null,
		"stimulus": "<span style= \"font-size:30px; font-family: monospace\">+</span>",
		"response": null,
		"trial_part": "fixation",
		"trial_type": "html-keyboard-response",
		"trial_index": 300,
		"time_elapsed": 629875,
		"internal_node_id": "0.0-3.0-0.242-0.242"
	},
	{
		"rt": 352,
		"stimulus": "<span style=\"font-size:30px; font-family: monospace\">Os</span>",
		"response": " ",
		"trial": "exp-sent",
		"word": "Os",
		"trial_type": "html-keyboard-response",
		"trial_index": 301,
		"time_elapsed": 630478,
		"internal_node_id": "0.0-3.0-1.242"
	},
	{
		"rt": 2822,
		"stimulus": "<span style=\"font-size:30px; font-family: monospace\">hábitos</span>",
		"response": " ",
		"trial": "exp-sent",
		"word": "hábitos",
		"trial_type": "html-keyboard-response",
		"trial_index": 302,
		"time_elapsed": 633551,
		"internal_node_id": "0.0-3.0-1.243"
	},
	{
		"rt": 565,
		"stimulus": "<span style=\"font-size:30px; font-family: monospace\">de</span>",
		"response": " ",
		"trial": "exp-sent",
		"word": "de",
		"trial_type": "html-keyboard-response",
		"trial_index": 303,
		"time_elapsed": 634367,
		"internal_node_id": "0.0-3.0-1.244"
	},
	{
		"rt": 1029,
		"stimulus": "<span style=\"font-size:30px; font-family: monospace\">lugares</span>",
		"response": " ",
		"trial": "exp-sent",
		"word": "lugares",
		"trial_type": "html-keyboard-response",
		"trial_index": 304,
		"time_elapsed": 635646,
		"internal_node_id": "0.0-3.0-1.245"
	},
	{
		"rt": 1092,
		"stimulus": "<span style=\"font-size:30px; font-family: monospace\">diferentes</span>",
		"response": " ",
		"trial": "exp-sent",
		"word": "diferentes",
		"trial_type": "html-keyboard-response",
		"trial_index": 305,
		"time_elapsed": 636991,
		"internal_node_id": "0.0-3.0-1.246"
	},
	{
		"rt": 981,
		"stimulus": "<span style=\"font-size:30px; font-family: monospace\">são</span>",
		"response": " ",
		"trial": "exp-sent",
		"word": "são",
		"trial_type": "html-keyboard-response",
		"trial_index": 306,
		"time_elapsed": 638222,
		"internal_node_id": "0.0-3.0-1.247"
	},
	{
		"rt": 1381,
		"stimulus": "<span style=\"font-size:30px; font-family: monospace\">muito</span>",
		"response": " ",
		"trial": "exp-sent",
		"word": "muito",
		"trial_type": "html-keyboard-response",
		"trial_index": 307,
		"time_elapsed": 639854,
		"internal_node_id": "0.0-3.0-1.248"
	},
	{
		"rt": 1477,
		"stimulus": "<span style=\"font-size:30px; font-family: monospace\">lindos.</span>",
		"response": " ",
		"trial": "exp-sent",
		"word": "lindos.",
		"trial_type": "html-keyboard-response",
		"trial_index": 308,
		"time_elapsed": 641582,
		"internal_node_id": "0.0-3.0-1.249"
	},
	{
		"rt": null,
		"stimulus": "<span style= \"font-size:30px; font-family: monospace\">+</span>",
		"response": null,
		"trial_part": "fixation",
		"trial_type": "html-keyboard-response",
		"trial_index": 309,
		"time_elapsed": 642835,
		"internal_node_id": "0.0-3.0-0.250-0.250"
	},
	{
		"rt": 609,
		"stimulus": "<span style=\"font-size:30px; font-family: monospace\">O</span>",
		"response": " ",
		"trial": "exp-sent",
		"word": "O",
		"trial_type": "html-keyboard-response",
		"trial_index": 310,
		"time_elapsed": 643694,
		"internal_node_id": "0.0-3.0-1.250"
	},
	{
		"rt": 1349,
		"stimulus": "<span style=\"font-size:30px; font-family: monospace\">médico</span>",
		"response": " ",
		"trial": "exp-sent",
		"word": "médico",
		"trial_type": "html-keyboard-response",
		"trial_index": 311,
		"time_elapsed": 645294,
		"internal_node_id": "0.0-3.0-1.251"
	},
	{
		"rt": 1604,
		"stimulus": "<span style=\"font-size:30px; font-family: monospace\">corrigiu</span>",
		"response": " ",
		"trial": "exp-sent",
		"word": "corrigiu",
		"trial_type": "html-keyboard-response",
		"trial_index": 312,
		"time_elapsed": 647150,
		"internal_node_id": "0.0-3.0-1.252"
	},
	{
		"rt": 773,
		"stimulus": "<span style=\"font-size:30px; font-family: monospace\">a</span>",
		"response": " ",
		"trial": "exp-sent",
		"word": "a",
		"trial_type": "html-keyboard-response",
		"trial_index": 313,
		"time_elapsed": 648174,
		"internal_node_id": "0.0-3.0-1.253"
	},
	{
		"rt": 1494,
		"stimulus": "<span style=\"font-size:30px; font-family: monospace\">postura</span>",
		"response": " ",
		"trial": "exp-sent",
		"word": "postura",
		"trial_type": "html-keyboard-response",
		"trial_index": 314,
		"time_elapsed": 649919,
		"internal_node_id": "0.0-3.0-1.254"
	},
	{
		"rt": 853,
		"stimulus": "<span style=\"font-size:30px; font-family: monospace\">das</span>",
		"response": " ",
		"trial": "exp-sent",
		"word": "das",
		"trial_type": "html-keyboard-response",
		"trial_index": 315,
		"time_elapsed": 651022,
		"internal_node_id": "0.0-3.0-1.255"
	},
	{
		"rt": 1060,
		"stimulus": "<span style=\"font-size:30px; font-family: monospace\">costas</span>",
		"response": " ",
		"trial": "exp-sent",
		"word": "costas",
		"trial_type": "html-keyboard-response",
		"trial_index": 316,
		"time_elapsed": 652334,
		"internal_node_id": "0.0-3.0-1.256"
	},
	{
		"rt": 981,
		"stimulus": "<span style=\"font-size:30px; font-family: monospace\">da</span>",
		"response": " ",
		"trial": "exp-sent",
		"word": "da",
		"trial_type": "html-keyboard-response",
		"trial_index": 317,
		"time_elapsed": 653566,
		"internal_node_id": "0.0-3.0-1.257"
	},
	{
		"rt": 2357,
		"stimulus": "<span style=\"font-size:30px; font-family: monospace\">pessoa.</span>",
		"response": " ",
		"trial": "exp-sent",
		"word": "pessoa.",
		"trial_type": "html-keyboard-response",
		"trial_index": 318,
		"time_elapsed": 656174,
		"internal_node_id": "0.0-3.0-1.258"
	},
	{
		"rt": null,
		"stimulus": "<span style= \"font-size:30px; font-family: monospace\">+</span>",
		"response": null,
		"trial_part": "fixation",
		"trial_type": "html-keyboard-response",
		"trial_index": 319,
		"time_elapsed": 657426,
		"internal_node_id": "0.0-3.0-0.259-0.259"
	},
	{
		"rt": 657,
		"stimulus": "<span style=\"font-size:30px; font-family: monospace\">Aquele</span>",
		"response": " ",
		"trial": "exp-sent",
		"word": "Aquele",
		"trial_type": "html-keyboard-response",
		"trial_index": 320,
		"time_elapsed": 658335,
		"internal_node_id": "0.0-3.0-1.259"
	},
	{
		"rt": 1621,
		"stimulus": "<span style=\"font-size:30px; font-family: monospace\">era</span>",
		"response": " ",
		"trial": "exp-sent",
		"word": "era",
		"trial_type": "html-keyboard-response",
		"trial_index": 321,
		"time_elapsed": 660206,
		"internal_node_id": "0.0-3.0-1.260"
	},
	{
		"rt": 885,
		"stimulus": "<span style=\"font-size:30px; font-family: monospace\">um</span>",
		"response": " ",
		"trial": "exp-sent",
		"word": "um",
		"trial_type": "html-keyboard-response",
		"trial_index": 322,
		"time_elapsed": 661342,
		"internal_node_id": "0.0-3.0-1.261"
	},
	{
		"rt": 2261,
		"stimulus": "<span style=\"font-size:30px; font-family: monospace\">caso</span>",
		"response": " ",
		"trial": "exp-sent",
		"word": "caso",
		"trial_type": "html-keyboard-response",
		"trial_index": 323,
		"time_elapsed": 663854,
		"internal_node_id": "0.0-3.0-1.262"
	},
	{
		"rt": 2453,
		"stimulus": "<span style=\"font-size:30px; font-family: monospace\">real</span>",
		"response": " ",
		"trial": "exp-sent",
		"word": "real",
		"trial_type": "html-keyboard-response",
		"trial_index": 324,
		"time_elapsed": 666558,
		"internal_node_id": "0.0-3.0-1.263"
	},
	{
		"rt": 821,
		"stimulus": "<span style=\"font-size:30px; font-family: monospace\">de</span>",
		"response": " ",
		"trial": "exp-sent",
		"word": "de",
		"trial_type": "html-keyboard-response",
		"trial_index": 325,
		"time_elapsed": 667630,
		"internal_node_id": "0.0-3.0-1.264"
	},
	{
		"rt": 3541,
		"stimulus": "<span style=\"font-size:30px; font-family: monospace\">sequestro</span>",
		"response": " ",
		"trial": "exp-sent",
		"word": "sequestro",
		"trial_type": "html-keyboard-response",
		"trial_index": 326,
		"time_elapsed": 671423,
		"internal_node_id": "0.0-3.0-1.265"
	},
	{
		"rt": 4067,
		"stimulus": "<span style=\"font-size:30px; font-family: monospace\">premeditado.</span>",
		"response": " ",
		"trial": "comp",
		"word": "premeditado.",
		"trial_type": "html-keyboard-response",
		"trial_index": 327,
		"time_elapsed": 675742,
		"internal_node_id": "0.0-3.0-1.266"
	},
	{
		"rt": 9237,
		"stimulus": "<span style=\"font-size:30px; font-family: monospace\">Aquele era um caso real de roubo?</span>",
		"response": "n",
		"question": "Aquele era um caso real de roubo?",
		"answer": "não",
		"trial": "comp",
		"trial_type": "html-keyboard-response",
		"trial_index": 328,
		"time_elapsed": 685230,
		"internal_node_id": "0.0-3.0-2.266-0.266",
		"accuracy": false
	},
	{
		"rt": null,
		"stimulus": "<span style= \"font-size:30px; font-family: monospace\">+</span>",
		"response": null,
		"trial_part": "fixation",
		"trial_type": "html-keyboard-response",
		"trial_index": 329,
		"time_elapsed": 686733,
		"internal_node_id": "0.0-3.0-0.267-0.267"
	},
	{
		"rt": 1159,
		"stimulus": "<span style=\"font-size:30px; font-family: monospace\">Ele</span>",
		"response": " ",
		"trial": "exp-sent",
		"word": "Ele",
		"trial_type": "html-keyboard-response",
		"trial_index": 330,
		"time_elapsed": 688142,
		"internal_node_id": "0.0-3.0-1.267"
	},
	{
		"rt": 725,
		"stimulus": "<span style=\"font-size:30px; font-family: monospace\">é</span>",
		"response": " ",
		"trial": "exp-sent",
		"word": "é",
		"trial_type": "html-keyboard-response",
		"trial_index": 331,
		"time_elapsed": 689118,
		"internal_node_id": "0.0-3.0-1.268"
	},
	{
		"rt": 132,
		"stimulus": "<span style=\"font-size:30px; font-family: monospace\">um</span>",
		"response": " ",
		"trial": "exp-sent",
		"word": "um",
		"trial_type": "html-keyboard-response",
		"trial_index": 332,
		"time_elapsed": 689502,
		"internal_node_id": "0.0-3.0-1.269"
	},
	{
		"rt": 853,
		"stimulus": "<span style=\"font-size:30px; font-family: monospace\">pai</span>",
		"response": " ",
		"trial": "exp-sent",
		"word": "pai",
		"trial_type": "html-keyboard-response",
		"trial_index": 333,
		"time_elapsed": 690607,
		"internal_node_id": "0.0-3.0-1.270"
	},
	{
		"rt": 2581,
		"stimulus": "<span style=\"font-size:30px; font-family: monospace\">ausente</span>",
		"response": " ",
		"trial": "exp-sent",
		"word": "ausente",
		"trial_type": "html-keyboard-response",
		"trial_index": 334,
		"time_elapsed": 693438,
		"internal_node_id": "0.0-3.0-1.271"
	},
	{
		"rt": 549,
		"stimulus": "<span style=\"font-size:30px; font-family: monospace\">e</span>",
		"response": " ",
		"trial": "exp-sent",
		"word": "e",
		"trial_type": "html-keyboard-response",
		"trial_index": 335,
		"time_elapsed": 694238,
		"internal_node_id": "0.0-3.0-1.272"
	},
	{
		"rt": 1077,
		"stimulus": "<span style=\"font-size:30px; font-family: monospace\">muito</span>",
		"response": " ",
		"trial": "exp-sent",
		"word": "muito",
		"trial_type": "html-keyboard-response",
		"trial_index": 336,
		"time_elapsed": 695567,
		"internal_node_id": "0.0-3.0-1.273"
	},
	{
		"rt": 8901,
		"stimulus": "<span style=\"font-size:30px; font-family: monospace\">fofoqueiro.</span>",
		"response": " ",
		"trial": "exp-sent",
		"word": "fofoqueiro.",
		"trial_type": "html-keyboard-response",
		"trial_index": 337,
		"time_elapsed": 704718,
		"internal_node_id": "0.0-3.0-1.274"
	},
	{
		"rt": null,
		"stimulus": "<span style= \"font-size:30px; font-family: monospace\">+</span>",
		"response": null,
		"trial_part": "fixation",
		"trial_type": "html-keyboard-response",
		"trial_index": 338,
		"time_elapsed": 705971,
		"internal_node_id": "0.0-3.0-0.275-0.275"
	},
	{
		"rt": 1808,
		"stimulus": "<span style=\"font-size:30px; font-family: monospace\">O</span>",
		"response": " ",
		"trial": "exp-sent",
		"word": "O",
		"trial_type": "html-keyboard-response",
		"trial_index": 339,
		"time_elapsed": 708030,
		"internal_node_id": "0.0-3.0-1.275"
	},
	{
		"rt": 1333,
