"view_history","rt","trial_type","trial_index","time_elapsed","internal_node_id","stimulus","response","trial_part","trial","word","question","answer","accuracy"
"[{""page_index"":0,""viewing_time"":2543},{""page_index"":1,""viewing_time"":18248}]","20792","instructions","0","20793","0.0-0.0","","","","","","","",""
"","null","html-keyboard-response","1","21920","0.0-1.0-0.0-0.0","<span style= ""font-size:30px; font-family: monospace"">+</span>","null","fixation","","","","",""
"","2673","html-keyboard-response","2","24849","0.0-1.0-1.0","<span style=""font-size:30px; font-family: monospace"">O</span>"," ","","prac-sent","O","","",""
"","12034","html-keyboard-response","3","37136","0.0-1.0-1.1","<span style=""font-size:30px; font-family: monospace"">dia</span>"," ","","prac-sent","dia","","",""
"","2566","html-keyboard-response","4","39952","0.0-1.0-1.2","<span style=""font-size:30px; font-family: monospace"">estará</span>"," ","","prac-sent","estará","","",""
"","2325","html-keyboard-response","5","42528","0.0-1.0-1.3","<span style=""font-size:30px; font-family: monospace"">cheio</span>"," ","","prac-sent","cheio","","",""
"","2037","html-keyboard-response","6","44816","0.0-1.0-1.4","<span style=""font-size:30px; font-family: monospace"">de</span>"," ","","prac-sent","de","","",""
"","1541","html-keyboard-response","7","46608","0.0-1.0-1.5","<span style=""font-size:30px; font-family: monospace"">nuvens</span>"," ","","prac-sent","nuvens","","",""
"","1701","html-keyboard-response","8","48560","0.0-1.0-1.6","<span style=""font-size:30px; font-family: monospace"">hoje.</span>"," ","","prac-sent","hoje.","","",""
"","null","html-keyboard-response","9","49811","0.0-1.0-0.7-0.7","<span style= ""font-size:30px; font-family: monospace"">+</span>","null","fixation","","","","",""
"","1265","html-keyboard-response","10","51328","0.0-1.0-1.7","<span style=""font-size:30px; font-family: monospace"">A</span>"," ","","prac-sent","A","","",""
"","5141","html-keyboard-response","11","56720","0.0-1.0-1.8","<span style=""font-size:30px; font-family: monospace"">caneca</span>"," ","","prac-sent","caneca","","",""
"","1829","html-keyboard-response","12","58800","0.0-1.0-1.9","<span style=""font-size:30px; font-family: monospace"">colorida</span>"," ","","prac-sent","colorida","","",""
"","1669","html-keyboard-response","13","60720","0.0-1.0-1.10","<span style=""font-size:30px; font-family: monospace"">caiu</span>"," ","","prac-sent","caiu","","",""
"","757","html-keyboard-response","14","61728","0.0-1.0-1.11","<span style=""font-size:30px; font-family: monospace"">da</span>"," ","","prac-sent","da","","",""
"","916","html-keyboard-response","15","62896","0.0-1.0-1.12","<span style=""font-size:30px; font-family: monospace"">mesa</span>"," ","","prac-sent","mesa","","",""
"","710","html-keyboard-response","16","63856","0.0-1.0-1.13","<span style=""font-size:30px; font-family: monospace"">de</span>"," ","","prac-sent","de","","",""
"","1349","html-keyboard-response","17","65456","0.0-1.0-1.14","<span style=""font-size:30px; font-family: monospace"">jantar.</span>"," ","","prac-comp","jantar.","","",""
"","14677","html-keyboard-response","18","80384","0.0-1.0-2.14-0.14","<span style=""font-size:30px; font-family: monospace"">A caneca permaneceu na mesa?</span>","n","","prac-comp","","A caneca permaneceu na mesa?","não","false"
"[{""page_index"":0,""viewing_time"":6558}]","6558","instructions","19","87448","0.0-2.0","","","","","","","",""
"","null","html-keyboard-response","20","88550","0.0-3.0-0.0-0.0","<span style= ""font-size:30px; font-family: monospace"">+</span>","null","fixation","","","","",""
"","174","html-keyboard-response","21","88976","0.0-3.0-1.0","<span style=""font-size:30px; font-family: monospace"">O</span>"," ","","exp-sent","O","","",""
"","6438","html-keyboard-response","22","95664","0.0-3.0-1.1","<span style=""font-size:30px; font-family: monospace"">travesseiro</span>"," ","","exp-sent","travesseiro","","",""
"","996","html-keyboard-response","23","96912","0.0-3.0-1.2","<span style=""font-size:30px; font-family: monospace"">era</span>"," ","","exp-sent","era","","",""
"","837","html-keyboard-response","24","98000","0.0-3.0-1.3","<span style=""font-size:30px; font-family: monospace"">muito</span>"," ","","exp-sent","muito","","",""
"","1541","html-keyboard-response","25","99792","0.0-3.0-1.4","<span style=""font-size:30px; font-family: monospace"">macio</span>"," ","","exp-sent","macio","","",""
"","709","html-keyboard-response","26","100752","0.0-3.0-1.5","<span style=""font-size:30px; font-family: monospace"">e</span>"," ","","exp-sent","e","","",""
"","3300","html-keyboard-response","27","104304","0.0-3.0-1.6","<span style=""font-size:30px; font-family: monospace"">confortável.</span>"," ","","exp-sent","confortável.","","",""
"","null","html-keyboard-response","28","105556","0.0-3.0-0.7-0.7","<span style= ""font-size:30px; font-family: monospace"">+</span>","null","fixation","","","","",""
"","1121","html-keyboard-response","29","106928","0.0-3.0-1.7","<span style=""font-size:30px; font-family: monospace"">Hoje</span>"," ","","exp-sent","Hoje","","",""
"","756","html-keyboard-response","30","107935","0.0-3.0-1.8","<span style=""font-size:30px; font-family: monospace"">a</span>"," ","","exp-sent","a","","",""
"","1094","html-keyboard-response","31","109280","0.0-3.0-1.9","<span style=""font-size:30px; font-family: monospace"">atendente</span>"," ","","exp-sent","atendente","","",""
"","1236","html-keyboard-response","32","110768","0.0-3.0-1.10","<span style=""font-size:30px; font-family: monospace"">estava</span>"," ","","exp-sent","estava","","",""
"","2869","html-keyboard-response","33","113888","0.0-3.0-1.11","<span style=""font-size:30px; font-family: monospace"">furiosa</span>"," ","","exp-sent","furiosa","","",""
"","757","html-keyboard-response","34","114896","0.0-3.0-1.12","<span style=""font-size:30px; font-family: monospace"">com</span>"," ","","exp-sent","com","","",""
"","694","html-keyboard-response","35","115840","0.0-3.0-1.13","<span style=""font-size:30px; font-family: monospace"">o</span>"," ","","exp-sent","o","","",""
"","1029","html-keyboard-response","36","117120","0.0-3.0-1.14","<span style=""font-size:30px; font-family: monospace"">cliente.</span>"," ","","exp-sent","cliente.","","",""
"","null","html-keyboard-response","37","118372","0.0-3.0-0.15-0.15","<span style= ""font-size:30px; font-family: monospace"">+</span>","null","fixation","","","","",""
"","497","html-keyboard-response","38","119120","0.0-3.0-1.15","<span style=""font-size:30px; font-family: monospace"">O</span>"," ","","exp-sent","O","","",""
"","1573","html-keyboard-response","39","120944","0.0-3.0-1.16","<span style=""font-size:30px; font-family: monospace"">vizinho</span>"," ","","exp-sent","vizinho","","",""
"","581","html-keyboard-response","40","121776","0.0-3.0-1.17","<span style=""font-size:30px; font-family: monospace"">é</span>"," ","","exp-sent","é","","",""
"","726","html-keyboard-response","41","122752","0.0-3.0-1.18","<span style=""font-size:30px; font-family: monospace"">um</span>"," ","","exp-sent","um","","",""
"","4352","html-keyboard-response","42","127360","0.0-3.0-1.19","<span style=""font-size:30px; font-family: monospace"">arquiteto</span>"," ","","exp-sent","arquiteto","","",""
"","821","html-keyboard-response","43","128432","0.0-3.0-1.20","<span style=""font-size:30px; font-family: monospace"">muito</span>"," ","","exp-sent","muito","","",""
"","2581","html-keyboard-response","44","131264","0.0-3.0-1.21","<span style=""font-size:30px; font-family: monospace"">excêntrico.</span>"," ","","exp-sent","excêntrico.","","",""
"","null","html-keyboard-response","45","132518","0.0-3.0-0.22-0.22","<span style= ""font-size:30px; font-family: monospace"">+</span>","null","fixation","","","","",""
"","511","html-keyboard-response","46","133280","0.0-3.0-1.22","<span style=""font-size:30px; font-family: monospace"">A</span>"," ","","exp-sent","A","","",""
"","694","html-keyboard-response","47","134224","0.0-3.0-1.23","<span style=""font-size:30px; font-family: monospace"">nossa</span>"," ","","exp-sent","nossa","","",""
"","805","html-keyboard-response","48","135280","0.0-3.0-1.24","<span style=""font-size:30px; font-family: monospace"">colega</span>"," ","","exp-sent","colega","","",""
"","709","html-keyboard-response","49","136239","0.0-3.0-1.25","<span style=""font-size:30px; font-family: monospace"">foi</span>"," ","","exp-sent","foi","","",""
"","683","html-keyboard-response","50","137184","0.0-3.0-1.26","<span style=""font-size:30px; font-family: monospace"">má</span>"," ","","exp-sent","má","","",""
"","709","html-keyboard-response","51","138144","0.0-3.0-1.27","<span style=""font-size:30px; font-family: monospace"">com</span>"," ","","exp-sent","com","","",""
"","709","html-keyboard-response","52","139104","0.0-3.0-1.28","<span style=""font-size:30px; font-family: monospace"">as</span>"," ","","exp-sent","as","","",""
"","1077","html-keyboard-response","53","140432","0.0-3.0-1.29","<span style=""font-size:30px; font-family: monospace"">crianças.</span>"," ","","exp-sent","crianças.","","",""
"","null","html-keyboard-response","54","141684","0.0-3.0-0.30-0.30","<span style= ""font-size:30px; font-family: monospace"">+</span>","null","fixation","","","","",""
"","656","html-keyboard-response","55","142592","0.0-3.0-1.30","<span style=""font-size:30px; font-family: monospace"">Virtudes</span>"," ","","exp-sent","Virtudes","","",""
"","693","html-keyboard-response","56","143536","0.0-3.0-1.31","<span style=""font-size:30px; font-family: monospace"">não</span>"," ","","exp-sent","não","","",""
"","981","html-keyboard-response","57","144768","0.0-3.0-1.32","<span style=""font-size:30px; font-family: monospace"">são</span>"," ","","exp-sent","são","","",""
"","2949","html-keyboard-response","58","147968","0.0-3.0-1.33","<span style=""font-size:30px; font-family: monospace"">preguiça,</span>"," ","","exp-sent","preguiça,","","",""
"","1573","html-keyboard-response","59","149792","0.0-3.0-1.34","<span style=""font-size:30px; font-family: monospace"">gula</span>"," ","","exp-sent","gula","","",""
"","485","html-keyboard-response","60","150528","0.0-3.0-1.35","<span style=""font-size:30px; font-family: monospace"">nem</span>"," ","","exp-sent","nem","","",""
"","949","html-keyboard-response","61","151728","0.0-3.0-1.36","<span style=""font-size:30px; font-family: monospace"">ganância.</span>"," ","","comp","ganância.","","",""
"","10182","html-keyboard-response","62","162160","0.0-3.0-2.36-0.36","<span style=""font-size:30px; font-family: monospace"">Preguiça é uma virtude?</span>","n","","comp","","Preguiça é uma virtude?","não","false"
"","null","html-keyboard-response","63","163662","0.0-3.0-0.37-0.37","<span style= ""font-size:30px; font-family: monospace"">+</span>","null","fixation","","","","",""
"","3302","html-keyboard-response","64","167215","0.0-3.0-1.37","<span style=""font-size:30px; font-family: monospace"">Ursos</span>"," ","","exp-sent","Ursos","","",""
"","853","html-keyboard-response","65","168320","0.0-3.0-1.38","<span style=""font-size:30px; font-family: monospace"">têm</span>"," ","","exp-sent","têm","","",""
"","708","html-keyboard-response","66","169280","0.0-3.0-1.39","<span style=""font-size:30px; font-family: monospace"">uma</span>"," ","","exp-sent","uma","","",""
"","1476","html-keyboard-response","67","171007","0.0-3.0-1.40","<span style=""font-size:30px; font-family: monospace"">patada</span>"," ","","exp-sent","patada","","",""
"","1045","html-keyboard-response","68","172304","0.0-3.0-1.41","<span style=""font-size:30px; font-family: monospace"">brutal</span>"," ","","exp-sent","brutal","","",""
"","1093","html-keyboard-response","69","173647","0.0-3.0-1.42","<span style=""font-size:30px; font-family: monospace"">e</span>"," ","","exp-sent","e","","",""
"","4676","html-keyboard-response","70","178575","0.0-3.0-1.43","<span style=""font-size:30px; font-family: monospace"">poderosa.</span>"," ","","exp-sent","poderosa.","","",""
"","null","html-keyboard-response","71","179844","0.0-3.0-0.44-0.44","<span style= ""font-size:30px; font-family: monospace"">+</span>","null","fixation","","","","",""
"","720","html-keyboard-response","72","180815","0.0-3.0-1.44","<span style=""font-size:30px; font-family: monospace"">Eu</span>"," ","","exp-sent","Eu","","",""
"","965","html-keyboard-response","73","182031","0.0-3.0-1.45","<span style=""font-size:30px; font-family: monospace"">fiz</span>"," ","","exp-sent","fiz","","",""
"","1557","html-keyboard-response","74","183840","0.0-3.0-1.46","<span style=""font-size:30px; font-family: monospace"">aulas</span>"," ","","exp-sent","aulas","","",""
"","1109","html-keyboard-response","75","185199","0.0-3.0-1.47","<span style=""font-size:30px; font-family: monospace"">de</span>"," ","","exp-sent","de","","",""
"","1413","html-keyboard-response","76","186863","0.0-3.0-1.48","<span style=""font-size:30px; font-family: monospace"">espanhol</span>"," ","","exp-sent","espanhol","","",""
"","965","html-keyboard-response","77","188080","0.0-3.0-1.49","<span style=""font-size:30px; font-family: monospace"">nesta</span>"," ","","exp-sent","nesta","","",""
"","1333","html-keyboard-response","78","189664","0.0-3.0-1.50","<span style=""font-size:30px; font-family: monospace"">cidade.</span>"," ","","exp-sent","cidade.","","",""
"","null","html-keyboard-response","79","190927","0.0-3.0-0.51-0.51","<span style= ""font-size:30px; font-family: monospace"">+</span>","null","fixation","","","","",""
"","933","html-keyboard-response","80","192111","0.0-3.0-1.51","<span style=""font-size:30px; font-family: monospace"">Ele</span>"," ","","exp-sent","Ele","","",""
"","9371","html-keyboard-response","81","201744","0.0-3.0-1.52","<span style=""font-size:30px; font-family: monospace"">comprou</span>"," ","","exp-sent","comprou","","",""
"","773","html-keyboard-response","82","202767","0.0-3.0-1.53","<span style=""font-size:30px; font-family: monospace"">mais</span>"," ","","exp-sent","mais","","",""
"","661","html-keyboard-response","83","203679","0.0-3.0-1.54","<span style=""font-size:30px; font-family: monospace"">uma</span>"," ","","exp-sent","uma","","",""
"","1813","html-keyboard-response","84","205743","0.0-3.0-1.55","<span style=""font-size:30px; font-family: monospace"">esponja</span>"," ","","exp-sent","esponja","","",""
"","997","html-keyboard-response","85","206991","0.0-3.0-1.56","<span style=""font-size:30px; font-family: monospace"">para</span>"," ","","exp-sent","para","","",""
"","613","html-keyboard-response","86","207855","0.0-3.0-1.57","<span style=""font-size:30px; font-family: monospace"">a</span>"," ","","exp-sent","a","","",""
"","2197","html-keyboard-response","87","210303","0.0-3.0-1.58","<span style=""font-size:30px; font-family: monospace"">cozinha.</span>"," ","","exp-sent","cozinha.","","",""
"","null","html-keyboard-response","88","211556","0.0-3.0-0.59-0.59","<span style= ""font-size:30px; font-family: monospace"">+</span>","null","fixation","","","","",""
"","32","html-keyboard-response","89","211840","0.0-3.0-1.59","<span style=""font-size:30px; font-family: monospace"">Ele</span>"," ","","exp-sent","Ele","","",""
"","1413","html-keyboard-response","90","213503","0.0-3.0-1.60","<span style=""font-size:30px; font-family: monospace"">teve</span>"," ","","exp-sent","teve","","",""
"","789","html-keyboard-response","91","214543","0.0-3.0-1.61","<span style=""font-size:30px; font-family: monospace"">um</span>"," ","","exp-sent","um","","",""
"","900","html-keyboard-response","92","215696","0.0-3.0-1.62","<span style=""font-size:30px; font-family: monospace"">sono</span>"," ","","exp-sent","sono","","",""
"","1429","html-keyboard-response","93","217375","0.0-3.0-1.63","<span style=""font-size:30px; font-family: monospace"">bizarro</span>"," ","","exp-sent","bizarro","","",""
"","1317","html-keyboard-response","94","218943","0.0-3.0-1.64","<span style=""font-size:30px; font-family: monospace"">sem</span>"," ","","exp-sent","sem","","",""
"","2229","html-keyboard-response","95","221423","0.0-3.0-1.65","<span style=""font-size:30px; font-family: monospace"">nenhum</span>"," ","","exp-sent","nenhum","","",""
"","1141","html-keyboard-response","96","222816","0.0-3.0-1.66","<span style=""font-size:30px; font-family: monospace"">motivo.</span>"," ","","exp-sent","motivo.","","",""
"","null","html-keyboard-response","97","224067","0.0-3.0-0.67-0.67","<span style= ""font-size:30px; font-family: monospace"">+</span>","null","fixation","","","","",""
"","882","html-keyboard-response","98","225199","0.0-3.0-1.67","<span style=""font-size:30px; font-family: monospace"">A</span>"," ","","exp-sent","A","","",""
"","2021","html-keyboard-response","99","227471","0.0-3.0-1.68","<span style=""font-size:30px; font-family: monospace"">moça</span>"," ","","exp-sent","moça","","",""
"","916","html-keyboard-response","100","228639","0.0-3.0-1.69","<span style=""font-size:30px; font-family: monospace"">comprou</span>"," ","","exp-sent","comprou","","",""
"","581","html-keyboard-response","101","229471","0.0-3.0-1.70","<span style=""font-size:30px; font-family: monospace"">um</span>"," ","","exp-sent","um","","",""
"","1349","html-keyboard-response","102","231071","0.0-3.0-1.71","<span style=""font-size:30px; font-family: monospace"">diamante</span>"," ","","exp-sent","diamante","","",""
"","773","html-keyboard-response","103","232095","0.0-3.0-1.72","<span style=""font-size:30px; font-family: monospace"">para</span>"," ","","exp-sent","para","","",""
"","709","html-keyboard-response","104","233056","0.0-3.0-1.73","<span style=""font-size:30px; font-family: monospace"">sua</span>"," ","","exp-sent","sua","","",""
"","836","html-keyboard-response","105","234143","0.0-3.0-1.74","<span style=""font-size:30px; font-family: monospace"">prima.</span>"," ","","comp","prima.","","",""
"","9989","html-keyboard-response","106","244383","0.0-3.0-2.74-0.74","<span style=""font-size:30px; font-family: monospace"">A moça comprou um diamante?</span>","s","","comp","","A moça comprou um diamante?","sim","false"
"","null","html-keyboard-response","107","245885","0.0-3.0-0.75-0.75","<span style= ""font-size:30px; font-family: monospace"">+</span>","null","fixation","","","","",""
"","1992","html-keyboard-response","108","248127","0.0-3.0-1.75","<span style=""font-size:30px; font-family: monospace"">Minha</span>"," ","","exp-sent","Minha","","",""
"","822","html-keyboard-response","109","249199","0.0-3.0-1.76","<span style=""font-size:30px; font-family: monospace"">prima</span>"," ","","exp-sent","prima","","",""
"","1012","html-keyboard-response","110","250463","0.0-3.0-1.77","<span style=""font-size:30px; font-family: monospace"">trocou</span>"," ","","exp-sent","trocou","","",""
"","565","html-keyboard-response","111","251279","0.0-3.0-1.78","<span style=""font-size:30px; font-family: monospace"">a</span>"," ","","exp-sent","a","","",""
"","949","html-keyboard-response","112","252479","0.0-3.0-1.79","<span style=""font-size:30px; font-family: monospace"">tela</span>"," ","","exp-sent","tela","","",""
"","581","html-keyboard-response","113","253311","0.0-3.0-1.80","<span style=""font-size:30px; font-family: monospace"">do</span>"," ","","exp-sent","do","","",""
"","1509","html-keyboard-response","114","255072","0.0-3.0-1.81","<span style=""font-size:30px; font-family: monospace"">celular</span>"," ","","exp-sent","celular","","",""
"","884","html-keyboard-response","115","256207","0.0-3.0-1.82","<span style=""font-size:30px; font-family: monospace"">duas</span>"," ","","exp-sent","duas","","",""
"","772","html-keyboard-response","116","257231","0.0-3.0-1.83","<span style=""font-size:30px; font-family: monospace"">vezes.</span>"," ","","exp-sent","vezes.","","",""
"","null","html-keyboard-response","117","258484","0.0-3.0-0.84-0.84","<span style= ""font-size:30px; font-family: monospace"">+</span>","null","fixation","","","","",""
"","1089","html-keyboard-response","118","259823","0.0-3.0-1.84","<span style=""font-size:30px; font-family: monospace"">Agora</span>"," ","","exp-sent","Agora","","",""
"","709","html-keyboard-response","119","260783","0.0-3.0-1.85","<span style=""font-size:30px; font-family: monospace"">a</span>"," ","","exp-sent","a","","",""
"","1012","html-keyboard-response","120","262047","0.0-3.0-1.86","<span style=""font-size:30px; font-family: monospace"">minha</span>"," ","","exp-sent","minha","","",""
"","1189","html-keyboard-response","121","263487","0.0-3.0-1.87","<span style=""font-size:30px; font-family: monospace"">única</span>"," ","","exp-sent","única","","",""
"","4052","html-keyboard-response","122","267791","0.0-3.0-1.88","<span style=""font-size:30px; font-family: monospace"">preocupação</span>"," ","","exp-sent","preocupação","","",""
"","677","html-keyboard-response","123","268719","0.0-3.0-1.89","<span style=""font-size:30px; font-family: monospace"">é</span>"," ","","exp-sent","é","","",""
"","580","html-keyboard-response","124","269551","0.0-3.0-1.90","<span style=""font-size:30px; font-family: monospace"">um</span>"," ","","exp-sent","um","","",""
"","3477","html-keyboard-response","125","273279","0.0-3.0-1.91","<span style=""font-size:30px; font-family: monospace"">descanso</span>"," ","","exp-sent","descanso","","",""
"","5574","html-keyboard-response","126","279103","0.0-3.0-1.92","<span style=""font-size:30px; font-family: monospace"">tranquilo.</span>"," ","","exp-sent","tranquilo.","","",""
"","null","html-keyboard-response","127","280355","0.0-3.0-0.93-0.93","<span style= ""font-size:30px; font-family: monospace"">+</span>","null","fixation","","","","",""
"","400","html-keyboard-response","128","281007","0.0-3.0-1.93","<span style=""font-size:30px; font-family: monospace"">A</span>"," ","","exp-sent","A","","",""
"","854","html-keyboard-response","129","282111","0.0-3.0-1.94","<span style=""font-size:30px; font-family: monospace"">criança</span>"," ","","exp-sent","criança","","",""
"","1125","html-keyboard-response","130","283487","0.0-3.0-1.95","<span style=""font-size:30px; font-family: monospace"">ganhou</span>"," ","","exp-sent","ganhou","","",""
"","692","html-keyboard-response","131","284431","0.0-3.0-1.96","<span style=""font-size:30px; font-family: monospace"">um</span>"," ","","exp-sent","um","","",""
"","1029","html-keyboard-response","132","285711","0.0-3.0-1.97","<span style=""font-size:30px; font-family: monospace"">presente</span>"," ","","exp-sent","presente","","",""
"","10101","html-keyboard-response","133","296063","0.0-3.0-1.98","<span style=""font-size:30px; font-family: monospace"">maravilhoso.</span>"," ","","exp-sent","maravilhoso.","","",""
"","null","html-keyboard-response","134","297316","0.0-3.0-0.99-0.99","<span style= ""font-size:30px; font-family: monospace"">+</span>","null","fixation","","","","",""
"","832","html-keyboard-response","135","298399","0.0-3.0-1.99","<span style=""font-size:30px; font-family: monospace"">Os</span>"," ","","exp-sent","Os","","",""
"","2580","html-keyboard-response","136","301231","0.0-3.0-1.100","<span style=""font-size:30px; font-family: monospace"">bichos</span>"," ","","exp-sent","bichos","","",""
"","773","html-keyboard-response","137","302255","0.0-3.0-1.101","<span style=""font-size:30px; font-family: monospace"">têm</span>"," ","","exp-sent","têm","","",""
"","1268","html-keyboard-response","138","303775","0.0-3.0-1.102","<span style=""font-size:30px; font-family: monospace"">um</span>"," ","","exp-sent","um","","",""
"","1733","html-keyboard-response","139","305759","0.0-3.0-1.103","<span style=""font-size:30px; font-family: monospace"">instinto</span>"," ","","exp-sent","instinto","","",""
"","757","html-keyboard-response","140","306767","0.0-3.0-1.104","<span style=""font-size:30px; font-family: monospace"">de</span>"," ","","exp-sent","de","","",""
"","1349","html-keyboard-response","141","308367","0.0-3.0-1.105","<span style=""font-size:30px; font-family: monospace"">sobrevivência</span>"," ","","exp-sent","sobrevivência","","",""
"","1029","html-keyboard-response","142","309647","0.0-3.0-1.106","<span style=""font-size:30px; font-family: monospace"">forte.</span>"," ","","exp-sent","forte.","","",""
"","null","html-keyboard-response","143","310907","0.0-3.0-0.107-0.107","<span style= ""font-size:30px; font-family: monospace"">+</span>","null","fixation","","","","",""
"","1817","html-keyboard-response","144","312975","0.0-3.0-1.107","<span style=""font-size:30px; font-family: monospace"">Aquele</span>"," ","","exp-sent","Aquele","","",""
"","2773","html-keyboard-response","145","315999","0.0-3.0-1.108","<span style=""font-size:30px; font-family: monospace"">menino</span>"," ","","exp-sent","menino","","",""
"","1093","html-keyboard-response","146","317343","0.0-3.0-1.109","<span style=""font-size:30px; font-family: monospace"">alto</span>"," ","","exp-sent","alto","","",""
"","628","html-keyboard-response","147","318223","0.0-3.0-1.110","<span style=""font-size:30px; font-family: monospace"">é</span>"," ","","exp-sent","é","","",""
"","2149","html-keyboard-response","148","320623","0.0-3.0-1.111","<span style=""font-size:30px; font-family: monospace"">exibido</span>"," ","","exp-sent","exibido","","",""
"","628","html-keyboard-response","149","321503","0.0-3.0-1.112","<span style=""font-size:30px; font-family: monospace"">e</span>"," ","","exp-sent","e","","",""
"","2469","html-keyboard-response","150","324223","0.0-3.0-1.113","<span style=""font-size:30px; font-family: monospace"">sovina.</span>"," ","","comp","sovina.","","",""
"","8096","html-keyboard-response","151","332575","0.0-3.0-2.113-0.113","<span style=""font-size:30px; font-family: monospace"">Aquele menino é humilde?</span>","n","","comp","","Aquele menino é humilde?","não","false"
"","null","html-keyboard-response","152","334077","0.0-3.0-0.114-0.114","<span style= ""font-size:30px; font-family: monospace"">+</span>","null","fixation","","","","",""
"","2007","html-keyboard-response","153","336335","0.0-3.0-1.114","<span style=""font-size:30px; font-family: monospace"">O</span>"," ","","exp-sent","O","","",""
"","13141","html-keyboard-response","154","349727","0.0-3.0-1.115","<span style=""font-size:30px; font-family: monospace"">texto</span>"," ","","exp-sent","texto","","",""
"","2149","html-keyboard-response","155","352127","0.0-3.0-1.116","<span style=""font-size:30px; font-family: monospace"">trazia</span>"," ","","exp-sent","trazia","","",""
"","1606","html-keyboard-response","156","353983","0.0-3.0-1.117","<span style=""font-size:30px; font-family: monospace"">um</span>"," ","","exp-sent","um","","",""
"","7509","html-keyboard-response","157","361743","0.0-3.0-1.118","<span style=""font-size:30px; font-family: monospace"">argumento</span>"," ","","exp-sent","argumento","","",""
"","1536","html-keyboard-response","158","363535","0.0-3.0-1.119","<span style=""font-size:30px; font-family: monospace"">central</span>"," ","","exp-sent","central","","",""
"","693","html-keyboard-response","159","364479","0.0-3.0-1.120","<span style=""font-size:30px; font-family: monospace"">para</span>"," ","","exp-sent","para","","",""
"","658","html-keyboard-response","160","365391","0.0-3.0-1.121","<span style=""font-size:30px; font-family: monospace"">a</span>"," ","","exp-sent","a","","",""
"","1013","html-keyboard-response","161","366655","0.0-3.0-1.122","<span style=""font-size:30px; font-family: monospace"">conversa.</span>"," ","","exp-sent","conversa.","","",""
"","null","html-keyboard-response","162","367907","0.0-3.0-0.123-0.123","<span style= ""font-size:30px; font-family: monospace"">+</span>","null","fixation","","","","",""
"","736","html-keyboard-response","163","368895","0.0-3.0-1.123","<span style=""font-size:30px; font-family: monospace"">Ontem</span>"," ","","exp-sent","Ontem","","",""
"","485","html-keyboard-response","164","369631","0.0-3.0-1.124","<span style=""font-size:30px; font-family: monospace"">a</span>"," ","","exp-sent","a","","",""
"","1253","html-keyboard-response","165","371135","0.0-3.0-1.125","<span style=""font-size:30px; font-family: monospace"">temperatura</span>"," ","","exp-sent","temperatura","","",""
"","885","html-keyboard-response","166","372271","0.0-3.0-1.126","<span style=""font-size:30px; font-family: monospace"">estava</span>"," ","","exp-sent","estava","","",""
"","1461","html-keyboard-response","167","373983","0.0-3.0-1.127","<span style=""font-size:30px; font-family: monospace"">amena</span>"," ","","exp-sent","amena","","",""
"","1429","html-keyboard-response","168","375663","0.0-3.0-1.128","<span style=""font-size:30px; font-family: monospace"">durante</span>"," ","","exp-sent","durante","","",""
"","1173","html-keyboard-response","169","377087","0.0-3.0-1.129","<span style=""font-size:30px; font-family: monospace"">o</span>"," ","","exp-sent","o","","",""
"","1061","html-keyboard-response","170","378399","0.0-3.0-1.130","<span style=""font-size:30px; font-family: monospace"">dia.</span>"," ","","exp-sent","dia.","","",""
"","null","html-keyboard-response","171","379656","0.0-3.0-0.131-0.131","<span style= ""font-size:30px; font-family: monospace"">+</span>","null","fixation","","","","",""
"","2204","html-keyboard-response","172","382111","0.0-3.0-1.131","<span style=""font-size:30px; font-family: monospace"">Havia</span>"," ","","exp-sent","Havia","","",""
"","709","html-keyboard-response","173","383071","0.0-3.0-1.132","<span style=""font-size:30px; font-family: monospace"">um</span>"," ","","exp-sent","um","","",""
"","2661","html-keyboard-response","174","385983","0.0-3.0-1.133","<span style=""font-size:30px; font-family: monospace"">machucado</span>"," ","","exp-sent","machucado","","",""
"","565","html-keyboard-response","175","386799","0.0-3.0-1.134","<span style=""font-size:30px; font-family: monospace"">no</span>"," ","","exp-sent","no","","",""
"","1056","html-keyboard-response","176","388111","0.0-3.0-1.135","<span style=""font-size:30px; font-family: monospace"">dedo</span>"," ","","exp-sent","dedo","","",""
"","1092","html-keyboard-response","177","389455","0.0-3.0-1.136","<span style=""font-size:30px; font-family: monospace"">da</span>"," ","","exp-sent","da","","",""
"","949","html-keyboard-response","178","390655","0.0-3.0-1.137","<span style=""font-size:30px; font-family: monospace"">criança.</span>"," ","","exp-sent","criança.","","",""
"","null","html-keyboard-response","179","391907","0.0-3.0-0.138-0.138","<span style= ""font-size:30px; font-family: monospace"">+</span>","null","fixation","","","","",""
"","625","html-keyboard-response","180","392783","0.0-3.0-1.138","<span style=""font-size:30px; font-family: monospace"">A</span>"," ","","exp-sent","A","","",""
"","5589","html-keyboard-response","181","398623","0.0-3.0-1.139","<span style=""font-size:30px; font-family: monospace"">borboleta</span>"," ","","exp-sent","borboleta","","",""
"","1909","html-keyboard-response","182","400783","0.0-3.0-1.140","<span style=""font-size:30px; font-family: monospace"">pousou</span>"," ","","exp-sent","pousou","","",""
"","644","html-keyboard-response","183","401679","0.0-3.0-1.141","<span style=""font-size:30px; font-family: monospace"">no</span>"," ","","exp-sent","no","","",""
"","1781","html-keyboard-response","184","403711","0.0-3.0-1.142","<span style=""font-size:30px; font-family: monospace"">ombro</span>"," ","","exp-sent","ombro","","",""
"","2244","html-keyboard-response","185","406207","0.0-3.0-1.143","<span style=""font-size:30px; font-family: monospace"">daquela</span>"," ","","exp-sent","daquela","","",""
"","2037","html-keyboard-response","186","408495","0.0-3.0-1.144","<span style=""font-size:30px; font-family: monospace"">moça.</span>"," ","","exp-sent","moça.","","",""
"","null","html-keyboard-response","187","409747","0.0-3.0-0.145-0.145","<span style= ""font-size:30px; font-family: monospace"">+</span>","null","fixation","","","","",""
"","721","html-keyboard-response","188","410719","0.0-3.0-1.145","<span style=""font-size:30px; font-family: monospace"">Eu</span>"," ","","exp-sent","Eu","","",""
"","773","html-keyboard-response","189","411743","0.0-3.0-1.146","<span style=""font-size:30px; font-family: monospace"">quero</span>"," ","","exp-sent","quero","","",""
"","757","html-keyboard-response","190","412751","0.0-3.0-1.147","<span style=""font-size:30px; font-family: monospace"">um</span>"," ","","exp-sent","um","","",""
"","5717","html-keyboard-response","191","418719","0.0-3.0-1.148","<span style=""font-size:30px; font-family: monospace"">namorado</span>"," ","","exp-sent","namorado","","",""
"","1957","html-keyboard-response","192","420927","0.0-3.0-1.149","<span style=""font-size:30px; font-family: monospace"">honesto</span>"," ","","exp-sent","honesto","","",""
"","821","html-keyboard-response","193","421999","0.0-3.0-1.150","<span style=""font-size:30px; font-family: monospace"">e</span>"," ","","exp-sent","e","","",""
"","2485","html-keyboard-response","194","424735","0.0-3.0-1.151","<span style=""font-size:30px; font-family: monospace"">compreensivo.</span>"," ","","comp","compreensivo.","","",""
"","28822","html-keyboard-response","195","453807","0.0-3.0-2.151-0.151","<span style=""font-size:30px; font-family: monospace"">Eu quero um namorado honesto?</span>","s","","comp","","Eu quero um namorado honesto?","sim","false"
"","null","html-keyboard-response","196","455309","0.0-3.0-0.152-0.152","<span style= ""font-size:30px; font-family: monospace"">+</span>","null","fixation","","","","",""
"","1335","html-keyboard-response","197","456895","0.0-3.0-1.152","<span style=""font-size:30px; font-family: monospace"">Barulho</span>"," ","","exp-sent","Barulho","","",""
"","1557","html-keyboard-response","198","458703","0.0-3.0-1.153","<span style=""font-size:30px; font-family: monospace"">de</span>"," ","","exp-sent","de","","",""
"","629","html-keyboard-response","199","459583","0.0-3.0-1.154","<span style=""font-size:30px; font-family: monospace"">carros</span>"," ","","exp-sent","carros","","",""
"","533","html-keyboard-response","200","460367","0.0-3.0-1.155","<span style=""font-size:30px; font-family: monospace"">é</span>"," ","","exp-sent","é","","",""
"","1045","html-keyboard-response","201","461663","0.0-3.0-1.156","<span style=""font-size:30px; font-family: monospace"">irritante</span>"," ","","exp-sent","irritante","","",""
"","565","html-keyboard-response","202","462479","0.0-3.0-1.157","<span style=""font-size:30px; font-family: monospace"">para</span>"," ","","exp-sent","para","","",""
"","452","html-keyboard-response","203","463183","0.0-3.0-1.158","<span style=""font-size:30px; font-family: monospace"">a</span>"," ","","exp-sent","a","","",""
"","372","html-keyboard-response","204","463807","0.0-3.0-1.159","<span style=""font-size:30px; font-family: monospace"">moça.</span>"," ","","exp-sent","moça.","","",""
"","null","html-keyboard-response","205","465072","0.0-3.0-0.160-0.160","<span style= ""font-size:30px; font-family: monospace"">+</span>","null","fixation","","","","",""
"","548","html-keyboard-response","206","465871","0.0-3.0-1.160","<span style=""font-size:30px; font-family: monospace"">A</span>"," ","","exp-sent","A","","",""
"","1125","html-keyboard-response","207","467247","0.0-3.0-1.161","<span style=""font-size:30px; font-family: monospace"">loja</span>"," ","","exp-sent","loja","","",""
"","997","html-keyboard-response","208","468495","0.0-3.0-1.162","<span style=""font-size:30px; font-family: monospace"">também</span>"," ","","exp-sent","também","","",""
"","757","html-keyboard-response","209","469503","0.0-3.0-1.163","<span style=""font-size:30px; font-family: monospace"">vende</span>"," ","","exp-sent","vende","","",""
"","932","html-keyboard-response","210","470687","0.0-3.0-1.164","<span style=""font-size:30px; font-family: monospace"">taça</span>"," ","","exp-sent","taça","","",""
"","1413","html-keyboard-response","211","472351","0.0-3.0-1.165","<span style=""font-size:30px; font-family: monospace"">de</span>"," ","","exp-sent","de","","",""
"","916","html-keyboard-response","212","473519","0.0-3.0-1.166","<span style=""font-size:30px; font-family: monospace"">vinho</span>"," ","","exp-sent","vinho","","",""
"","725","html-keyboard-response","213","474495","0.0-3.0-1.167","<span style=""font-size:30px; font-family: monospace"">e</span>"," ","","exp-sent","e","","",""
"","2901","html-keyboard-response","214","477647","0.0-3.0-1.168","<span style=""font-size:30px; font-family: monospace"">espumante.</span>"," ","","exp-sent","espumante.","","",""
"","null","html-keyboard-response","215","478900","0.0-3.0-0.169-0.169","<span style= ""font-size:30px; font-family: monospace"">+</span>","null","fixation","","","","",""
"","607","html-keyboard-response","216","479759","0.0-3.0-1.169","<span style=""font-size:30px; font-family: monospace"">A</span>"," ","","exp-sent","A","","",""
"","1237","html-keyboard-response","217","481247","0.0-3.0-1.170","<span style=""font-size:30px; font-family: monospace"">bruxa</span>"," ","","exp-sent","bruxa","","",""
"","868","html-keyboard-response","218","482366","0.0-3.0-1.171","<span style=""font-size:30px; font-family: monospace"">tinha</span>"," ","","exp-sent","tinha","","",""
"","629","html-keyboard-response","219","483247","0.0-3.0-1.172","<span style=""font-size:30px; font-family: monospace"">uma</span>"," ","","exp-sent","uma","","",""
"","3524","html-keyboard-response","220","487023","0.0-3.0-1.173","<span style=""font-size:30px; font-family: monospace"">vassoura</span>"," ","","exp-sent","vassoura","","",""
"","741","html-keyboard-response","221","488015","0.0-3.0-1.174","<span style=""font-size:30px; font-family: monospace"">e</span>"," ","","exp-sent","e","","",""
"","629","html-keyboard-response","222","488895","0.0-3.0-1.175","<span style=""font-size:30px; font-family: monospace"">um</span>"," ","","exp-sent","um","","",""
"","1558","html-keyboard-response","223","490703","0.0-3.0-1.176","<span style=""font-size:30px; font-family: monospace"">gato.</span>"," ","","exp-sent","gato.","","",""
"","null","html-keyboard-response","224","491955","0.0-3.0-0.177-0.177","<span style= ""font-size:30px; font-family: monospace"">+</span>","null","fixation","","","","",""
"","768","html-keyboard-response","225","492975","0.0-3.0-1.177","<span style=""font-size:30px; font-family: monospace"">Eu</span>"," ","","exp-sent","Eu","","",""
"","1269","html-keyboard-response","226","494495","0.0-3.0-1.178","<span style=""font-size:30px; font-family: monospace"">me</span>"," ","","exp-sent","me","","",""
"","2068","html-keyboard-response","227","496814","0.0-3.0-1.179","<span style=""font-size:30px; font-family: monospace"">divirto</span>"," ","","exp-sent","divirto","","",""
"","998","html-keyboard-response","228","498063","0.0-3.0-1.180","<span style=""font-size:30px; font-family: monospace"">em</span>"," ","","exp-sent","em","","",""
"","1429","html-keyboard-response","229","499743","0.0-3.0-1.181","<span style=""font-size:30px; font-family: monospace"">festas</span>"," ","","exp-sent","festas","","",""
"","965","html-keyboard-response","230","500959","0.0-3.0-1.182","<span style=""font-size:30px; font-family: monospace"">de</span>"," ","","exp-sent","de","","",""
"","939","html-keyboard-response","231","502159","0.0-3.0-1.183","<span style=""font-size:30px; font-family: monospace"">criança.</span>"," ","","exp-sent","criança.","","",""
"","null","html-keyboard-response","232","503411","0.0-3.0-0.184-0.184","<span style= ""font-size:30px; font-family: monospace"">+</span>","null","fixation","","","","",""
"","967","html-keyboard-response","233","504638","0.0-3.0-1.184","<span style=""font-size:30px; font-family: monospace"">A</span>"," ","","exp-sent","A","","",""
"","2037","html-keyboard-response","234","506927","0.0-3.0-1.185","<span style=""font-size:30px; font-family: monospace"">janela</span>"," ","","exp-sent","janela","","",""
"","1429","html-keyboard-response","235","508607","0.0-3.0-1.186","<span style=""font-size:30px; font-family: monospace"">alta</span>"," ","","exp-sent","alta","","",""
"","1189","html-keyboard-response","236","510047","0.0-3.0-1.187","<span style=""font-size:30px; font-family: monospace"">estava</span>"," ","","exp-sent","estava","","",""
"","2565","html-keyboard-response","237","512863","0.0-3.0-1.188","<span style=""font-size:30px; font-family: monospace"">quebrada</span>"," ","","exp-sent","quebrada","","",""
"","1189","html-keyboard-response","238","514303","0.0-3.0-1.189","<span style=""font-size:30px; font-family: monospace"">desde</span>"," ","","exp-sent","desde","","",""
"","1109","html-keyboard-response","239","515663","0.0-3.0-1.190","<span style=""font-size:30px; font-family: monospace"">ontem.</span>"," ","","comp","ontem.","","",""
"","17541","html-keyboard-response","240","533455","0.0-3.0-2.190-0.190","<span style=""font-size:30px; font-family: monospace"">A janela alta estava quebrada?</span>","s","","comp","","A janela alta estava quebrada?","sim","false"
"","null","html-keyboard-response","241","534958","0.0-3.0-0.191-0.191","<span style= ""font-size:30px; font-family: monospace"">+</span>","null","fixation","","","","",""
"","4262","html-keyboard-response","242","539471","0.0-3.0-1.191","<span style=""font-size:30px; font-family: monospace"">A</span>"," ","","exp-sent","A","","",""
"","1445","html-keyboard-response","243","541167","0.0-3.0-1.192","<span style=""font-size:30px; font-family: monospace"">motorista</span>"," ","","exp-sent","motorista","","",""
"","997","html-keyboard-response","244","542414","0.0-3.0-1.193","<span style=""font-size:30px; font-family: monospace"">fez</span>"," ","","exp-sent","fez","","",""
"","1108","html-keyboard-response","245","543775","0.0-3.0-1.194","<span style=""font-size:30px; font-family: monospace"">o</span>"," ","","exp-sent","o","","",""
"","1269","html-keyboard-response","246","545295","0.0-3.0-1.195","<span style=""font-size:30px; font-family: monospace"">retorno</span>"," ","","exp-sent","retorno","","",""
"","835","html-keyboard-response","247","546383","0.0-3.0-1.196","<span style=""font-size:30px; font-family: monospace"">com</span>"," ","","exp-sent","com","","",""
"","1845","html-keyboard-response","248","548479","0.0-3.0-1.197","<span style=""font-size:30px; font-family: monospace"">cuidado.</span>"," ","","exp-sent","cuidado.","","",""
"","null","html-keyboard-response","249","549730","0.0-3.0-0.198-0.198","<span style= ""font-size:30px; font-family: monospace"">+</span>","null","fixation","","","","",""
"","2369","html-keyboard-response","250","552351","0.0-3.0-1.198","<span style=""font-size:30px; font-family: monospace"">Contos</span>"," ","","exp-sent","Contos","","",""
"","756","html-keyboard-response","251","553359","0.0-3.0-1.199","<span style=""font-size:30px; font-family: monospace"">de</span>"," ","","exp-sent","de","","",""
"","981","html-keyboard-response","252","554591","0.0-3.0-1.200","<span style=""font-size:30px; font-family: monospace"">ação</span>"," ","","exp-sent","ação","","",""
"","821","html-keyboard-response","253","555663","0.0-3.0-1.201","<span style=""font-size:30px; font-family: monospace"">têm</span>"," ","","exp-sent","têm","","",""
"","1077","html-keyboard-response","254","556990","0.0-3.0-1.202","<span style=""font-size:30px; font-family: monospace"">chantagem</span>"," ","","exp-sent","chantagem","","",""
"","581","html-keyboard-response","255","557823","0.0-3.0-1.203","<span style=""font-size:30px; font-family: monospace"">e</span>"," ","","exp-sent","e","","",""
"","869","html-keyboard-response","256","558942","0.0-3.0-1.204","<span style=""font-size:30px; font-family: monospace"">muita</span>"," ","","exp-sent","muita","","",""
"","1957","html-keyboard-response","257","561151","0.0-3.0-1.205","<span style=""font-size:30px; font-family: monospace"">luta.</span>"," ","","exp-sent","luta.","","",""
"","null","html-keyboard-response","258","562402","0.0-3.0-0.206-0.206","<span style= ""font-size:30px; font-family: monospace"">+</span>","null","fixation","","","","",""
"","507","html-keyboard-response","259","563167","0.0-3.0-1.206","<span style=""font-size:30px; font-family: monospace"">A</span>"," ","","exp-sent","A","","",""
"","2453","html-keyboard-response","260","565871","0.0-3.0-1.207","<span style=""font-size:30px; font-family: monospace"">bisavó</span>"," ","","exp-sent","bisavó","","",""
"","1349","html-keyboard-response","261","567470","0.0-3.0-1.208","<span style=""font-size:30px; font-family: monospace"">recebeu</span>"," ","","exp-sent","recebeu","","",""
"","677","html-keyboard-response","262","568398","0.0-3.0-1.209","<span style=""font-size:30px; font-family: monospace"">um</span>"," ","","exp-sent","um","","",""
"","1221","html-keyboard-response","263","569870","0.0-3.0-1.210","<span style=""font-size:30px; font-family: monospace"">benefício</span>"," ","","exp-sent","benefício","","",""
"","2004","html-keyboard-response","264","572127","0.0-3.0-1.211","<span style=""font-size:30px; font-family: monospace"">temporário</span>"," ","","exp-sent","temporário","","",""
"","997","html-keyboard-response","265","573374","0.0-3.0-1.212","<span style=""font-size:30px; font-family: monospace"">do</span>"," ","","exp-sent","do","","",""
"","1205","html-keyboard-response","266","574831","0.0-3.0-1.213","<span style=""font-size:30px; font-family: monospace"">governo.</span>"," ","","exp-sent","governo.","","",""
"","null","html-keyboard-response","267","576082","0.0-3.0-0.214-0.214","<span style= ""font-size:30px; font-family: monospace"">+</span>","null","fixation","","","","",""
"","1041","html-keyboard-response","268","577374","0.0-3.0-1.214","<span style=""font-size:30px; font-family: monospace"">As</span>"," ","","exp-sent","As","","",""
"","997","html-keyboard-response","269","578623","0.0-3.0-1.215","<span style=""font-size:30px; font-family: monospace"">crianças</span>"," ","","exp-sent","crianças","","",""
"","6709","html-keyboard-response","270","585583","0.0-3.0-1.216","<span style=""font-size:30px; font-family: monospace"">brincaram</span>"," ","","exp-sent","brincaram","","",""
"","870","html-keyboard-response","271","586703","0.0-3.0-1.217","<span style=""font-size:30px; font-family: monospace"">no</span>"," ","","exp-sent","no","","",""
"","1317","html-keyboard-response","272","588271","0.0-3.0-1.218","<span style=""font-size:30px; font-family: monospace"">balanço</span>"," ","","exp-sent","balanço","","",""
"","709","html-keyboard-response","273","589230","0.0-3.0-1.219","<span style=""font-size:30px; font-family: monospace"">a</span>"," ","","exp-sent","a","","",""
"","1253","html-keyboard-response","274","590734","0.0-3.0-1.220","<span style=""font-size:30px; font-family: monospace"">tarde</span>"," ","","exp-sent","tarde","","",""
"","2053","html-keyboard-response","275","593038","0.0-3.0-1.221","<span style=""font-size:30px; font-family: monospace"">toda.</span>"," ","","exp-sent","toda.","","",""
"","null","html-keyboard-response","276","594290","0.0-3.0-0.222-0.222","<span style= ""font-size:30px; font-family: monospace"">+</span>","null","fixation","","","","",""
"","1649","html-keyboard-response","277","596190","0.0-3.0-1.222","<span style=""font-size:30px; font-family: monospace"">Ela</span>"," ","","exp-sent","Ela","","",""
"","1365","html-keyboard-response","278","597806","0.0-3.0-1.223","<span style=""font-size:30px; font-family: monospace"">gosta</span>"," ","","exp-sent","gosta","","",""
"","821","html-keyboard-response","279","598879","0.0-3.0-1.224","<span style=""font-size:30px; font-family: monospace"">de</span>"," ","","exp-sent","de","","",""
"","1317","html-keyboard-response","280","600446","0.0-3.0-1.225","<span style=""font-size:30px; font-family: monospace"">comida</span>"," ","","exp-sent","comida","","",""
"","1317","html-keyboard-response","281","602014","0.0-3.0-1.226","<span style=""font-size:30px; font-family: monospace"">natural</span>"," ","","exp-sent","natural","","",""
"","838","html-keyboard-response","282","603103","0.0-3.0-1.227","<span style=""font-size:30px; font-family: monospace"">no</span>"," ","","exp-sent","no","","",""
"","2116","html-keyboard-response","283","605470","0.0-3.0-1.228","<span style=""font-size:30px; font-family: monospace"">almoço.</span>"," ","","comp","almoço.","","",""
"","9172","html-keyboard-response","284","614894","0.0-3.0-2.228-0.228","<span style=""font-size:30px; font-family: monospace"">Ela gosta de comida natural no almoço?</span>","s","","comp","","Ela gosta de comida natural no almoço?","sim","false"
"","null","html-keyboard-response","285","616397","0.0-3.0-0.229-0.229","<span style= ""font-size:30px; font-family: monospace"">+</span>","null","fixation","","","","",""
"","1847","html-keyboard-response","286","618494","0.0-3.0-1.229","<span style=""font-size:30px; font-family: monospace"">Este</span>"," ","","exp-sent","Este","","",""
"","261","html-keyboard-response","287","619006","0.0-3.0-1.230","<span style=""font-size:30px; font-family: monospace"">conto</span>"," ","","exp-sent","conto","","",""
"","69","html-keyboard-response","288","619326","0.0-3.0-1.231","<span style=""font-size:30px; font-family: monospace"">tem</span>"," ","","exp-sent","tem","","",""
"","85","html-keyboard-response","289","619662","0.0-3.0-1.232","<span style=""font-size:30px; font-family: monospace"">um</span>"," ","","exp-sent","um","","",""
"","68","html-keyboard-response","290","619982","0.0-3.0-1.233","<span style=""font-size:30px; font-family: monospace"">final</span>"," ","","exp-sent","final","","",""
"","677","html-keyboard-response","291","620910","0.0-3.0-1.234","<span style=""font-size:30px; font-family: monospace"">perfeito.</span>"," ","","exp-sent","perfeito.","","",""
"","null","html-keyboard-response","292","622162","0.0-3.0-0.235-0.235","<span style= ""font-size:30px; font-family: monospace"">+</span>","null","fixation","","","","",""
"","320","html-keyboard-response","293","622734","0.0-3.0-1.235","<span style=""font-size:30px; font-family: monospace"">Ele</span>"," ","","exp-sent","Ele","","",""
"","597","html-keyboard-response","294","623582","0.0-3.0-1.236","<span style=""font-size:30px; font-family: monospace"">precisa</span>"," ","","exp-sent","precisa","","",""
"","453","html-keyboard-response","295","624286","0.0-3.0-1.237","<span style=""font-size:30px; font-family: monospace"">de</span>"," ","","exp-sent","de","","",""
"","325","html-keyboard-response","296","624863","0.0-3.0-1.238","<span style=""font-size:30px; font-family: monospace"">um</span>"," ","","exp-sent","um","","",""
"","1572","html-keyboard-response","297","626686","0.0-3.0-1.239","<span style=""font-size:30px; font-family: monospace"">protetor</span>"," ","","exp-sent","protetor","","",""
"","517","html-keyboard-response","298","627454","0.0-3.0-1.240","<span style=""font-size:30px; font-family: monospace"">de</span>"," ","","exp-sent","de","","",""
"","917","html-keyboard-response","299","628622","0.0-3.0-1.241","<span style=""font-size:30px; font-family: monospace"">ouvido.</span>"," ","","exp-sent","ouvido.","","",""
"","null","html-keyboard-response","300","629875","0.0-3.0-0.242-0.242","<span style= ""font-size:30px; font-family: monospace"">+</span>","null","fixation","","","","",""
"","352","html-keyboard-response","301","630478","0.0-3.0-1.242","<span style=""font-size:30px; font-family: monospace"">Os</span>"," ","","exp-sent","Os","","",""
"","2822","html-keyboard-response","302","633551","0.0-3.0-1.243","<span style=""font-size:30px; font-family: monospace"">hábitos</span>"," ","","exp-sent","hábitos","","",""
"","565","html-keyboard-response","303","634367","0.0-3.0-1.244","<span style=""font-size:30px; font-family: monospace"">de</span>"," ","","exp-sent","de","","",""
"","1029","html-keyboard-response","304","635646","0.0-3.0-1.245","<span style=""font-size:30px; font-family: monospace"">lugares</span>"," ","","exp-sent","lugares","","",""
"","1092","html-keyboard-response","305","636991","0.0-3.0-1.246","<span style=""font-size:30px; font-family: monospace"">diferentes</span>"," ","","exp-sent","diferentes","","",""
"","981","html-keyboard-response","306","638222","0.0-3.0-1.247","<span style=""font-size:30px; font-family: monospace"">são</span>"," ","","exp-sent","são","","",""
"","1381","html-keyboard-response","307","639854","0.0-3.0-1.248","<span style=""font-size:30px; font-family: monospace"">muito</span>"," ","","exp-sent","muito","","",""
"","1477","html-keyboard-response","308","641582","0.0-3.0-1.249","<span style=""font-size:30px; font-family: monospace"">lindos.</span>"," ","","exp-sent","lindos.","","",""
"","null","html-keyboard-response","309","642835","0.0-3.0-0.250-0.250","<span style= ""font-size:30px; font-family: monospace"">+</span>","null","fixation","","","","",""
"","609","html-keyboard-response","310","643694","0.0-3.0-1.250","<span style=""font-size:30px; font-family: monospace"">O</span>"," ","","exp-sent","O","","",""
"","1349","html-keyboard-response","311","645294","0.0-3.0-1.251","<span style=""font-size:30px; font-family: monospace"">médico</span>"," ","","exp-sent","médico","","",""
"","1604","html-keyboard-response","312","647150","0.0-3.0-1.252","<span style=""font-size:30px; font-family: monospace"">corrigiu</span>"," ","","exp-sent","corrigiu","","",""
"","773","html-keyboard-response","313","648174","0.0-3.0-1.253","<span style=""font-size:30px; font-family: monospace"">a</span>"," ","","exp-sent","a","","",""
"","1494","html-keyboard-response","314","649919","0.0-3.0-1.254","<span style=""font-size:30px; font-family: monospace"">postura</span>"," ","","exp-sent","postura","","",""
"","853","html-keyboard-response","315","651022","0.0-3.0-1.255","<span style=""font-size:30px; font-family: monospace"">das</span>"," ","","exp-sent","das","","",""
"","1060","html-keyboard-response","316","652334","0.0-3.0-1.256","<span style=""font-size:30px; font-family: monospace"">costas</span>"," ","","exp-sent","costas","","",""
"","981","html-keyboard-response","317","653566","0.0-3.0-1.257","<span style=""font-size:30px; font-family: monospace"">da</span>"," ","","exp-sent","da","","",""
"","2357","html-keyboard-response","318","656174","0.0-3.0-1.258","<span style=""font-size:30px; font-family: monospace"">pessoa.</span>"," ","","exp-sent","pessoa.","","",""
"","null","html-keyboard-response","319","657426","0.0-3.0-0.259-0.259","<span style= ""font-size:30px; font-family: monospace"">+</span>","null","fixation","","","","",""
"","657","html-keyboard-response","320","658335","0.0-3.0-1.259","<span style=""font-size:30px; font-family: monospace"">Aquele</span>"," ","","exp-sent","Aquele","","",""
"","1621","html-keyboard-response","321","660206","0.0-3.0-1.260","<span style=""font-size:30px; font-family: monospace"">era</span>"," ","","exp-sent","era","","",""
"","885","html-keyboard-response","322","661342","0.0-3.0-1.261","<span style=""font-size:30px; font-family: monospace"">um</span>"," ","","exp-sent","um","","",""
"","2261","html-keyboard-response","323","663854","0.0-3.0-1.262","<span style=""font-size:30px; font-family: monospace"">caso</span>"," ","","exp-sent","caso","","",""
"","2453","html-keyboard-response","324","666558","0.0-3.0-1.263","<span style=""font-size:30px; font-family: monospace"">real</span>"," ","","exp-sent","real","","",""
"","821","html-keyboard-response","325","667630","0.0-3.0-1.264","<span style=""font-size:30px; font-family: monospace"">de</span>"," ","","exp-sent","de","","",""
"","3541","html-keyboard-response","326","671423","0.0-3.0-1.265","<span style=""font-size:30px; font-family: monospace"">sequestro</span>"," ","","exp-sent","sequestro","","",""
"","4067","html-keyboard-response","327","675742","0.0-3.0-1.266","<span style=""font-size:30px; font-family: monospace"">premeditado.</span>"," ","","comp","premeditado.","","",""
"","9237","html-keyboard-response","328","685230","0.0-3.0-2.266-0.266","<span style=""font-size:30px; font-family: monospace"">Aquele era um caso real de roubo?</span>","n","","comp","","Aquele era um caso real de roubo?","não","false"
"","null","html-keyboard-response","329","686733","0.0-3.0-0.267-0.267","<span style= ""font-size:30px; font-family: monospace"">+</span>","null","fixation","","","","",""
"","1159","html-keyboard-response","330","688142","0.0-3.0-1.267","<span style=""font-size:30px; font-family: monospace"">Ele</span>"," ","","exp-sent","Ele","","",""
"","725","html-keyboard-response","331","689118","0.0-3.0-1.268","<span style=""font-size:30px; font-family: monospace"">é</span>"," ","","exp-sent","é","","",""
"","132","html-keyboard-response","332","689502","0.0-3.0-1.269","<span style=""font-size:30px; font-family: monospace"">um</span>"," ","","exp-sent","um","","",""
"","853","html-keyboard-response","333","690607","0.0-3.0-1.270","<span style=""font-size:30px; font-family: monospace"">pai</span>"," ","","exp-sent","pai","","",""
"","2581","html-keyboard-response","334","693438","0.0-3.0-1.271","<span style=""font-size:30px; font-family: monospace"">ausente</span>"," ","","exp-sent","ausente","","",""
"","549","html-keyboard-response","335","694238","0.0-3.0-1.272","<span style=""font-size:30px; font-family: monospace"">e</span>"," ","","exp-sent","e","","",""
"","1077","html-keyboard-response","336","695567","0.0-3.0-1.273","<span style=""font-size:30px; font-family: monospace"">muito</span>"," ","","exp-sent","muito","","",""
"","8901","html-keyboard-response","337","704718","0.0-3.0-1.274","<span style=""font-size:30px; font-family: monospace"">fofoqueiro.</span>"," ","","exp-sent","fofoqueiro.","","",""
"","null","html-keyboard-response","338","705971","0.0-3.0-0.275-0.275","<span style= ""font-size:30px; font-family: monospace"">+</span>","null","fixation","","","","",""
"","1808","html-keyboard-response","339","708030","0.0-3.0-1.275","<span style=""font-size:30px; font-family: monospace"">O</span>"," ","","exp-sent","O","","",""
"","1333","html-keyboard-response","340","709614","0.0-3.0-1.276","<span style=""font-size:30px; font-family: monospace"">filho</span>"," ","","exp-sent","filho","","",""
"","2437","html-keyboard-response","341","712302","0.0-3.0-1.277","<span style=""font-size:30px; font-family: monospace"">lavou</span>"," ","","exp-sent","lavou","","",""
"","1429","html-keyboard-response","342","713982","0.0-3.0-1.278","<span style=""font-size:30px; font-family: monospace"">a</span>"," ","","exp-sent","a","","",""
"","1221","html-keyboard-response","343","715454","0.0-3.0-1.279","<span style=""font-size:30px; font-family: monospace"">roupa</span>"," ","","exp-sent","roupa","","",""
"","1029","html-keyboard-response","344","716734","0.0-3.0-1.280","<span style=""font-size:30px; font-family: monospace"">sem</span>"," ","","exp-sent","sem","","",""
"","3061","html-keyboard-response","345","720046","0.0-3.0-1.281","<span style=""font-size:30px; font-family: monospace"">nenhuma</span>"," ","","exp-sent","nenhuma","","",""
"","1045","html-keyboard-response","346","721342","0.0-3.0-1.282","<span style=""font-size:30px; font-family: monospace"">ajuda.</span>"," ","","exp-sent","ajuda.","","",""
"","null","html-keyboard-response","347","722593","0.0-3.0-0.283-0.283","<span style= ""font-size:30px; font-family: monospace"">+</span>","null","fixation","","","","",""
"","802","html-keyboard-response","348","723646","0.0-3.0-1.283","<span style=""font-size:30px; font-family: monospace"">O</span>"," ","","exp-sent","O","","",""
"","2109","html-keyboard-response","349","726014","0.0-3.0-1.284","<span style=""font-size:30px; font-family: monospace"">menino</span>"," ","","exp-sent","menino","","",""
"","1445","html-keyboard-response","350","727710","0.0-3.0-1.285","<span style=""font-size:30px; font-family: monospace"">quebrou</span>"," ","","exp-sent","quebrou","","",""
"","853","html-keyboard-response","351","728814","0.0-3.0-1.286","<span style=""font-size:30px; font-family: monospace"">a</span>"," ","","exp-sent","a","","",""
"","1701","html-keyboard-response","352","730766","0.0-3.0-1.287","<span style=""font-size:30px; font-family: monospace"">perna</span>"," ","","exp-sent","perna","","",""
"","724","html-keyboard-response","353","731742","0.0-3.0-1.288","<span style=""font-size:30px; font-family: monospace"">nos</span>"," ","","exp-sent","nos","","",""
"","2229","html-keyboard-response","354","734222","0.0-3.0-1.289","<span style=""font-size:30px; font-family: monospace"">esportes.</span>"," ","","exp-sent","esportes.","","",""
"","null","html-keyboard-response","355","735474","0.0-3.0-0.290-0.290","<span style= ""font-size:30px; font-family: monospace"">+</span>","null","fixation","","","","",""
"","1169","html-keyboard-response","356","736894","0.0-3.0-1.290","<span style=""font-size:30px; font-family: monospace"">Ela</span>"," ","","exp-sent","Ela","","",""
"","1317","html-keyboard-response","357","738462","0.0-3.0-1.291","<span style=""font-size:30px; font-family: monospace"">brincou</span>"," ","","exp-sent","brincou","","",""
"","709","html-keyboard-response","358","739422","0.0-3.0-1.292","<span style=""font-size:30px; font-family: monospace"">com</span>"," ","","exp-sent","com","","",""
"","756","html-keyboard-response","359","740430","0.0-3.0-1.293","<span style=""font-size:30px; font-family: monospace"">uma</span>"," ","","exp-sent","uma","","",""
"","1282","html-keyboard-response","360","741966","0.0-3.0-1.294","<span style=""font-size:30px; font-family: monospace"">menina</span>"," ","","exp-sent","menina","","",""
"","773","html-keyboard-response","361","742990","0.0-3.0-1.295","<span style=""font-size:30px; font-family: monospace"">da</span>"," ","","exp-sent","da","","",""
"","3772","html-keyboard-response","362","747022","0.0-3.0-1.296","<span style=""font-size:30px; font-family: monospace"">turma.</span>"," ","","exp-sent","turma.","","",""
"","null","html-keyboard-response","363","748275","0.0-3.0-0.297-0.297","<span style= ""font-size:30px; font-family: monospace"">+</span>","null","fixation","","","","",""
"","2016","html-keyboard-response","364","750542","0.0-3.0-1.297","<span style=""font-size:30px; font-family: monospace"">Ele</span>"," ","","exp-sent","Ele","","",""
"","1317","html-keyboard-response","365","752110","0.0-3.0-1.298","<span style=""font-size:30px; font-family: monospace"">esteve</span>"," ","","exp-sent","esteve","","",""
"","1493","html-keyboard-response","366","753854","0.0-3.0-1.299","<span style=""font-size:30px; font-family: monospace"">no</span>"," ","","exp-sent","no","","",""
"","1685","html-keyboard-response","367","755790","0.0-3.0-1.300","<span style=""font-size:30px; font-family: monospace"">escritório</span>"," ","","exp-sent","escritório","","",""
"","789","html-keyboard-response","368","756830","0.0-3.0-1.301","<span style=""font-size:30px; font-family: monospace"">o</span>"," ","","exp-sent","o","","",""
"","1093","html-keyboard-response","369","758174","0.0-3.0-1.302","<span style=""font-size:30px; font-family: monospace"">dia</span>"," ","","exp-sent","dia","","",""
"","3428","html-keyboard-response","370","761854","0.0-3.0-1.303","<span style=""font-size:30px; font-family: monospace"">inteiro.</span>"," ","","comp","inteiro.","","",""
"","10053","html-keyboard-response","371","772158","0.0-3.0-2.303-0.303","<span style=""font-size:30px; font-family: monospace"">Ele esteve no parque o dia inteiro?</span>","n","","comp","","Ele esteve no parque o dia inteiro?","não","false"
"","null","html-keyboard-response","372","773660","0.0-3.0-0.304-0.304","<span style= ""font-size:30px; font-family: monospace"">+</span>","null","fixation","","","","",""
"","1991","html-keyboard-response","373","775902","0.0-3.0-1.304","<span style=""font-size:30px; font-family: monospace"">No</span>"," ","","exp-sent","No","","",""
"","1551","html-keyboard-response","374","777710","0.0-3.0-1.305","<span style=""font-size:30px; font-family: monospace"">passado</span>"," ","","exp-sent","passado","","",""
"","1874","html-keyboard-response","375","779838","0.0-3.0-1.306","<span style=""font-size:30px; font-family: monospace"">houve</span>"," ","","exp-sent","houve","","",""
"","837","html-keyboard-response","376","780926","0.0-3.0-1.307","<span style=""font-size:30px; font-family: monospace"">uma</span>"," ","","exp-sent","uma","","",""
"","3173","html-keyboard-response","377","784350","0.0-3.0-1.308","<span style=""font-size:30px; font-family: monospace"">rebelião</span>"," ","","exp-sent","rebelião","","",""
"","1380","html-keyboard-response","378","785982","0.0-3.0-1.309","<span style=""font-size:30px; font-family: monospace"">nesta</span>"," ","","exp-sent","nesta","","",""
"","1253","html-keyboard-response","379","787486","0.0-3.0-1.310","<span style=""font-size:30px; font-family: monospace"">cidade.</span>"," ","","exp-sent","cidade.","","",""
"","null","html-keyboard-response","380","788748","0.0-3.0-0.311-0.311","<span style= ""font-size:30px; font-family: monospace"">+</span>","null","fixation","","","","",""
"","359","html-keyboard-response","381","789358","0.0-3.0-1.311","<span style=""font-size:30px; font-family: monospace"">Ele</span>"," ","","exp-sent","Ele","","",""
"","2597","html-keyboard-response","382","792206","0.0-3.0-1.312","<span style=""font-size:30px; font-family: monospace"">fundou</span>"," ","","exp-sent","fundou","","",""
"","773","html-keyboard-response","383","793230","0.0-3.0-1.313","<span style=""font-size:30px; font-family: monospace"">uma</span>"," ","","exp-sent","uma","","",""
"","1068","html-keyboard-response","384","794558","0.0-3.0-1.314","<span style=""font-size:30px; font-family: monospace"">empresa</span>"," ","","exp-sent","empresa","","",""
"","1525","html-keyboard-response","385","796334","0.0-3.0-1.315","<span style=""font-size:30px; font-family: monospace"">privada</span>"," ","","exp-sent","privada","","",""
"","821","html-keyboard-response","386","797406","0.0-3.0-1.316","<span style=""font-size:30px; font-family: monospace"">sem</span>"," ","","exp-sent","sem","","",""
"","789","html-keyboard-response","387","798446","0.0-3.0-1.317","<span style=""font-size:30px; font-family: monospace"">ajuda.</span>"," ","","exp-sent","ajuda.","","",""
"","null","html-keyboard-response","388","799697","0.0-3.0-0.318-0.318","<span style= ""font-size:30px; font-family: monospace"">+</span>","null","fixation","","","","",""
"","706","html-keyboard-response","389","800654","0.0-3.0-1.318","<span style=""font-size:30px; font-family: monospace"">As</span>"," ","","exp-sent","As","","",""
"","3925","html-keyboard-response","390","804830","0.0-3.0-1.319","<span style=""font-size:30px; font-family: monospace"">meninas</span>"," ","","exp-sent","meninas","","",""
"","4532","html-keyboard-response","391","809614","0.0-3.0-1.320","<span style=""font-size:30px; font-family: monospace"">encontraram</span>"," ","","exp-sent","encontraram","","",""
"","965","html-keyboard-response","392","810830","0.0-3.0-1.321","<span style=""font-size:30px; font-family: monospace"">um</span>"," ","","exp-sent","um","","",""
"","1477","html-keyboard-response","393","812558","0.0-3.0-1.322","<span style=""font-size:30px; font-family: monospace"">rato</span>"," ","","exp-sent","rato","","",""
"","2229","html-keyboard-response","394","815038","0.0-3.0-1.323","<span style=""font-size:30px; font-family: monospace"">dentro</span>"," ","","exp-sent","dentro","","",""
"","773","html-keyboard-response","395","816062","0.0-3.0-1.324","<span style=""font-size:30px; font-family: monospace"">de</span>"," ","","exp-sent","de","","",""
"","836","html-keyboard-response","396","817150","0.0-3.0-1.325","<span style=""font-size:30px; font-family: monospace"">casa.</span>"," ","","exp-sent","casa.","","",""
"","null","html-keyboard-response","397","818402","0.0-3.0-0.326-0.326","<span style= ""font-size:30px; font-family: monospace"">+</span>","null","fixation","","","","",""
"","896","html-keyboard-response","398","819550","0.0-3.0-1.326","<span style=""font-size:30px; font-family: monospace"">O</span>"," ","","exp-sent","O","","",""
"","1013","html-keyboard-response","399","820814","0.0-3.0-1.327","<span style=""font-size:30px; font-family: monospace"">texto</span>"," ","","exp-sent","texto","","",""
"","1141","html-keyboard-response","400","822206","0.0-3.0-1.328","<span style=""font-size:30px; font-family: monospace"">tinha</span>"," ","","exp-sent","tinha","","",""
"","3828","html-keyboard-response","401","826286","0.0-3.0-1.329","<span style=""font-size:30px; font-family: monospace"">ideias</span>"," ","","exp-sent","ideias","","",""
"","1045","html-keyboard-response","402","827582","0.0-3.0-1.330","<span style=""font-size:30px; font-family: monospace"">vagas</span>"," ","","exp-sent","vagas","","",""
"","821","html-keyboard-response","403","828654","0.0-3.0-1.331","<span style=""font-size:30px; font-family: monospace"">e</span>"," ","","exp-sent","e","","",""
"","4677","html-keyboard-response","404","833582","0.0-3.0-1.332","<span style=""font-size:30px; font-family: monospace"">confusas.</span>"," ","","exp-sent","confusas.","","",""
"","null","html-keyboard-response","405","834834","0.0-3.0-0.333-0.333","<span style= ""font-size:30px; font-family: monospace"">+</span>","null","fixation","","","","",""
"","753","html-keyboard-response","406","835838","0.0-3.0-1.333","<span style=""font-size:30px; font-family: monospace"">As</span>"," ","","exp-sent","As","","",""
"","997","html-keyboard-response","407","837086","0.0-3.0-1.334","<span style=""font-size:30px; font-family: monospace"">crianças</span>"," ","","exp-sent","crianças","","",""
"","2021","html-keyboard-response","408","839358","0.0-3.0-1.335","<span style=""font-size:30px; font-family: monospace"">viram</span>"," ","","exp-sent","viram","","",""
"","756","html-keyboard-response","409","840366","0.0-3.0-1.336","<span style=""font-size:30px; font-family: monospace"">a</span>"," ","","exp-sent","a","","",""
"","5061","html-keyboard-response","410","845678","0.0-3.0-1.337","<span style=""font-size:30px; font-family: monospace"">acrobata</span>"," ","","exp-sent","acrobata","","",""
"","3364","html-keyboard-response","411","849294","0.0-3.0-1.338","<span style=""font-size:30px; font-family: monospace"">talentosa</span>"," ","","exp-sent","talentosa","","",""
"","644","html-keyboard-response","412","850190","0.0-3.0-1.339","<span style=""font-size:30px; font-family: monospace"">no</span>"," ","","exp-sent","no","","",""
"","3381","html-keyboard-response","413","853822","0.0-3.0-1.340","<span style=""font-size:30px; font-family: monospace"">circo.</span>"," ","","comp","circo.","","",""
"","21061","html-keyboard-response","414","875134","0.0-3.0-2.340-0.340","<span style=""font-size:30px; font-family: monospace"">As crianças viram o palhaço no circo?</span>","n","","comp","","As crianças viram o palhaço no circo?","não","false"
"","null","html-keyboard-response","415","876637","0.0-3.0-0.341-0.341","<span style= ""font-size:30px; font-family: monospace"">+</span>","null","fixation","","","","",""
"","1254","html-keyboard-response","416","878142","0.0-3.0-1.341","<span style=""font-size:30px; font-family: monospace"">O</span>"," ","","exp-sent","O","","",""
"","389","html-keyboard-response","417","878782","0.0-3.0-1.342","<span style=""font-size:30px; font-family: monospace"">moço</span>"," ","","exp-sent","moço","","",""
"","453","html-keyboard-response","418","879486","0.0-3.0-1.343","<span style=""font-size:30px; font-family: monospace"">usou</span>"," ","","exp-sent","usou","","",""
"","341","html-keyboard-response","419","880078","0.0-3.0-1.344","<span style=""font-size:30px; font-family: monospace"">várias</span>"," ","","exp-sent","várias","","",""
"","68","html-keyboard-response","420","880398","0.0-3.0-1.345","<span style=""font-size:30px; font-family: monospace"">velas</span>"," ","","exp-sent","velas","","",""
"","116","html-keyboard-response","421","880766","0.0-3.0-1.346","<span style=""font-size:30px; font-family: monospace"">no</span>"," ","","exp-sent","no","","",""
"","133","html-keyboard-response","422","881150","0.0-3.0-1.347","<span style=""font-size:30px; font-family: monospace"">enfeite</span>"," ","","exp-sent","enfeite","","",""
"","613","html-keyboard-response","423","882014","0.0-3.0-1.348","<span style=""font-size:30px; font-family: monospace"">de</span>"," ","","exp-sent","de","","",""
"","421","html-keyboard-response","424","882686","0.0-3.0-1.349","<span style=""font-size:30px; font-family: monospace"">mesa.</span>"," ","","exp-sent","mesa.","","",""
"","null","html-keyboard-response","425","883938","0.0-3.0-0.350-0.350","<span style= ""font-size:30px; font-family: monospace"">+</span>","null","fixation","","","","",""
"","1472","html-keyboard-response","426","885662","0.0-3.0-1.350","<span style=""font-size:30px; font-family: monospace"">Gostamos</span>"," ","","exp-sent","Gostamos","","",""
"","691","html-keyboard-response","427","886606","0.0-3.0-1.351","<span style=""font-size:30px; font-family: monospace"">de</span>"," ","","exp-sent","de","","",""
"","757","html-keyboard-response","428","887614","0.0-3.0-1.352","<span style=""font-size:30px; font-family: monospace"">suco</span>"," ","","exp-sent","suco","","",""
"","789","html-keyboard-response","429","888654","0.0-3.0-1.353","<span style=""font-size:30px; font-family: monospace"">em</span>"," ","","exp-sent","em","","",""
"","1476","html-keyboard-response","430","890382","0.0-3.0-1.354","<span style=""font-size:30px; font-family: monospace"">garrafa</span>"," ","","exp-sent","garrafa","","",""
"","805","html-keyboard-response","431","891438","0.0-3.0-1.355","<span style=""font-size:30px; font-family: monospace"">de</span>"," ","","exp-sent","de","","",""
"","2773","html-keyboard-response","432","894462","0.0-3.0-1.356","<span style=""font-size:30px; font-family: monospace"">tamanho</span>"," ","","exp-sent","tamanho","","",""
"","2405","html-keyboard-response","433","897118","0.0-3.0-1.357","<span style=""font-size:30px; font-family: monospace"">pequeno.</span>"," ","","exp-sent","pequeno.","","",""
"","null","html-keyboard-response","434","898371","0.0-3.0-0.358-0.358","<span style= ""font-size:30px; font-family: monospace"">+</span>","null","fixation","","","","",""
"","800","html-keyboard-response","435","899422","0.0-3.0-1.358","<span style=""font-size:30px; font-family: monospace"">Sua</span>"," ","","exp-sent","Sua","","",""
"","1572","html-keyboard-response","436","901246","0.0-3.0-1.359","<span style=""font-size:30px; font-family: monospace"">filha</span>"," ","","exp-sent","filha","","",""
"","661","html-keyboard-response","437","902158","0.0-3.0-1.360","<span style=""font-size:30px; font-family: monospace"">é</span>"," ","","exp-sent","é","","",""
"","1189","html-keyboard-response","438","903598","0.0-3.0-1.361","<span style=""font-size:30px; font-family: monospace"">muito</span>"," ","","exp-sent","muito","","",""
"","1445","html-keyboard-response","439","905294","0.0-3.0-1.362","<span style=""font-size:30px; font-family: monospace"">capaz</span>"," ","","exp-sent","capaz","","",""
"","724","html-keyboard-response","440","906270","0.0-3.0-1.363","<span style=""font-size:30px; font-family: monospace"">e</span>"," ","","exp-sent","e","","",""
"","3638","html-keyboard-response","441","910158","0.0-3.0-1.364","<span style=""font-size:30px; font-family: monospace"">esforçada.</span>"," ","","exp-sent","esforçada.","","",""
"","null","html-keyboard-response","442","911410","0.0-3.0-0.365-0.365","<span style= ""font-size:30px; font-family: monospace"">+</span>","null","fixation","","","","",""
"","545","html-keyboard-response","443","912206","0.0-3.0-1.365","<span style=""font-size:30px; font-family: monospace"">A</span>"," ","","exp-sent","A","","",""
"","2309","html-keyboard-response","444","914766","0.0-3.0-1.366","<span style=""font-size:30px; font-family: monospace"">batida</span>"," ","","exp-sent","batida","","",""
"","1363","html-keyboard-response","445","916382","0.0-3.0-1.367","<span style=""font-size:30px; font-family: monospace"">causou</span>"," ","","exp-sent","causou","","",""
"","932","html-keyboard-response","446","917566","0.0-3.0-1.368","<span style=""font-size:30px; font-family: monospace"">muita</span>"," ","","exp-sent","muita","","",""
"","2149","html-keyboard-response","447","919966","0.0-3.0-1.369","<span style=""font-size:30px; font-family: monospace"">confusão</span>"," ","","exp-sent","confusão","","",""
"","901","html-keyboard-response","448","921118","0.0-3.0-1.370","<span style=""font-size:30px; font-family: monospace"">na</span>"," ","","exp-sent","na","","",""
"","1796","html-keyboard-response","449","923166","0.0-3.0-1.371","<span style=""font-size:30px; font-family: monospace"">estrada.</span>"," ","","exp-sent","estrada.","","",""
"","null","html-keyboard-response","450","924416","0.0-3.0-0.372-0.372","<span style= ""font-size:30px; font-family: monospace"">+</span>","null","fixation","","","","",""
"","1107","html-keyboard-response","451","925774","0.0-3.0-1.372","<span style=""font-size:30px; font-family: monospace"">Eu</span>"," ","","exp-sent","Eu","","",""
"","5237","html-keyboard-response","452","931262","0.0-3.0-1.373","<span style=""font-size:30px; font-family: monospace"">cozinhei</span>"," ","","exp-sent","cozinhei","","",""
"","1253","html-keyboard-response","453","932766","0.0-3.0-1.374","<span style=""font-size:30px; font-family: monospace"">um</span>"," ","","exp-sent","um","","",""
"","1204","html-keyboard-response","454","934222","0.0-3.0-1.375","<span style=""font-size:30px; font-family: monospace"">almoço</span>"," ","","exp-sent","almoço","","",""
"","3061","html-keyboard-response","455","937534","0.0-3.0-1.376","<span style=""font-size:30px; font-family: monospace"">nutritivo</span>"," ","","exp-sent","nutritivo","","",""
"","740","html-keyboard-response","456","938526","0.0-3.0-1.377","<span style=""font-size:30px; font-family: monospace"">para</span>"," ","","exp-sent","para","","",""
"","1093","html-keyboard-response","457","939870","0.0-3.0-1.378","<span style=""font-size:30px; font-family: monospace"">hoje.</span>"," ","","comp","hoje.","","",""
"","5893","html-keyboard-response","458","946014","0.0-3.0-2.378-0.378","<span style=""font-size:30px; font-family: monospace"">O almoço era nutritivo?</span>","n","","comp","","O almoço era nutritivo?","sim","false"
"","null","html-keyboard-response","459","947516","0.0-3.0-0.379-0.379","<span style= ""font-size:30px; font-family: monospace"">+</span>","null","fixation","","","","",""
"","726","html-keyboard-response","460","948494","0.0-3.0-1.379","<span style=""font-size:30px; font-family: monospace"">As</span>"," ","","exp-sent","As","","",""
"","1253","html-keyboard-response","461","949998","0.0-3.0-1.380","<span style=""font-size:30px; font-family: monospace"">crianças</span>"," ","","exp-sent","crianças","","",""
"","741","html-keyboard-response","462","950990","0.0-3.0-1.381","<span style=""font-size:30px; font-family: monospace"">viram</span>"," ","","exp-sent","viram","","",""
"","485","html-keyboard-response","463","951726","0.0-3.0-1.382","<span style=""font-size:30px; font-family: monospace"">um</span>"," ","","exp-sent","um","","",""
"","1237","html-keyboard-response","464","953214","0.0-3.0-1.383","<span style=""font-size:30px; font-family: monospace"">vaga-lume</span>"," ","","exp-sent","vaga-lume","","",""
"","805","html-keyboard-response","465","954270","0.0-3.0-1.384","<span style=""font-size:30px; font-family: monospace"">nos</span>"," ","","exp-sent","nos","","",""
"","853","html-keyboard-response","466","955374","0.0-3.0-1.385","<span style=""font-size:30px; font-family: monospace"">arbustos.</span>"," ","","exp-sent","arbustos.","","",""
"","null","html-keyboard-response","467","956626","0.0-3.0-0.386-0.386","<span style= ""font-size:30px; font-family: monospace"">+</span>","null","fixation","","","","",""
"","881","html-keyboard-response","468","957758","0.0-3.0-1.386","<span style=""font-size:30px; font-family: monospace"">Ontem</span>"," ","","exp-sent","Ontem","","",""
"","549","html-keyboard-response","469","958558","0.0-3.0-1.387","<span style=""font-size:30px; font-family: monospace"">o</span>"," ","","exp-sent","o","","",""
"","1253","html-keyboard-response","470","960062","0.0-3.0-1.388","<span style=""font-size:30px; font-family: monospace"">funcionário</span>"," ","","exp-sent","funcionário","","",""
"","1637","html-keyboard-response","471","961950","0.0-3.0-1.389","<span style=""font-size:30px; font-family: monospace"">pediu</span>"," ","","exp-sent","pediu","","",""
"","2773","html-keyboard-response","472","964974","0.0-3.0-1.390","<span style=""font-size:30px; font-family: monospace"">autorização</span>"," ","","exp-sent","autorização","","",""
"","709","html-keyboard-response","473","965934","0.0-3.0-1.391","<span style=""font-size:30px; font-family: monospace"">para</span>"," ","","exp-sent","para","","",""
"","725","html-keyboard-response","474","966910","0.0-3.0-1.392","<span style=""font-size:30px; font-family: monospace"">a</span>"," ","","exp-sent","a","","",""
"","1430","html-keyboard-response","475","968606","0.0-3.0-1.393","<span style=""font-size:30px; font-family: monospace"">colega.</span>"," ","","exp-sent","colega.","","",""
"","null","html-keyboard-response","476","969858","0.0-3.0-0.394-0.394","<span style= ""font-size:30px; font-family: monospace"">+</span>","null","fixation","","","","",""
"","736","html-keyboard-response","477","970845","0.0-3.0-1.394","<span style=""font-size:30px; font-family: monospace"">Eu</span>"," ","","exp-sent","Eu","","",""
"","965","html-keyboard-response","478","972061","0.0-3.0-1.395","<span style=""font-size:30px; font-family: monospace"">sempre</span>"," ","","exp-sent","sempre","","",""
"","3477","html-keyboard-response","479","975790","0.0-3.0-1.396","<span style=""font-size:30px; font-family: monospace"">fujo</span>"," ","","exp-sent","fujo","","",""
"","789","html-keyboard-response","480","976830","0.0-3.0-1.397","<span style=""font-size:30px; font-family: monospace"">de</span>"," ","","exp-sent","de","","",""
"","2261","html-keyboard-response","481","979342","0.0-3.0-1.398","<span style=""font-size:30px; font-family: monospace"">conflito</span>"," ","","exp-sent","conflito","","",""
"","950","html-keyboard-response","482","980542","0.0-3.0-1.399","<span style=""font-size:30px; font-family: monospace"">com</span>"," ","","exp-sent","com","","",""
"","1748","html-keyboard-response","483","982542","0.0-3.0-1.400","<span style=""font-size:30px; font-family: monospace"">as</span>"," ","","exp-sent","as","","",""
"","1125","html-keyboard-response","484","983918","0.0-3.0-1.401","<span style=""font-size:30px; font-family: monospace"">pessoas.</span>"," ","","exp-sent","pessoas.","","",""
"","null","html-keyboard-response","485","985169","0.0-3.0-0.402-0.402","<span style= ""font-size:30px; font-family: monospace"">+</span>","null","fixation","","","","",""
"","769","html-keyboard-response","486","986190","0.0-3.0-1.402","<span style=""font-size:30px; font-family: monospace"">O</span>"," ","","exp-sent","O","","",""
"","1269","html-keyboard-response","487","987709","0.0-3.0-1.403","<span style=""font-size:30px; font-family: monospace"">bolo</span>"," ","","exp-sent","bolo","","",""
"","773","html-keyboard-response","488","988734","0.0-3.0-1.404","<span style=""font-size:30px; font-family: monospace"">era</span>"," ","","exp-sent","era","","",""
"","821","html-keyboard-response","489","989805","0.0-3.0-1.405","<span style=""font-size:30px; font-family: monospace"">de</span>"," ","","exp-sent","de","","",""
"","1061","html-keyboard-response","490","991117","0.0-3.0-1.406","<span style=""font-size:30px; font-family: monospace"">abacaxi</span>"," ","","exp-sent","abacaxi","","",""
"","837","html-keyboard-response","491","992205","0.0-3.0-1.407","<span style=""font-size:30px; font-family: monospace"">e</span>"," ","","exp-sent","e","","",""
"","1061","html-keyboard-response","492","993517","0.0-3.0-1.408","<span style=""font-size:30px; font-family: monospace"">creme</span>"," ","","exp-sent","creme","","",""
"","645","html-keyboard-response","493","994413","0.0-3.0-1.409","<span style=""font-size:30px; font-family: monospace"">de</span>"," ","","exp-sent","de","","",""
"","948","html-keyboard-response","494","995613","0.0-3.0-1.410","<span style=""font-size:30px; font-family: monospace"">coco.</span>"," ","","exp-sent","coco.","","",""
"","null","html-keyboard-response","495","996866","0.0-3.0-0.411-0.411","<span style= ""font-size:30px; font-family: monospace"">+</span>","null","fixation","","","","",""
"","913","html-keyboard-response","496","998030","0.0-3.0-1.411","<span style=""font-size:30px; font-family: monospace"">As</span>"," ","","exp-sent","As","","",""
"","1092","html-keyboard-response","497","999373","0.0-3.0-1.412","<span style=""font-size:30px; font-family: monospace"">crianças</span>"," ","","exp-sent","crianças","","",""
"","1925","html-keyboard-response","498","1001550","0.0-3.0-1.413","<span style=""font-size:30px; font-family: monospace"">brincaram</span>"," ","","exp-sent","brincaram","","",""
"","1621","html-keyboard-response","499","1003422","0.0-3.0-1.414","<span style=""font-size:30px; font-family: monospace"">com</span>"," ","","exp-sent","com","","",""
"","2869","html-keyboard-response","500","1006541","0.0-3.0-1.415","<span style=""font-size:30px; font-family: monospace"">bolhas</span>"," ","","exp-sent","bolhas","","",""
"","965","html-keyboard-response","501","1007757","0.0-3.0-1.416","<span style=""font-size:30px; font-family: monospace"">no</span>"," ","","exp-sent","no","","",""
"","2261","html-keyboard-response","502","1010269","0.0-3.0-1.417","<span style=""font-size:30px; font-family: monospace"">banho.</span>"," ","","comp","banho.","","",""
"","10645","html-keyboard-response","503","1021166","0.0-3.0-2.417-0.417","<span style=""font-size:30px; font-family: monospace"">As crianças brincaram com bolhas?</span>","s","","comp","","As crianças brincaram com bolhas?","sim","false"
"","null","html-keyboard-response","504","1022667","0.0-3.0-0.418-0.418","<span style= ""font-size:30px; font-family: monospace"">+</span>","null","fixation","","","","",""
"","2039","html-keyboard-response","505","1024958","0.0-3.0-1.418","<span style=""font-size:30px; font-family: monospace"">Preciso</span>"," ","","exp-sent","Preciso","","",""
"","581","html-keyboard-response","506","1025789","0.0-3.0-1.419","<span style=""font-size:30px; font-family: monospace"">de</span>"," ","","exp-sent","de","","",""
"","565","html-keyboard-response","507","1026605","0.0-3.0-1.420","<span style=""font-size:30px; font-family: monospace"">um</span>"," ","","exp-sent","um","","",""
"","677","html-keyboard-response","508","1027533","0.0-3.0-1.421","<span style=""font-size:30px; font-family: monospace"">relatório</span>"," ","","exp-sent","relatório","","",""
"","4549","html-keyboard-response","509","1032334","0.0-3.0-1.422","<span style=""font-size:30px; font-family: monospace"">oficial</span>"," ","","exp-sent","oficial","","",""
"","756","html-keyboard-response","510","1033341","0.0-3.0-1.423","<span style=""font-size:30px; font-family: monospace"">para</span>"," ","","exp-sent","para","","",""
"","2031","html-keyboard-response","511","1035629","0.0-3.0-1.424","<span style=""font-size:30px; font-family: monospace"">amanhã.</span>"," ","","exp-sent","amanhã.","","",""
"","null","html-keyboard-response","512","1036881","0.0-3.0-0.425-0.425","<span style= ""font-size:30px; font-family: monospace"">+</span>","null","fixation","","","","",""
"","161","html-keyboard-response","513","1037293","0.0-3.0-1.425","<span style=""font-size:30px; font-family: monospace"">Ele</span>"," ","","exp-sent","Ele","","",""
"","693","html-keyboard-response","514","1038237","0.0-3.0-1.426","<span style=""font-size:30px; font-family: monospace"">viu</span>"," ","","exp-sent","viu","","",""
"","821","html-keyboard-response","515","1039309","0.0-3.0-1.427","<span style=""font-size:30px; font-family: monospace"">um</span>"," ","","exp-sent","um","","",""
"","2069","html-keyboard-response","516","1041629","0.0-3.0-1.428","<span style=""font-size:30px; font-family: monospace"">inseto</span>"," ","","exp-sent","inseto","","",""
"","837","html-keyboard-response","517","1042717","0.0-3.0-1.429","<span style=""font-size:30px; font-family: monospace"">marrom</span>"," ","","exp-sent","marrom","","",""
"","677","html-keyboard-response","518","1043645","0.0-3.0-1.430","<span style=""font-size:30px; font-family: monospace"">na</span>"," ","","exp-sent","na","","",""
"","1669","html-keyboard-response","519","1045565","0.0-3.0-1.431","<span style=""font-size:30px; font-family: monospace"">parede.</span>"," ","","exp-sent","parede.","","",""
"","null","html-keyboard-response","520","1046817","0.0-3.0-0.432-0.432","<span style= ""font-size:30px; font-family: monospace"">+</span>","null","fixation","","","","",""
"","736","html-keyboard-response","521","1047805","0.0-3.0-1.432","<span style=""font-size:30px; font-family: monospace"">O</span>"," ","","exp-sent","O","","",""
"","869","html-keyboard-response","522","1048925","0.0-3.0-1.433","<span style=""font-size:30px; font-family: monospace"">avô</span>"," ","","exp-sent","avô","","",""
"","757","html-keyboard-response","523","1049933","0.0-3.0-1.434","<span style=""font-size:30px; font-family: monospace"">fez</span>"," ","","exp-sent","fez","","",""
"","565","html-keyboard-response","524","1050749","0.0-3.0-1.435","<span style=""font-size:30px; font-family: monospace"">uma</span>"," ","","exp-sent","uma","","",""
"","1109","html-keyboard-response","525","1052109","0.0-3.0-1.436","<span style=""font-size:30px; font-family: monospace"">lista</span>"," ","","exp-sent","lista","","",""
"","725","html-keyboard-response","526","1053086","0.0-3.0-1.437","<span style=""font-size:30px; font-family: monospace"">de</span>"," ","","exp-sent","de","","",""
"","965","html-keyboard-response","527","1054302","0.0-3.0-1.438","<span style=""font-size:30px; font-family: monospace"">compras</span>"," ","","exp-sent","compras","","",""
"","629","html-keyboard-response","528","1055181","0.0-3.0-1.439","<span style=""font-size:30px; font-family: monospace"">do</span>"," ","","exp-sent","do","","",""
"","932","html-keyboard-response","529","1056365","0.0-3.0-1.440","<span style=""font-size:30px; font-family: monospace"">mercado.</span>"," ","","exp-sent","mercado.","","",""
"","null","html-keyboard-response","530","1057617","0.0-3.0-0.441-0.441","<span style= ""font-size:30px; font-family: monospace"">+</span>","null","fixation","","","","",""
"","978","html-keyboard-response","531","1058845","0.0-3.0-1.441","<span style=""font-size:30px; font-family: monospace"">As</span>"," ","","exp-sent","As","","",""
"","1380","html-keyboard-response","532","1060477","0.0-3.0-1.442","<span style=""font-size:30px; font-family: monospace"">pessoas</span>"," ","","exp-sent","pessoas","","",""
"","756","html-keyboard-response","533","1061485","0.0-3.0-1.443","<span style=""font-size:30px; font-family: monospace"">não</span>"," ","","exp-sent","não","","",""
"","1765","html-keyboard-response","534","1063502","0.0-3.0-1.444","<span style=""font-size:30px; font-family: monospace"">enviam</span>"," ","","exp-sent","enviam","","",""
"","2517","html-keyboard-response","535","1066269","0.0-3.0-1.445","<span style=""font-size:30px; font-family: monospace"">telegrama</span>"," ","","exp-sent","telegrama","","",""
"","581","html-keyboard-response","536","1067101","0.0-3.0-1.446","<span style=""font-size:30px; font-family: monospace"">nos</span>"," ","","exp-sent","nos","","",""
"","709","html-keyboard-response","537","1068061","0.0-3.0-1.447","<span style=""font-size:30px; font-family: monospace"">dias</span>"," ","","exp-sent","dias","","",""
"","661","html-keyboard-response","538","1068973","0.0-3.0-1.448","<span style=""font-size:30px; font-family: monospace"">de</span>"," ","","exp-sent","de","","",""
"","677","html-keyboard-response","539","1069901","0.0-3.0-1.449","<span style=""font-size:30px; font-family: monospace"">hoje.</span>"," ","","exp-sent","hoje.","","",""
"","null","html-keyboard-response","540","1071167","0.0-3.0-0.450-0.450","<span style= ""font-size:30px; font-family: monospace"">+</span>","null","fixation","","","","",""
"","1315","html-keyboard-response","541","1072733","0.0-3.0-1.450","<span style=""font-size:30px; font-family: monospace"">Ele</span>"," ","","exp-sent","Ele","","",""
"","965","html-keyboard-response","542","1073949","0.0-3.0-1.451","<span style=""font-size:30px; font-family: monospace"">não</span>"," ","","exp-sent","não","","",""
"","980","html-keyboard-response","543","1075181","0.0-3.0-1.452","<span style=""font-size:30px; font-family: monospace"">gosta</span>"," ","","exp-sent","gosta","","",""
"","662","html-keyboard-response","544","1076093","0.0-3.0-1.453","<span style=""font-size:30px; font-family: monospace"">de</span>"," ","","exp-sent","de","","",""
"","1077","html-keyboard-response","545","1077421","0.0-3.0-1.454","<span style=""font-size:30px; font-family: monospace"">tomate</span>"," ","","exp-sent","tomate","","",""
"","3605","html-keyboard-response","546","1081277","0.0-3.0-1.455","<span style=""font-size:30px; font-family: monospace"">misturado</span>"," ","","exp-sent","misturado","","",""
"","1205","html-keyboard-response","547","1082733","0.0-3.0-1.456","<span style=""font-size:30px; font-family: monospace"">na</span>"," ","","exp-sent","na","","",""
"","1125","html-keyboard-response","548","1084109","0.0-3.0-1.457","<span style=""font-size:30px; font-family: monospace"">comida.</span>"," ","","comp","comida.","","",""
"","18245","html-keyboard-response","549","1102605","0.0-3.0-2.457-0.457","<span style=""font-size:30px; font-family: monospace"">Ele gosta de tomate na comida?</span>","n","","comp","","Ele gosta de tomate na comida?","não","false"
"","null","html-keyboard-response","550","1104107","0.0-3.0-0.458-0.458","<span style= ""font-size:30px; font-family: monospace"">+</span>","null","fixation","","","","",""
"","1943","html-keyboard-response","551","1106301","0.0-3.0-1.458","<span style=""font-size:30px; font-family: monospace"">Eu</span>"," ","","exp-sent","Eu","","",""
"","996","html-keyboard-response","552","1107549","0.0-3.0-1.459","<span style=""font-size:30px; font-family: monospace"">gosto</span>"," ","","exp-sent","gosto","","",""
"","453","html-keyboard-response","553","1108253","0.0-3.0-1.460","<span style=""font-size:30px; font-family: monospace"">de</span>"," ","","exp-sent","de","","",""
"","660","html-keyboard-response","554","1109165","0.0-3.0-1.461","<span style=""font-size:30px; font-family: monospace"">molho</span>"," ","","exp-sent","molho","","",""
"","1317","html-keyboard-response","555","1110733","0.0-3.0-1.462","<span style=""font-size:30px; font-family: monospace"">picante</span>"," ","","exp-sent","picante","","",""
"","549","html-keyboard-response","556","1111533","0.0-3.0-1.463","<span style=""font-size:30px; font-family: monospace"">nas</span>"," ","","exp-sent","nas","","",""
"","1622","html-keyboard-response","557","1113405","0.0-3.0-1.464","<span style=""font-size:30px; font-family: monospace"">batatas.</span>"," ","","exp-sent","batatas.","","",""
"","null","html-keyboard-response","558","1114657","0.0-3.0-0.465-0.465","<span style= ""font-size:30px; font-family: monospace"">+</span>","null","fixation","","","","",""
"","384","html-keyboard-response","559","1115293","0.0-3.0-1.465","<span style=""font-size:30px; font-family: monospace"">As</span>"," ","","exp-sent","As","","",""
"","1492","html-keyboard-response","560","1117037","0.0-3.0-1.466","<span style=""font-size:30px; font-family: monospace"">pessoas</span>"," ","","exp-sent","pessoas","","",""
"","1045","html-keyboard-response","561","1118333","0.0-3.0-1.467","<span style=""font-size:30px; font-family: monospace"">têm</span>"," ","","exp-sent","têm","","",""
"","709","html-keyboard-response","562","1119293","0.0-3.0-1.468","<span style=""font-size:30px; font-family: monospace"">sua</span>"," ","","exp-sent","sua","","",""
"","2101","html-keyboard-response","563","1121645","0.0-3.0-1.469","<span style=""font-size:30px; font-family: monospace"">liberdade</span>"," ","","exp-sent","liberdade","","",""
"","693","html-keyboard-response","564","1122589","0.0-3.0-1.470","<span style=""font-size:30px; font-family: monospace"">até</span>"," ","","exp-sent","até","","",""
"","1221","html-keyboard-response","565","1124061","0.0-3.0-1.471","<span style=""font-size:30px; font-family: monospace"">certo</span>"," ","","exp-sent","certo","","",""
"","1668","html-keyboard-response","566","1125981","0.0-3.0-1.472","<span style=""font-size:30px; font-family: monospace"">ponto.</span>"," ","","exp-sent","ponto.","","",""
"","null","html-keyboard-response","567","1127234","0.0-3.0-0.473-0.473","<span style= ""font-size:30px; font-family: monospace"">+</span>","null","fixation","","","","",""
"","368","html-keyboard-response","568","1127853","0.0-3.0-1.473","<span style=""font-size:30px; font-family: monospace"">A</span>"," ","","exp-sent","A","","",""
"","1252","html-keyboard-response","569","1129357","0.0-3.0-1.474","<span style=""font-size:30px; font-family: monospace"">empresa</span>"," ","","exp-sent","empresa","","",""
"","1605","html-keyboard-response","570","1131213","0.0-3.0-1.475","<span style=""font-size:30px; font-family: monospace"">enviou</span>"," ","","exp-sent","enviou","","",""
"","629","html-keyboard-response","571","1132093","0.0-3.0-1.476","<span style=""font-size:30px; font-family: monospace"">o</span>"," ","","exp-sent","o","","",""
"","949","html-keyboard-response","572","1133293","0.0-3.0-1.477","<span style=""font-size:30px; font-family: monospace"">aviso</span>"," ","","exp-sent","aviso","","",""
"","773","html-keyboard-response","573","1134317","0.0-3.0-1.478","<span style=""font-size:30px; font-family: monospace"">hoje</span>"," ","","exp-sent","hoje","","",""
"","645","html-keyboard-response","574","1135213","0.0-3.0-1.479","<span style=""font-size:30px; font-family: monospace"">de</span>"," ","","exp-sent","de","","",""
"","997","html-keyboard-response","575","1136461","0.0-3.0-1.480","<span style=""font-size:30px; font-family: monospace"">tarde.</span>"," ","","exp-sent","tarde.","","",""
"","null","html-keyboard-response","576","1137715","0.0-3.0-0.481-0.481","<span style= ""font-size:30px; font-family: monospace"">+</span>","null","fixation","","","","",""
"","767","html-keyboard-response","577","1138733","0.0-3.0-1.481","<span style=""font-size:30px; font-family: monospace"">A</span>"," ","","exp-sent","A","","",""
"","1028","html-keyboard-response","578","1140013","0.0-3.0-1.482","<span style=""font-size:30px; font-family: monospace"">loja</span>"," ","","exp-sent","loja","","",""
"","964","html-keyboard-response","579","1141229","0.0-3.0-1.483","<span style=""font-size:30px; font-family: monospace"">vende</span>"," ","","exp-sent","vende","","",""
"","1557","html-keyboard-response","580","1143037","0.0-3.0-1.484","<span style=""font-size:30px; font-family: monospace"">tanto</span>"," ","","exp-sent","tanto","","",""
"","1300","html-keyboard-response","581","1144589","0.0-3.0-1.485","<span style=""font-size:30px; font-family: monospace"">frituras</span>"," ","","exp-sent","frituras","","",""
"","1924","html-keyboard-response","582","1146765","0.0-3.0-1.486","<span style=""font-size:30px; font-family: monospace"">quanto</span>"," ","","exp-sent","quanto","","",""
