"view_history","rt","trial_type","trial_index","time_elapsed","internal_node_id","stimulus","response","trial_part","word","question","answer","trial","accuracy"
"[{""page_index"":0,""viewing_time"":36268},{""page_index"":1,""viewing_time"":2168}]","38437","instructions","0","38441","0.0-0.0","","","","","","","",""
"","null","html-keyboard-response","1","39546","0.0-1.0-0.0-0.0","<span style= ""font-size:30px; font-family: monospace"">+</span>","null","fixation","","","","",""
"","17011","audio-keyboard-response","2","57118","0.0-1.0-1.0","../audio/prac-question-1-1.mp3"," ","","O","","","",""
"","3832","audio-keyboard-response","3","61366","0.0-1.0-1.1","../audio/prac-question-1-2.mp3"," ","","dia","","","",""
"","1859","audio-keyboard-response","4","63665","0.0-1.0-1.2","../audio/prac-question-1-3.mp3"," ","","estará","","","",""
"","1251","audio-keyboard-response","5","65300","0.0-1.0-1.3","../audio/prac-question-1-4.mp3"," ","","cheio","","","",""
"","1112","audio-keyboard-response","6","66767","0.0-1.0-1.4","../audio/prac-question-1-5.mp3"," ","","de","","","",""
"","1512","audio-keyboard-response","7","68608","0.0-1.0-1.5","../audio/prac-question-1-6.mp3"," ","","nuvens","","","",""
"","1320","audio-keyboard-response","8","70340","0.0-1.0-1.6","../audio/prac-question-1-7.mp3"," ","","hoje.","","","",""
"","null","html-keyboard-response","9","71614","0.0-1.0-0.7-0.7","<span style= ""font-size:30px; font-family: monospace"">+</span>","null","fixation","","","","",""
"","1411","audio-keyboard-response","10","73408","0.0-1.0-1.7","../audio/prac-question-2-1.mp3"," ","","A","","","",""
"","960","audio-keyboard-response","11","74702","0.0-1.0-1.8","../audio/prac-question-2-2.mp3"," ","","caneca","","","",""
"","1301","audio-keyboard-response","12","76354","0.0-1.0-1.9","../audio/prac-question-2-3.mp3"," ","","colorida","","","",""
"","920","audio-keyboard-response","13","77636","0.0-1.0-1.10","../audio/prac-question-2-4.mp3"," ","","caiu","","","",""
"","901","audio-keyboard-response","14","78849","0.0-1.0-1.11","../audio/prac-question-2-5.mp3"," ","","da","","","",""
"","960","audio-keyboard-response","15","80140","0.0-1.0-1.12","../audio/prac-question-2-6.mp3"," ","","mesa","","","",""
"","869","audio-keyboard-response","16","81343","0.0-1.0-1.13","../audio/prac-question-2-7.mp3"," ","","de","","","",""
"","939","audio-keyboard-response","17","82707","0.0-1.0-1.14","../audio/prac-question-2-8.mp3"," ","","jantar.","","","",""
"","5141","html-keyboard-response","18","88107","0.0-1.0-2.14-0.14","<span style=""font-size:25px; font-family: monospace"">A caneca era colorida?</span>","s","","","A caneca era colorida?","null","prac-sent","false"
"[{""page_index"":0,""viewing_time"":6070}]","6070","instructions","19","94679","0.0-2.0","","","","","","","",""
"","null","html-keyboard-response","20","95795","0.0-3.0-0.0-0.0","<span style= ""font-size:30px; font-family: monospace"">+</span>","null","fixation","","","","",""
"","1560","audio-keyboard-response","21","97788","0.0-3.0-1.0","../audio/64-1-fem.mp3"," ","","O","","","",""
"","1221","audio-keyboard-response","22","99351","0.0-3.0-1.1","../audio/64-2-fem.mp3"," ","","dia","","","",""
"","1480","audio-keyboard-response","23","101156","0.0-3.0-1.2","../audio/64-3-fem.mp3"," ","","começou","","","",""
"","1051","audio-keyboard-response","24","102558","0.0-3.0-1.3","../audio/64-4-fem.mp3"," ","","com","","","",""
"","1229","audio-keyboard-response","25","104118","0.0-3.0-1.4","../audio/64-5-fem.mp3"," ","","garoa","","","",""
"","1189","audio-keyboard-response","26","105639","0.0-3.0-1.5","../audio/64-6-fem.mp3"," ","","gelada","","","",""
"","1099","audio-keyboard-response","27","107069","0.0-3.0-1.6","../audio/64-7-fem.mp3"," ","","e","","","",""
"","1171","audio-keyboard-response","28","108646","0.0-3.0-1.7","../audio/64-8-fem.mp3"," ","","leve.","","","",""
"","null","html-keyboard-response","29","109910","0.0-3.0-0.8-0.8","<span style= ""font-size:30px; font-family: monospace"">+</span>","null","fixation","","","","",""
"","1080","audio-keyboard-response","30","111371","0.0-3.0-1.8","../audio/63-1-fem.mp3"," ","","A","","","",""
"","779","audio-keyboard-response","31","112575","0.0-3.0-1.9","../audio/63-2-fem.mp3"," ","","chuva","","","",""
"","1520","audio-keyboard-response","32","114454","0.0-3.0-1.10","../audio/63-3-fem.mp3"," ","","entrou","","","",""
"","1128","audio-keyboard-response","33","115892","0.0-3.0-1.11","../audio/63-4-fem.mp3"," ","","pela","","","",""
"","1360","audio-keyboard-response","34","117644","0.0-3.0-1.12","../audio/63-5-fem.mp3"," ","","abertura","","","",""
"","1141","audio-keyboard-response","35","119087","0.0-3.0-1.13","../audio/63-6-fem.mp3"," ","","na","","","",""
"","1179","audio-keyboard-response","36","120580","0.0-3.0-1.14","../audio/63-7-fem.mp3"," ","","janela.","","","",""
"","null","html-keyboard-response","37","121850","0.0-3.0-0.15-0.15","<span style= ""font-size:30px; font-family: monospace"">+</span>","null","fixation","","","","",""
"","1341","audio-keyboard-response","38","123645","0.0-3.0-1.15","../audio/62-1-fem.mp3"," ","","As","","","",""
"","1299","audio-keyboard-response","39","125296","0.0-3.0-1.16","../audio/62-2-fem.mp3"," ","","artesãs","","","",""
"","1051","audio-keyboard-response","40","126672","0.0-3.0-1.17","../audio/62-3-fem.mp3"," ","","gostam","","","",""
"","968","audio-keyboard-response","41","127976","0.0-3.0-1.18","../audio/62-4-fem.mp3"," ","","de","","","",""
"","1211","audio-keyboard-response","42","129515","0.0-3.0-1.19","../audio/62-5-fem.mp3"," ","","maquiagem","","","",""
"","1189","audio-keyboard-response","43","131099","0.0-3.0-1.20","../audio/62-6-fem.mp3"," ","","e","","","",""
"","1219","audio-keyboard-response","44","132621","0.0-3.0-1.21","../audio/62-7-fem.mp3"," ","","de","","","",""
"","1219","audio-keyboard-response","45","134224","0.0-3.0-1.22","../audio/62-8-fem.mp3"," ","","crochê.","","","",""
"","null","html-keyboard-response","46","135485","0.0-3.0-0.23-0.23","<span style= ""font-size:30px; font-family: monospace"">+</span>","null","fixation","","","","",""
"","2731","audio-keyboard-response","47","138601","0.0-3.0-1.23","../audio/61-1-masc.mp3"," ","","Aquele","","","",""
"","1509","audio-keyboard-response","48","140462","0.0-3.0-1.24","../audio/61-2-masc.mp3"," ","","senhor","","","",""
"","1211","audio-keyboard-response","49","141989","0.0-3.0-1.25","../audio/61-3-masc.mp3"," ","","é","","","",""
"","1320","audio-keyboard-response","50","143651","0.0-3.0-1.26","../audio/61-4-masc.mp3"," ","","muito","","","",""
"","1531","audio-keyboard-response","51","145540","0.0-3.0-1.27","../audio/61-5-masc.mp3"," ","","sovina","","","",""
"","1131","audio-keyboard-response","52","146985","0.0-3.0-1.28","../audio/61-6-masc.mp3"," ","","e","","","",""
"","1579","audio-keyboard-response","53","148907","0.0-3.0-1.29","../audio/61-7-masc.mp3"," ","","inflexível.","","","",""
"","null","html-keyboard-response","54","150170","0.0-3.0-0.30-0.30","<span style= ""font-size:30px; font-family: monospace"">+</span>","null","fixation","","","","",""
"","1120","audio-keyboard-response","55","151635","0.0-3.0-1.30","../audio/65-1-masc.mp3"," ","","O","","","",""
"","1440","audio-keyboard-response","56","153455","0.0-3.0-1.31","../audio/65-2-masc.mp3"," ","","fantasma","","","",""
"","1120","audio-keyboard-response","57","154879","0.0-3.0-1.32","../audio/65-3-masc.mp3"," ","","veio","","","",""
"","1000","audio-keyboard-response","58","156181","0.0-3.0-1.33","../audio/65-4-masc.mp3"," ","","da","","","",""
"","1248","audio-keyboard-response","59","157769","0.0-3.0-1.34","../audio/65-5-masc.mp3"," ","","escuridão","","","",""
"","1088","audio-keyboard-response","60","159251","0.0-3.0-1.35","../audio/65-6-masc.mp3"," ","","do","","","",""
"","1840","audio-keyboard-response","61","161419","0.0-3.0-1.36","../audio/65-7-masc.mp3"," ","","armário.","","","",""
"","4500","html-keyboard-response","62","166181","0.0-3.0-2.36-0.36","<span style=""font-size:25px; font-family: monospace"">O fantasma veio da escuridão do armário?</span>","s","","","O fantasma veio da escuridão do armário?","null","exp-sent","false"
"","null","html-keyboard-response","63","167706","0.0-3.0-0.37-0.37","<span style= ""font-size:30px; font-family: monospace"">+</span>","null","fixation","","","","",""
"","1360","audio-keyboard-response","64","169479","0.0-3.0-1.37","../audio/18-1-fem.mp3"," ","","O","","","",""
"","2520","audio-keyboard-response","65","172330","0.0-3.0-1.38","../audio/18-2-fem.mp3"," ","","enredo","","","",""
"","1379","audio-keyboard-response","66","174065","0.0-3.0-1.39","../audio/18-3-fem.mp3"," ","","traz","","","",""
"","931","audio-keyboard-response","67","175308","0.0-3.0-1.40","../audio/18-4-fem.mp3"," ","","um","","","",""
"","1011","audio-keyboard-response","68","176646","0.0-3.0-1.41","../audio/18-5-fem.mp3"," ","","dragão","","","",""
"","888","audio-keyboard-response","69","177857","0.0-3.0-1.42","../audio/18-6-fem.mp3"," ","","forte","","","",""
"","971","audio-keyboard-response","70","179163","0.0-3.0-1.43","../audio/18-7-fem.mp3"," ","","e","","","",""
"","1200","audio-keyboard-response","71","180695","0.0-3.0-1.44","../audio/18-8-fem.mp3"," ","","solitário.","","","",""
"","null","html-keyboard-response","72","181958","0.0-3.0-0.45-0.45","<span style= ""font-size:30px; font-family: monospace"">+</span>","null","fixation","","","","",""
"","1440","audio-keyboard-response","73","183835","0.0-3.0-1.45","../audio/17-1-masc.mp3"," ","","Falaram","","","",""
"","1221","audio-keyboard-response","74","185365","0.0-3.0-1.46","../audio/17-2-masc.mp3"," ","","da","","","",""
"","1349","audio-keyboard-response","75","187036","0.0-3.0-1.47","../audio/17-3-masc.mp3"," ","","lei","","","",""
"","1219","audio-keyboard-response","76","188545","0.0-3.0-1.48","../audio/17-4-masc.mp3"," ","","no","","","",""
"","1280","audio-keyboard-response","77","190151","0.0-3.0-1.49","../audio/17-5-masc.mp3"," ","","ministério","","","",""
"","1331","audio-keyboard-response","78","191794","0.0-3.0-1.50","../audio/17-6-masc.mp3"," ","","diversas","","","",""
"","1240","audio-keyboard-response","79","193392","0.0-3.0-1.51","../audio/17-7-masc.mp3"," ","","vezes.","","","",""
"","null","html-keyboard-response","80","194648","0.0-3.0-0.52-0.52","<span style= ""font-size:30px; font-family: monospace"">+</span>","null","fixation","","","","",""
"","659","audio-keyboard-response","81","195664","0.0-3.0-1.52","../audio/16-1-fem.mp3"," ","","Eu","","","",""
"","1299","audio-keyboard-response","82","197262","0.0-3.0-1.53","../audio/16-2-fem.mp3"," ","","nunca","","","",""
"","1208","audio-keyboard-response","83","198816","0.0-3.0-1.54","../audio/16-3-fem.mp3"," ","","conheci","","","",""
"","1240","audio-keyboard-response","84","200359","0.0-3.0-1.55","../audio/16-4-fem.mp3"," ","","um","","","",""
"","1688","audio-keyboard-response","85","202378","0.0-3.0-1.56","../audio/16-5-fem.mp3"," ","","general","","","",""
"","1149","audio-keyboard-response","86","203876","0.0-3.0-1.57","../audio/16-6-fem.mp3"," ","","do","","","",""
"","1261","audio-keyboard-response","87","205478","0.0-3.0-1.58","../audio/16-7-fem.mp3"," ","","exército.","","","",""
"","null","html-keyboard-response","88","206739","0.0-3.0-0.59-0.59","<span style= ""font-size:30px; font-family: monospace"">+</span>","null","fixation","","","","",""
"","29","audio-keyboard-response","89","207142","0.0-3.0-1.59","../audio/19-1-fem.mp3"," ","","O","","","",""
"","1229","audio-keyboard-response","90","208703","0.0-3.0-1.60","../audio/19-2-fem.mp3"," ","","menino","","","",""
"","1120","audio-keyboard-response","91","210142","0.0-3.0-1.61","../audio/19-3-fem.mp3"," ","","ganhou","","","",""
"","931","audio-keyboard-response","92","211436","0.0-3.0-1.62","../audio/19-4-fem.mp3"," ","","uma","","","",""
"","1101","audio-keyboard-response","93","212881","0.0-3.0-1.63","../audio/19-5-fem.mp3"," ","","bala","","","",""
"","1139","audio-keyboard-response","94","214335","0.0-3.0-1.64","../audio/19-6-fem.mp3"," ","","depois","","","",""
"","1141","audio-keyboard-response","95","215842","0.0-3.0-1.65","../audio/19-7-fem.mp3"," ","","do","","","",""
"","1149","audio-keyboard-response","96","217318","0.0-3.0-1.66","../audio/19-8-fem.mp3"," ","","almoço.","","","",""
"","null","html-keyboard-response","97","218585","0.0-3.0-0.67-0.67","<span style= ""font-size:30px; font-family: monospace"">+</span>","null","fixation","","","","",""
"","0","audio-keyboard-response","98","218936","0.0-3.0-1.67","../audio/20-1-fem.mp3"," ","","O","","","",""
"","1339","audio-keyboard-response","99","220586","0.0-3.0-1.68","../audio/20-2-fem.mp3"," ","","colega","","","",""
"","1171","audio-keyboard-response","100","222086","0.0-3.0-1.69","../audio/20-3-fem.mp3"," ","","parecia","","","",""
"","1280","audio-keyboard-response","101","223701","0.0-3.0-1.70","../audio/20-4-fem.mp3"," ","","muito","","","",""
"","1181","audio-keyboard-response","102","225208","0.0-3.0-1.71","../audio/20-5-fem.mp3"," ","","gripado","","","",""
"","891","audio-keyboard-response","103","226462","0.0-3.0-1.72","../audio/20-6-fem.mp3"," ","","no","","","",""
"","1128","audio-keyboard-response","104","227894","0.0-3.0-1.73","../audio/20-7-fem.mp3"," ","","dia","","","",""
"","1160","audio-keyboard-response","105","229378","0.0-3.0-1.74","../audio/20-8-fem.mp3"," ","","anterior.","","","",""
"","4140","html-keyboard-response","106","233781","0.0-3.0-2.74-0.74","<span style=""font-size:25px; font-family: monospace"">O colega parecia muito gripado?</span>","s","","","O colega parecia muito gripado?","null","exp-sent","false"
"","null","html-keyboard-response","107","235301","0.0-3.0-0.75-0.75","<span style= ""font-size:30px; font-family: monospace"">+</span>","null","fixation","","","","",""
"","1299","audio-keyboard-response","108","236978","0.0-3.0-1.75","../audio/43-1-fem.mp3"," ","","Eu","","","",""
"","1320","audio-keyboard-response","109","238630","0.0-3.0-1.76","../audio/43-2-fem.mp3"," ","","achei","","","",""
"","1181","audio-keyboard-response","110","240126","0.0-3.0-1.77","../audio/43-3-fem.mp3"," ","","um","","","",""
"","1309","audio-keyboard-response","111","241755","0.0-3.0-1.78","../audio/43-4-fem.mp3"," ","","colchão","","","",""
"","1552","audio-keyboard-response","112","243649","0.0-3.0-1.79","../audio/43-5-fem.mp3"," ","","velho","","","",""
"","1320","audio-keyboard-response","113","245274","0.0-3.0-1.80","../audio/43-6-fem.mp3"," ","","e","","","",""
"","1789","audio-keyboard-response","114","247424","0.0-3.0-1.81","../audio/43-7-fem.mp3"," ","","imundo","","","",""
"","3200","audio-keyboard-response","115","251023","0.0-3.0-1.82","../audio/43-8-fem.mp3"," ","","na","","","",""
"","2760","audio-keyboard-response","116","254124","0.0-3.0-1.83","../audio/43-9-fem.mp3"," ","","casa.","","","",""
"","null","html-keyboard-response","117","255397","0.0-3.0-0.84-0.84","<span style= ""font-size:30px; font-family: monospace"">+</span>","null","fixation","","","","",""
"","1259","audio-keyboard-response","118","257031","0.0-3.0-1.84","../audio/41-1-fem.mp3"," ","","A","","","",""
"","4800","audio-keyboard-response","119","262257","0.0-3.0-1.85","../audio/41-2-fem.mp3"," ","","novela","","","",""
"","1200","audio-keyboard-response","120","263859","0.0-3.0-1.86","../audio/41-3-fem.mp3"," ","","falava","","","",""
"","1211","audio-keyboard-response","121","265382","0.0-3.0-1.87","../audio/41-4-fem.mp3"," ","","de","","","",""
"","1251","audio-keyboard-response","122","266981","0.0-3.0-1.88","../audio/41-5-fem.mp3"," ","","paixão","","","",""
"","1379","audio-keyboard-response","123","268667","0.0-3.0-1.89","../audio/41-6-fem.mp3"," ","","e","","","",""
"","2189","audio-keyboard-response","124","271182","0.0-3.0-1.90","../audio/41-7-fem.mp3"," ","","comédia.","","","",""
"","null","html-keyboard-response","125","272446","0.0-3.0-0.91-0.91","<span style= ""font-size:30px; font-family: monospace"">+</span>","null","fixation","","","","",""
"","4861","audio-keyboard-response","126","277680","0.0-3.0-1.91","../audio/44-1-masc.mp3"," ","","Meus","","","",""
"","1240","audio-keyboard-response","127","279286","0.0-3.0-1.92","../audio/44-2-masc.mp3"," ","","irmãos","","","",""
"","811","audio-keyboard-response","128","280461","0.0-3.0-1.93","../audio/44-3-masc.mp3"," ","","brigam","","","",""
"","869","audio-keyboard-response","129","281621","0.0-3.0-1.94","../audio/44-4-masc.mp3"," ","","por","","","",""
"","939","audio-keyboard-response","130","282944","0.0-3.0-1.95","../audio/44-5-masc.mp3"," ","","bobagem","","","",""
"","1152","audio-keyboard-response","131","284563","0.0-3.0-1.96","../audio/44-6-masc.mp3"," ","","todos","","","",""
"","1149","audio-keyboard-response","132","286019","0.0-3.0-1.97","../audio/44-7-masc.mp3"," ","","os","","","",""
"","1840","audio-keyboard-response","133","288151","0.0-3.0-1.98","../audio/44-8-masc.mp3"," ","","dias.","","","",""
"","null","html-keyboard-response","134","289412","0.0-3.0-0.99-0.99","<span style= ""font-size:30px; font-family: monospace"">+</span>","null","fixation","","","","",""
"","331","audio-keyboard-response","135","290108","0.0-3.0-1.99","../audio/42-1-masc.mp3"," ","","Eu","","","",""
"","1349","audio-keyboard-response","136","291779","0.0-3.0-1.100","../audio/42-2-masc.mp3"," ","","fui","","","",""
"","17451","audio-keyboard-response","137","309603","0.0-3.0-1.101","../audio/42-3-masc.mp3"," ","","a","","","",""
"","1080","audio-keyboard-response","138","311140","0.0-3.0-1.102","../audio/42-4-masc.mp3"," ","","uma","","","",""
"","1520","audio-keyboard-response","139","313006","0.0-3.0-1.103","../audio/42-5-masc.mp3"," ","","loja","","","",""
"","2880","audio-keyboard-response","140","316247","0.0-3.0-1.104","../audio/42-6-masc.mp3"," ","","de","","","",""
"","2931","audio-keyboard-response","141","319560","0.0-3.0-1.105","../audio/42-7-masc.mp3"," ","","móveis","","","",""
"","2021","audio-keyboard-response","142","321963","0.0-3.0-1.106","../audio/42-8-masc.mp3"," ","","no","","","",""
"","920","audio-keyboard-response","143","323284","0.0-3.0-1.107","../audio/42-9-masc.mp3"," ","","bairro.","","","",""
"","null","html-keyboard-response","144","324543","0.0-3.0-0.108-0.108","<span style= ""font-size:30px; font-family: monospace"">+</span>","null","fixation","","","","",""
"","909","audio-keyboard-response","145","325790","0.0-3.0-1.108","../audio/45-1-masc.mp3"," ","","O","","","",""
"","1141","audio-keyboard-response","146","327243","0.0-3.0-1.109","../audio/45-2-masc.mp3"," ","","homem","","","",""
"","1048","audio-keyboard-response","147","328618","0.0-3.0-1.110","../audio/45-3-masc.mp3"," ","","pagou","","","",""
"","928","audio-keyboard-response","148","329854","0.0-3.0-1.111","../audio/45-4-masc.mp3"," ","","o","","","",""
"","840","audio-keyboard-response","149","331005","0.0-3.0-1.112","../audio/45-5-masc.mp3"," ","","aluguel","","","",""
"","840","audio-keyboard-response","150","332179","0.0-3.0-1.113","../audio/45-6-masc.mp3"," ","","com","","","",""
"","829","audio-keyboard-response","151","333397","0.0-3.0-1.114","../audio/45-7-masc.mp3"," ","","atraso.","","","",""
"","3279","html-keyboard-response","152","336930","0.0-3.0-2.114-0.114","<span style=""font-size:25px; font-family: monospace"">O homem pagou o aluguel em dia?</span>","n","","","O homem pagou o aluguel em dia?","null","exp-sent","false"
"","null","html-keyboard-response","153","338456","0.0-3.0-0.115-0.115","<span style= ""font-size:30px; font-family: monospace"">+</span>","null","fixation","","","","",""
"","779","audio-keyboard-response","154","339571","0.0-3.0-1.115","../audio/22-1-masc.mp3"," ","","Eu","","","",""
"","941","audio-keyboard-response","155","340870","0.0-3.0-1.116","../audio/22-2-masc.mp3"," ","","detesto","","","",""
"","960","audio-keyboard-response","156","342151","0.0-3.0-1.117","../audio/22-3-masc.mp3"," ","","fumaça","","","",""
"","861","audio-keyboard-response","157","343361","0.0-3.0-1.118","../audio/22-4-masc.mp3"," ","","de","","","",""
"","840","audio-keyboard-response","158","344627","0.0-3.0-1.119","../audio/22-5-masc.mp3"," ","","cachimbo","","","",""
"","931","audio-keyboard-response","159","345868","0.0-3.0-1.120","../audio/22-6-masc.mp3"," ","","e","","","",""
"","869","audio-keyboard-response","160","347056","0.0-3.0-1.121","../audio/22-7-masc.mp3"," ","","de","","","",""
"","400","audio-keyboard-response","161","347765","0.0-3.0-1.122","../audio/22-8-masc.mp3"," ","","cigarro.","","","",""
"","null","html-keyboard-response","162","349033","0.0-3.0-0.123-0.123","<span style= ""font-size:30px; font-family: monospace"">+</span>","null","fixation","","","","",""
"","120","audio-keyboard-response","163","349640","0.0-3.0-1.123","../audio/23-1-masc.mp3"," ","","Português","","","",""
"","1112","audio-keyboard-response","164","351161","0.0-3.0-1.124","../audio/23-2-masc.mp3"," ","","é","","","",""
"","981","audio-keyboard-response","165","352642","0.0-3.0-1.125","../audio/23-3-masc.mp3"," ","","um","","","",""
"","1019","audio-keyboard-response","166","354256","0.0-3.0-1.126","../audio/23-4-masc.mp3"," ","","assunto","","","",""
"","1691","audio-keyboard-response","167","356273","0.0-3.0-1.127","../audio/23-5-masc.mp3"," ","","elementar","","","",""
"","1160","audio-keyboard-response","168","357803","0.0-3.0-1.128","../audio/23-6-masc.mp3"," ","","para","","","",""
"","1120","audio-keyboard-response","169","359290","0.0-3.0-1.129","../audio/23-7-masc.mp3"," ","","os","","","",""
"","1029","audio-keyboard-response","170","360639","0.0-3.0-1.130","../audio/23-8-masc.mp3"," ","","alunos.","","","",""
"","null","html-keyboard-response","171","361913","0.0-3.0-0.131-0.131","<span style= ""font-size:30px; font-family: monospace"">+</span>","null","fixation","","","","",""
"","181","audio-keyboard-response","172","362474","0.0-3.0-1.131","../audio/21-1-fem.mp3"," ","","Precisamos","","","",""
"","1120","audio-keyboard-response","173","363967","0.0-3.0-1.132","../audio/21-2-fem.mp3"," ","","de","","","",""
"","1301","audio-keyboard-response","174","365645","0.0-3.0-1.133","../audio/21-3-fem.mp3"," ","","paciência","","","",""
"","1011","audio-keyboard-response","175","367028","0.0-3.0-1.134","../audio/21-4-fem.mp3"," ","","e","","","",""
"","960","audio-keyboard-response","176","368362","0.0-3.0-1.135","../audio/21-5-fem.mp3"," ","","bondade","","","",""
"","1109","audio-keyboard-response","177","369780","0.0-3.0-1.136","../audio/21-6-fem.mp3"," ","","para","","","",""
"","1051","audio-keyboard-response","178","371169","0.0-3.0-1.137","../audio/21-7-fem.mp3"," ","","um","","","",""
"","1019","audio-keyboard-response","179","372498","0.0-3.0-1.138","../audio/21-8-fem.mp3"," ","","mundo","","","",""
"","960","audio-keyboard-response","180","373877","0.0-3.0-1.139","../audio/21-9-fem.mp3"," ","","melhor.","","","",""
"","null","html-keyboard-response","181","375137","0.0-3.0-0.140-0.140","<span style= ""font-size:30px; font-family: monospace"">+</span>","null","fixation","","","","",""
"","440","audio-keyboard-response","182","377208","0.0-3.0-1.140","../audio/24-1-fem.mp3"," ","","As","","","",""
"","1101","audio-keyboard-response","183","378675","0.0-3.0-1.141","../audio/24-2-fem.mp3"," ","","crianças","","","",""
"","920","audio-keyboard-response","184","379894","0.0-3.0-1.142","../audio/24-3-fem.mp3"," ","","vão","","","",""
"","960","audio-keyboard-response","185","381173","0.0-3.0-1.143","../audio/24-4-fem.mp3"," ","","ao","","","",""
"","1221","audio-keyboard-response","186","382721","0.0-3.0-1.144","../audio/24-5-fem.mp3"," ","","cinema","","","",""
"","1000","audio-keyboard-response","187","384183","0.0-3.0-1.145","../audio/24-6-fem.mp3"," ","","mais","","","",""
"","1048","audio-keyboard-response","188","385538","0.0-3.0-1.146","../audio/24-7-fem.mp3"," ","","tarde.","","","",""
"","null","html-keyboard-response","189","386815","0.0-3.0-0.147-0.147","<span style= ""font-size:30px; font-family: monospace"">+</span>","null","fixation","","","","",""
"","509","audio-keyboard-response","190","387706","0.0-3.0-1.147","../audio/25-1-fem.mp3"," ","","Ela","","","",""
"","971","audio-keyboard-response","191","389034","0.0-3.0-1.148","../audio/25-2-fem.mp3"," ","","faz","","","",""
"","979","audio-keyboard-response","192","390331","0.0-3.0-1.149","../audio/25-3-fem.mp3"," ","","tanto","","","",""
"","1000","audio-keyboard-response","193","391650","0.0-3.0-1.150","../audio/25-4-fem.mp3"," ","","cabelo","","","",""
"","1061","audio-keyboard-response","194","393166","0.0-3.0-1.151","../audio/25-5-fem.mp3"," ","","liso","","","",""
"","1021","audio-keyboard-response","195","394515","0.0-3.0-1.152","../audio/25-6-fem.mp3"," ","","quanto","","","",""
"","1091","audio-keyboard-response","196","395920","0.0-3.0-1.153","../audio/25-7-fem.mp3"," ","","cacheado.","","","",""
"","8147","html-keyboard-response","197","404329","0.0-3.0-2.153-0.153","<span style=""font-size:25px; font-family: monospace"">Ela só faz cabelo cacheado?</span>","s","","","Ela só faz cabelo cacheado?","null","exp-sent","false"
"","null","html-keyboard-response","198","405848","0.0-3.0-0.154-0.154","<span style= ""font-size:30px; font-family: monospace"">+</span>","null","fixation","","","","",""
"","1061","audio-keyboard-response","199","407274","0.0-3.0-1.154","../audio/02-2-masc.mp3"," ","","Havia","","","",""
"","1011","audio-keyboard-response","200","408543","0.0-3.0-1.155","../audio/02-2-masc.mp3"," ","","um","","","",""
"","1091","audio-keyboard-response","201","409994","0.0-3.0-1.156","../audio/02-3-masc.mp3"," ","","cheiro","","","",""
"","859","audio-keyboard-response","202","411172","0.0-3.0-1.157","../audio/02-4-masc.mp3"," ","","de","","","",""
"","1280","audio-keyboard-response","203","412786","0.0-3.0-1.158","../audio/02-5-masc.mp3"," ","","gasolina","","","",""
"","1040","audio-keyboard-response","204","414190","0.0-3.0-1.159","../audio/02-6-masc.mp3"," ","","na","","","",""
"","1171","audio-keyboard-response","205","415672","0.0-3.0-1.160","../audio/02-7-masc.mp3"," ","","garagem.","","","",""
"","null","html-keyboard-response","206","416939","0.0-3.0-0.161-0.161","<span style= ""font-size:30px; font-family: monospace"">+</span>","null","fixation","","","","",""
"","1309","audio-keyboard-response","207","418656","0.0-3.0-1.161","../audio/04-1-masc.mp3"," ","","Duzentos","","","",""
"","1099","audio-keyboard-response","208","420099","0.0-3.0-1.162","../audio/04-2-masc.mp3"," ","","carros","","","",""
"","971","audio-keyboard-response","209","421423","0.0-3.0-1.163","../audio/04-3-masc.mp3"," ","","passaram","","","",""
"","859","audio-keyboard-response","210","422589","0.0-3.0-1.164","../audio/04-4-masc.mp3"," ","","pela","","","",""
"","960","audio-keyboard-response","211","423900","0.0-3.0-1.165","../audio/04-5-masc.mp3"," ","","ponte","","","",""
"","939","audio-keyboard-response","212","425181","0.0-3.0-1.166","../audio/04-6-masc.mp3"," ","","hoje","","","",""
"","989","audio-keyboard-response","213","426548","0.0-3.0-1.167","../audio/04-7-masc.mp3"," ","","de","","","",""
"","1432","audio-keyboard-response","214","428289","0.0-3.0-1.168","../audio/04-8-masc.mp3"," ","","tarde.","","","",""
"","null","html-keyboard-response","215","429559","0.0-3.0-0.169-0.169","<span style= ""font-size:30px; font-family: monospace"">+</span>","null","fixation","","","","",""
"","1120","audio-keyboard-response","216","431021","0.0-3.0-1.169","../audio/01-1-fem.mp3"," ","","O","","","",""
"","728","audio-keyboard-response","217","432053","0.0-3.0-1.170","../audio/01-2-fem.mp3"," ","","menino","","","",""
"","701","audio-keyboard-response","218","433119","0.0-3.0-1.171","../audio/01-3-fem.mp3"," ","","derrubou","","","",""
"","931","audio-keyboard-response","219","434359","0.0-3.0-1.172","../audio/01-4-fem.mp3"," ","","a","","","",""
"","659","audio-keyboard-response","220","435625","0.0-3.0-1.173","../audio/01-5-fem.mp3"," ","","guitarra","","","",""
"","952","audio-keyboard-response","221","437046","0.0-3.0-1.174","../audio/01-6-fem.mp3"," ","","no","","","",""
"","1000","audio-keyboard-response","222","438353","0.0-3.0-1.175","../audio/01-7-fem.mp3"," ","","chão.","","","",""
"","null","html-keyboard-response","223","439618","0.0-3.0-0.176-0.176","<span style= ""font-size:30px; font-family: monospace"">+</span>","null","fixation","","","","",""
"","832","audio-keyboard-response","224","440887","0.0-3.0-1.176","../audio/03-1-masc.mp3"," ","","O","","","",""
"","859","audio-keyboard-response","225","442059","0.0-3.0-1.177","../audio/03-2-masc.mp3"," ","","coelho","","","",""
"","880","audio-keyboard-response","226","443290","0.0-3.0-1.178","../audio/03-3-masc.mp3"," ","","foi","","","",""
"","819","audio-keyboard-response","227","444492","0.0-3.0-1.179","../audio/03-4-masc.mp3"," ","","bastante","","","",""
"","1741","audio-keyboard-response","228","446568","0.0-3.0-1.180","../audio/03-5-masc.mp3"," ","","dócil","","","",""
"","240","audio-keyboard-response","229","447157","0.0-3.0-1.181","../audio/03-6-masc.mp3"," ","","com","","","",""
"","400","audio-keyboard-response","230","447864","0.0-3.0-1.182","../audio/03-7-masc.mp3"," ","","as","","","",""
"","131","audio-keyboard-response","231","448329","0.0-3.0-1.183","../audio/03-8-masc.mp3"," ","","crianças.","","","",""
"","null","html-keyboard-response","232","449602","0.0-3.0-0.184-0.184","<span style= ""font-size:30px; font-family: monospace"">+</span>","null","fixation","","","","",""
"","1051","audio-keyboard-response","233","450967","0.0-3.0-1.184","../audio/05-1-masc.mp3"," ","","A","","","",""
"","1011","audio-keyboard-response","234","452325","0.0-3.0-1.185","../audio/05-2-masc.mp3"," ","","vendedora","","","",""
"","175829","audio-keyboard-response","235","628803","0.0-3.0-1.186","../audio/05-3-masc.mp3"," ","","ajudou","","","",""
"","3240","audio-keyboard-response","236","632469","0.0-3.0-1.187","../audio/05-4-masc.mp3"," ","","um","","","",""
"","2211","audio-keyboard-response","237","635098","0.0-3.0-1.188","../audio/05-5-masc.mp3"," ","","turista","","","",""
"","211","audio-keyboard-response","238","636586","0.0-3.0-1.189","../audio/05-6-masc.mp3"," ","","na","","","",""
"","160","audio-keyboard-response","239","637852","0.0-3.0-1.190","../audio/05-7-masc.mp3"," ","","loja.","","","",""
"","4797","html-keyboard-response","240","642903","0.0-3.0-2.190-0.190","<span style=""font-size:25px; font-family: monospace"">A vendedora ajudou um turista?</span>","n","","","A vendedora ajudou um turista?","null","exp-sent","false"
"","null","html-keyboard-response","241","644414","0.0-3.0-0.191-0.191","<span style= ""font-size:30px; font-family: monospace"">+</span>","null","fixation","","","","",""
"","1691","audio-keyboard-response","242","646448","0.0-3.0-1.191","../audio/46-1-fem.mp3"," ","","Meu","","","",""
"","1520","audio-keyboard-response","243","648276","0.0-3.0-1.192","../audio/46-2-fem.mp3"," ","","primo","","","",""
"","1829","audio-keyboard-response","244","650484","0.0-3.0-1.193","../audio/46-3-fem.mp3"," ","","estava","","","",""
"","1661","audio-keyboard-response","245","652501","0.0-3.0-1.194","../audio/46-4-fem.mp3"," ","","muito","","","",""
"","1781","audio-keyboard-response","246","654699","0.0-3.0-1.195","../audio/46-5-fem.mp3"," ","","deprimido","","","",""
"","1469","audio-keyboard-response","247","656609","0.0-3.0-1.196","../audio/46-6-fem.mp3"," ","","no","","","",""
"","1600","audio-keyboard-response","248","658536","0.0-3.0-1.197","../audio/46-7-fem.mp3"," ","","inverno.","","","",""
"","null","html-keyboard-response","249","659797","0.0-3.0-0.198-0.198","<span style= ""font-size:30px; font-family: monospace"">+</span>","null","fixation","","","","",""
"","848","audio-keyboard-response","250","661000","0.0-3.0-1.198","../audio/49-1-fem.mp3"," ","","Eu","","","",""
"","1381","audio-keyboard-response","251","662748","0.0-3.0-1.199","../audio/49-2-fem.mp3"," ","","quero","","","",""
"","1341","audio-keyboard-response","252","664453","0.0-3.0-1.200","../audio/49-3-fem.mp3"," ","","um","","","",""
"","1451","audio-keyboard-response","253","666209","0.0-3.0-1.201","../audio/49-4-fem.mp3"," ","","lanche","","","",""
"","1339","audio-keyboard-response","254","667852","0.0-3.0-1.202","../audio/49-5-fem.mp3"," ","","duplo","","","",""
"","1269","audio-keyboard-response","255","669440","0.0-3.0-1.203","../audio/49-6-fem.mp3"," ","","e","","","",""
"","1309","audio-keyboard-response","256","671062","0.0-3.0-1.204","../audio/49-7-fem.mp3"," ","","um","","","",""
"","1480","audio-keyboard-response","257","672853","0.0-3.0-1.205","../audio/49-8-fem.mp3"," ","","suco.","","","",""
"","null","html-keyboard-response","258","674126","0.0-3.0-0.206-0.206","<span style= ""font-size:30px; font-family: monospace"">+</span>","null","fixation","","","","",""
"","429","audio-keyboard-response","259","674924","0.0-3.0-1.206","../audio/48-1-masc.mp3"," ","","Ela","","","",""
"","1229","audio-keyboard-response","260","676484","0.0-3.0-1.207","../audio/48-2-masc.mp3"," ","","come","","","",""
"","1280","audio-keyboard-response","261","678101","0.0-3.0-1.208","../audio/48-3-masc.mp3"," ","","feijão","","","",""
"","1269","audio-keyboard-response","262","679687","0.0-3.0-1.209","../audio/48-4-masc.mp3"," ","","com","","","",""
"","1280","audio-keyboard-response","263","681279","0.0-3.0-1.210","../audio/48-5-masc.mp3"," ","","arroz","","","",""
"","1259","audio-keyboard-response","264","682852","0.0-3.0-1.211","../audio/48-6-masc.mp3"," ","","todos","","","",""
"","1168","audio-keyboard-response","265","684401","0.0-3.0-1.212","../audio/48-7-masc.mp3"," ","","os","","","",""
"","1240","audio-keyboard-response","266","685951","0.0-3.0-1.213","../audio/48-8-masc.mp3"," ","","dias.","","","",""
"","null","html-keyboard-response","267","687226","0.0-3.0-0.214-0.214","<span style= ""font-size:30px; font-family: monospace"">+</span>","null","fixation","","","","",""
"","211","audio-keyboard-response","268","687813","0.0-3.0-1.214","../audio/47-1-masc.mp3"," ","","O","","","",""
"","1232","audio-keyboard-response","269","689346","0.0-3.0-1.215","../audio/47-2-masc.mp3"," ","","tio","","","",""
"","1168","audio-keyboard-response","270","690834","0.0-3.0-1.216","../audio/47-3-masc.mp3"," ","","recusou","","","",""
"","1091","audio-keyboard-response","271","692230","0.0-3.0-1.217","../audio/47-4-masc.mp3"," ","","a","","","",""
"","1160","audio-keyboard-response","272","693809","0.0-3.0-1.218","../audio/47-5-masc.mp3"," ","","sobremesa","","","",""
"","1149","audio-keyboard-response","273","695291","0.0-3.0-1.219","../audio/47-6-masc.mp3"," ","","no","","","",""
"","1080","audio-keyboard-response","274","696690","0.0-3.0-1.220","../audio/47-7-masc.mp3"," ","","almoço.","","","",""
"","null","html-keyboard-response","275","697950","0.0-3.0-0.221-0.221","<span style= ""font-size:30px; font-family: monospace"">+</span>","null","fixation","","","","",""
"","339","audio-keyboard-response","276","698644","0.0-3.0-1.221","../audio/50-1-fem.mp3"," ","","O","","","",""
"","709","audio-keyboard-response","277","699716","0.0-3.0-1.222","../audio/50-2-fem.mp3"," ","","pássaro","","","",""
"","1400","audio-keyboard-response","278","701437","0.0-3.0-1.223","../audio/50-3-fem.mp3"," ","","fugiu","","","",""
"","1211","audio-keyboard-response","279","702948","0.0-3.0-1.224","../audio/50-4-fem.mp3"," ","","da","","","",""
"","1181","audio-keyboard-response","280","704511","0.0-3.0-1.225","../audio/50-5-fem.mp3"," ","","gaiola","","","",""
"","1219","audio-keyboard-response","281","706040","0.0-3.0-1.226","../audio/50-6-fem.mp3"," ","","pela","","","",""
"","1792","audio-keyboard-response","282","708143","0.0-3.0-1.227","../audio/50-7-fem.mp3"," ","","portinhola.","","","",""
"","9692","html-keyboard-response","283","718098","0.0-3.0-2.227-0.227","<span style=""font-size:25px; font-family: monospace"">O pássaro fugiu da gaiola?</span>","s","","","O pássaro fugiu da gaiola?","null","exp-sent","false"
"","null","html-keyboard-response","284","719623","0.0-3.0-0.228-0.228","<span style= ""font-size:30px; font-family: monospace"">+</span>","null","fixation","","","","",""
"","1261","audio-keyboard-response","285","721226","0.0-3.0-1.228","../audio/14-1-masc.mp3"," ","","O","","","",""
"","1219","audio-keyboard-response","286","722760","0.0-3.0-1.229","../audio/14-2-masc.mp3"," ","","cachorro","","","",""
"","1019","audio-keyboard-response","287","724153","0.0-3.0-1.230","../audio/14-3-masc.mp3"," ","","é","","","",""
"","3080","audio-keyboard-response","288","727548","0.0-3.0-1.231","../audio/14-4-masc.mp3"," ","","muito","","","",""
"","1291","audio-keyboard-response","289","729252","0.0-3.0-1.232","../audio/14-5-masc.mp3"," ","","fiel","","","",""
"","1211","audio-keyboard-response","290","730768","0.0-3.0-1.233","../audio/14-6-masc.mp3"," ","","a","","","",""
"","1192","audio-keyboard-response","291","732266","0.0-3.0-1.234","../audio/14-7-masc.mp3"," ","","seus","","","",""
"","1349","audio-keyboard-response","292","733996","0.0-3.0-1.235","../audio/14-8-masc.mp3"," ","","donos.","","","",""
"","null","html-keyboard-response","293","735262","0.0-3.0-0.236-0.236","<span style= ""font-size:30px; font-family: monospace"">+</span>","null","fixation","","","","",""
"","549","audio-keyboard-response","294","736247","0.0-3.0-1.236","../audio/12-1-fem.mp3"," ","","O","","","",""
"","1051","audio-keyboard-response","295","737612","0.0-3.0-1.237","../audio/12-2-fem.mp3"," ","","dia","","","",""
"","1109","audio-keyboard-response","296","739055","0.0-3.0-1.238","../audio/12-3-fem.mp3"," ","","estava","","","",""
"","1072","audio-keyboard-response","297","740429","0.0-3.0-1.239","../audio/12-4-fem.mp3"," ","","quente,","","","",""
"","1080","audio-keyboard-response","298","741865","0.0-3.0-1.240","../audio/12-5-fem.mp3"," ","","tranquilo","","","",""
"","1029","audio-keyboard-response","299","743194","0.0-3.0-1.241","../audio/12-6-fem.mp3"," ","","e","","","",""
"","1179","audio-keyboard-response","300","744773","0.0-3.0-1.242","../audio/12-7-fem.mp3"," ","","ensolarado.","","","",""
"","null","html-keyboard-response","301","746036","0.0-3.0-0.243-0.243","<span style= ""font-size:30px; font-family: monospace"">+</span>","null","fixation","","","","",""
"","240","audio-keyboard-response","302","746638","0.0-3.0-1.243","../audio/11-1-fem.mp3"," ","","Elas","","","",""
"","1221","audio-keyboard-response","303","748269","0.0-3.0-1.244","../audio/11-2-fem.mp3"," ","","gostam","","","",""
"","1352","audio-keyboard-response","304","749990","0.0-3.0-1.245","../audio/11-3-fem.mp3"," ","","muito","","","",""
"","1160","audio-keyboard-response","305","751444","0.0-3.0-1.246","../audio/11-4-fem.mp3"," ","","de","","","",""
"","1840","audio-keyboard-response","306","753643","0.0-3.0-1.247","../audio/11-5-fem.mp3"," ","","aritmética","","","",""
"","1069","audio-keyboard-response","307","755133","0.0-3.0-1.248","../audio/11-6-fem.mp3"," ","","e","","","",""
"","1120","audio-keyboard-response","308","756572","0.0-3.0-1.249","../audio/11-7-fem.mp3"," ","","de","","","",""
"","1909","audio-keyboard-response","309","758815","0.0-3.0-1.250","../audio/11-8-fem.mp3"," ","","leitura.","","","",""
"","null","html-keyboard-response","310","760083","0.0-3.0-0.251-0.251","<span style= ""font-size:30px; font-family: monospace"">+</span>","null","fixation","","","","",""
"","299","audio-keyboard-response","311","760883","0.0-3.0-1.251","../audio/13-1-masc.mp3"," ","","Para","","","",""
"","5840","audio-keyboard-response","312","767037","0.0-3.0-1.252","../audio/13-2-masc.mp3"," ","","mim","","","",""
"","1149","audio-keyboard-response","313","768543","0.0-3.0-1.253","../audio/13-3-masc.mp3"," ","","é","","","",""
"","1251","audio-keyboard-response","314","770108","0.0-3.0-1.254","../audio/13-4-masc.mp3"," ","","muito","","","",""
"","971","audio-keyboard-response","315","771381","0.0-3.0-1.255","../audio/13-5-masc.mp3"," ","","difícil","","","",""
"","1000","audio-keyboard-response","316","772703","0.0-3.0-1.256","../audio/13-6-masc.mp3"," ","","acordar","","","",""
"","1109","audio-keyboard-response","317","774416","0.0-3.0-1.257","../audio/13-7-masc.mp3"," ","","cedo.","","","",""
"","null","html-keyboard-response","318","775682","0.0-3.0-0.258-0.258","<span style= ""font-size:30px; font-family: monospace"">+</span>","null","fixation","","","","",""
"","440","audio-keyboard-response","319","776554","0.0-3.0-1.258","../audio/15-1-masc.mp3"," ","","Meu","","","",""
"","621","audio-keyboard-response","320","777551","0.0-3.0-1.259","../audio/15-2-masc.mp3"," ","","primo","","","",""
"","1080","audio-keyboard-response","321","778928","0.0-3.0-1.260","../audio/15-3-masc.mp3"," ","","é","","","",""
"","1280","audio-keyboard-response","322","780522","0.0-3.0-1.261","../audio/15-4-masc.mp3"," ","","um","","","",""
"","1371","audio-keyboard-response","323","782232","0.0-3.0-1.262","../audio/15-5-masc.mp3"," ","","grande","","","",""
"","1229","audio-keyboard-response","324","783843","0.0-3.0-1.263","../audio/15-6-masc.mp3"," ","","vendedor","","","",""
"","1112","audio-keyboard-response","325","785270","0.0-3.0-1.264","../audio/15-7-masc.mp3"," ","","de","","","",""
"","1000","audio-keyboard-response","326","786592","0.0-3.0-1.265","../audio/15-8-masc.mp3"," ","","carros.","","","",""
"","5200","html-keyboard-response","327","792055","0.0-3.0-2.265-0.265","<span style=""font-size:25px; font-family: monospace"">O primo é um vendedor de carros?</span>","s","","","O primo é um vendedor de carros?","null","exp-sent","false"
"","null","html-keyboard-response","328","793571","0.0-3.0-0.266-0.266","<span style= ""font-size:30px; font-family: monospace"">+</span>","null","fixation","","","","",""
"","1000","audio-keyboard-response","329","794947","0.0-3.0-1.266","../audio/26-1-masc.mp3"," ","","Amanhã","","","",""
"","949","audio-keyboard-response","330","796207","0.0-3.0-1.267","../audio/26-2-masc.mp3"," ","","temos","","","",""
"","1011","audio-keyboard-response","331","797541","0.0-3.0-1.268","../audio/26-3-masc.mp3"," ","","festa","","","",""
"","1109","audio-keyboard-response","332","798966","0.0-3.0-1.269","../audio/26-4-masc.mp3"," ","","na","","","",""
"","1229","audio-keyboard-response","333","800540","0.0-3.0-1.270","../audio/26-5-masc.mp3"," ","","piscina","","","",""
"","1091","audio-keyboard-response","334","801950","0.0-3.0-1.271","../audio/26-6-masc.mp3"," ","","o","","","",""
"","1269","audio-keyboard-response","335","803530","0.0-3.0-1.272","../audio/26-7-masc.mp3"," ","","dia","","","",""
"","1501","audio-keyboard-response","336","805392","0.0-3.0-1.273","../audio/26-8-masc.mp3"," ","","todo.","","","",""
"","null","html-keyboard-response","337","806655","0.0-3.0-0.274-0.274","<span style= ""font-size:30px; font-family: monospace"">+</span>","null","fixation","","","","",""
"","1179","audio-keyboard-response","338","808207","0.0-3.0-1.274","../audio/29-1-masc.mp3"," ","","Hoje","","","",""
"","1160","audio-keyboard-response","339","809722","0.0-3.0-1.275","../audio/29-2-masc.mp3"," ","","vamos","","","",""
"","1029","audio-keyboard-response","340","811074","0.0-3.0-1.276","../audio/29-3-masc.mp3"," ","","fazer","","","",""
"","1059","audio-keyboard-response","341","812438","0.0-3.0-1.277","../audio/29-4-masc.mp3"," ","","uma","","","",""
"","1520","audio-keyboard-response","342","814339","0.0-3.0-1.278","../audio/29-5-masc.mp3"," ","","atividade","","","",""
"","1331","audio-keyboard-response","343","815980","0.0-3.0-1.279","../audio/29-6-masc.mp3"," ","","sobre","","","",""
"","1381","audio-keyboard-response","344","817668","0.0-3.0-1.280","../audio/29-7-masc.mp3"," ","","fauna","","","",""
"","1859","audio-keyboard-response","345","819852","0.0-3.0-1.281","../audio/29-8-masc.mp3"," ","","marinha.","","","",""
"","null","html-keyboard-response","346","821120","0.0-3.0-0.282-0.282","<span style= ""font-size:30px; font-family: monospace"">+</span>","null","fixation","","","","",""
"","1048","audio-keyboard-response","347","822557","0.0-3.0-1.282","../audio/28-1-fem.mp3"," ","","O","","","",""
"","1000","audio-keyboard-response","348","823978","0.0-3.0-1.283","../audio/28-2-fem.mp3"," ","","time","","","",""
"","1040","audio-keyboard-response","349","825326","0.0-3.0-1.284","../audio/28-3-fem.mp3"," ","","quer","","","",""
"","989","audio-keyboard-response","350","826616","0.0-3.0-1.285","../audio/28-4-fem.mp3"," ","","a","","","",""
"","1080","audio-keyboard-response","351","828015","0.0-3.0-1.286","../audio/28-5-fem.mp3"," ","","vitória","","","",""
"","2931","audio-keyboard-response","352","831252","0.0-3.0-1.287","../audio/28-6-fem.mp3"," ","","no","","","",""
"","1520","audio-keyboard-response","353","833128","0.0-3.0-1.288","../audio/28-7-fem.mp3"," ","","jogo","","","",""
"","1851","audio-keyboard-response","354","835340","0.0-3.0-1.289","../audio/28-8-fem.mp3"," ","","de","","","",""
"","2291","audio-keyboard-response","355","837983","0.0-3.0-1.290","../audio/28-9-fem.mp3"," ","","vôlei.","","","",""
"","null","html-keyboard-response","356","839247","0.0-3.0-0.291-0.291","<span style= ""font-size:30px; font-family: monospace"">+</span>","null","fixation","","","","",""
"","1440","audio-keyboard-response","357","841044","0.0-3.0-1.291","../audio/27-1-masc.mp3"," ","","O","","","",""
"","5360","audio-keyboard-response","358","846715","0.0-3.0-1.292","../audio/27-2-masc.mp3"," ","","dinheiro","","","",""
"","1352","audio-keyboard-response","359","848429","0.0-3.0-1.293","../audio/27-3-masc.mp3"," ","","chegou","","","",""
"","1728","audio-keyboard-response","360","850473","0.0-3.0-1.294","../audio/27-4-masc.mp3"," ","","à","","","",""
"","3480","audio-keyboard-response","361","854326","0.0-3.0-1.295","../audio/27-5-masc.mp3"," ","","elite","","","",""
"","1539","audio-keyboard-response","362","856242","0.0-3.0-1.296","../audio/27-6-masc.mp3"," ","","deste","","","",""
"","4549","audio-keyboard-response","363","861102","0.0-3.0-1.297","../audio/27-7-masc.mp3"," ","","país.","","","",""
"","null","html-keyboard-response","364","862377","0.0-3.0-0.298-0.298","<span style= ""font-size:30px; font-family: monospace"">+</span>","null","fixation","","","","",""
"","269","audio-keyboard-response","365","863022","0.0-3.0-1.298","../audio/30-1-masc.mp3"," ","","O","","","",""
"","781","audio-keyboard-response","366","864149","0.0-3.0-1.299","../audio/30-2-masc.mp3"," ","","funcionário","","","",""
"","1669","audio-keyboard-response","367","866125","0.0-3.0-1.300","../audio/30-3-masc.mp3"," ","","entregou","","","",""
"","1211","audio-keyboard-response","368","867658","0.0-3.0-1.301","../audio/30-4-masc.mp3"," ","","o","","","",""
"","1461","audio-keyboard-response","369","869464","0.0-3.0-1.302","../audio/30-5-masc.mp3"," ","","restante","","","",""
"","981","audio-keyboard-response","370","870737","0.0-3.0-1.303","../audio/30-6-masc.mp3"," ","","do","","","",""
"","1099","audio-keyboard-response","371","872211","0.0-3.0-1.304","../audio/30-7-masc.mp3"," ","","dinheiro.","","","",""
"","3173","html-keyboard-response","372","875645","0.0-3.0-2.304-0.304","<span style=""font-size:25px; font-family: monospace"">O funcionário entregou o contrato?</span>","n","","","O funcionário entregou o contrato?","null","exp-sent","false"
"","null","html-keyboard-response","373","877162","0.0-3.0-0.305-0.305","<span style= ""font-size:30px; font-family: monospace"">+</span>","null","fixation","","","","",""
"","1091","audio-keyboard-response","374","878614","0.0-3.0-1.305","../audio/71-1-masc.mp3"," ","","Minhas","","","",""
"","960","audio-keyboard-response","375","879886","0.0-3.0-1.306","../audio/71-2-masc.mp3"," ","","comidas","","","",""
"","1080","audio-keyboard-response","376","881294","0.0-3.0-1.307","../audio/71-3-masc.mp3"," ","","favoritas","","","",""
"","1160","audio-keyboard-response","377","882760","0.0-3.0-1.308","../audio/71-4-masc.mp3"," ","","são","","","",""
"","1088","audio-keyboard-response","378","884234","0.0-3.0-1.309","../audio/71-5-masc.mp3"," ","","morango","","","",""
"","1589","audio-keyboard-response","379","886115","0.0-3.0-1.310","../audio/71-6-masc.mp3"," ","","e","","","",""
"","1491","audio-keyboard-response","380","888138","0.0-3.0-1.311","../audio/71-7-masc.mp3"," ","","uva.","","","",""
"","null","html-keyboard-response","381","889406","0.0-3.0-0.312-0.312","<span style= ""font-size:30px; font-family: monospace"">+</span>","null","fixation","","","","",""
"","408","audio-keyboard-response","382","890162","0.0-3.0-1.312","../audio/74-1-fem.mp3"," ","","Este","","","",""
"","581","audio-keyboard-response","383","891066","0.0-3.0-1.313","../audio/74-2-fem.mp3"," ","","emprego","","","",""
"","829","audio-keyboard-response","384","892200","0.0-3.0-1.314","../audio/74-3-fem.mp3"," ","","é","","","",""
"","1320","audio-keyboard-response","385","893925","0.0-3.0-1.315","../audio/74-4-fem.mp3"," ","","muito","","","",""
"","1848","audio-keyboard-response","386","896117","0.0-3.0-1.316","../audio/74-5-fem.mp3"," ","","cansativo","","","",""
"","1472","audio-keyboard-response","387","897953","0.0-3.0-1.317","../audio/74-6-fem.mp3"," ","","a","","","",""
"","1269","audio-keyboard-response","388","899525","0.0-3.0-1.318","../audio/74-7-fem.mp3"," ","","longo","","","",""
"","1440","audio-keyboard-response","389","901275","0.0-3.0-1.319","../audio/74-8-fem.mp3"," ","","prazo.","","","",""
"","null","html-keyboard-response","390","902540","0.0-3.0-0.320-0.320","<span style= ""font-size:30px; font-family: monospace"">+</span>","null","fixation","","","","",""
"","368","audio-keyboard-response","391","903273","0.0-3.0-1.320","../audio/73-1-masc.mp3"," ","","O","","","",""
"","1440","audio-keyboard-response","392","905048","0.0-3.0-1.321","../audio/73-2-masc.mp3"," ","","cliente","","","",""
"","1091","audio-keyboard-response","393","906451","0.0-3.0-1.322","../audio/73-3-masc.mp3"," ","","era","","","",""
"","1080","audio-keyboard-response","394","907843","0.0-3.0-1.323","../audio/73-4-masc.mp3"," ","","um","","","",""
"","1192","audio-keyboard-response","395","909343","0.0-3.0-1.324","../audio/73-5-masc.mp3"," ","","homem","","","",""
"","1251","audio-keyboard-response","396","910942","0.0-3.0-1.325","../audio/73-6-masc.mp3"," ","","muito","","","",""
"","1560","audio-keyboard-response","397","912847","0.0-3.0-1.326","../audio/73-7-masc.mp3"," ","","educado.","","","",""
"","null","html-keyboard-response","398","914113","0.0-3.0-0.327-0.327","<span style= ""font-size:30px; font-family: monospace"">+</span>","null","fixation","","","","",""
"","411","audio-keyboard-response","399","914892","0.0-3.0-1.327","../audio/72-1-fem.mp3"," ","","A","","","",""
"","1419","audio-keyboard-response","400","916647","0.0-3.0-1.328","../audio/72-2-fem.mp3"," ","","vencedora","","","",""
"","1411","audio-keyboard-response","401","918367","0.0-3.0-1.329","../audio/72-3-fem.mp3"," ","","recebeu","","","",""
"","1440","audio-keyboard-response","402","920093","0.0-3.0-1.330","../audio/72-4-fem.mp3"," ","","um","","","",""
"","1392","audio-keyboard-response","403","921784","0.0-3.0-1.331","../audio/72-5-fem.mp3"," ","","prêmio","","","",""
"","1389","audio-keyboard-response","404","923477","0.0-3.0-1.332","../audio/72-6-fem.mp3"," ","","em","","","",""
"","1360","audio-keyboard-response","405","925231","0.0-3.0-1.333","../audio/72-7-fem.mp3"," ","","dinheiro.","","","",""
"","null","html-keyboard-response","406","926492","0.0-3.0-0.334-0.334","<span style= ""font-size:30px; font-family: monospace"">+</span>","null","fixation","","","","",""
"","80","audio-keyboard-response","407","926923","0.0-3.0-1.334","../audio/75-1-fem.mp3"," ","","Só","","","",""
"","1531","audio-keyboard-response","408","928774","0.0-3.0-1.335","../audio/75-2-fem.mp3"," ","","existe","","","",""
"","1160","audio-keyboard-response","409","930259","0.0-3.0-1.336","../audio/75-3-fem.mp3"," ","","uma","","","",""
"","1291","audio-keyboard-response","410","931865","0.0-3.0-1.337","../audio/75-4-fem.mp3"," ","","pessoa","","","",""
"","891","audio-keyboard-response","411","933108","0.0-3.0-1.338","../audio/75-5-fem.mp3"," ","","canhota","","","",""
"","1160","audio-keyboard-response","412","934700","0.0-3.0-1.339","../audio/75-6-fem.mp3"," ","","nesta","","","",""
"","2269","audio-keyboard-response","413","937302","0.0-3.0-1.340","../audio/75-7-fem.mp3"," ","","cidade.","","","",""
"","20079","html-keyboard-response","414","957634","0.0-3.0-2.340-0.340","<span style=""font-size:25px; font-family: monospace"">Só existe uma pessoa canhota na cidade?</span>","s","","","Só existe uma pessoa canhota na cidade?","null","exp-sent","false"
"","null","html-keyboard-response","415","959160","0.0-3.0-0.341-0.341","<span style= ""font-size:30px; font-family: monospace"">+</span>","null","fixation","","","","",""
"","1320","audio-keyboard-response","416","960946","0.0-3.0-1.341","../audio/06-1-fem.mp3"," ","","Ouvimos","","","",""
"","1211","audio-keyboard-response","417","962456","0.0-3.0-1.342","../audio/06-2-fem.mp3"," ","","a","","","",""
"","1200","audio-keyboard-response","418","964106","0.0-3.0-1.343","../audio/06-3-fem.mp3"," ","","fala","","","",""
"","1000","audio-keyboard-response","419","965408","0.0-3.0-1.344","../audio/06-4-fem.mp3"," ","","do","","","",""
"","1349","audio-keyboard-response","420","967089","0.0-3.0-1.345","../audio/06-5-fem.mp3"," ","","profeta","","","",""
"","1099","audio-keyboard-response","421","968485","0.0-3.0-1.346","../audio/06-6-fem.mp3"," ","","no","","","",""
"","901","audio-keyboard-response","422","969695","0.0-3.0-1.347","../audio/06-7-fem.mp3"," ","","púlpito","","","",""
"","1019","audio-keyboard-response","423","971039","0.0-3.0-1.348","../audio/06-8-fem.mp3"," ","","da","","","",""
"","971","audio-keyboard-response","424","972350","0.0-3.0-1.349","../audio/06-9-fem.mp3"," ","","igreja.","","","",""
"","null","html-keyboard-response","425","973626","0.0-3.0-0.350-0.350","<span style= ""font-size:30px; font-family: monospace"">+</span>","null","fixation","","","","",""
"","1091","audio-keyboard-response","426","975073","0.0-3.0-1.350","../audio/07-1-fem.mp3"," ","","Meu","","","",""
"","928","audio-keyboard-response","427","976316","0.0-3.0-1.351","../audio/07-2-fem.mp3"," ","","filho","","","",""
"","928","audio-keyboard-response","428","977556","0.0-3.0-1.352","../audio/07-3-fem.mp3"," ","","é","","","",""
"","1048","audio-keyboard-response","429","978922","0.0-3.0-1.353","../audio/07-4-fem.mp3"," ","","muito","","","",""
"","1232","audio-keyboard-response","430","980472","0.0-3.0-1.354","../audio/07-5-fem.mp3"," ","","responsável","","","",""
"","1040","audio-keyboard-response","431","981834","0.0-3.0-1.355","../audio/07-6-fem.mp3"," ","","nos","","","",""
"","1240","audio-keyboard-response","432","983415","0.0-3.0-1.356","../audio/07-7-fem.mp3"," ","","estudos.","","","",""
"","null","html-keyboard-response","433","984690","0.0-3.0-0.357-0.357","<span style= ""font-size:30px; font-family: monospace"">+</span>","null","fixation","","","","",""
"","560","audio-keyboard-response","434","985643","0.0-3.0-1.357","../audio/09-1-fem.mp3"," ","","O","","","",""
"","1360","audio-keyboard-response","435","987350","0.0-3.0-1.358","../audio/09-2-fem.mp3"," ","","rapaz","","","",""
"","1280","audio-keyboard-response","436","988960","0.0-3.0-1.359","../audio/09-3-fem.mp3"," ","","limpou","","","",""
"","1059","audio-keyboard-response","437","990319","0.0-3.0-1.360","../audio/09-4-fem.mp3"," ","","o","","","",""
"","1051","audio-keyboard-response","438","991688","0.0-3.0-1.361","../audio/09-5-fem.mp3"," ","","terreno","","","",""
"","1048","audio-keyboard-response","439","993038","0.0-3.0-1.362","../audio/09-6-fem.mp3"," ","","com","","","",""
"","920","audio-keyboard-response","440","994353","0.0-3.0-1.363","../audio/09-7-fem.mp3"," ","","uma","","","",""
"","928","audio-keyboard-response","441","995603","0.0-3.0-1.364","../audio/09-8-fem.mp3"," ","","pá.","","","",""
"","null","html-keyboard-response","442","996880","0.0-3.0-0.365-0.365","<span style= ""font-size:30px; font-family: monospace"">+</span>","null","fixation","","","","",""
"","1080","audio-keyboard-response","443","998309","0.0-3.0-1.365","../audio/08-1-masc.mp3"," ","","A","","","",""
"","981","audio-keyboard-response","444","999632","0.0-3.0-1.366","../audio/08-2-masc.mp3"," ","","receita","","","",""
"","939","audio-keyboard-response","445","1000883","0.0-3.0-1.367","../audio/08-3-masc.mp3"," ","","pede","","","",""
"","1029","audio-keyboard-response","446","1002221","0.0-3.0-1.368","../audio/08-4-masc.mp3"," ","","um","","","",""
"","1291","audio-keyboard-response","447","1003822","0.0-3.0-1.369","../audio/08-5-masc.mp3"," ","","litro","","","",""
"","1040","audio-keyboard-response","448","1005174","0.0-3.0-1.370","../audio/08-6-masc.mp3"," ","","de","","","",""
"","1221","audio-keyboard-response","449","1006741","0.0-3.0-1.371","../audio/08-7-masc.mp3"," ","","leite","","","",""
"","1421","audio-keyboard-response","450","1008510","0.0-3.0-1.372","../audio/08-8-masc.mp3"," ","","integral.","","","",""
"","null","html-keyboard-response","451","1009774","0.0-3.0-0.373-0.373","<span style= ""font-size:30px; font-family: monospace"">+</span>","null","fixation","","","","",""
"","461","audio-keyboard-response","452","1010584","0.0-3.0-1.373","../audio/10-1-fem.mp3"," ","","O","","","",""
"","952","audio-keyboard-response","453","1011867","0.0-3.0-1.374","../audio/10-2-fem.mp3"," ","","pássaro","","","",""
"","909","audio-keyboard-response","454","1013080","0.0-3.0-1.375","../audio/10-3-fem.mp3"," ","","azul","","","",""
"","859","audio-keyboard-response","455","1014316","0.0-3.0-1.376","../audio/10-4-fem.mp3"," ","","estava","","","",""
"","861","audio-keyboard-response","456","1015513","0.0-3.0-1.377","../audio/10-5-fem.mp3"," ","","vivo","","","",""
"","931","audio-keyboard-response","457","1016746","0.0-3.0-1.378","../audio/10-6-fem.mp3"," ","","e","","","",""
"","989","audio-keyboard-response","458","1018047","0.0-3.0-1.379","../audio/10-7-fem.mp3"," ","","em","","","",""
"","1109","audio-keyboard-response","459","1019479","0.0-3.0-1.380","../audio/10-8-fem.mp3"," ","","segurança.","","","",""
"","6674","html-keyboard-response","460","1026419","0.0-3.0-2.380-0.380","<span style=""font-size:25px; font-family: monospace"">O pássaro vermelho estava em segurança?</span>","n","","","O pássaro vermelho estava em segurança?","null","exp-sent","false"
"","null","html-keyboard-response","461","1027946","0.0-3.0-0.381-0.381","<span style= ""font-size:30px; font-family: monospace"">+</span>","null","fixation","","","","",""
"","1280","audio-keyboard-response","462","1029610","0.0-3.0-1.381","../audio/78-1-masc.mp3"," ","","Eles","","","",""
"","1120","audio-keyboard-response","463","1031042","0.0-3.0-1.382","../audio/78-2-masc.mp3"," ","","trazem","","","",""
"","981","audio-keyboard-response","464","1032339","0.0-3.0-1.383","../audio/78-3-masc.mp3"," ","","um","","","",""
"","1011","audio-keyboard-response","465","1033790","0.0-3.0-1.384","../audio/78-4-masc.mp3"," ","","fato","","","",""
"","1061","audio-keyboard-response","466","1035185","0.0-3.0-1.385","../audio/78-5-masc.mp3"," ","","urgente","","","",""
"","840","audio-keyboard-response","467","1036335","0.0-3.0-1.386","../audio/78-6-masc.mp3"," ","","todos","","","",""
"","971","audio-keyboard-response","468","1037603","0.0-3.0-1.387","../audio/78-7-masc.mp3"," ","","os","","","",""
"","1171","audio-keyboard-response","469","1039085","0.0-3.0-1.388","../audio/78-8-masc.mp3"," ","","dias.","","","",""
"","null","html-keyboard-response","470","1040359","0.0-3.0-0.389-0.389","<span style= ""font-size:30px; font-family: monospace"">+</span>","null","fixation","","","","",""
"","1000","audio-keyboard-response","471","1041736","0.0-3.0-1.389","../audio/77-1-fem.mp3"," ","","A","","","",""
"","920","audio-keyboard-response","472","1043002","0.0-3.0-1.390","../audio/77-2-fem.mp3"," ","","criança","","","",""
"","931","audio-keyboard-response","473","1044293","0.0-3.0-1.391","../audio/77-3-fem.mp3"," ","","ficou","","","",""
"","931","audio-keyboard-response","474","1045525","0.0-3.0-1.392","../audio/77-4-fem.mp3"," ","","muito","","","",""
"","909","audio-keyboard-response","475","1046766","0.0-3.0-1.393","../audio/77-5-fem.mp3"," ","","feliz","","","",""
"","920","audio-keyboard-response","476","1047992","0.0-3.0-1.394","../audio/77-6-fem.mp3"," ","","com","","","",""
"","960","audio-keyboard-response","477","1049243","0.0-3.0-1.395","../audio/77-7-fem.mp3"," ","","o","","","",""
"","1371","audio-keyboard-response","478","1050936","0.0-3.0-1.396","../audio/77-8-fem.mp3"," ","","brinquedo.","","","",""
"","null","html-keyboard-response","479","1052213","0.0-3.0-0.397-0.397","<span style= ""font-size:30px; font-family: monospace"">+</span>","null","fixation","","","","",""
"","248","audio-keyboard-response","480","1052879","0.0-3.0-1.397","../audio/76-1-fem.mp3"," ","","O","","","",""
"","741","audio-keyboard-response","481","1053974","0.0-3.0-1.398","../audio/76-2-fem.mp3"," ","","bisavô","","","",""
"","1171","audio-keyboard-response","482","1055443","0.0-3.0-1.399","../audio/76-3-fem.mp3"," ","","comprou","","","",""
"","880","audio-keyboard-response","483","1056639","0.0-3.0-1.400","../audio/76-4-fem.mp3"," ","","um","","","",""
"","941","audio-keyboard-response","484","1057910","0.0-3.0-1.401","../audio/76-5-fem.mp3"," ","","ralador","","","",""
"","789","audio-keyboard-response","485","1058999","0.0-3.0-1.402","../audio/76-6-fem.mp3"," ","","de","","","",""
"","989","audio-keyboard-response","486","1060285","0.0-3.0-1.403","../audio/76-7-fem.mp3"," ","","queijo.","","","",""
"","null","html-keyboard-response","487","1061544","0.0-3.0-0.404-0.404","<span style= ""font-size:30px; font-family: monospace"">+</span>","null","fixation","","","","",""
"","1000","audio-keyboard-response","488","1062887","0.0-3.0-1.404","../audio/79-1-masc.mp3"," ","","A","","","",""
"","960","audio-keyboard-response","489","1064204","0.0-3.0-1.405","../audio/79-2-masc.mp3"," ","","médica","","","",""
"","960","audio-keyboard-response","490","1065495","0.0-3.0-1.406","../audio/79-3-masc.mp3"," ","","verificou","","","",""
"","952","audio-keyboard-response","491","1066751","0.0-3.0-1.407","../audio/79-4-masc.mp3"," ","","a","","","",""
"","992","audio-keyboard-response","492","1068065","0.0-3.0-1.408","../audio/79-5-masc.mp3"," ","","gengiva","","","",""
"","939","audio-keyboard-response","493","1069319","0.0-3.0-1.409","../audio/79-6-masc.mp3"," ","","por","","","",""
"","2109","audio-keyboard-response","494","1071736","0.0-3.0-1.410","../audio/79-7-masc.mp3"," ","","último.","","","",""
"","null","html-keyboard-response","495","1073009","0.0-3.0-0.411-0.411","<span style= ""font-size:30px; font-family: monospace"">+</span>","null","fixation","","","","",""
"","189","audio-keyboard-response","496","1073572","0.0-3.0-1.411","../audio/80-1-masc.mp3"," ","","Meu","","","",""
"","1061","audio-keyboard-response","497","1074945","0.0-3.0-1.412","../audio/80-2-masc.mp3"," ","","primo","","","",""
"","979","audio-keyboard-response","498","1076324","0.0-3.0-1.413","../audio/80-3-masc.mp3"," ","","conheceu","","","",""
"","928","audio-keyboard-response","499","1077556","0.0-3.0-1.414","../audio/80-4-masc.mp3"," ","","um","","","",""
"","968","audio-keyboard-response","500","1078882","0.0-3.0-1.415","../audio/80-5-masc.mp3"," ","","jovem","","","",""
"","1069","audio-keyboard-response","501","1080342","0.0-3.0-1.416","../audio/80-6-masc.mp3"," ","","amável","","","",""
"","1011","audio-keyboard-response","502","1081662","0.0-3.0-1.417","../audio/80-7-masc.mp3"," ","","e","","","",""
"","1160","audio-keyboard-response","503","1083203","0.0-3.0-1.418","../audio/80-8-masc.mp3"," ","","confiante.","","","",""
"","3944","html-keyboard-response","504","1087400","0.0-3.0-2.418-0.418","<span style=""font-size:25px; font-family: monospace"">O primo conheceu um jovem irritante?</span>","n","","","O primo conheceu um jovem irritante?","null","exp-sent","false"
"","null","html-keyboard-response","505","1088916","0.0-3.0-0.419-0.419","<span style= ""font-size:30px; font-family: monospace"">+</span>","null","fixation","","","","",""
"","251","audio-keyboard-response","506","1089584","0.0-3.0-1.419","../audio/54-1-masc.mp3"," ","","Estou","","","",""
"","1189","audio-keyboard-response","507","1091093","0.0-3.0-1.420","../audio/54-2-masc.mp3"," ","","com","","","",""
"","1080","audio-keyboard-response","508","1092502","0.0-3.0-1.421","../audio/54-3-masc.mp3"," ","","medo","","","",""
"","888","audio-keyboard-response","509","1093756","0.0-3.0-1.422","../audio/54-4-masc.mp3"," ","","da","","","",""
"","859","audio-keyboard-response","510","1094918","0.0-3.0-1.423","../audio/54-5-masc.mp3"," ","","atual","","","",""
"","920","audio-keyboard-response","511","1096162","0.0-3.0-1.424","../audio/54-6-masc.mp3"," ","","organização","","","",""
"","1339","audio-keyboard-response","512","1097797","0.0-3.0-1.425","../audio/54-7-masc.mp3"," ","","do","","","",""
"","1091","audio-keyboard-response","513","1099213","0.0-3.0-1.426","../audio/54-8-masc.mp3"," ","","país.","","","",""
"","null","html-keyboard-response","514","1100482","0.0-3.0-0.427-0.427","<span style= ""font-size:30px; font-family: monospace"">+</span>","null","fixation","","","","",""
"","432","audio-keyboard-response","515","1101268","0.0-3.0-1.427","../audio/52-1-masc.mp3"," ","","Às","","","",""
"","1120","audio-keyboard-response","516","1102694","0.0-3.0-1.428","../audio/52-2-masc.mp3"," ","","vezes","","","",""
"","840","audio-keyboard-response","517","1103900","0.0-3.0-1.429","../audio/52-3-masc.mp3"," ","","eu","","","",""
"","901","audio-keyboard-response","518","1105149","0.0-3.0-1.430","../audio/52-4-masc.mp3"," ","","tenho","","","",""
"","949","audio-keyboard-response","519","1106434","0.0-3.0-1.431","../audio/52-5-masc.mp3"," ","","azia","","","",""
"","1008","audio-keyboard-response","520","1107762","0.0-3.0-1.432","../audio/52-6-masc.mp3"," ","","depois","","","",""
"","979","audio-keyboard-response","521","1109051","0.0-3.0-1.433","../audio/52-7-masc.mp3"," ","","da","","","",""
"","1320","audio-keyboard-response","522","1110685","0.0-3.0-1.434","../audio/52-8-masc.mp3"," ","","janta.","","","",""
"","null","html-keyboard-response","523","1111953","0.0-3.0-0.435-0.435","<span style= ""font-size:30px; font-family: monospace"">+</span>","null","fixation","","","","",""
"","800","audio-keyboard-response","524","1113139","0.0-3.0-1.435","../audio/51-1-masc.mp3"," ","","Suco","","","",""
"","792","audio-keyboard-response","525","1114310","0.0-3.0-1.436","../audio/51-2-masc.mp3"," ","","de","","","",""
"","1080","audio-keyboard-response","526","1115718","0.0-3.0-1.437","../audio/51-3-masc.mp3"," ","","acerola","","","",""
"","859","audio-keyboard-response","527","1116880","0.0-3.0-1.438","../audio/51-4-masc.mp3"," ","","é","","","",""
"","949","audio-keyboard-response","528","1118138","0.0-3.0-1.439","../audio/51-5-masc.mp3"," ","","azedo","","","",""
"","821","audio-keyboard-response","529","1119263","0.0-3.0-1.440","../audio/51-6-masc.mp3"," ","","e","","","",""
"","960","audio-keyboard-response","530","1120542","0.0-3.0-1.441","../audio/51-7-masc.mp3"," ","","até","","","",""
"","928","audio-keyboard-response","531","1121834","0.0-3.0-1.442","../audio/51-8-masc.mp3"," ","","barato.","","","",""
"","null","html-keyboard-response","532","1123097","0.0-3.0-0.443-0.443","<span style= ""font-size:30px; font-family: monospace"">+</span>","null","fixation","","","","",""
"","920","audio-keyboard-response","533","1124393","0.0-3.0-1.443","../audio/53-1-masc.mp3"," ","","O","","","",""
"","1040","audio-keyboard-response","534","1125736","0.0-3.0-1.444","../audio/53-2-masc.mp3"," ","","médico","","","",""
"","960","audio-keyboard-response","535","1127011","0.0-3.0-1.445","../audio/53-3-masc.mp3"," ","","foi","","","",""
"","1280","audio-keyboard-response","536","1128624","0.0-3.0-1.446","../audio/53-4-masc.mp3"," ","","bastante","","","",""
"","1179","audio-keyboard-response","537","1130120","0.0-3.0-1.447","../audio/53-5-masc.mp3"," ","","preciso","","","",""
"","1040","audio-keyboard-response","538","1131477","0.0-3.0-1.448","../audio/53-6-masc.mp3"," ","","durante","","","",""
"","1229","audio-keyboard-response","539","1133081","0.0-3.0-1.449","../audio/53-7-masc.mp3"," ","","a","","","",""
"","1411","audio-keyboard-response","540","1134904","0.0-3.0-1.450","../audio/53-8-masc.mp3"," ","","cirurgia.","","","",""
"","null","html-keyboard-response","541","1136163","0.0-3.0-0.451-0.451","<span style= ""font-size:30px; font-family: monospace"">+</span>","null","fixation","","","","",""
"","1000","audio-keyboard-response","542","1137531","0.0-3.0-1.451","../audio/55-1-masc.mp3"," ","","O","","","",""
"","1309","audio-keyboard-response","543","1139202","0.0-3.0-1.452","../audio/55-2-masc.mp3"," ","","insulto","","","",""
"","1069","audio-keyboard-response","544","1140600","0.0-3.0-1.453","../audio/55-3-masc.mp3"," ","","recente","","","",""
"","1211","audio-keyboard-response","545","1142105","0.0-3.0-1.454","../audio/55-4-masc.mp3"," ","","causou","","","",""
"","1531","audio-keyboard-response","546","1143973","0.0-3.0-1.455","../audio/55-5-masc.mp3"," ","","indignação","","","",""
"","1000","audio-keyboard-response","547","1145342","0.0-3.0-1.456","../audio/55-6-masc.mp3"," ","","em","","","",""
"","1629","audio-keyboard-response","548","1147275","0.0-3.0-1.457","../audio/55-7-masc.mp3"," ","","todos.","","","",""
"","9616","html-keyboard-response","549","1157147","0.0-3.0-2.457-0.457","<span style=""font-size:25px; font-family: monospace"">O insulto causou calmaria?</span>","n","","","O insulto causou calmaria?","null","exp-sent","false"
"","null","html-keyboard-response","550","1158658","0.0-3.0-0.458-0.458","<span style= ""font-size:30px; font-family: monospace"">+</span>","null","fixation","","","","",""
"","901","audio-keyboard-response","551","1159978","0.0-3.0-1.458","../audio/69-1-fem.mp3"," ","","A","","","",""
"","949","audio-keyboard-response","552","1161284","0.0-3.0-1.459","../audio/69-2-fem.mp3"," ","","loja","","","",""
"","880","audio-keyboard-response","553","1162491","0.0-3.0-1.460","../audio/69-3-fem.mp3"," ","","recebeu","","","",""
"","861","audio-keyboard-response","554","1163707","0.0-3.0-1.461","../audio/69-4-fem.mp3"," ","","uma","","","",""
"","960","audio-keyboard-response","555","1165019","0.0-3.0-1.462","../audio/69-5-fem.mp3"," ","","poltrona","","","",""
"","752","audio-keyboard-response","556","1166072","0.0-3.0-1.463","../audio/69-6-fem.mp3"," ","","de","","","",""
"","888","audio-keyboard-response","557","1167275","0.0-3.0-1.464","../audio/69-7-fem.mp3"," ","","couro","","","",""
"","989","audio-keyboard-response","558","1168565","0.0-3.0-1.465","../audio/69-8-fem.mp3"," ","","preto.","","","",""
"","null","html-keyboard-response","559","1169828","0.0-3.0-0.466-0.466","<span style= ""font-size:30px; font-family: monospace"">+</span>","null","fixation","","","","",""
"","371","audio-keyboard-response","560","1170586","0.0-3.0-1.466","../audio/67-1-masc.mp3"," ","","Minha","","","",""
"","1040","audio-keyboard-response","561","1171944","0.0-3.0-1.467","../audio/67-2-masc.mp3"," ","","tia","","","",""
"","869","audio-keyboard-response","562","1173213","0.0-3.0-1.468","../audio/67-3-masc.mp3"," ","","comprou","","","",""
"","800","audio-keyboard-response","563","1174431","0.0-3.0-1.469","../audio/67-4-masc.mp3"," ","","um","","","",""
"","819","audio-keyboard-response","564","1175562","0.0-3.0-1.470","../audio/67-5-masc.mp3"," ","","cordão","","","",""
"","880","audio-keyboard-response","565","1176756","0.0-3.0-1.471","../audio/67-6-masc.mp3"," ","","para","","","",""
"","888","audio-keyboard-response","566","1177958","0.0-3.0-1.472","../audio/67-7-masc.mp3"," ","","o","","","",""
"","928","audio-keyboard-response","567","1179202","0.0-3.0-1.473","../audio/67-8-masc.mp3"," ","","varal.","","","",""
"","null","html-keyboard-response","568","1180471","0.0-3.0-0.474-0.474","<span style= ""font-size:30px; font-family: monospace"">+</span>","null","fixation","","","","",""
"","931","audio-keyboard-response","569","1181782","0.0-3.0-1.474","../audio/66-1-fem.mp3"," ","","Não","","","",""
"","661","audio-keyboard-response","570","1182778","0.0-3.0-1.475","../audio/66-2-fem.mp3"," ","","gosto","","","",""
"","1091","audio-keyboard-response","571","1184220","0.0-3.0-1.476","../audio/66-3-fem.mp3"," ","","de","","","",""
"","699","audio-keyboard-response","572","1185238","0.0-3.0-1.477","../audio/66-4-fem.mp3"," ","","gente","","","",""
"","1619","audio-keyboard-response","573","1187194","0.0-3.0-1.478","../audio/66-5-fem.mp3"," ","","egoísta","","","",""
"","1189","audio-keyboard-response","574","1188696","0.0-3.0-1.479","../audio/66-6-fem.mp3"," ","","nem","","","",""
"","1360","audio-keyboard-response","575","1190373","0.0-3.0-1.480","../audio/66-7-fem.mp3"," ","","chata.","","","",""
"","null","html-keyboard-response","576","1191638","0.0-3.0-0.481-0.481","<span style= ""font-size:30px; font-family: monospace"">+</span>","null","fixation","","","","",""
"","400","audio-keyboard-response","577","1192432","0.0-3.0-1.481","../audio/68-1-masc.mp3"," ","","Meu","","","",""
"","1091","audio-keyboard-response","578","1193832","0.0-3.0-1.482","../audio/68-2-masc.mp3"," ","","irmão","","","",""
"","1360","audio-keyboard-response","579","1195538","0.0-3.0-1.483","../audio/68-3-masc.mp3"," ","","teve","","","",""
"","4232","audio-keyboard-response","580","1200072","0.0-3.0-1.484","../audio/68-4-masc.mp3"," ","","um","","","",""
"","1280","audio-keyboard-response","581","1201724","0.0-3.0-1.485","../audio/68-5-masc.mp3"," ","","noivado","","","",""
"","1000","audio-keyboard-response","582","1203879","0.0-3.0-1.486","../audio/68-6-masc.mp3"," ","","longo","","","",""
"","968","audio-keyboard-response","583","1205160","0.0-3.0-1.487","../audio/68-7-masc.mp3"," ","","e","","","",""
"","1029","audio-keyboard-response","584","1206527","0.0-3.0-1.488","../audio/68-8-masc.mp3"," ","","maravilhoso.","","","",""
"","null","html-keyboard-response","585","1207801","0.0-3.0-0.489-0.489","<span style= ""font-size:30px; font-family: monospace"">+</span>","null","fixation","","","","",""
"","709","audio-keyboard-response","586","1208878","0.0-3.0-1.489","../audio/70-1-fem.mp3"," ","","O","","","",""
"","952","audio-keyboard-response","587","1210146","0.0-3.0-1.490","../audio/70-2-fem.mp3"," ","","meu","","","",""
"","1000","audio-keyboard-response","588","1211468","0.0-3.0-1.491","../audio/70-3-fem.mp3"," ","","filho","","","",""
"","869","audio-keyboard-response","589","1212646","0.0-3.0-1.492","../audio/70-4-fem.mp3"," ","","tem","","","",""
"","1120","audio-keyboard-response","590","1214126","0.0-3.0-1.493","../audio/70-5-fem.mp3"," ","","medo","","","",""
"","952","audio-keyboard-response","591","1215389","0.0-3.0-1.494","../audio/70-6-fem.mp3"," ","","de","","","",""
"","960","audio-keyboard-response","592","1216667","0.0-3.0-1.495","../audio/70-7-fem.mp3"," ","","enguia","","","",""
"","989","audio-keyboard-response","593","1217971","0.0-3.0-1.496","../audio/70-8-fem.mp3"," ","","e","","","",""
"","1128","audio-keyboard-response","594","1219436","0.0-3.0-1.497","../audio/70-9-fem.mp3"," ","","beija-flor.","","","",""
"","5229","html-keyboard-response","595","1224921","0.0-3.0-2.497-0.497","<span style=""font-size:25px; font-family: monospace"">O filho tem medo de tigre?</span>","n","","","O filho tem medo de tigre?","null","exp-sent","false"
"","null","html-keyboard-response","596","1226439","0.0-3.0-0.498-0.498","<span style= ""font-size:30px; font-family: monospace"">+</span>","null","fixation","","","","",""
"","1000","audio-keyboard-response","597","1227842","0.0-3.0-1.498","../audio/32-1-fem.mp3"," ","","A","","","",""
"","1061","audio-keyboard-response","598","1229219","0.0-3.0-1.499","../audio/32-2-fem.mp3"," ","","tia","","","",""
"","1000","audio-keyboard-response","599","1230551","0.0-3.0-1.500","../audio/32-3-fem.mp3"," ","","comprou","","","",""
"","720","audio-keyboard-response","600","1231580","0.0-3.0-1.501","../audio/32-4-fem.mp3"," ","","um","","","",""
"","709","audio-keyboard-response","601","1232621","0.0-3.0-1.502","../audio/32-5-fem.mp3"," ","","pilão","","","",""
"","680","audio-keyboard-response","602","1233672","0.0-3.0-1.503","../audio/32-6-fem.mp3"," ","","para","","","",""
"","859","audio-keyboard-response","603","1234839","0.0-3.0-1.504","../audio/32-7-fem.mp3"," ","","a","","","",""
"","1531","audio-keyboard-response","604","1236700","0.0-3.0-1.505","../audio/32-8-fem.mp3"," ","","cozinha.","","","",""
"","null","html-keyboard-response","605","1237973","0.0-3.0-0.506-0.506","<span style= ""font-size:30px; font-family: monospace"">+</span>","null","fixation","","","","",""
"","701","audio-keyboard-response","606","1239063","0.0-3.0-1.506","../audio/31-1-fem.mp3"," ","","O","","","",""
"","589","audio-keyboard-response","607","1240500","0.0-3.0-1.507","../audio/31-2-fem.mp3"," ","","padeiro","","","",""
"","1080","audio-keyboard-response","608","1241984","0.0-3.0-1.508","../audio/31-3-fem.mp3"," ","","usou","","","",""
"","960","audio-keyboard-response","609","1243250","0.0-3.0-1.509","../audio/31-4-fem.mp3"," ","","a","","","",""
"","1011","audio-keyboard-response","610","1244661","0.0-3.0-1.510","../audio/31-5-fem.mp3"," ","","balança","","","",""
"","971","audio-keyboard-response","611","1245953","0.0-3.0-1.511","../audio/31-6-fem.mp3"," ","","o","","","",""
"","949","audio-keyboard-response","612","1247206","0.0-3.0-1.512","../audio/31-7-fem.mp3"," ","","dia","","","",""
"","931","audio-keyboard-response","613","1248468","0.0-3.0-1.513","../audio/31-8-fem.mp3"," ","","inteiro.","","","",""
"","null","html-keyboard-response","614","1249734","0.0-3.0-0.514-0.514","<span style= ""font-size:30px; font-family: monospace"">+</span>","null","fixation","","","","",""
"","989","audio-keyboard-response","615","1251121","0.0-3.0-1.514","../audio/33-1-fem.mp3"," ","","Eles","","","",""
"","981","audio-keyboard-response","616","1252431","0.0-3.0-1.515","../audio/33-2-fem.mp3"," ","","sabem","","","",""
"","939","audio-keyboard-response","617","1253674","0.0-3.0-1.516","../audio/33-3-fem.mp3"," ","","do","","","",""
"","1331","audio-keyboard-response","618","1255376","0.0-3.0-1.517","../audio/33-4-fem.mp3"," ","","seu","","","",""
"","811","audio-keyboard-response","619","1256506","0.0-3.0-1.518","../audio/33-5-fem.mp3"," ","","privilégio","","","",""
"","520","audio-keyboard-response","620","1257352","0.0-3.0-1.519","../audio/33-6-fem.mp3"," ","","nessa","","","",""
"","680","audio-keyboard-response","621","1258374","0.0-3.0-1.520","../audio/33-7-fem.mp3"," ","","confusão.","","","",""
"","null","html-keyboard-response","622","1259639","0.0-3.0-0.521-0.521","<span style= ""font-size:30px; font-family: monospace"">+</span>","null","fixation","","","","",""
"","480","audio-keyboard-response","623","1260486","0.0-3.0-1.521","../audio/34-1-fem.mp3"," ","","Cobrança","","","",""
"","480","audio-keyboard-response","624","1261297","0.0-3.0-1.522","../audio/34-2-fem.mp3"," ","","excessiva","","","",""
"","1261","audio-keyboard-response","625","1262860","0.0-3.0-1.523","../audio/34-3-fem.mp3"," ","","é","","","",""
"","1301","audio-keyboard-response","626","1264498","0.0-3.0-1.524","../audio/34-4-fem.mp3"," ","","um","","","",""
"","1909","audio-keyboard-response","627","1266724","0.0-3.0-1.525","../audio/34-5-fem.mp3"," ","","fardo","","","",""
"","1541","audio-keyboard-response","628","1268631","0.0-3.0-1.526","../audio/34-6-fem.mp3"," ","","para","","","",""
"","1688","audio-keyboard-response","629","1270640","0.0-3.0-1.527","../audio/34-7-fem.mp3"," ","","a","","","",""
"","1669","audio-keyboard-response","630","1272771","0.0-3.0-1.528","../audio/34-8-fem.mp3"," ","","cabeça.","","","",""
"","null","html-keyboard-response","631","1274039","0.0-3.0-0.529-0.529","<span style= ""font-size:30px; font-family: monospace"">+</span>","null","fixation","","","","",""
"","1512","audio-keyboard-response","632","1275908","0.0-3.0-1.529","../audio/35-1-masc.mp3"," ","","A","","","",""
"","1280","audio-keyboard-response","633","1277498","0.0-3.0-1.530","../audio/35-2-masc.mp3"," ","","receita","","","",""
"","1301","audio-keyboard-response","634","1279099","0.0-3.0-1.531","../audio/35-3-masc.mp3"," ","","para","","","",""
"","1029","audio-keyboard-response","635","1280444","0.0-3.0-1.532","../audio/35-4-masc.mp3"," ","","a","","","",""
"","1040","audio-keyboard-response","636","1281815","0.0-3.0-1.533","../audio/35-5-masc.mp3"," ","","preparação","","","",""
"","1000","audio-keyboard-response","637","1283114","0.0-3.0-1.534","../audio/35-6-masc.mp3"," ","","do","","","",""
"","1149","audio-keyboard-response","638","1284619","0.0-3.0-1.535","../audio/35-7-masc.mp3"," ","","bolo","","","",""
"","1021","audio-keyboard-response","639","1285946","0.0-3.0-1.536","../audio/35-8-masc.mp3"," ","","é","","","",""
"","2331","audio-keyboard-response","640","1288592","0.0-3.0-1.537","../audio/35-9-masc.mp3"," ","","leve.","","","",""
"","2915","html-keyboard-response","641","1291759","0.0-3.0-2.537-0.537","<span style=""font-size:25px; font-family: monospace"">A receita do bolo é pesada?</span>","n","","","A receita do bolo é pesada?","null","exp-sent","false"
"","null","html-keyboard-response","642","1293269","0.0-3.0-0.538-0.538","<span style= ""font-size:30px; font-family: monospace"">+</span>","null","fixation","","","","",""
"","8299","audio-keyboard-response","643","1301955","0.0-3.0-1.538","../audio/59-1-masc.mp3"," ","","O","","","",""
"","1811","audio-keyboard-response","644","1304153","0.0-3.0-1.539","../audio/59-2-masc.mp3"," ","","carteiro","","","",""
"","1520","audio-keyboard-response","645","1306036","0.0-3.0-1.540","../audio/59-3-masc.mp3"," ","","fez","","","",""
"","1400","audio-keyboard-response","646","1307743","0.0-3.0-1.541","../audio/59-4-masc.mp3"," ","","uma","","","",""
"","1259","audio-keyboard-response","647","1309332","0.0-3.0-1.542","../audio/59-5-masc.mp3"," ","","tentativa","","","",""
"","1240","audio-keyboard-response","648","1310876","0.0-3.0-1.543","../audio/59-6-masc.mp3"," ","","de","","","",""
"","1211","audio-keyboard-response","649","1312379","0.0-3.0-1.544","../audio/59-7-masc.mp3"," ","","entrega.","","","",""
"","null","html-keyboard-response","650","1313640","0.0-3.0-0.545-0.545","<span style= ""font-size:30px; font-family: monospace"">+</span>","null","fixation","","","","",""
"","1469","audio-keyboard-response","651","1319937","0.0-3.0-1.545","../audio/56-1-fem.mp3"," ","","A","","","",""
"","1379","audio-keyboard-response","652","1321609","0.0-3.0-1.546","../audio/56-2-fem.mp3"," ","","moça","","","",""
"","1251","audio-keyboard-response","653","1323170","0.0-3.0-1.547","../audio/56-3-fem.mp3"," ","","foi","","","",""
"","1171","audio-keyboard-response","654","1324669","0.0-3.0-1.548","../audio/56-4-fem.mp3"," ","","à","","","",""
"","1560","audio-keyboard-response","655","1326587","0.0-3.0-1.549","../audio/56-5-fem.mp3"," ","","agência","","","",""
"","1288","audio-keyboard-response","656","1328240","0.0-3.0-1.550","../audio/56-6-fem.mp3"," ","","bancária","","","",""
"","1840","audio-keyboard-response","657","1330452","0.0-3.0-1.551","../audio/56-7-fem.mp3"," ","","ontem","","","",""
"","7509","audio-keyboard-response","658","1338318","0.0-3.0-1.552","../audio/56-8-fem.mp3"," ","","de","","","",""
"","1400","audio-keyboard-response","659","1340087","0.0-3.0-1.553","../audio/56-9-fem.mp3"," ","","tarde.","","","",""
"","null","html-keyboard-response","660","1341347","0.0-3.0-0.554-0.554","<span style= ""font-size:30px; font-family: monospace"">+</span>","null","fixation","","","","",""
"","120","audio-keyboard-response","661","1341827","0.0-3.0-1.554","../audio/57-1-masc.mp3"," ","","O","","","",""
"","1429","audio-keyboard-response","662","1343574","0.0-3.0-1.555","../audio/57-2-masc.mp3"," ","","capitão","","","",""
"","1240","audio-keyboard-response","663","1345119","0.0-3.0-1.556","../audio/57-3-masc.mp3"," ","","deu","","","",""
"","1349","audio-keyboard-response","664","1346768","0.0-3.0-1.557","../audio/57-4-masc.mp3"," ","","uma","","","",""
"","1320","audio-keyboard-response","665","1348414","0.0-3.0-1.558","../audio/57-5-masc.mp3"," ","","instrução","","","",""
"","1219","audio-keyboard-response","666","1349996","0.0-3.0-1.559","../audio/57-6-masc.mp3"," ","","para","","","",""
"","1891","audio-keyboard-response","667","1352188","0.0-3.0-1.560","../audio/57-7-masc.mp3"," ","","as","","","",""
"","1232","audio-keyboard-response","668","1353827","0.0-3.0-1.561","../audio/57-8-masc.mp3"," ","","pessoas.","","","",""
"","null","html-keyboard-response","669","1355097","0.0-3.0-0.562-0.562","<span style= ""font-size:30px; font-family: monospace"">+</span>","null","fixation","","","","",""
"","1389","audio-keyboard-response","670","1356926","0.0-3.0-1.562","../audio/58-1-masc.mp3"," ","","Havia","","","",""
"","1200","audio-keyboard-response","671","1358455","0.0-3.0-1.563","../audio/58-2-masc.mp3"," ","","apenas","","","",""
"","1472","audio-keyboard-response","672","1360310","0.0-3.0-1.564","../audio/58-3-masc.mp3"," ","","um","","","",""
"","1480","audio-keyboard-response","673","1362117","0.0-3.0-1.565","../audio/58-4-masc.mp3"," ","","último","","","",""
"","1501","audio-keyboard-response","674","1363936","0.0-3.0-1.566","../audio/58-5-masc.mp3"," ","","herdeiro","","","",""
"","2160","audio-keyboard-response","675","1366399","0.0-3.0-1.567","../audio/58-6-masc.mp3"," ","","do","","","",""
"","1240","audio-keyboard-response","676","1368006","0.0-3.0-1.568","../audio/58-7-masc.mp3"," ","","dinheiro.","","","",""
"","null","html-keyboard-response","677","1369266","0.0-3.0-0.569-0.569","<span style= ""font-size:30px; font-family: monospace"">+</span>","null","fixation","","","","",""
"","200","audio-keyboard-response","678","1369854","0.0-3.0-1.569","../audio/60-1-fem.mp3"," ","","Ondas","","","",""
"","1320","audio-keyboard-response","679","1371482","0.0-3.0-1.570","../audio/60-2-fem.mp3"," ","","têm","","","",""
"","3400","audio-keyboard-response","680","1375207","0.0-3.0-1.571","../audio/60-3-fem.mp3"," ","","um","","","",""
"","581","audio-keyboard-response","681","1376665","0.0-3.0-1.572","../audio/60-4-fem.mp3"," ","","impacto","","","",""
"","1451","audio-keyboard-response","682","1378454","0.0-3.0-1.573","../audio/60-5-fem.mp3"," ","","destrutivo","","","",""
"","1581","audio-keyboard-response","683","1380389","0.0-3.0-1.574","../audio/60-6-fem.mp3"," ","","no","","","",""
"","7232","audio-keyboard-response","684","1388025","0.0-3.0-1.575","../audio/60-7-fem.mp3"," ","","litoral.","","","",""
"","5617","html-keyboard-response","685","1393898","0.0-3.0-2.575-0.575","<span style=""font-size:25px; font-family: monospace"">Ondas têm um impacto destrutivo?</span>","n","","","Ondas têm um impacto destrutivo?","null","exp-sent","false"
"","null","html-keyboard-response","686","1395426","0.0-3.0-0.576-0.576","<span style= ""font-size:30px; font-family: monospace"">+</span>","null","fixation","","","","",""
"","349","audio-keyboard-response","687","1396127","0.0-3.0-1.576","../audio/37-1-fem.mp3"," ","","Eu","","","",""
"","1291","audio-keyboard-response","688","1397738","0.0-3.0-1.577","../audio/37-2-fem.mp3"," ","","adoro","","","",""
"","1248","audio-keyboard-response","689","1399315","0.0-3.0-1.578","../audio/37-3-fem.mp3"," ","","suco","","","",""
"","851","audio-keyboard-response","690","1400513","0.0-3.0-1.579","../audio/37-4-fem.mp3"," ","","de","","","",""
"","829","audio-keyboard-response","691","1401691","0.0-3.0-1.580","../audio/37-5-fem.mp3"," ","","manga","","","",""
"","728","audio-keyboard-response","692","1402718","0.0-3.0-1.581","../audio/37-6-fem.mp3"," ","","com","","","",""
"","931","audio-keyboard-response","693","1403965","0.0-3.0-1.582","../audio/37-7-fem.mp3"," ","","hortelã.","","","",""
"","null","html-keyboard-response","694","1405240","0.0-3.0-0.583-0.583","<span style= ""font-size:30px; font-family: monospace"">+</span>","null","fixation","","","","",""
"","189","audio-keyboard-response","695","1406102","0.0-3.0-1.583","../audio/39-1-masc.mp3"," ","","O","","","",""
"","829","audio-keyboard-response","696","1407256","0.0-3.0-1.584","../audio/39-2-masc.mp3"," ","","conselho","","","",""
"","989","audio-keyboard-response","697","1408641","0.0-3.0-1.585","../audio/39-3-masc.mp3"," ","","foi","","","",""
"","771","audio-keyboard-response","698","1409791","0.0-3.0-1.586","../audio/39-4-masc.mp3"," ","","muito","","","",""
"","1629","audio-keyboard-response","699","1411730","0.0-3.0-1.587","../audio/39-5-masc.mp3"," ","","útil","","","",""
"","2931","audio-keyboard-response","700","1414976","0.0-3.0-1.588","../audio/39-6-masc.mp3"," ","","para","","","",""
"","1149","audio-keyboard-response","701","1416502","0.0-3.0-1.589","../audio/39-7-masc.mp3"," ","","minha","","","",""
"","3379","audio-keyboard-response","702","1420199","0.0-3.0-1.590","../audio/39-8-masc.mp3"," ","","tia.","","","",""
"","null","html-keyboard-response","703","1421469","0.0-3.0-0.591-0.591","<span style= ""font-size:30px; font-family: monospace"">+</span>","null","fixation","","","","",""
"","51","audio-keyboard-response","704","1421935","0.0-3.0-1.591","../audio/36-1-fem.mp3"," ","","Meu","","","",""
"","1352","audio-keyboard-response","705","1423589","0.0-3.0-1.592","../audio/36-2-fem.mp3"," ","","tio","","","",""
"","2181","audio-keyboard-response","706","1426110","0.0-3.0-1.593","../audio/36-3-fem.mp3"," ","","comprou","","","",""
"","2971","audio-keyboard-response","707","1429496","0.0-3.0-1.594","../audio/36-4-fem.mp3"," ","","um","","","",""
"","992","audio-keyboard-response","708","1430866","0.0-3.0-1.595","../audio/36-5-fem.mp3"," ","","filtro","","","",""
"","1080","audio-keyboard-response","709","1432259","0.0-3.0-1.596","../audio/36-6-fem.mp3"," ","","de","","","",""
"","1189","audio-keyboard-response","710","1433765","0.0-3.0-1.597","../audio/36-7-fem.mp3"," ","","água","","","",""
"","3059","audio-keyboard-response","711","1437123","0.0-3.0-1.598","../audio/36-8-fem.mp3"," ","","hoje","","","",""
"","2440","audio-keyboard-response","712","1439944","0.0-3.0-1.599","../audio/36-9-fem.mp3"," ","","cedo.","","","",""
"","null","html-keyboard-response","713","1441202","0.0-3.0-0.600-0.600","<span style= ""font-size:30px; font-family: monospace"">+</span>","null","fixation","","","","",""
"","1389","audio-keyboard-response","714","1442982","0.0-3.0-1.600","../audio/38-1-fem.mp3"," ","","A","","","",""
"","1141","audio-keyboard-response","715","1444474","0.0-3.0-1.601","../audio/38-2-fem.mp3"," ","","empresa","","","",""
"","1229","audio-keyboard-response","716","1446019","0.0-3.0-1.602","../audio/38-3-fem.mp3"," ","","criou","","","",""
"","3291","audio-keyboard-response","717","1449611","0.0-3.0-1.603","../audio/38-4-fem.mp3"," ","","a","","","",""
"","1080","audio-keyboard-response","718","1451080","0.0-3.0-1.604","../audio/38-5-fem.mp3"," ","","patente","","","",""
"","2179","audio-keyboard-response","719","1453566","0.0-3.0-1.605","../audio/38-6-fem.mp3"," ","","da","","","",""
"","3011","audio-keyboard-response","720","1456950","0.0-3.0-1.606","../audio/38-7-fem.mp3"," ","","frigideira.","","","",""
"","null","html-keyboard-response","721","1458223","0.0-3.0-0.607-0.607","<span style= ""font-size:30px; font-family: monospace"">+</span>","null","fixation","","","","",""
"","459","audio-keyboard-response","722","1459046","0.0-3.0-1.607","../audio/40-1-masc.mp3"," ","","O","","","",""
"","1851","audio-keyboard-response","723","1461208","0.0-3.0-1.608","../audio/40-2-masc.mp3"," ","","jogo","","","",""
"","1261","audio-keyboard-response","724","1462857","0.0-3.0-1.609","../audio/40-3-masc.mp3"," ","","falava","","","",""
"","1051","audio-keyboard-response","725","1464206","0.0-3.0-1.610","../audio/40-4-masc.mp3"," ","","de","","","",""
"","989","audio-keyboard-response","726","1465529","0.0-3.0-1.611","../audio/40-5-masc.mp3"," ","","fantasia","","","",""
"","960","audio-keyboard-response","727","1466802","0.0-3.0-1.612","../audio/40-6-masc.mp3"," ","","e","","","",""
"","1112","audio-keyboard-response","728","1468229","0.0-3.0-1.613","../audio/40-7-masc.mp3"," ","","de","","","",""
"","1181","audio-keyboard-response","729","1469816","0.0-3.0-1.614","../audio/40-8-masc.mp3"," ","","aventura.","","","",""
"","7012","html-keyboard-response","730","1477083","0.0-3.0-2.614-0.614","<span style=""font-size:25px; font-family: monospace"">O jogo tinha fantasia e aventura?</span>","s","","","O jogo tinha fantasia e aventura?","null","exp-sent","false"
"[{""page_index"":0,""viewing_time"":6047}]","6047","instructions","731","1483645","0.0-4.0","","","","","","","",""
