[
	{
		"view_history": [
			{
				"page_index": 0,
				"viewing_time": 36268
			},
			{
				"page_index": 1,
				"viewing_time": 2168
			}
		],
		"rt": 38437,
		"trial_type": "instructions",
		"trial_index": 0,
		"time_elapsed": 38441,
		"internal_node_id": "0.0-0.0"
	},
	{
		"rt": null,
		"stimulus": "<span style= \"font-size:30px; font-family: monospace\">+</span>",
		"response": null,
		"trial_part": "fixation",
		"trial_type": "html-keyboard-response",
		"trial_index": 1,
		"time_elapsed": 39546,
		"internal_node_id": "0.0-1.0-0.0-0.0"
	},
	{
		"rt": 17011,
		"stimulus": "../audio/prac-question-1-1.mp3",
		"response": " ",
		"word": "O",
		"trial_type": "audio-keyboard-response",
		"trial_index": 2,
		"time_elapsed": 57118,
		"internal_node_id": "0.0-1.0-1.0"
	},
	{
		"rt": 3832,
		"stimulus": "../audio/prac-question-1-2.mp3",
		"response": " ",
		"word": "dia",
		"trial_type": "audio-keyboard-response",
		"trial_index": 3,
		"time_elapsed": 61366,
		"internal_node_id": "0.0-1.0-1.1"
	},
	{
		"rt": 1859,
		"stimulus": "../audio/prac-question-1-3.mp3",
		"response": " ",
		"word": "estará",
		"trial_type": "audio-keyboard-response",
		"trial_index": 4,
		"time_elapsed": 63665,
		"internal_node_id": "0.0-1.0-1.2"
	},
	{
		"rt": 1251,
		"stimulus": "../audio/prac-question-1-4.mp3",
		"response": " ",
		"word": "cheio",
		"trial_type": "audio-keyboard-response",
		"trial_index": 5,
		"time_elapsed": 65300,
		"internal_node_id": "0.0-1.0-1.3"
	},
	{
		"rt": 1112,
		"stimulus": "../audio/prac-question-1-5.mp3",
		"response": " ",
		"word": "de",
		"trial_type": "audio-keyboard-response",
		"trial_index": 6,
		"time_elapsed": 66767,
		"internal_node_id": "0.0-1.0-1.4"
	},
	{
		"rt": 1512,
		"stimulus": "../audio/prac-question-1-6.mp3",
		"response": " ",
		"word": "nuvens",
		"trial_type": "audio-keyboard-response",
		"trial_index": 7,
		"time_elapsed": 68608,
		"internal_node_id": "0.0-1.0-1.5"
	},
	{
		"rt": 1320,
		"stimulus": "../audio/prac-question-1-7.mp3",
		"response": " ",
		"word": "hoje.",
		"trial_type": "audio-keyboard-response",
		"trial_index": 8,
		"time_elapsed": 70340,
		"internal_node_id": "0.0-1.0-1.6"
	},
	{
		"rt": null,
		"stimulus": "<span style= \"font-size:30px; font-family: monospace\">+</span>",
		"response": null,
		"trial_part": "fixation",
		"trial_type": "html-keyboard-response",
		"trial_index": 9,
		"time_elapsed": 71614,
		"internal_node_id": "0.0-1.0-0.7-0.7"
	},
	{
		"rt": 1411,
		"stimulus": "../audio/prac-question-2-1.mp3",
		"response": " ",
		"word": "A",
		"trial_type": "audio-keyboard-response",
		"trial_index": 10,
		"time_elapsed": 73408,
		"internal_node_id": "0.0-1.0-1.7"
	},
	{
		"rt": 960,
		"stimulus": "../audio/prac-question-2-2.mp3",
		"response": " ",
		"word": "caneca",
		"trial_type": "audio-keyboard-response",
		"trial_index": 11,
		"time_elapsed": 74702,
		"internal_node_id": "0.0-1.0-1.8"
	},
	{
		"rt": 1301,
		"stimulus": "../audio/prac-question-2-3.mp3",
		"response": " ",
		"word": "colorida",
		"trial_type": "audio-keyboard-response",
		"trial_index": 12,
		"time_elapsed": 76354,
		"internal_node_id": "0.0-1.0-1.9"
	},
	{
		"rt": 920,
		"stimulus": "../audio/prac-question-2-4.mp3",
		"response": " ",
		"word": "caiu",
		"trial_type": "audio-keyboard-response",
		"trial_index": 13,
		"time_elapsed": 77636,
		"internal_node_id": "0.0-1.0-1.10"
	},
	{
		"rt": 901,
		"stimulus": "../audio/prac-question-2-5.mp3",
		"response": " ",
		"word": "da",
		"trial_type": "audio-keyboard-response",
		"trial_index": 14,
		"time_elapsed": 78849,
		"internal_node_id": "0.0-1.0-1.11"
	},
	{
		"rt": 960,
		"stimulus": "../audio/prac-question-2-6.mp3",
		"response": " ",
		"word": "mesa",
		"trial_type": "audio-keyboard-response",
		"trial_index": 15,
		"time_elapsed": 80140,
		"internal_node_id": "0.0-1.0-1.12"
	},
	{
		"rt": 869,
		"stimulus": "../audio/prac-question-2-7.mp3",
		"response": " ",
		"word": "de",
		"trial_type": "audio-keyboard-response",
		"trial_index": 16,
		"time_elapsed": 81343,
		"internal_node_id": "0.0-1.0-1.13"
	},
	{
		"rt": 939,
		"stimulus": "../audio/prac-question-2-8.mp3",
		"response": " ",
		"word": "jantar.",
		"trial_type": "audio-keyboard-response",
		"trial_index": 17,
		"time_elapsed": 82707,
		"internal_node_id": "0.0-1.0-1.14"
	},
	{
		"rt": 5141,
		"stimulus": "<span style=\"font-size:25px; font-family: monospace\">A caneca era colorida?</span>",
		"response": "s",
		"question": "A caneca era colorida?",
		"answer": "null",
		"trial": "prac-sent",
		"trial_type": "html-keyboard-response",
		"trial_index": 18,
		"time_elapsed": 88107,
		"internal_node_id": "0.0-1.0-2.14-0.14",
		"accuracy": false
	},
	{
		"view_history": [
			{
				"page_index": 0,
				"viewing_time": 6070
			}
		],
		"rt": 6070,
		"trial_type": "instructions",
		"trial_index": 19,
		"time_elapsed": 94679,
		"internal_node_id": "0.0-2.0"
	},
	{
		"rt": null,
		"stimulus": "<span style= \"font-size:30px; font-family: monospace\">+</span>",
		"response": null,
		"trial_part": "fixation",
		"trial_type": "html-keyboard-response",
		"trial_index": 20,
		"time_elapsed": 95795,
		"internal_node_id": "0.0-3.0-0.0-0.0"
	},
	{
		"rt": 1560,
		"stimulus": "../audio/64-1-fem.mp3",
		"response": " ",
		"word": "O",
		"trial_type": "audio-keyboard-response",
		"trial_index": 21,
		"time_elapsed": 97788,
		"internal_node_id": "0.0-3.0-1.0"
	},
	{
		"rt": 1221,
		"stimulus": "../audio/64-2-fem.mp3",
		"response": " ",
		"word": "dia",
		"trial_type": "audio-keyboard-response",
		"trial_index": 22,
		"time_elapsed": 99351,
		"internal_node_id": "0.0-3.0-1.1"
	},
	{
		"rt": 1480,
		"stimulus": "../audio/64-3-fem.mp3",
		"response": " ",
		"word": "começou",
		"trial_type": "audio-keyboard-response",
		"trial_index": 23,
		"time_elapsed": 101156,
		"internal_node_id": "0.0-3.0-1.2"
	},
	{
		"rt": 1051,
		"stimulus": "../audio/64-4-fem.mp3",
		"response": " ",
		"word": "com",
		"trial_type": "audio-keyboard-response",
		"trial_index": 24,
		"time_elapsed": 102558,
		"internal_node_id": "0.0-3.0-1.3"
	},
	{
		"rt": 1229,
		"stimulus": "../audio/64-5-fem.mp3",
		"response": " ",
		"word": "garoa",
		"trial_type": "audio-keyboard-response",
		"trial_index": 25,
		"time_elapsed": 104118,
		"internal_node_id": "0.0-3.0-1.4"
	},
	{
		"rt": 1189,
		"stimulus": "../audio/64-6-fem.mp3",
		"response": " ",
		"word": "gelada",
		"trial_type": "audio-keyboard-response",
		"trial_index": 26,
		"time_elapsed": 105639,
		"internal_node_id": "0.0-3.0-1.5"
	},
	{
		"rt": 1099,
		"stimulus": "../audio/64-7-fem.mp3",
		"response": " ",
		"word": "e",
		"trial_type": "audio-keyboard-response",
		"trial_index": 27,
		"time_elapsed": 107069,
		"internal_node_id": "0.0-3.0-1.6"
	},
	{
		"rt": 1171,
		"stimulus": "../audio/64-8-fem.mp3",
		"response": " ",
		"word": "leve.",
		"trial_type": "audio-keyboard-response",
		"trial_index": 28,
		"time_elapsed": 108646,
		"internal_node_id": "0.0-3.0-1.7"
	},
	{
		"rt": null,
		"stimulus": "<span style= \"font-size:30px; font-family: monospace\">+</span>",
		"response": null,
		"trial_part": "fixation",
		"trial_type": "html-keyboard-response",
		"trial_index": 29,
		"time_elapsed": 109910,
		"internal_node_id": "0.0-3.0-0.8-0.8"
	},
	{
		"rt": 1080,
		"stimulus": "../audio/63-1-fem.mp3",
		"response": " ",
		"word": "A",
		"trial_type": "audio-keyboard-response",
		"trial_index": 30,
		"time_elapsed": 111371,
		"internal_node_id": "0.0-3.0-1.8"
	},
	{
		"rt": 779,
		"stimulus": "../audio/63-2-fem.mp3",
		"response": " ",
		"word": "chuva",
		"trial_type": "audio-keyboard-response",
		"trial_index": 31,
		"time_elapsed": 112575,
		"internal_node_id": "0.0-3.0-1.9"
	},
	{
		"rt": 1520,
		"stimulus": "../audio/63-3-fem.mp3",
		"response": " ",
		"word": "entrou",
		"trial_type": "audio-keyboard-response",
		"trial_index": 32,
		"time_elapsed": 114454,
		"internal_node_id": "0.0-3.0-1.10"
	},
	{
		"rt": 1128,
		"stimulus": "../audio/63-4-fem.mp3",
		"response": " ",
		"word": "pela",
		"trial_type": "audio-keyboard-response",
		"trial_index": 33,
		"time_elapsed": 115892,
		"internal_node_id": "0.0-3.0-1.11"
	},
	{
		"rt": 1360,
		"stimulus": "../audio/63-5-fem.mp3",
		"response": " ",
		"word": "abertura",
		"trial_type": "audio-keyboard-response",
		"trial_index": 34,
		"time_elapsed": 117644,
		"internal_node_id": "0.0-3.0-1.12"
	},
	{
		"rt": 1141,
		"stimulus": "../audio/63-6-fem.mp3",
		"response": " ",
		"word": "na",
		"trial_type": "audio-keyboard-response",
		"trial_index": 35,
		"time_elapsed": 119087,
		"internal_node_id": "0.0-3.0-1.13"
	},
	{
		"rt": 1179,
		"stimulus": "../audio/63-7-fem.mp3",
		"response": " ",
		"word": "janela.",
		"trial_type": "audio-keyboard-response",
		"trial_index": 36,
		"time_elapsed": 120580,
		"internal_node_id": "0.0-3.0-1.14"
	},
	{
		"rt": null,
		"stimulus": "<span style= \"font-size:30px; font-family: monospace\">+</span>",
		"response": null,
		"trial_part": "fixation",
		"trial_type": "html-keyboard-response",
		"trial_index": 37,
		"time_elapsed": 121850,
		"internal_node_id": "0.0-3.0-0.15-0.15"
	},
	{
		"rt": 1341,
		"stimulus": "../audio/62-1-fem.mp3",
		"response": " ",
		"word": "As",
		"trial_type": "audio-keyboard-response",
		"trial_index": 38,
		"time_elapsed": 123645,
		"internal_node_id": "0.0-3.0-1.15"
	},
	{
		"rt": 1299,
		"stimulus": "../audio/62-2-fem.mp3",
		"response": " ",
		"word": "artesãs",
		"trial_type": "audio-keyboard-response",
		"trial_index": 39,
		"time_elapsed": 125296,
		"internal_node_id": "0.0-3.0-1.16"
	},
	{
		"rt": 1051,
		"stimulus": "../audio/62-3-fem.mp3",
		"response": " ",
		"word": "gostam",
		"trial_type": "audio-keyboard-response",
		"trial_index": 40,
		"time_elapsed": 126672,
		"internal_node_id": "0.0-3.0-1.17"
	},
	{
		"rt": 968,
		"stimulus": "../audio/62-4-fem.mp3",
		"response": " ",
		"word": "de",
		"trial_type": "audio-keyboard-response",
		"trial_index": 41,
		"time_elapsed": 127976,
		"internal_node_id": "0.0-3.0-1.18"
	},
	{
		"rt": 1211,
		"stimulus": "../audio/62-5-fem.mp3",
		"response": " ",
		"word": "maquiagem",
		"trial_type": "audio-keyboard-response",
		"trial_index": 42,
		"time_elapsed": 129515,
		"internal_node_id": "0.0-3.0-1.19"
	},
	{
		"rt": 1189,
		"stimulus": "../audio/62-6-fem.mp3",
		"response": " ",
		"word": "e",
		"trial_type": "audio-keyboard-response",
		"trial_index": 43,
		"time_elapsed": 131099,
		"internal_node_id": "0.0-3.0-1.20"
	},
	{
		"rt": 1219,
		"stimulus": "../audio/62-7-fem.mp3",
		"response": " ",
		"word": "de",
		"trial_type": "audio-keyboard-response",
		"trial_index": 44,
		"time_elapsed": 132621,
		"internal_node_id": "0.0-3.0-1.21"
	},
	{
		"rt": 1219,
		"stimulus": "../audio/62-8-fem.mp3",
		"response": " ",
		"word": "crochê.",
		"trial_type": "audio-keyboard-response",
		"trial_index": 45,
		"time_elapsed": 134224,
		"internal_node_id": "0.0-3.0-1.22"
	},
	{
		"rt": null,
		"stimulus": "<span style= \"font-size:30px; font-family: monospace\">+</span>",
		"response": null,
		"trial_part": "fixation",
		"trial_type": "html-keyboard-response",
		"trial_index": 46,
		"time_elapsed": 135485,
		"internal_node_id": "0.0-3.0-0.23-0.23"
	},
	{
		"rt": 2731,
		"stimulus": "../audio/61-1-masc.mp3",
		"response": " ",
		"word": "Aquele",
		"trial_type": "audio-keyboard-response",
		"trial_index": 47,
		"time_elapsed": 138601,
		"internal_node_id": "0.0-3.0-1.23"
	},
	{
		"rt": 1509,
		"stimulus": "../audio/61-2-masc.mp3",
		"response": " ",
		"word": "senhor",
		"trial_type": "audio-keyboard-response",
		"trial_index": 48,
		"time_elapsed": 140462,
		"internal_node_id": "0.0-3.0-1.24"
	},
	{
		"rt": 1211,
		"stimulus": "../audio/61-3-masc.mp3",
		"response": " ",
		"word": "é",
		"trial_type": "audio-keyboard-response",
		"trial_index": 49,
		"time_elapsed": 141989,
		"internal_node_id": "0.0-3.0-1.25"
	},
	{
		"rt": 1320,
		"stimulus": "../audio/61-4-masc.mp3",
		"response": " ",
		"word": "muito",
		"trial_type": "audio-keyboard-response",
		"trial_index": 50,
		"time_elapsed": 143651,
		"internal_node_id": "0.0-3.0-1.26"
	},
	{
		"rt": 1531,
		"stimulus": "../audio/61-5-masc.mp3",
		"response": " ",
		"word": "sovina",
		"trial_type": "audio-keyboard-response",
		"trial_index": 51,
		"time_elapsed": 145540,
		"internal_node_id": "0.0-3.0-1.27"
	},
	{
		"rt": 1131,
		"stimulus": "../audio/61-6-masc.mp3",
		"response": " ",
		"word": "e",
		"trial_type": "audio-keyboard-response",
		"trial_index": 52,
		"time_elapsed": 146985,
		"internal_node_id": "0.0-3.0-1.28"
	},
	{
		"rt": 1579,
		"stimulus": "../audio/61-7-masc.mp3",
		"response": " ",
		"word": "inflexível.",
		"trial_type": "audio-keyboard-response",
		"trial_index": 53,
		"time_elapsed": 148907,
		"internal_node_id": "0.0-3.0-1.29"
	},
	{
		"rt": null,
		"stimulus": "<span style= \"font-size:30px; font-family: monospace\">+</span>",
		"response": null,
		"trial_part": "fixation",
		"trial_type": "html-keyboard-response",
		"trial_index": 54,
		"time_elapsed": 150170,
		"internal_node_id": "0.0-3.0-0.30-0.30"
	},
	{
		"rt": 1120,
		"stimulus": "../audio/65-1-masc.mp3",
		"response": " ",
		"word": "O",
		"trial_type": "audio-keyboard-response",
		"trial_index": 55,
		"time_elapsed": 151635,
		"internal_node_id": "0.0-3.0-1.30"
	},
	{
		"rt": 1440,
		"stimulus": "../audio/65-2-masc.mp3",
		"response": " ",
		"word": "fantasma",
		"trial_type": "audio-keyboard-response",
		"trial_index": 56,
		"time_elapsed": 153455,
		"internal_node_id": "0.0-3.0-1.31"
	},
	{
		"rt": 1120,
		"stimulus": "../audio/65-3-masc.mp3",
		"response": " ",
		"word": "veio",
		"trial_type": "audio-keyboard-response",
		"trial_index": 57,
		"time_elapsed": 154879,
		"internal_node_id": "0.0-3.0-1.32"
	},
	{
		"rt": 1000,
		"stimulus": "../audio/65-4-masc.mp3",
		"response": " ",
		"word": "da",
		"trial_type": "audio-keyboard-response",
		"trial_index": 58,
		"time_elapsed": 156181,
		"internal_node_id": "0.0-3.0-1.33"
	},
	{
		"rt": 1248,
		"stimulus": "../audio/65-5-masc.mp3",
		"response": " ",
		"word": "escuridão",
		"trial_type": "audio-keyboard-response",
		"trial_index": 59,
		"time_elapsed": 157769,
		"internal_node_id": "0.0-3.0-1.34"
	},
	{
		"rt": 1088,
		"stimulus": "../audio/65-6-masc.mp3",
		"response": " ",
		"word": "do",
		"trial_type": "audio-keyboard-response",
		"trial_index": 60,
		"time_elapsed": 159251,
		"internal_node_id": "0.0-3.0-1.35"
	},
	{
		"rt": 1840,
		"stimulus": "../audio/65-7-masc.mp3",
		"response": " ",
		"word": "armário.",
		"trial_type": "audio-keyboard-response",
		"trial_index": 61,
		"time_elapsed": 161419,
		"internal_node_id": "0.0-3.0-1.36"
	},
	{
		"rt": 4500,
		"stimulus": "<span style=\"font-size:25px; font-family: monospace\">O fantasma veio da escuridão do armário?</span>",
		"response": "s",
		"question": "O fantasma veio da escuridão do armário?",
		"answer": "null",
		"trial": "exp-sent",
		"trial_type": "html-keyboard-response",
		"trial_index": 62,
		"time_elapsed": 166181,
		"internal_node_id": "0.0-3.0-2.36-0.36",
		"accuracy": false
	},
	{
		"rt": null,
		"stimulus": "<span style= \"font-size:30px; font-family: monospace\">+</span>",
		"response": null,
		"trial_part": "fixation",
		"trial_type": "html-keyboard-response",
		"trial_index": 63,
		"time_elapsed": 167706,
		"internal_node_id": "0.0-3.0-0.37-0.37"
	},
	{
		"rt": 1360,
		"stimulus": "../audio/18-1-fem.mp3",
		"response": " ",
		"word": "O",
		"trial_type": "audio-keyboard-response",
		"trial_index": 64,
		"time_elapsed": 169479,
		"internal_node_id": "0.0-3.0-1.37"
	},
	{
		"rt": 2520,
		"stimulus": "../audio/18-2-fem.mp3",
		"response": " ",
		"word": "enredo",
		"trial_type": "audio-keyboard-response",
		"trial_index": 65,
		"time_elapsed": 172330,
		"internal_node_id": "0.0-3.0-1.38"
	},
	{
		"rt": 1379,
		"stimulus": "../audio/18-3-fem.mp3",
		"response": " ",
		"word": "traz",
		"trial_type": "audio-keyboard-response",
		"trial_index": 66,
		"time_elapsed": 174065,
		"internal_node_id": "0.0-3.0-1.39"
	},
	{
		"rt": 931,
		"stimulus": "../audio/18-4-fem.mp3",
		"response": " ",
		"word": "um",
		"trial_type": "audio-keyboard-response",
		"trial_index": 67,
		"time_elapsed": 175308,
		"internal_node_id": "0.0-3.0-1.40"
	},
	{
		"rt": 1011,
		"stimulus": "../audio/18-5-fem.mp3",
		"response": " ",
		"word": "dragão",
		"trial_type": "audio-keyboard-response",
		"trial_index": 68,
		"time_elapsed": 176646,
		"internal_node_id": "0.0-3.0-1.41"
	},
	{
		"rt": 888,
		"stimulus": "../audio/18-6-fem.mp3",
		"response": " ",
		"word": "forte",
		"trial_type": "audio-keyboard-response",
		"trial_index": 69,
		"time_elapsed": 177857,
		"internal_node_id": "0.0-3.0-1.42"
	},
	{
		"rt": 971,
		"stimulus": "../audio/18-7-fem.mp3",
		"response": " ",
		"word": "e",
		"trial_type": "audio-keyboard-response",
		"trial_index": 70,
		"time_elapsed": 179163,
		"internal_node_id": "0.0-3.0-1.43"
	},
	{
		"rt": 1200,
		"stimulus": "../audio/18-8-fem.mp3",
		"response": " ",
		"word": "solitário.",
		"trial_type": "audio-keyboard-response",
		"trial_index": 71,
		"time_elapsed": 180695,
		"internal_node_id": "0.0-3.0-1.44"
	},
	{
		"rt": null,
		"stimulus": "<span style= \"font-size:30px; font-family: monospace\">+</span>",
		"response": null,
		"trial_part": "fixation",
		"trial_type": "html-keyboard-response",
		"trial_index": 72,
		"time_elapsed": 181958,
		"internal_node_id": "0.0-3.0-0.45-0.45"
	},
	{
		"rt": 1440,
		"stimulus": "../audio/17-1-masc.mp3",
		"response": " ",
		"word": "Falaram",
		"trial_type": "audio-keyboard-response",
		"trial_index": 73,
		"time_elapsed": 183835,
		"internal_node_id": "0.0-3.0-1.45"
	},
	{
		"rt": 1221,
		"stimulus": "../audio/17-2-masc.mp3",
		"response": " ",
		"word": "da",
		"trial_type": "audio-keyboard-response",
		"trial_index": 74,
		"time_elapsed": 185365,
		"internal_node_id": "0.0-3.0-1.46"
	},
	{
		"rt": 1349,
		"stimulus": "../audio/17-3-masc.mp3",
		"response": " ",
		"word": "lei",
		"trial_type": "audio-keyboard-response",
		"trial_index": 75,
		"time_elapsed": 187036,
		"internal_node_id": "0.0-3.0-1.47"
	},
	{
		"rt": 1219,
		"stimulus": "../audio/17-4-masc.mp3",
		"response": " ",
		"word": "no",
		"trial_type": "audio-keyboard-response",
		"trial_index": 76,
		"time_elapsed": 188545,
		"internal_node_id": "0.0-3.0-1.48"
	},
	{
		"rt": 1280,
		"stimulus": "../audio/17-5-masc.mp3",
		"response": " ",
		"word": "ministério",
		"trial_type": "audio-keyboard-response",
		"trial_index": 77,
		"time_elapsed": 190151,
		"internal_node_id": "0.0-3.0-1.49"
	},
	{
		"rt": 1331,
		"stimulus": "../audio/17-6-masc.mp3",
		"response": " ",
		"word": "diversas",
		"trial_type": "audio-keyboard-response",
		"trial_index": 78,
		"time_elapsed": 191794,
		"internal_node_id": "0.0-3.0-1.50"
	},
	{
		"rt": 1240,
		"stimulus": "../audio/17-7-masc.mp3",
		"response": " ",
		"word": "vezes.",
		"trial_type": "audio-keyboard-response",
		"trial_index": 79,
		"time_elapsed": 193392,
		"internal_node_id": "0.0-3.0-1.51"
	},
	{
		"rt": null,
		"stimulus": "<span style= \"font-size:30px; font-family: monospace\">+</span>",
		"response": null,
		"trial_part": "fixation",
		"trial_type": "html-keyboard-response",
		"trial_index": 80,
		"time_elapsed": 194648,
		"internal_node_id": "0.0-3.0-0.52-0.52"
	},
	{
		"rt": 659,
		"stimulus": "../audio/16-1-fem.mp3",
		"response": " ",
		"word": "Eu",
		"trial_type": "audio-keyboard-response",
		"trial_index": 81,
		"time_elapsed": 195664,
		"internal_node_id": "0.0-3.0-1.52"
	},
	{
		"rt": 1299,
		"stimulus": "../audio/16-2-fem.mp3",
		"response": " ",
		"word": "nunca",
		"trial_type": "audio-keyboard-response",
		"trial_index": 82,
		"time_elapsed": 197262,
		"internal_node_id": "0.0-3.0-1.53"
	},
	{
		"rt": 1208,
		"stimulus": "../audio/16-3-fem.mp3",
		"response": " ",
		"word": "conheci",
		"trial_type": "audio-keyboard-response",
		"trial_index": 83,
		"time_elapsed": 198816,
		"internal_node_id": "0.0-3.0-1.54"
	},
	{
		"rt": 1240,
		"stimulus": "../audio/16-4-fem.mp3",
		"response": " ",
		"word": "um",
		"trial_type": "audio-keyboard-response",
		"trial_index": 84,
		"time_elapsed": 200359,
		"internal_node_id": "0.0-3.0-1.55"
	},
	{
		"rt": 1688,
		"stimulus": "../audio/16-5-fem.mp3",
		"response": " ",
		"word": "general",
		"trial_type": "audio-keyboard-response",
		"trial_index": 85,
		"time_elapsed": 202378,
		"internal_node_id": "0.0-3.0-1.56"
	},
	{
		"rt": 1149,
		"stimulus": "../audio/16-6-fem.mp3",
		"response": " ",
		"word": "do",
		"trial_type": "audio-keyboard-response",
		"trial_index": 86,
		"time_elapsed": 203876,
		"internal_node_id": "0.0-3.0-1.57"
	},
	{
		"rt": 1261,
		"stimulus": "../audio/16-7-fem.mp3",
		"response": " ",
		"word": "exército.",
		"trial_type": "audio-keyboard-response",
		"trial_index": 87,
		"time_elapsed": 205478,
		"internal_node_id": "0.0-3.0-1.58"
	},
	{
		"rt": null,
		"stimulus": "<span style= \"font-size:30px; font-family: monospace\">+</span>",
		"response": null,
		"trial_part": "fixation",
		"trial_type": "html-keyboard-response",
		"trial_index": 88,
		"time_elapsed": 206739,
		"internal_node_id": "0.0-3.0-0.59-0.59"
	},
	{
		"rt": 29,
		"stimulus": "../audio/19-1-fem.mp3",
		"response": " ",
		"word": "O",
		"trial_type": "audio-keyboard-response",
		"trial_index": 89,
		"time_elapsed": 207142,
		"internal_node_id": "0.0-3.0-1.59"
	},
	{
		"rt": 1229,
		"stimulus": "../audio/19-2-fem.mp3",
		"response": " ",
		"word": "menino",
		"trial_type": "audio-keyboard-response",
		"trial_index": 90,
		"time_elapsed": 208703,
		"internal_node_id": "0.0-3.0-1.60"
	},
	{
		"rt": 1120,
		"stimulus": "../audio/19-3-fem.mp3",
		"response": " ",
		"word": "ganhou",
		"trial_type": "audio-keyboard-response",
		"trial_index": 91,
		"time_elapsed": 210142,
		"internal_node_id": "0.0-3.0-1.61"
	},
	{
		"rt": 931,
		"stimulus": "../audio/19-4-fem.mp3",
		"response": " ",
		"word": "uma",
		"trial_type": "audio-keyboard-response",
		"trial_index": 92,
		"time_elapsed": 211436,
		"internal_node_id": "0.0-3.0-1.62"
	},
	{
		"rt": 1101,
		"stimulus": "../audio/19-5-fem.mp3",
		"response": " ",
		"word": "bala",
		"trial_type": "audio-keyboard-response",
		"trial_index": 93,
		"time_elapsed": 212881,
		"internal_node_id": "0.0-3.0-1.63"
	},
	{
		"rt": 1139,
		"stimulus": "../audio/19-6-fem.mp3",
		"response": " ",
		"word": "depois",
		"trial_type": "audio-keyboard-response",
		"trial_index": 94,
		"time_elapsed": 214335,
		"internal_node_id": "0.0-3.0-1.64"
	},
	{
		"rt": 1141,
		"stimulus": "../audio/19-7-fem.mp3",
		"response": " ",
		"word": "do",
		"trial_type": "audio-keyboard-response",
		"trial_index": 95,
		"time_elapsed": 215842,
		"internal_node_id": "0.0-3.0-1.65"
	},
	{
		"rt": 1149,
		"stimulus": "../audio/19-8-fem.mp3",
		"response": " ",
		"word": "almoço.",
		"trial_type": "audio-keyboard-response",
		"trial_index": 96,
		"time_elapsed": 217318,
		"internal_node_id": "0.0-3.0-1.66"
	},
	{
		"rt": null,
		"stimulus": "<span style= \"font-size:30px; font-family: monospace\">+</span>",
		"response": null,
		"trial_part": "fixation",
		"trial_type": "html-keyboard-response",
		"trial_index": 97,
		"time_elapsed": 218585,
		"internal_node_id": "0.0-3.0-0.67-0.67"
	},
	{
		"rt": 0,
		"stimulus": "../audio/20-1-fem.mp3",
		"response": " ",
		"word": "O",
		"trial_type": "audio-keyboard-response",
		"trial_index": 98,
		"time_elapsed": 218936,
		"internal_node_id": "0.0-3.0-1.67"
	},
	{
		"rt": 1339,
		"stimulus": "../audio/20-2-fem.mp3",
		"response": " ",
		"word": "colega",
		"trial_type": "audio-keyboard-response",
		"trial_index": 99,
		"time_elapsed": 220586,
		"internal_node_id": "0.0-3.0-1.68"
	},
	{
		"rt": 1171,
		"stimulus": "../audio/20-3-fem.mp3",
		"response": " ",
		"word": "parecia",
		"trial_type": "audio-keyboard-response",
		"trial_index": 100,
		"time_elapsed": 222086,
		"internal_node_id": "0.0-3.0-1.69"
	},
	{
		"rt": 1280,
		"stimulus": "../audio/20-4-fem.mp3",
		"response": " ",
		"word": "muito",
		"trial_type": "audio-keyboard-response",
		"trial_index": 101,
		"time_elapsed": 223701,
		"internal_node_id": "0.0-3.0-1.70"
	},
	{
		"rt": 1181,
		"stimulus": "../audio/20-5-fem.mp3",
		"response": " ",
		"word": "gripado",
		"trial_type": "audio-keyboard-response",
		"trial_index": 102,
		"time_elapsed": 225208,
		"internal_node_id": "0.0-3.0-1.71"
	},
	{
		"rt": 891,
		"stimulus": "../audio/20-6-fem.mp3",
		"response": " ",
		"word": "no",
		"trial_type": "audio-keyboard-response",
		"trial_index": 103,
		"time_elapsed": 226462,
		"internal_node_id": "0.0-3.0-1.72"
	},
	{
		"rt": 1128,
		"stimulus": "../audio/20-7-fem.mp3",
		"response": " ",
		"word": "dia",
		"trial_type": "audio-keyboard-response",
		"trial_index": 104,
		"time_elapsed": 227894,
		"internal_node_id": "0.0-3.0-1.73"
	},
	{
		"rt": 1160,
		"stimulus": "../audio/20-8-fem.mp3",
		"response": " ",
		"word": "anterior.",
		"trial_type": "audio-keyboard-response",
		"trial_index": 105,
		"time_elapsed": 229378,
		"internal_node_id": "0.0-3.0-1.74"
	},
	{
		"rt": 4140,
		"stimulus": "<span style=\"font-size:25px; font-family: monospace\">O colega parecia muito gripado?</span>",
		"response": "s",
		"question": "O colega parecia muito gripado?",
		"answer": "null",
		"trial": "exp-sent",
		"trial_type": "html-keyboard-response",
		"trial_index": 106,
		"time_elapsed": 233781,
		"internal_node_id": "0.0-3.0-2.74-0.74",
		"accuracy": false
	},
	{
		"rt": null,
		"stimulus": "<span style= \"font-size:30px; font-family: monospace\">+</span>",
		"response": null,
		"trial_part": "fixation",
		"trial_type": "html-keyboard-response",
		"trial_index": 107,
		"time_elapsed": 235301,
		"internal_node_id": "0.0-3.0-0.75-0.75"
	},
	{
		"rt": 1299,
		"stimulus": "../audio/43-1-fem.mp3",
		"response": " ",
		"word": "Eu",
		"trial_type": "audio-keyboard-response",
		"trial_index": 108,
		"time_elapsed": 236978,
		"internal_node_id": "0.0-3.0-1.75"
	},
	{
		"rt": 1320,
		"stimulus": "../audio/43-2-fem.mp3",
		"response": " ",
		"word": "achei",
		"trial_type": "audio-keyboard-response",
		"trial_index": 109,
		"time_elapsed": 238630,
		"internal_node_id": "0.0-3.0-1.76"
	},
	{
		"rt": 1181,
		"stimulus": "../audio/43-3-fem.mp3",
		"response": " ",
		"word": "um",
		"trial_type": "audio-keyboard-response",
		"trial_index": 110,
		"time_elapsed": 240126,
		"internal_node_id": "0.0-3.0-1.77"
	},
	{
		"rt": 1309,
		"stimulus": "../audio/43-4-fem.mp3",
		"response": " ",
		"word": "colchão",
		"trial_type": "audio-keyboard-response",
		"trial_index": 111,
		"time_elapsed": 241755,
		"internal_node_id": "0.0-3.0-1.78"
	},
	{
		"rt": 1552,
		"stimulus": "../audio/43-5-fem.mp3",
		"response": " ",
		"word": "velho",
		"trial_type": "audio-keyboard-response",
		"trial_index": 112,
		"time_elapsed": 243649,
		"internal_node_id": "0.0-3.0-1.79"
	},
	{
		"rt": 1320,
		"stimulus": "../audio/43-6-fem.mp3",
		"response": " ",
		"word": "e",
		"trial_type": "audio-keyboard-response",
		"trial_index": 113,
		"time_elapsed": 245274,
		"internal_node_id": "0.0-3.0-1.80"
	},
	{
		"rt": 1789,
		"stimulus": "../audio/43-7-fem.mp3",
		"response": " ",
		"word": "imundo",
		"trial_type": "audio-keyboard-response",
		"trial_index": 114,
		"time_elapsed": 247424,
		"internal_node_id": "0.0-3.0-1.81"
	},
	{
		"rt": 3200,
		"stimulus": "../audio/43-8-fem.mp3",
		"response": " ",
		"word": "na",
		"trial_type": "audio-keyboard-response",
		"trial_index": 115,
		"time_elapsed": 251023,
		"internal_node_id": "0.0-3.0-1.82"
	},
	{
		"rt": 2760,
		"stimulus": "../audio/43-9-fem.mp3",
		"response": " ",
		"word": "casa.",
		"trial_type": "audio-keyboard-response",
		"trial_index": 116,
		"time_elapsed": 254124,
		"internal_node_id": "0.0-3.0-1.83"
	},
	{
		"rt": null,
		"stimulus": "<span style= \"font-size:30px; font-family: monospace\">+</span>",
		"response": null,
		"trial_part": "fixation",
		"trial_type": "html-keyboard-response",
		"trial_index": 117,
		"time_elapsed": 255397,
		"internal_node_id": "0.0-3.0-0.84-0.84"
	},
	{
		"rt": 1259,
		"stimulus": "../audio/41-1-fem.mp3",
		"response": " ",
		"word": "A",
		"trial_type": "audio-keyboard-response",
		"trial_index": 118,
		"time_elapsed": 257031,
		"internal_node_id": "0.0-3.0-1.84"
	},
	{
		"rt": 4800,
		"stimulus": "../audio/41-2-fem.mp3",
		"response": " ",
		"word": "novela",
		"trial_type": "audio-keyboard-response",
		"trial_index": 119,
		"time_elapsed": 262257,
		"internal_node_id": "0.0-3.0-1.85"
	},
	{
		"rt": 1200,
		"stimulus": "../audio/41-3-fem.mp3",
		"response": " ",
		"word": "falava",
		"trial_type": "audio-keyboard-response",
		"trial_index": 120,
		"time_elapsed": 263859,
		"internal_node_id": "0.0-3.0-1.86"
	},
	{
		"rt": 1211,
		"stimulus": "../audio/41-4-fem.mp3",
		"response": " ",
		"word": "de",
		"trial_type": "audio-keyboard-response",
		"trial_index": 121,
		"time_elapsed": 265382,
		"internal_node_id": "0.0-3.0-1.87"
	},
	{
		"rt": 1251,
		"stimulus": "../audio/41-5-fem.mp3",
		"response": " ",
		"word": "paixão",
		"trial_type": "audio-keyboard-response",
		"trial_index": 122,
		"time_elapsed": 266981,
		"internal_node_id": "0.0-3.0-1.88"
	},
	{
		"rt": 1379,
		"stimulus": "../audio/41-6-fem.mp3",
		"response": " ",
		"word": "e",
		"trial_type": "audio-keyboard-response",
		"trial_index": 123,
		"time_elapsed": 268667,
		"internal_node_id": "0.0-3.0-1.89"
	},
	{
		"rt": 2189,
		"stimulus": "../audio/41-7-fem.mp3",
		"response": " ",
		"word": "comédia.",
		"trial_type": "audio-keyboard-response",
		"trial_index": 124,
		"time_elapsed": 271182,
		"internal_node_id": "0.0-3.0-1.90"
	},
	{
		"rt": null,
		"stimulus": "<span style= \"font-size:30px; font-family: monospace\">+</span>",
		"response": null,
		"trial_part": "fixation",
		"trial_type": "html-keyboard-response",
		"trial_index": 125,
		"time_elapsed": 272446,
		"internal_node_id": "0.0-3.0-0.91-0.91"
	},
	{
		"rt": 4861,
		"stimulus": "../audio/44-1-masc.mp3",
		"response": " ",
		"word": "Meus",
		"trial_type": "audio-keyboard-response",
		"trial_index": 126,
		"time_elapsed": 277680,
		"internal_node_id": "0.0-3.0-1.91"
	},
	{
		"rt": 1240,
		"stimulus": "../audio/44-2-masc.mp3",
		"response": " ",
		"word": "irmãos",
		"trial_type": "audio-keyboard-response",
		"trial_index": 127,
		"time_elapsed": 279286,
		"internal_node_id": "0.0-3.0-1.92"
	},
	{
		"rt": 811,
		"stimulus": "../audio/44-3-masc.mp3",
		"response": " ",
		"word": "brigam",
		"trial_type": "audio-keyboard-response",
		"trial_index": 128,
		"time_elapsed": 280461,
		"internal_node_id": "0.0-3.0-1.93"
	},
	{
		"rt": 869,
		"stimulus": "../audio/44-4-masc.mp3",
		"response": " ",
		"word": "por",
		"trial_type": "audio-keyboard-response",
		"trial_index": 129,
		"time_elapsed": 281621,
		"internal_node_id": "0.0-3.0-1.94"
	},
	{
		"rt": 939,
		"stimulus": "../audio/44-5-masc.mp3",
		"response": " ",
		"word": "bobagem",
		"trial_type": "audio-keyboard-response",
		"trial_index": 130,
		"time_elapsed": 282944,
		"internal_node_id": "0.0-3.0-1.95"
	},
	{
		"rt": 1152,
		"stimulus": "../audio/44-6-masc.mp3",
		"response": " ",
		"word": "todos",
		"trial_type": "audio-keyboard-response",
		"trial_index": 131,
		"time_elapsed": 284563,
		"internal_node_id": "0.0-3.0-1.96"
	},
	{
		"rt": 1149,
		"stimulus": "../audio/44-7-masc.mp3",
		"response": " ",
		"word": "os",
		"trial_type": "audio-keyboard-response",
		"trial_index": 132,
		"time_elapsed": 286019,
		"internal_node_id": "0.0-3.0-1.97"
	},
	{
		"rt": 1840,
		"stimulus": "../audio/44-8-masc.mp3",
		"response": " ",
		"word": "dias.",
		"trial_type": "audio-keyboard-response",
		"trial_index": 133,
		"time_elapsed": 288151,
		"internal_node_id": "0.0-3.0-1.98"
	},
	{
		"rt": null,
		"stimulus": "<span style= \"font-size:30px; font-family: monospace\">+</span>",
		"response": null,
		"trial_part": "fixation",
		"trial_type": "html-keyboard-response",
		"trial_index": 134,
		"time_elapsed": 289412,
		"internal_node_id": "0.0-3.0-0.99-0.99"
	},
	{
		"rt": 331,
		"stimulus": "../audio/42-1-masc.mp3",
		"response": " ",
		"word": "Eu",
		"trial_type": "audio-keyboard-response",
		"trial_index": 135,
		"time_elapsed": 290108,
		"internal_node_id": "0.0-3.0-1.99"
	},
	{
		"rt": 1349,
		"stimulus": "../audio/42-2-masc.mp3",
		"response": " ",
		"word": "fui",
		"trial_type": "audio-keyboard-response",
		"trial_index": 136,
		"time_elapsed": 291779,
		"internal_node_id": "0.0-3.0-1.100"
	},
	{
		"rt": 17451,
		"stimulus": "../audio/42-3-masc.mp3",
		"response": " ",
		"word": "a",
		"trial_type": "audio-keyboard-response",
		"trial_index": 137,
		"time_elapsed": 309603,
		"internal_node_id": "0.0-3.0-1.101"
	},
	{
		"rt": 1080,
		"stimulus": "../audio/42-4-masc.mp3",
		"response": " ",
		"word": "uma",
		"trial_type": "audio-keyboard-response",
		"trial_index": 138,
		"time_elapsed": 311140,
		"internal_node_id": "0.0-3.0-1.102"
	},
	{
		"rt": 1520,
		"stimulus": "../audio/42-5-masc.mp3",
		"response": " ",
		"word": "loja",
		"trial_type": "audio-keyboard-response",
		"trial_index": 139,
		"time_elapsed": 313006,
		"internal_node_id": "0.0-3.0-1.103"
	},
	{
		"rt": 2880,
		"stimulus": "../audio/42-6-masc.mp3",
		"response": " ",
		"word": "de",
		"trial_type": "audio-keyboard-response",
		"trial_index": 140,
		"time_elapsed": 316247,
		"internal_node_id": "0.0-3.0-1.104"
	},
	{
		"rt": 2931,
		"stimulus": "../audio/42-7-masc.mp3",
		"response": " ",
		"word": "móveis",
		"trial_type": "audio-keyboard-response",
		"trial_index": 141,
		"time_elapsed": 319560,
		"internal_node_id": "0.0-3.0-1.105"
	},
	{
		"rt": 2021,
		"stimulus": "../audio/42-8-masc.mp3",
		"response": " ",
		"word": "no",
		"trial_type": "audio-keyboard-response",
		"trial_index": 142,
		"time_elapsed": 321963,
		"internal_node_id": "0.0-3.0-1.106"
	},
	{
		"rt": 920,
		"stimulus": "../audio/42-9-masc.mp3",
		"response": " ",
		"word": "bairro.",
		"trial_type": "audio-keyboard-response",
		"trial_index": 143,
		"time_elapsed": 323284,
		"internal_node_id": "0.0-3.0-1.107"
	},
	{
		"rt": null,
		"stimulus": "<span style= \"font-size:30px; font-family: monospace\">+</span>",
		"response": null,
		"trial_part": "fixation",
		"trial_type": "html-keyboard-response",
		"trial_index": 144,
		"time_elapsed": 324543,
		"internal_node_id": "0.0-3.0-0.108-0.108"
	},
	{
		"rt": 909,
		"stimulus": "../audio/45-1-masc.mp3",
		"response": " ",
		"word": "O",
		"trial_type": "audio-keyboard-response",
		"trial_index": 145,
		"time_elapsed": 325790,
		"internal_node_id": "0.0-3.0-1.108"
	},
	{
		"rt": 1141,
		"stimulus": "../audio/45-2-masc.mp3",
		"response": " ",
		"word": "homem",
		"trial_type": "audio-keyboard-response",
		"trial_index": 146,
		"time_elapsed": 327243,
		"internal_node_id": "0.0-3.0-1.109"
	},
	{
		"rt": 1048,
		"stimulus": "../audio/45-3-masc.mp3",
		"response": " ",
		"word": "pagou",
		"trial_type": "audio-keyboard-response",
		"trial_index": 147,
		"time_elapsed": 328618,
		"internal_node_id": "0.0-3.0-1.110"
	},
	{
		"rt": 928,
		"stimulus": "../audio/45-4-masc.mp3",
		"response": " ",
		"word": "o",
		"trial_type": "audio-keyboard-response",
		"trial_index": 148,
		"time_elapsed": 329854,
		"internal_node_id": "0.0-3.0-1.111"
	},
	{
		"rt": 840,
		"stimulus": "../audio/45-5-masc.mp3",
		"response": " ",
		"word": "aluguel",
		"trial_type": "audio-keyboard-response",
		"trial_index": 149,
		"time_elapsed": 331005,
		"internal_node_id": "0.0-3.0-1.112"
	},
	{
		"rt": 840,
		"stimulus": "../audio/45-6-masc.mp3",
		"response": " ",
		"word": "com",
		"trial_type": "audio-keyboard-response",
		"trial_index": 150,
		"time_elapsed": 332179,
		"internal_node_id": "0.0-3.0-1.113"
	},
	{
		"rt": 829,
		"stimulus": "../audio/45-7-masc.mp3",
		"response": " ",
		"word": "atraso.",
		"trial_type": "audio-keyboard-response",
		"trial_index": 151,
		"time_elapsed": 333397,
		"internal_node_id": "0.0-3.0-1.114"
	},
	{
		"rt": 3279,
		"stimulus": "<span style=\"font-size:25px; font-family: monospace\">O homem pagou o aluguel em dia?</span>",
		"response": "n",
		"question": "O homem pagou o aluguel em dia?",
		"answer": "null",
		"trial": "exp-sent",
		"trial_type": "html-keyboard-response",
		"trial_index": 152,
		"time_elapsed": 336930,
		"internal_node_id": "0.0-3.0-2.114-0.114",
		"accuracy": false
	},
	{
		"rt": null,
		"stimulus": "<span style= \"font-size:30px; font-family: monospace\">+</span>",
		"response": null,
		"trial_part": "fixation",
		"trial_type": "html-keyboard-response",
		"trial_index": 153,
		"time_elapsed": 338456,
		"internal_node_id": "0.0-3.0-0.115-0.115"
	},
	{
		"rt": 779,
		"stimulus": "../audio/22-1-masc.mp3",
		"response": " ",
		"word": "Eu",
		"trial_type": "audio-keyboard-response",
		"trial_index": 154,
		"time_elapsed": 339571,
		"internal_node_id": "0.0-3.0-1.115"
	},
	{
		"rt": 941,
		"stimulus": "../audio/22-2-masc.mp3",
		"response": " ",
		"word": "detesto",
		"trial_type": "audio-keyboard-response",
		"trial_index": 155,
		"time_elapsed": 340870,
		"internal_node_id": "0.0-3.0-1.116"
	},
	{
		"rt": 960,
		"stimulus": "../audio/22-3-masc.mp3",
		"response": " ",
		"word": "fumaça",
		"trial_type": "audio-keyboard-response",
		"trial_index": 156,
		"time_elapsed": 342151,
		"internal_node_id": "0.0-3.0-1.117"
	},
	{
		"rt": 861,
		"stimulus": "../audio/22-4-masc.mp3",
		"response": " ",
		"word": "de",
		"trial_type": "audio-keyboard-response",
		"trial_index": 157,
		"time_elapsed": 343361,
		"internal_node_id": "0.0-3.0-1.118"
	},
	{
		"rt": 840,
		"stimulus": "../audio/22-5-masc.mp3",
		"response": " ",
		"word": "cachimbo",
		"trial_type": "audio-keyboard-response",
		"trial_index": 158,
		"time_elapsed": 344627,
		"internal_node_id": "0.0-3.0-1.119"
	},
	{
		"rt": 931,
		"stimulus": "../audio/22-6-masc.mp3",
		"response": " ",
		"word": "e",
		"trial_type": "audio-keyboard-response",
		"trial_index": 159,
		"time_elapsed": 345868,
		"internal_node_id": "0.0-3.0-1.120"
	},
	{
		"rt": 869,
		"stimulus": "../audio/22-7-masc.mp3",
		"response": " ",
		"word": "de",
		"trial_type": "audio-keyboard-response",
		"trial_index": 160,
		"time_elapsed": 347056,
		"internal_node_id": "0.0-3.0-1.121"
	},
	{
		"rt": 400,
		"stimulus": "../audio/22-8-masc.mp3",
		"response": " ",
		"word": "cigarro.",
		"trial_type": "audio-keyboard-response",
		"trial_index": 161,
		"time_elapsed": 347765,
		"internal_node_id": "0.0-3.0-1.122"
	},
	{
		"rt": null,
		"stimulus": "<span style= \"font-size:30px; font-family: monospace\">+</span>",
		"response": null,
		"trial_part": "fixation",
		"trial_type": "html-keyboard-response",
		"trial_index": 162,
		"time_elapsed": 349033,
		"internal_node_id": "0.0-3.0-0.123-0.123"
	},
	{
		"rt": 120,
		"stimulus": "../audio/23-1-masc.mp3",
		"response": " ",
		"word": "Português",
		"trial_type": "audio-keyboard-response",
		"trial_index": 163,
		"time_elapsed": 349640,
		"internal_node_id": "0.0-3.0-1.123"
	},
	{
		"rt": 1112,
		"stimulus": "../audio/23-2-masc.mp3",
		"response": " ",
		"word": "é",
		"trial_type": "audio-keyboard-response",
		"trial_index": 164,
		"time_elapsed": 351161,
		"internal_node_id": "0.0-3.0-1.124"
	},
	{
		"rt": 981,
		"stimulus": "../audio/23-3-masc.mp3",
		"response": " ",
		"word": "um",
		"trial_type": "audio-keyboard-response",
		"trial_index": 165,
		"time_elapsed": 352642,
		"internal_node_id": "0.0-3.0-1.125"
	},
	{
		"rt": 1019,
		"stimulus": "../audio/23-4-masc.mp3",
		"response": " ",
		"word": "assunto",
		"trial_type": "audio-keyboard-response",
		"trial_index": 166,
		"time_elapsed": 354256,
		"internal_node_id": "0.0-3.0-1.126"
	},
	{
		"rt": 1691,
		"stimulus": "../audio/23-5-masc.mp3",
		"response": " ",
		"word": "elementar",
		"trial_type": "audio-keyboard-response",
		"trial_index": 167,
		"time_elapsed": 356273,
		"internal_node_id": "0.0-3.0-1.127"
	},
	{
		"rt": 1160,
		"stimulus": "../audio/23-6-masc.mp3",
		"response": " ",
		"word": "para",
		"trial_type": "audio-keyboard-response",
		"trial_index": 168,
		"time_elapsed": 357803,
		"internal_node_id": "0.0-3.0-1.128"
	},
	{
		"rt": 1120,
		"stimulus": "../audio/23-7-masc.mp3",
		"response": " ",
		"word": "os",
		"trial_type": "audio-keyboard-response",
		"trial_index": 169,
		"time_elapsed": 359290,
		"internal_node_id": "0.0-3.0-1.129"
	},
	{
		"rt": 1029,
		"stimulus": "../audio/23-8-masc.mp3",
		"response": " ",
		"word": "alunos.",
		"trial_type": "audio-keyboard-response",
		"trial_index": 170,
		"time_elapsed": 360639,
		"internal_node_id": "0.0-3.0-1.130"
	},
	{
		"rt": null,
		"stimulus": "<span style= \"font-size:30px; font-family: monospace\">+</span>",
		"response": null,
		"trial_part": "fixation",
		"trial_type": "html-keyboard-response",
		"trial_index": 171,
		"time_elapsed": 361913,
		"internal_node_id": "0.0-3.0-0.131-0.131"
	},
	{
		"rt": 181,
		"stimulus": "../audio/21-1-fem.mp3",
		"response": " ",
		"word": "Precisamos",
		"trial_type": "audio-keyboard-response",
		"trial_index": 172,
		"time_elapsed": 362474,
		"internal_node_id": "0.0-3.0-1.131"
	},
	{
		"rt": 1120,
		"stimulus": "../audio/21-2-fem.mp3",
		"response": " ",
		"word": "de",
		"trial_type": "audio-keyboard-response",
		"trial_index": 173,
		"time_elapsed": 363967,
		"internal_node_id": "0.0-3.0-1.132"
	},
	{
		"rt": 1301,
		"stimulus": "../audio/21-3-fem.mp3",
		"response": " ",
		"word": "paciência",
		"trial_type": "audio-keyboard-response",
		"trial_index": 174,
		"time_elapsed": 365645,
		"internal_node_id": "0.0-3.0-1.133"
	},
	{
		"rt": 1011,
		"stimulus": "../audio/21-4-fem.mp3",
		"response": " ",
		"word": "e",
		"trial_type": "audio-keyboard-response",
		"trial_index": 175,
		"time_elapsed": 367028,
		"internal_node_id": "0.0-3.0-1.134"
	},
	{
		"rt": 960,
		"stimulus": "../audio/21-5-fem.mp3",
		"response": " ",
		"word": "bondade",
		"trial_type": "audio-keyboard-response",
		"trial_index": 176,
		"time_elapsed": 368362,
		"internal_node_id": "0.0-3.0-1.135"
	},
	{
		"rt": 1109,
		"stimulus": "../audio/21-6-fem.mp3",
		"response": " ",
		"word": "para",
		"trial_type": "audio-keyboard-response",
		"trial_index": 177,
		"time_elapsed": 369780,
		"internal_node_id": "0.0-3.0-1.136"
	},
	{
		"rt": 1051,
		"stimulus": "../audio/21-7-fem.mp3",
		"response": " ",
		"word": "um",
		"trial_type": "audio-keyboard-response",
		"trial_index": 178,
		"time_elapsed": 371169,
		"internal_node_id": "0.0-3.0-1.137"
	},
	{
		"rt": 1019,
		"stimulus": "../audio/21-8-fem.mp3",
		"response": " ",
		"word": "mundo",
		"trial_type": "audio-keyboard-response",
		"trial_index": 179,
		"time_elapsed": 372498,
		"internal_node_id": "0.0-3.0-1.138"
	},
	{
		"rt": 960,
		"stimulus": "../audio/21-9-fem.mp3",
		"response": " ",
		"word": "melhor.",
		"trial_type": "audio-keyboard-response",
		"trial_index": 180,
		"time_elapsed": 373877,
		"internal_node_id": "0.0-3.0-1.139"
	},
	{
		"rt": null,
		"stimulus": "<span style= \"font-size:30px; font-family: monospace\">+</span>",
		"response": null,
		"trial_part": "fixation",
		"trial_type": "html-keyboard-response",
		"trial_index": 181,
		"time_elapsed": 375137,
		"internal_node_id": "0.0-3.0-0.140-0.140"
	},
	{
		"rt": 440,
		"stimulus": "../audio/24-1-fem.mp3",
		"response": " ",
		"word": "As",
		"trial_type": "audio-keyboard-response",
		"trial_index": 182,
		"time_elapsed": 377208,
		"internal_node_id": "0.0-3.0-1.140"
	},
	{
		"rt": 1101,
		"stimulus": "../audio/24-2-fem.mp3",
		"response": " ",
		"word": "crianças",
		"trial_type": "audio-keyboard-response",
		"trial_index": 183,
		"time_elapsed": 378675,
		"internal_node_id": "0.0-3.0-1.141"
	},
	{
		"rt": 920,
		"stimulus": "../audio/24-3-fem.mp3",
		"response": " ",
		"word": "vão",
		"trial_type": "audio-keyboard-response",
		"trial_index": 184,
		"time_elapsed": 379894,
		"internal_node_id": "0.0-3.0-1.142"
	},
	{
		"rt": 960,
		"stimulus": "../audio/24-4-fem.mp3",
		"response": " ",
		"word": "ao",
		"trial_type": "audio-keyboard-response",
		"trial_index": 185,
		"time_elapsed": 381173,
		"internal_node_id": "0.0-3.0-1.143"
	},
	{
		"rt": 1221,
		"stimulus": "../audio/24-5-fem.mp3",
		"response": " ",
		"word": "cinema",
		"trial_type": "audio-keyboard-response",
		"trial_index": 186,
		"time_elapsed": 382721,
		"internal_node_id": "0.0-3.0-1.144"
	},
	{
		"rt": 1000,
		"stimulus": "../audio/24-6-fem.mp3",
		"response": " ",
		"word": "mais",
		"trial_type": "audio-keyboard-response",
		"trial_index": 187,
		"time_elapsed": 384183,
		"internal_node_id": "0.0-3.0-1.145"
	},
	{
		"rt": 1048,
		"stimulus": "../audio/24-7-fem.mp3",
		"response": " ",
		"word": "tarde.",
		"trial_type": "audio-keyboard-response",
		"trial_index": 188,
		"time_elapsed": 385538,
		"internal_node_id": "0.0-3.0-1.146"
	},
	{
		"rt": null,
		"stimulus": "<span style= \"font-size:30px; font-family: monospace\">+</span>",
		"response": null,
		"trial_part": "fixation",
		"trial_type": "html-keyboard-response",
		"trial_index": 189,
		"time_elapsed": 386815,
		"internal_node_id": "0.0-3.0-0.147-0.147"
	},
	{
		"rt": 509,
		"stimulus": "../audio/25-1-fem.mp3",
		"response": " ",
		"word": "Ela",
		"trial_type": "audio-keyboard-response",
		"trial_index": 190,
		"time_elapsed": 387706,
		"internal_node_id": "0.0-3.0-1.147"
	},
	{
		"rt": 971,
		"stimulus": "../audio/25-2-fem.mp3",
		"response": " ",
		"word": "faz",
		"trial_type": "audio-keyboard-response",
		"trial_index": 191,
		"time_elapsed": 389034,
		"internal_node_id": "0.0-3.0-1.148"
	},
	{
		"rt": 979,
		"stimulus": "../audio/25-3-fem.mp3",
		"response": " ",
		"word": "tanto",
		"trial_type": "audio-keyboard-response",
		"trial_index": 192,
		"time_elapsed": 390331,
		"internal_node_id": "0.0-3.0-1.149"
	},
	{
		"rt": 1000,
		"stimulus": "../audio/25-4-fem.mp3",
		"response": " ",
		"word": "cabelo",
		"trial_type": "audio-keyboard-response",
		"trial_index": 193,
		"time_elapsed": 391650,
		"internal_node_id": "0.0-3.0-1.150"
	},
	{
		"rt": 1061,
		"stimulus": "../audio/25-5-fem.mp3",
		"response": " ",
		"word": "liso",
		"trial_type": "audio-keyboard-response",
		"trial_index": 194,
		"time_elapsed": 393166,
		"internal_node_id": "0.0-3.0-1.151"
	},
	{
		"rt": 1021,
		"stimulus": "../audio/25-6-fem.mp3",
		"response": " ",
		"word": "quanto",
		"trial_type": "audio-keyboard-response",
		"trial_index": 195,
		"time_elapsed": 394515,
		"internal_node_id": "0.0-3.0-1.152"
	},
	{
		"rt": 1091,
		"stimulus": "../audio/25-7-fem.mp3",
		"response": " ",
		"word": "cacheado.",
		"trial_type": "audio-keyboard-response",
		"trial_index": 196,
		"time_elapsed": 395920,
		"internal_node_id": "0.0-3.0-1.153"
	},
	{
		"rt": 8147,
		"stimulus": "<span style=\"font-size:25px; font-family: monospace\">Ela só faz cabelo cacheado?</span>",
		"response": "s",
		"question": "Ela só faz cabelo cacheado?",
		"answer": "null",
		"trial": "exp-sent",
		"trial_type": "html-keyboard-response",
		"trial_index": 197,
		"time_elapsed": 404329,
		"internal_node_id": "0.0-3.0-2.153-0.153",
		"accuracy": false
	},
	{
		"rt": null,
		"stimulus": "<span style= \"font-size:30px; font-family: monospace\">+</span>",
		"response": null,
		"trial_part": "fixation",
		"trial_type": "html-keyboard-response",
		"trial_index": 198,
		"time_elapsed": 405848,
		"internal_node_id": "0.0-3.0-0.154-0.154"
	},
	{
		"rt": 1061,
		"stimulus": "../audio/02-2-masc.mp3",
		"response": " ",
		"word": "Havia",
		"trial_type": "audio-keyboard-response",
		"trial_index": 199,
		"time_elapsed": 407274,
		"internal_node_id": "0.0-3.0-1.154"
	},
	{
		"rt": 1011,
		"stimulus": "../audio/02-2-masc.mp3",
		"response": " ",
		"word": "um",
		"trial_type": "audio-keyboard-response",
		"trial_index": 200,
		"time_elapsed": 408543,
		"internal_node_id": "0.0-3.0-1.155"
	},
	{
		"rt": 1091,
		"stimulus": "../audio/02-3-masc.mp3",
		"response": " ",
		"word": "cheiro",
		"trial_type": "audio-keyboard-response",
		"trial_index": 201,
		"time_elapsed": 409994,
		"internal_node_id": "0.0-3.0-1.156"
	},
	{
		"rt": 859,
		"stimulus": "../audio/02-4-masc.mp3",
		"response": " ",
		"word": "de",
		"trial_type": "audio-keyboard-response",
		"trial_index": 202,
		"time_elapsed": 411172,
		"internal_node_id": "0.0-3.0-1.157"
	},
	{
		"rt": 1280,
		"stimulus": "../audio/02-5-masc.mp3",
		"response": " ",
		"word": "gasolina",
		"trial_type": "audio-keyboard-response",
		"trial_index": 203,
		"time_elapsed": 412786,
		"internal_node_id": "0.0-3.0-1.158"
	},
	{
		"rt": 1040,
		"stimulus": "../audio/02-6-masc.mp3",
		"response": " ",
		"word": "na",
		"trial_type": "audio-keyboard-response",
		"trial_index": 204,
		"time_elapsed": 414190,
		"internal_node_id": "0.0-3.0-1.159"
	},
	{
		"rt": 1171,
		"stimulus": "../audio/02-7-masc.mp3",
		"response": " ",
		"word": "garagem.",
		"trial_type": "audio-keyboard-response",
		"trial_index": 205,
		"time_elapsed": 415672,
		"internal_node_id": "0.0-3.0-1.160"
	},
	{
		"rt": null,
		"stimulus": "<span style= \"font-size:30px; font-family: monospace\">+</span>",
		"response": null,
		"trial_part": "fixation",
		"trial_type": "html-keyboard-response",
		"trial_index": 206,
		"time_elapsed": 416939,
		"internal_node_id": "0.0-3.0-0.161-0.161"
	},
	{
		"rt": 1309,
		"stimulus": "../audio/04-1-masc.mp3",
		"response": " ",
		"word": "Duzentos",
		"trial_type": "audio-keyboard-response",
		"trial_index": 207,
		"time_elapsed": 418656,
		"internal_node_id": "0.0-3.0-1.161"
	},
	{
		"rt": 1099,
		"stimulus": "../audio/04-2-masc.mp3",
		"response": " ",
		"word": "carros",
		"trial_type": "audio-keyboard-response",
		"trial_index": 208,
		"time_elapsed": 420099,
		"internal_node_id": "0.0-3.0-1.162"
	},
	{
		"rt": 971,
		"stimulus": "../audio/04-3-masc.mp3",
		"response": " ",
		"word": "passaram",
		"trial_type": "audio-keyboard-response",
		"trial_index": 209,
		"time_elapsed": 421423,
		"internal_node_id": "0.0-3.0-1.163"
	},
	{
		"rt": 859,
		"stimulus": "../audio/04-4-masc.mp3",
		"response": " ",
		"word": "pela",
		"trial_type": "audio-keyboard-response",
		"trial_index": 210,
		"time_elapsed": 422589,
		"internal_node_id": "0.0-3.0-1.164"
	},
	{
		"rt": 960,
		"stimulus": "../audio/04-5-masc.mp3",
		"response": " ",
		"word": "ponte",
		"trial_type": "audio-keyboard-response",
		"trial_index": 211,
		"time_elapsed": 423900,
		"internal_node_id": "0.0-3.0-1.165"
	},
	{
		"rt": 939,
		"stimulus": "../audio/04-6-masc.mp3",
		"response": " ",
		"word": "hoje",
		"trial_type": "audio-keyboard-response",
		"trial_index": 212,
		"time_elapsed": 425181,
		"internal_node_id": "0.0-3.0-1.166"
	},
	{
		"rt": 989,
		"stimulus": "../audio/04-7-masc.mp3",
		"response": " ",
		"word": "de",
		"trial_type": "audio-keyboard-response",
		"trial_index": 213,
		"time_elapsed": 426548,
		"internal_node_id": "0.0-3.0-1.167"
	},
	{
		"rt": 1432,
		"stimulus": "../audio/04-8-masc.mp3",
		"response": " ",
		"word": "tarde.",
		"trial_type": "audio-keyboard-response",
		"trial_index": 214,
		"time_elapsed": 428289,
		"internal_node_id": "0.0-3.0-1.168"
	},
	{
		"rt": null,
		"stimulus": "<span style= \"font-size:30px; font-family: monospace\">+</span>",
		"response": null,
		"trial_part": "fixation",
		"trial_type": "html-keyboard-response",
		"trial_index": 215,
		"time_elapsed": 429559,
		"internal_node_id": "0.0-3.0-0.169-0.169"
	},
	{
		"rt": 1120,
		"stimulus": "../audio/01-1-fem.mp3",
		"response": " ",
		"word": "O",
		"trial_type": "audio-keyboard-response",
		"trial_index": 216,
		"time_elapsed": 431021,
		"internal_node_id": "0.0-3.0-1.169"
	},
	{
		"rt": 728,
		"stimulus": "../audio/01-2-fem.mp3",
		"response": " ",
		"word": "menino",
		"trial_type": "audio-keyboard-response",
		"trial_index": 217,
		"time_elapsed": 432053,
		"internal_node_id": "0.0-3.0-1.170"
	},
	{
		"rt": 701,
		"stimulus": "../audio/01-3-fem.mp3",
		"response": " ",
		"word": "derrubou",
		"trial_type": "audio-keyboard-response",
		"trial_index": 218,
		"time_elapsed": 433119,
		"internal_node_id": "0.0-3.0-1.171"
	},
	{
		"rt": 931,
		"stimulus": "../audio/01-4-fem.mp3",
		"response": " ",
		"word": "a",
		"trial_type": "audio-keyboard-response",
		"trial_index": 219,
		"time_elapsed": 434359,
		"internal_node_id": "0.0-3.0-1.172"
	},
	{
		"rt": 659,
		"stimulus": "../audio/01-5-fem.mp3",
		"response": " ",
		"word": "guitarra",
		"trial_type": "audio-keyboard-response",
		"trial_index": 220,
		"time_elapsed": 435625,
		"internal_node_id": "0.0-3.0-1.173"
	},
	{
		"rt": 952,
		"stimulus": "../audio/01-6-fem.mp3",
		"response": " ",
		"word": "no",
		"trial_type": "audio-keyboard-response",
		"trial_index": 221,
		"time_elapsed": 437046,
		"internal_node_id": "0.0-3.0-1.174"
	},
	{
		"rt": 1000,
		"stimulus": "../audio/01-7-fem.mp3",
		"response": " ",
		"word": "chão.",
		"trial_type": "audio-keyboard-response",
		"trial_index": 222,
		"time_elapsed": 438353,
		"internal_node_id": "0.0-3.0-1.175"
	},
	{
		"rt": null,
		"stimulus": "<span style= \"font-size:30px; font-family: monospace\">+</span>",
		"response": null,
		"trial_part": "fixation",
		"trial_type": "html-keyboard-response",
		"trial_index": 223,
		"time_elapsed": 439618,
		"internal_node_id": "0.0-3.0-0.176-0.176"
	},
	{
		"rt": 832,
		"stimulus": "../audio/03-1-masc.mp3",
		"response": " ",
		"word": "O",
		"trial_type": "audio-keyboard-response",
		"trial_index": 224,
		"time_elapsed": 440887,
		"internal_node_id": "0.0-3.0-1.176"
	},
	{
		"rt": 859,
		"stimulus": "../audio/03-2-masc.mp3",
		"response": " ",
		"word": "coelho",
		"trial_type": "audio-keyboard-response",
		"trial_index": 225,
		"time_elapsed": 442059,
		"internal_node_id": "0.0-3.0-1.177"
	},
	{
		"rt": 880,
		"stimulus": "../audio/03-3-masc.mp3",
		"response": " ",
		"word": "foi",
		"trial_type": "audio-keyboard-response",
		"trial_index": 226,
		"time_elapsed": 443290,
		"internal_node_id": "0.0-3.0-1.178"
	},
	{
		"rt": 819,
		"stimulus": "../audio/03-4-masc.mp3",
		"response": " ",
		"word": "bastante",
		"trial_type": "audio-keyboard-response",
		"trial_index": 227,
		"time_elapsed": 444492,
		"internal_node_id": "0.0-3.0-1.179"
	},
	{
		"rt": 1741,
		"stimulus": "../audio/03-5-masc.mp3",
		"response": " ",
		"word": "dócil",
		"trial_type": "audio-keyboard-response",
		"trial_index": 228,
		"time_elapsed": 446568,
		"internal_node_id": "0.0-3.0-1.180"
	},
	{
		"rt": 240,
		"stimulus": "../audio/03-6-masc.mp3",
		"response": " ",
		"word": "com",
		"trial_type": "audio-keyboard-response",
		"trial_index": 229,
		"time_elapsed": 447157,
		"internal_node_id": "0.0-3.0-1.181"
	},
	{
		"rt": 400,
		"stimulus": "../audio/03-7-masc.mp3",
		"response": " ",
		"word": "as",
		"trial_type": "audio-keyboard-response",
		"trial_index": 230,
		"time_elapsed": 447864,
		"internal_node_id": "0.0-3.0-1.182"
	},
	{
		"rt": 131,
		"stimulus": "../audio/03-8-masc.mp3",
		"response": " ",
		"word": "crianças.",
		"trial_type": "audio-keyboard-response",
		"trial_index": 231,
		"time_elapsed": 448329,
		"internal_node_id": "0.0-3.0-1.183"
	},
	{
		"rt": null,
		"stimulus": "<span style= \"font-size:30px; font-family: monospace\">+</span>",
		"response": null,
		"trial_part": "fixation",
		"trial_type": "html-keyboard-response",
		"trial_index": 232,
		"time_elapsed": 449602,
		"internal_node_id": "0.0-3.0-0.184-0.184"
	},
	{
		"rt": 1051,
		"stimulus": "../audio/05-1-masc.mp3",
		"response": " ",
		"word": "A",
		"trial_type": "audio-keyboard-response",
		"trial_index": 233,
		"time_elapsed": 450967,
		"internal_node_id": "0.0-3.0-1.184"
	},
	{
		"rt": 1011,
		"stimulus": "../audio/05-2-masc.mp3",
		"response": " ",
		"word": "vendedora",
		"trial_type": "audio-keyboard-response",
		"trial_index": 234,
		"time_elapsed": 452325,
		"internal_node_id": "0.0-3.0-1.185"
	},
	{
		"rt": 175829,
		"stimulus": "../audio/05-3-masc.mp3",
		"response": " ",
		"word": "ajudou",
		"trial_type": "audio-keyboard-response",
		"trial_index": 235,
		"time_elapsed": 628803,
		"internal_node_id": "0.0-3.0-1.186"
	},
	{
		"rt": 3240,
		"stimulus": "../audio/05-4-masc.mp3",
		"response": " ",
		"word": "um",
		"trial_type": "audio-keyboard-response",
		"trial_index": 236,
		"time_elapsed": 632469,
		"internal_node_id": "0.0-3.0-1.187"
	},
	{
		"rt": 2211,
		"stimulus": "../audio/05-5-masc.mp3",
		"response": " ",
		"word": "turista",
		"trial_type": "audio-keyboard-response",
		"trial_index": 237,
		"time_elapsed": 635098,
		"internal_node_id": "0.0-3.0-1.188"
	},
	{
		"rt": 211,
		"stimulus": "../audio/05-6-masc.mp3",
		"response": " ",
		"word": "na",
		"trial_type": "audio-keyboard-response",
		"trial_index": 238,
		"time_elapsed": 636586,
		"internal_node_id": "0.0-3.0-1.189"
	},
	{
		"rt": 160,
		"stimulus": "../audio/05-7-masc.mp3",
		"response": " ",
		"word": "loja.",
		"trial_type": "audio-keyboard-response",
		"trial_index": 239,
		"time_elapsed": 637852,
		"internal_node_id": "0.0-3.0-1.190"
	},
	{
		"rt": 4797,
		"stimulus": "<span style=\"font-size:25px; font-family: monospace\">A vendedora ajudou um turista?</span>",
		"response": "n",
		"question": "A vendedora ajudou um turista?",
		"answer": "null",
		"trial": "exp-sent",
		"trial_type": "html-keyboard-response",
		"trial_index": 240,
		"time_elapsed": 642903,
		"internal_node_id": "0.0-3.0-2.190-0.190",
		"accuracy": false
	},
	{
		"rt": null,
		"stimulus": "<span style= \"font-size:30px; font-family: monospace\">+</span>",
		"response": null,
		"trial_part": "fixation",
		"trial_type": "html-keyboard-response",
		"trial_index": 241,
		"time_elapsed": 644414,
		"internal_node_id": "0.0-3.0-0.191-0.191"
	},
	{
		"rt": 1691,
		"stimulus": "../audio/46-1-fem.mp3",
		"response": " ",
		"word": "Meu",
		"trial_type": "audio-keyboard-response",
		"trial_index": 242,
		"time_elapsed": 646448,
		"internal_node_id": "0.0-3.0-1.191"
	},
	{
		"rt": 1520,
		"stimulus": "../audio/46-2-fem.mp3",
		"response": " ",
		"word": "primo",
		"trial_type": "audio-keyboard-response",
		"trial_index": 243,
		"time_elapsed": 648276,
		"internal_node_id": "0.0-3.0-1.192"
	},
	{
		"rt": 1829,
		"stimulus": "../audio/46-3-fem.mp3",
		"response": " ",
		"word": "estava",
		"trial_type": "audio-keyboard-response",
		"trial_index": 244,
		"time_elapsed": 650484,
		"internal_node_id": "0.0-3.0-1.193"
	},
	{
		"rt": 1661,
		"stimulus": "../audio/46-4-fem.mp3",
		"response": " ",
		"word": "muito",
		"trial_type": "audio-keyboard-response",
		"trial_index": 245,
		"time_elapsed": 652501,
		"internal_node_id": "0.0-3.0-1.194"
	},
	{
		"rt": 1781,
		"stimulus": "../audio/46-5-fem.mp3",
		"response": " ",
		"word": "deprimido",
		"trial_type": "audio-keyboard-response",
		"trial_index": 246,
		"time_elapsed": 654699,
		"internal_node_id": "0.0-3.0-1.195"
	},
	{
		"rt": 1469,
		"stimulus": "../audio/46-6-fem.mp3",
		"response": " ",
		"word": "no",
		"trial_type": "audio-keyboard-response",
		"trial_index": 247,
		"time_elapsed": 656609,
		"internal_node_id": "0.0-3.0-1.196"
	},
	{
		"rt": 1600,
		"stimulus": "../audio/46-7-fem.mp3",
		"response": " ",
		"word": "inverno.",
		"trial_type": "audio-keyboard-response",
		"trial_index": 248,
		"time_elapsed": 658536,
		"internal_node_id": "0.0-3.0-1.197"
	},
	{
		"rt": null,
		"stimulus": "<span style= \"font-size:30px; font-family: monospace\">+</span>",
		"response": null,
		"trial_part": "fixation",
		"trial_type": "html-keyboard-response",
		"trial_index": 249,
		"time_elapsed": 659797,
		"internal_node_id": "0.0-3.0-0.198-0.198"
	},
	{
		"rt": 848,
		"stimulus": "../audio/49-1-fem.mp3",
		"response": " ",
		"word": "Eu",
		"trial_type": "audio-keyboard-response",
		"trial_index": 250,
		"time_elapsed": 661000,
		"internal_node_id": "0.0-3.0-1.198"
	},
	{
		"rt": 1381,
		"stimulus": "../audio/49-2-fem.mp3",
		"response": " ",
		"word": "quero",
		"trial_type": "audio-keyboard-response",
		"trial_index": 251,
		"time_elapsed": 662748,
		"internal_node_id": "0.0-3.0-1.199"
	},
	{
		"rt": 1341,
		"stimulus": "../audio/49-3-fem.mp3",
		"response": " ",
		"word": "um",
		"trial_type": "audio-keyboard-response",
		"trial_index": 252,
		"time_elapsed": 664453,
		"internal_node_id": "0.0-3.0-1.200"
	},
	{
		"rt": 1451,
		"stimulus": "../audio/49-4-fem.mp3",
		"response": " ",
		"word": "lanche",
		"trial_type": "audio-keyboard-response",
		"trial_index": 253,
		"time_elapsed": 666209,
		"internal_node_id": "0.0-3.0-1.201"
	},
	{
		"rt": 1339,
		"stimulus": "../audio/49-5-fem.mp3",
		"response": " ",
		"word": "duplo",
		"trial_type": "audio-keyboard-response",
		"trial_index": 254,
		"time_elapsed": 667852,
		"internal_node_id": "0.0-3.0-1.202"
	},
	{
		"rt": 1269,
		"stimulus": "../audio/49-6-fem.mp3",
		"response": " ",
		"word": "e",
		"trial_type": "audio-keyboard-response",
		"trial_index": 255,
		"time_elapsed": 669440,
		"internal_node_id": "0.0-3.0-1.203"
	},
	{
		"rt": 1309,
		"stimulus": "../audio/49-7-fem.mp3",
		"response": " ",
		"word": "um",
		"trial_type": "audio-keyboard-response",
		"trial_index": 256,
		"time_elapsed": 671062,
		"internal_node_id": "0.0-3.0-1.204"
	},
	{
		"rt": 1480,
		"stimulus": "../audio/49-8-fem.mp3",
		"response": " ",
		"word": "suco.",
		"trial_type": "audio-keyboard-response",
		"trial_index": 257,
		"time_elapsed": 672853,
		"internal_node_id": "0.0-3.0-1.205"
	},
	{
		"rt": null,
		"stimulus": "<span style= \"font-size:30px; font-family: monospace\">+</span>",
		"response": null,
		"trial_part": "fixation",
		"trial_type": "html-keyboard-response",
		"trial_index": 258,
		"time_elapsed": 674126,
		"internal_node_id": "0.0-3.0-0.206-0.206"
	},
	{
		"rt": 429,
		"stimulus": "../audio/48-1-masc.mp3",
		"response": " ",
		"word": "Ela",
		"trial_type": "audio-keyboard-response",
		"trial_index": 259,
		"time_elapsed": 674924,
		"internal_node_id": "0.0-3.0-1.206"
	},
	{
		"rt": 1229,
		"stimulus": "../audio/48-2-masc.mp3",
		"response": " ",
		"word": "come",
		"trial_type": "audio-keyboard-response",
		"trial_index": 260,
		"time_elapsed": 676484,
		"internal_node_id": "0.0-3.0-1.207"
	},
	{
		"rt": 1280,
		"stimulus": "../audio/48-3-masc.mp3",
		"response": " ",
		"word": "feijão",
		"trial_type": "audio-keyboard-response",
		"trial_index": 261,
		"time_elapsed": 678101,
		"internal_node_id": "0.0-3.0-1.208"
	},
	{
		"rt": 1269,
		"stimulus": "../audio/48-4-masc.mp3",
		"response": " ",
		"word": "com",
		"trial_type": "audio-keyboard-response",
		"trial_index": 262,
		"time_elapsed": 679687,
		"internal_node_id": "0.0-3.0-1.209"
	},
	{
		"rt": 1280,
		"stimulus": "../audio/48-5-masc.mp3",
		"response": " ",
		"word": "arroz",
		"trial_type": "audio-keyboard-response",
		"trial_index": 263,
		"time_elapsed": 681279,
		"internal_node_id": "0.0-3.0-1.210"
	},
	{
		"rt": 1259,
		"stimulus": "../audio/48-6-masc.mp3",
		"response": " ",
		"word": "todos",
		"trial_type": "audio-keyboard-response",
		"trial_index": 264,
		"time_elapsed": 682852,
		"internal_node_id": "0.0-3.0-1.211"
	},
	{
		"rt": 1168,
		"stimulus": "../audio/48-7-masc.mp3",
		"response": " ",
		"word": "os",
		"trial_type": "audio-keyboard-response",
		"trial_index": 265,
		"time_elapsed": 684401,
		"internal_node_id": "0.0-3.0-1.212"
	},
	{
		"rt": 1240,
		"stimulus": "../audio/48-8-masc.mp3",
		"response": " ",
		"word": "dias.",
		"trial_type": "audio-keyboard-response",
		"trial_index": 266,
		"time_elapsed": 685951,
		"internal_node_id": "0.0-3.0-1.213"
	},
	{
		"rt": null,
		"stimulus": "<span style= \"font-size:30px; font-family: monospace\">+</span>",
		"response": null,
		"trial_part": "fixation",
		"trial_type": "html-keyboard-response",
		"trial_index": 267,
		"time_elapsed": 687226,
		"internal_node_id": "0.0-3.0-0.214-0.214"
	},
	{
		"rt": 211,
		"stimulus": "../audio/47-1-masc.mp3",
		"response": " ",
		"word": "O",
		"trial_type": "audio-keyboard-response",
		"trial_index": 268,
		"time_elapsed": 687813,
		"internal_node_id": "0.0-3.0-1.214"
	},
	{
		"rt": 1232,
		"stimulus": "../audio/47-2-masc.mp3",
		"response": " ",
		"word": "tio",
		"trial_type": "audio-keyboard-response",
		"trial_index": 269,
		"time_elapsed": 689346,
		"internal_node_id": "0.0-3.0-1.215"
	},
	{
		"rt": 1168,
		"stimulus": "../audio/47-3-masc.mp3",
		"response": " ",
		"word": "recusou",
		"trial_type": "audio-keyboard-response",
		"trial_index": 270,
		"time_elapsed": 690834,
		"internal_node_id": "0.0-3.0-1.216"
	},
	{
		"rt": 1091,
		"stimulus": "../audio/47-4-masc.mp3",
		"response": " ",
		"word": "a",
		"trial_type": "audio-keyboard-response",
		"trial_index": 271,
		"time_elapsed": 692230,
		"internal_node_id": "0.0-3.0-1.217"
	},
	{
		"rt": 1160,
		"stimulus": "../audio/47-5-masc.mp3",
		"response": " ",
		"word": "sobremesa",
		"trial_type": "audio-keyboard-response",
		"trial_index": 272,
		"time_elapsed": 693809,
		"internal_node_id": "0.0-3.0-1.218"
	},
	{
		"rt": 1149,
		"stimulus": "../audio/47-6-masc.mp3",
		"response": " ",
		"word": "no",
		"trial_type": "audio-keyboard-response",
		"trial_index": 273,
		"time_elapsed": 695291,
		"internal_node_id": "0.0-3.0-1.219"
	},
	{
		"rt": 1080,
		"stimulus": "../audio/47-7-masc.mp3",
		"response": " ",
		"word": "almoço.",
		"trial_type": "audio-keyboard-response",
		"trial_index": 274,
		"time_elapsed": 696690,
		"internal_node_id": "0.0-3.0-1.220"
	},
	{
		"rt": null,
		"stimulus": "<span style= \"font-size:30px; font-family: monospace\">+</span>",
		"response": null,
		"trial_part": "fixation",
		"trial_type": "html-keyboard-response",
		"trial_index": 275,
		"time_elapsed": 697950,
		"internal_node_id": "0.0-3.0-0.221-0.221"
	},
	{
		"rt": 339,
		"stimulus": "../audio/50-1-fem.mp3",
		"response": " ",
		"word": "O",
		"trial_type": "audio-keyboard-response",
		"trial_index": 276,
		"time_elapsed": 698644,
		"internal_node_id": "0.0-3.0-1.221"
	},
	{
		"rt": 709,
		"stimulus": "../audio/50-2-fem.mp3",
		"response": " ",
		"word": "pássaro",
		"trial_type": "audio-keyboard-response",
		"trial_index": 277,
		"time_elapsed": 699716,
		"internal_node_id": "0.0-3.0-1.222"
	},
	{
		"rt": 1400,
		"stimulus": "../audio/50-3-fem.mp3",
		"response": " ",
		"word": "fugiu",
		"trial_type": "audio-keyboard-response",
		"trial_index": 278,
		"time_elapsed": 701437,
		"internal_node_id": "0.0-3.0-1.223"
	},
	{
		"rt": 1211,
		"stimulus": "../audio/50-4-fem.mp3",
		"response": " ",
		"word": "da",
		"trial_type": "audio-keyboard-response",
		"trial_index": 279,
		"time_elapsed": 702948,
		"internal_node_id": "0.0-3.0-1.224"
	},
	{
		"rt": 1181,
		"stimulus": "../audio/50-5-fem.mp3",
		"response": " ",
		"word": "gaiola",
		"trial_type": "audio-keyboard-response",
		"trial_index": 280,
		"time_elapsed": 704511,
		"internal_node_id": "0.0-3.0-1.225"
	},
	{
		"rt": 1219,
		"stimulus": "../audio/50-6-fem.mp3",
		"response": " ",
		"word": "pela",
		"trial_type": "audio-keyboard-response",
		"trial_index": 281,
		"time_elapsed": 706040,
		"internal_node_id": "0.0-3.0-1.226"
	},
	{
		"rt": 1792,
		"stimulus": "../audio/50-7-fem.mp3",
		"response": " ",
		"word": "portinhola.",
		"trial_type": "audio-keyboard-response",
		"trial_index": 282,
		"time_elapsed": 708143,
		"internal_node_id": "0.0-3.0-1.227"
	},
	{
		"rt": 9692,
		"stimulus": "<span style=\"font-size:25px; font-family: monospace\">O pássaro fugiu da gaiola?</span>",
		"response": "s",
		"question": "O pássaro fugiu da gaiola?",
		"answer": "null",
		"trial": "exp-sent",
		"trial_type": "html-keyboard-response",
		"trial_index": 283,
		"time_elapsed": 718098,
		"internal_node_id": "0.0-3.0-2.227-0.227",
		"accuracy": false
	},
	{
		"rt": null,
		"stimulus": "<span style= \"font-size:30px; font-family: monospace\">+</span>",
		"response": null,
		"trial_part": "fixation",
		"trial_type": "html-keyboard-response",
		"trial_index": 284,
		"time_elapsed": 719623,
		"internal_node_id": "0.0-3.0-0.228-0.228"
	},
	{
		"rt": 1261,
		"stimulus": "../audio/14-1-masc.mp3",
		"response": " ",
		"word": "O",
		"trial_type": "audio-keyboard-response",
		"trial_index": 285,
		"time_elapsed": 721226,
		"internal_node_id": "0.0-3.0-1.228"
	},
	{
		"rt": 1219,
		"stimulus": "../audio/14-2-masc.mp3",
		"response": " ",
		"word": "cachorro",
		"trial_type": "audio-keyboard-response",
		"trial_index": 286,
		"time_elapsed": 722760,
		"internal_node_id": "0.0-3.0-1.229"
	},
	{
		"rt": 1019,
		"stimulus": "../audio/14-3-masc.mp3",
		"response": " ",
		"word": "é",
		"trial_type": "audio-keyboard-response",
		"trial_index": 287,
		"time_elapsed": 724153,
		"internal_node_id": "0.0-3.0-1.230"
	},
	{
		"rt": 3080,
		"stimulus": "../audio/14-4-masc.mp3",
		"response": " ",
		"word": "muito",
		"trial_type": "audio-keyboard-response",
		"trial_index": 288,
		"time_elapsed": 727548,
		"internal_node_id": "0.0-3.0-1.231"
	},
	{
		"rt": 1291,
		"stimulus": "../audio/14-5-masc.mp3",
		"response": " ",
		"word": "fiel",
		"trial_type": "audio-keyboard-response",
		"trial_index": 289,
		"time_elapsed": 729252,
		"internal_node_id": "0.0-3.0-1.232"
	},
	{
		"rt": 1211,
		"stimulus": "../audio/14-6-masc.mp3",
		"response": " ",
		"word": "a",
		"trial_type": "audio-keyboard-response",
		"trial_index": 290,
		"time_elapsed": 730768,
		"internal_node_id": "0.0-3.0-1.233"
	},
	{
		"rt": 1192,
		"stimulus": "../audio/14-7-masc.mp3",
		"response": " ",
		"word": "seus",
		"trial_type": "audio-keyboard-response",
		"trial_index": 291,
		"time_elapsed": 732266,
		"internal_node_id": "0.0-3.0-1.234"
	},
	{
		"rt": 1349,
		"stimulus": "../audio/14-8-masc.mp3",
		"response": " ",
		"word": "donos.",
		"trial_type": "audio-keyboard-response",
		"trial_index": 292,
		"time_elapsed": 733996,
		"internal_node_id": "0.0-3.0-1.235"
	},
	{
		"rt": null,
		"stimulus": "<span style= \"font-size:30px; font-family: monospace\">+</span>",
		"response": null,
		"trial_part": "fixation",
		"trial_type": "html-keyboard-response",
		"trial_index": 293,
		"time_elapsed": 735262,
		"internal_node_id": "0.0-3.0-0.236-0.236"
	},
	{
		"rt": 549,
		"stimulus": "../audio/12-1-fem.mp3",
		"response": " ",
		"word": "O",
		"trial_type": "audio-keyboard-response",
		"trial_index": 294,
		"time_elapsed": 736247,
		"internal_node_id": "0.0-3.0-1.236"
	},
	{
		"rt": 1051,
		"stimulus": "../audio/12-2-fem.mp3",
		"response": " ",
		"word": "dia",
		"trial_type": "audio-keyboard-response",
		"trial_index": 295,
		"time_elapsed": 737612,
		"internal_node_id": "0.0-3.0-1.237"
	},
	{
		"rt": 1109,
		"stimulus": "../audio/12-3-fem.mp3",
		"response": " ",
		"word": "estava",
		"trial_type": "audio-keyboard-response",
		"trial_index": 296,
		"time_elapsed": 739055,
		"internal_node_id": "0.0-3.0-1.238"
	},
	{
		"rt": 1072,
		"stimulus": "../audio/12-4-fem.mp3",
		"response": " ",
		"word": "quente,",
		"trial_type": "audio-keyboard-response",
		"trial_index": 297,
		"time_elapsed": 740429,
		"internal_node_id": "0.0-3.0-1.239"
	},
	{
		"rt": 1080,
		"stimulus": "../audio/12-5-fem.mp3",
		"response": " ",
		"word": "tranquilo",
		"trial_type": "audio-keyboard-response",
		"trial_index": 298,
		"time_elapsed": 741865,
		"internal_node_id": "0.0-3.0-1.240"
	},
	{
		"rt": 1029,
		"stimulus": "../audio/12-6-fem.mp3",
		"response": " ",
		"word": "e",
		"trial_type": "audio-keyboard-response",
		"trial_index": 299,
		"time_elapsed": 743194,
		"internal_node_id": "0.0-3.0-1.241"
	},
	{
		"rt": 1179,
		"stimulus": "../audio/12-7-fem.mp3",
		"response": " ",
		"word": "ensolarado.",
		"trial_type": "audio-keyboard-response",
		"trial_index": 300,
		"time_elapsed": 744773,
		"internal_node_id": "0.0-3.0-1.242"
	},
	{
		"rt": null,
		"stimulus": "<span style= \"font-size:30px; font-family: monospace\">+</span>",
		"response": null,
		"trial_part": "fixation",
		"trial_type": "html-keyboard-response",
		"trial_index": 301,
		"time_elapsed": 746036,
		"internal_node_id": "0.0-3.0-0.243-0.243"
	},
	{
		"rt": 240,
		"stimulus": "../audio/11-1-fem.mp3",
		"response": " ",
		"word": "Elas",
		"trial_type": "audio-keyboard-response",
		"trial_index": 302,
		"time_elapsed": 746638,
		"internal_node_id": "0.0-3.0-1.243"
	},
	{
		"rt": 1221,
		"stimulus": "../audio/11-2-fem.mp3",
		"response": " ",
		"word": "gostam",
		"trial_type": "audio-keyboard-response",
		"trial_index": 303,
		"time_elapsed": 748269,
		"internal_node_id": "0.0-3.0-1.244"
	},
	{
		"rt": 1352,
		"stimulus": "../audio/11-3-fem.mp3",
		"response": " ",
		"word": "muito",
		"trial_type": "audio-keyboard-response",
		"trial_index": 304,
		"time_elapsed": 749990,
		"internal_node_id": "0.0-3.0-1.245"
	},
	{
		"rt": 1160,
		"stimulus": "../audio/11-4-fem.mp3",
		"response": " ",
		"word": "de",
		"trial_type": "audio-keyboard-response",
		"trial_index": 305,
		"time_elapsed": 751444,
		"internal_node_id": "0.0-3.0-1.246"
	},
	{
		"rt": 1840,
		"stimulus": "../audio/11-5-fem.mp3",
		"response": " ",
		"word": "aritmética",
		"trial_type": "audio-keyboard-response",
		"trial_index": 306,
		"time_elapsed": 753643,
		"internal_node_id": "0.0-3.0-1.247"
	},
	{
		"rt": 1069,
		"stimulus": "../audio/11-6-fem.mp3",
		"response": " ",
		"word": "e",
		"trial_type": "audio-keyboard-response",
		"trial_index": 307,
		"time_elapsed": 755133,
		"internal_node_id": "0.0-3.0-1.248"
	},
	{
		"rt": 1120,
		"stimulus": "../audio/11-7-fem.mp3",
		"response": " ",
		"word": "de",
		"trial_type": "audio-keyboard-response",
		"trial_index": 308,
		"time_elapsed": 756572,
		"internal_node_id": "0.0-3.0-1.249"
	},
	{
		"rt": 1909,
		"stimulus": "../audio/11-8-fem.mp3",
		"response": " ",
		"word": "leitura.",
		"trial_type": "audio-keyboard-response",
		"trial_index": 309,
		"time_elapsed": 758815,
		"internal_node_id": "0.0-3.0-1.250"
	},
	{
		"rt": null,
		"stimulus": "<span style= \"font-size:30px; font-family: monospace\">+</span>",
		"response": null,
		"trial_part": "fixation",
		"trial_type": "html-keyboard-response",
		"trial_index": 310,
		"time_elapsed": 760083,
		"internal_node_id": "0.0-3.0-0.251-0.251"
	},
	{
		"rt": 299,
		"stimulus": "../audio/13-1-masc.mp3",
		"response": " ",
		"word": "Para",
		"trial_type": "audio-keyboard-response",
		"trial_index": 311,
		"time_elapsed": 760883,
		"internal_node_id": "0.0-3.0-1.251"
	},
	{
		"rt": 5840,
		"stimulus": "../audio/13-2-masc.mp3",
		"response": " ",
		"word": "mim",
		"trial_type": "audio-keyboard-response",
		"trial_index": 312,
		"time_elapsed": 767037,
		"internal_node_id": "0.0-3.0-1.252"
	},
	{
		"rt": 1149,
		"stimulus": "../audio/13-3-masc.mp3",
		"response": " ",
		"word": "é",
		"trial_type": "audio-keyboard-response",
		"trial_index": 313,
		"time_elapsed": 768543,
		"internal_node_id": "0.0-3.0-1.253"
	},
	{
		"rt": 1251,
		"stimulus": "../audio/13-4-masc.mp3",
		"response": " ",
		"word": "muito",
		"trial_type": "audio-keyboard-response",
		"trial_index": 314,
		"time_elapsed": 770108,
		"internal_node_id": "0.0-3.0-1.254"
	},
	{
		"rt": 971,
		"stimulus": "../audio/13-5-masc.mp3",
		"response": " ",
		"word": "difícil",
		"trial_type": "audio-keyboard-response",
		"trial_index": 315,
		"time_elapsed": 771381,
		"internal_node_id": "0.0-3.0-1.255"
	},
	{
		"rt": 1000,
		"stimulus": "../audio/13-6-masc.mp3",
		"response": " ",
		"word": "acordar",
		"trial_type": "audio-keyboard-response",
		"trial_index": 316,
		"time_elapsed": 772703,
		"internal_node_id": "0.0-3.0-1.256"
	},
	{
		"rt": 1109,
		"stimulus": "../audio/13-7-masc.mp3",
		"response": " ",
		"word": "cedo.",
		"trial_type": "audio-keyboard-response",
		"trial_index": 317,
		"time_elapsed": 774416,
		"internal_node_id": "0.0-3.0-1.257"
	},
	{
		"rt": null,
		"stimulus": "<span style= \"font-size:30px; font-family: monospace\">+</span>",
		"response": null,
		"trial_part": "fixation",
		"trial_type": "html-keyboard-response",
		"trial_index": 318,
		"time_elapsed": 775682,
		"internal_node_id": "0.0-3.0-0.258-0.258"
	},
	{
		"rt": 440,
		"stimulus": "../audio/15-1-masc.mp3",
		"response": " ",
		"word": "Meu",
		"trial_type": "audio-keyboard-response",
		"trial_index": 319,
		"time_elapsed": 776554,
		"internal_node_id": "0.0-3.0-1.258"
	},
	{
		"rt": 621,
		"stimulus": "../audio/15-2-masc.mp3",
		"response": " ",
		"word": "primo",
		"trial_type": "audio-keyboard-response",
		"trial_index": 320,
		"time_elapsed": 777551,
		"internal_node_id": "0.0-3.0-1.259"
	},
	{
		"rt": 1080,
		"stimulus": "../audio/15-3-masc.mp3",
		"response": " ",
		"word": "é",
		"trial_type": "audio-keyboard-response",
		"trial_index": 321,
		"time_elapsed": 778928,
		"internal_node_id": "0.0-3.0-1.260"
	},
	{
		"rt": 1280,
		"stimulus": "../audio/15-4-masc.mp3",
		"response": " ",
		"word": "um",
		"trial_type": "audio-keyboard-response",
		"trial_index": 322,
		"time_elapsed": 780522,
		"internal_node_id": "0.0-3.0-1.261"
	},
	{
		"rt": 1371,
		"stimulus": "../audio/15-5-masc.mp3",
		"response": " ",
		"word": "grande",
		"trial_type": "audio-keyboard-response",
		"trial_index": 323,
		"time_elapsed": 782232,
		"internal_node_id": "0.0-3.0-1.262"
	},
	{
		"rt": 1229,
		"stimulus": "../audio/15-6-masc.mp3",
		"response": " ",
		"word": "vendedor",
		"trial_type": "audio-keyboard-response",
		"trial_index": 324,
		"time_elapsed": 783843,
		"internal_node_id": "0.0-3.0-1.263"
	},
	{
		"rt": 1112,
		"stimulus": "../audio/15-7-masc.mp3",
		"response": " ",
		"word": "de",
		"trial_type": "audio-keyboard-response",
		"trial_index": 325,
		"time_elapsed": 785270,
		"internal_node_id": "0.0-3.0-1.264"
	},
	{
		"rt": 1000,
		"stimulus": "../audio/15-8-masc.mp3",
		"response": " ",
		"word": "carros.",
		"trial_type": "audio-keyboard-response",
		"trial_index": 326,
		"time_elapsed": 786592,
		"internal_node_id": "0.0-3.0-1.265"
	},
	{
		"rt": 5200,
		"stimulus": "<span style=\"font-size:25px; font-family: monospace\">O primo é um vendedor de carros?</span>",
		"response": "s",
		"question": "O primo é um vendedor de carros?",
		"answer": "null",
		"trial": "exp-sent",
		"trial_type": "html-keyboard-response",
		"trial_index": 327,
		"time_elapsed": 792055,
		"internal_node_id": "0.0-3.0-2.265-0.265",
		"accuracy": false
	},
	{
		"rt": null,
		"stimulus": "<span style= \"font-size:30px; font-family: monospace\">+</span>",
		"response": null,
		"trial_part": "fixation",
		"trial_type": "html-keyboard-response",
		"trial_index": 328,
		"time_elapsed": 793571,
		"internal_node_id": "0.0-3.0-0.266-0.266"
	},
	{
		"rt": 1000,
		"stimulus": "../audio/26-1-masc.mp3",
		"response": " ",
		"word": "Amanhã",
		"trial_type": "audio-keyboard-response",
		"trial_index": 329,
		"time_elapsed": 794947,
		"internal_node_id": "0.0-3.0-1.266"
	},
	{
		"rt": 949,
		"stimulus": "../audio/26-2-masc.mp3",
		"response": " ",
		"word": "temos",
		"trial_type": "audio-keyboard-response",
		"trial_index": 330,
		"time_elapsed": 796207,
		"internal_node_id": "0.0-3.0-1.267"
	},
	{
		"rt": 1011,
		"stimulus": "../audio/26-3-masc.mp3",
		"response": " ",
		"word": "festa",
		"trial_type": "audio-keyboard-response",
		"trial_index": 331,
		"time_elapsed": 797541,
		"internal_node_id": "0.0-3.0-1.268"
	},
	{
		"rt": 1109,
		"stimulus": "../audio/26-4-masc.mp3",
		"response": " ",
		"word": "na",
		"trial_type": "audio-keyboard-response",
		"trial_index": 332,
		"time_elapsed": 798966,
		"internal_node_id": "0.0-3.0-1.269"
	},
	{
		"rt": 1229,
		"stimulus": "../audio/26-5-masc.mp3",
		"response": " ",
		"word": "piscina",
		"trial_type": "audio-keyboard-response",
		"trial_index": 333,
		"time_elapsed": 800540,
		"internal_node_id": "0.0-3.0-1.270"
	},
	{
		"rt": 1091,
		"stimulus": "../audio/26-6-masc.mp3",
		"response": " ",
		"word": "o",
		"trial_type": "audio-keyboard-response",
		"trial_index": 334,
		"time_elapsed": 801950,
		"internal_node_id": "0.0-3.0-1.271"
	},
	{
		"rt": 1269,
		"stimulus": "../audio/26-7-masc.mp3",
		"response": " ",
		"word": "dia",
		"trial_type": "audio-keyboard-response",
		"trial_index": 335,
		"time_elapsed": 803530,
		"internal_node_id": "0.0-3.0-1.272"
	},
	{
		"rt": 1501,
		"stimulus": "../audio/26-8-masc.mp3",
		"response": " ",
		"word": "todo.",
		"trial_type": "audio-keyboard-response",
		"trial_index": 336,
		"time_elapsed": 805392,
		"internal_node_id": "0.0-3.0-1.273"
	},
	{
		"rt": null,
		"stimulus": "<span style= \"font-size:30px; font-family: monospace\">+</span>",
		"response": null,
		"trial_part": "fixation",
		"trial_type": "html-keyboard-response",
		"trial_index": 337,
		"time_elapsed": 806655,
		"internal_node_id": "0.0-3.0-0.274-0.274"
	},
	{
		"rt": 1179,
		"stimulus": "../audio/29-1-masc.mp3",
		"response": " ",
		"word": "Hoje",
		"trial_type": "audio-keyboard-response",
		"trial_index": 338,
		"time_elapsed": 808207,
		"internal_node_id": "0.0-3.0-1.274"
	},
	{
		"rt": 1160,
		"stimulus": "../audio/29-2-masc.mp3",
		"response": " ",
		"word": "vamos",
		"trial_type": "audio-keyboard-response",
		"trial_index": 339,
		"time_elapsed": 809722,
		"internal_node_id": "0.0-3.0-1.275"
	},
	{
		"rt": 1029,
		"stimulus": "../audio/29-3-masc.mp3",
		"response": " ",
		"word": "fazer",
		"trial_type": "audio-keyboard-response",
		"trial_index": 340,
		"time_elapsed": 811074,
		"internal_node_id": "0.0-3.0-1.276"
	},
	{
		"rt": 1059,
		"stimulus": "../audio/29-4-masc.mp3",
		"response": " ",
		"word": "uma",
		"trial_type": "audio-keyboard-response",
		"trial_index": 341,
		"time_elapsed": 812438,
		"internal_node_id": "0.0-3.0-1.277"
	},
	{
		"rt": 1520,
		"stimulus": "../audio/29-5-masc.mp3",
		"response": " ",
		"word": "atividade",
		"trial_type": "audio-keyboard-response",
		"trial_index": 342,
		"time_elapsed": 814339,
		"internal_node_id": "0.0-3.0-1.278"
	},
	{
		"rt": 1331,
		"stimulus": "../audio/29-6-masc.mp3",
		"response": " ",
		"word": "sobre",
		"trial_type": "audio-keyboard-response",
		"trial_index": 343,
		"time_elapsed": 815980,
		"internal_node_id": "0.0-3.0-1.279"
	},
	{
		"rt": 1381,
		"stimulus": "../audio/29-7-masc.mp3",
		"response": " ",
		"word": "fauna",
		"trial_type": "audio-keyboard-response",
		"trial_index": 344,
		"time_elapsed": 817668,
		"internal_node_id": "0.0-3.0-1.280"
	},
	{
		"rt": 1859,
		"stimulus": "../audio/29-8-masc.mp3",
		"response": " ",
		"word": "marinha.",
		"trial_type": "audio-keyboard-response",
		"trial_index": 345,
		"time_elapsed": 819852,
		"internal_node_id": "0.0-3.0-1.281"
	},
	{
		"rt": null,
		"stimulus": "<span style= \"font-size:30px; font-family: monospace\">+</span>",
		"response": null,
		"trial_part": "fixation",
		"trial_type": "html-keyboard-response",
		"trial_index": 346,
		"time_elapsed": 821120,
		"internal_node_id": "0.0-3.0-0.282-0.282"
	},
	{
		"rt": 1048,
		"stimulus": "../audio/28-1-fem.mp3",
		"response": " ",
		"word": "O",
		"trial_type": "audio-keyboard-response",
		"trial_index": 347,
		"time_elapsed": 822557,
		"internal_node_id": "0.0-3.0-1.282"
	},
	{
		"rt": 1000,
		"stimulus": "../audio/28-2-fem.mp3",
		"response": " ",
		"word": "time",
		"trial_type": "audio-keyboard-response",
		"trial_index": 348,
		"time_elapsed": 823978,
		"internal_node_id": "0.0-3.0-1.283"
	},
	{
		"rt": 1040,
		"stimulus": "../audio/28-3-fem.mp3",
		"response": " ",
		"word": "quer",
		"trial_type": "audio-keyboard-response",
		"trial_index": 349,
		"time_elapsed": 825326,
		"internal_node_id": "0.0-3.0-1.284"
	},
	{
		"rt": 989,
		"stimulus": "../audio/28-4-fem.mp3",
		"response": " ",
		"word": "a",
		"trial_type": "audio-keyboard-response",
		"trial_index": 350,
		"time_elapsed": 826616,
		"internal_node_id": "0.0-3.0-1.285"
	},
	{
		"rt": 1080,
		"stimulus": "../audio/28-5-fem.mp3",
		"response": " ",
		"word": "vitória",
		"trial_type": "audio-keyboard-response",
		"trial_index": 351,
		"time_elapsed": 828015,
		"internal_node_id": "0.0-3.0-1.286"
	},
	{
		"rt": 2931,
		"stimulus": "../audio/28-6-fem.mp3",
		"response": " ",
		"word": "no",
		"trial_type": "audio-keyboard-response",
		"trial_index": 352,
		"time_elapsed": 831252,
		"internal_node_id": "0.0-3.0-1.287"
	},
	{
		"rt": 1520,
		"stimulus": "../audio/28-7-fem.mp3",
		"response": " ",
		"word": "jogo",
		"trial_type": "audio-keyboard-response",
		"trial_index": 353,
		"time_elapsed": 833128,
		"internal_node_id": "0.0-3.0-1.288"
	},
	{
		"rt": 1851,
		"stimulus": "../audio/28-8-fem.mp3",
		"response": " ",
		"word": "de",
		"trial_type": "audio-keyboard-response",
		"trial_index": 354,
		"time_elapsed": 835340,
		"internal_node_id": "0.0-3.0-1.289"
	},
	{
		"rt": 2291,
		"stimulus": "../audio/28-9-fem.mp3",
		"response": " ",
		"word": "vôlei.",
		"trial_type": "audio-keyboard-response",
		"trial_index": 355,
		"time_elapsed": 837983,
		"internal_node_id": "0.0-3.0-1.290"
	},
	{
		"rt": null,
		"stimulus": "<span style= \"font-size:30px; font-family: monospace\">+</span>",
		"response": null,
		"trial_part": "fixation",
		"trial_type": "html-keyboard-response",
		"trial_index": 356,
		"time_elapsed": 839247,
		"internal_node_id": "0.0-3.0-0.291-0.291"
	},
	{
		"rt": 1440,
		"stimulus": "../audio/27-1-masc.mp3",
		"response": " ",
		"word": "O",
		"trial_type": "audio-keyboard-response",
		"trial_index": 357,
		"time_elapsed": 841044,
		"internal_node_id": "0.0-3.0-1.291"
	},
	{
		"rt": 5360,
		"stimulus": "../audio/27-2-masc.mp3",
		"response": " ",
		"word": "dinheiro",
		"trial_type": "audio-keyboard-response",
		"trial_index": 358,
		"time_elapsed": 846715,
		"internal_node_id": "0.0-3.0-1.292"
	},
	{
		"rt": 1352,
		"stimulus": "../audio/27-3-masc.mp3",
		"response": " ",
		"word": "chegou",
		"trial_type": "audio-keyboard-response",
		"trial_index": 359,
		"time_elapsed": 848429,
		"internal_node_id": "0.0-3.0-1.293"
	},
	{
		"rt": 1728,
		"stimulus": "../audio/27-4-masc.mp3",
		"response": " ",
		"word": "à",
		"trial_type": "audio-keyboard-response",
		"trial_index": 360,
		"time_elapsed": 850473,
		"internal_node_id": "0.0-3.0-1.294"
	},
	{
		"rt": 3480,
		"stimulus": "../audio/27-5-masc.mp3",
		"response": " ",
		"word": "elite",
		"trial_type": "audio-keyboard-response",
		"trial_index": 361,
		"time_elapsed": 854326,
		"internal_node_id": "0.0-3.0-1.295"
	},
	{
		"rt": 1539,
		"stimulus": "../audio/27-6-masc.mp3",
		"response": " ",
		"word": "deste",
		"trial_type": "audio-keyboard-response",
		"trial_index": 362,
		"time_elapsed": 856242,
		"internal_node_id": "0.0-3.0-1.296"
	},
	{
		"rt": 4549,
		"stimulus": "../audio/27-7-masc.mp3",
		"response": " ",
		"word": "país.",
		"trial_type": "audio-keyboard-response",
		"trial_index": 363,
		"time_elapsed": 861102,
		"internal_node_id": "0.0-3.0-1.297"
	},
	{
		"rt": null,
		"stimulus": "<span style= \"font-size:30px; font-family: monospace\">+</span>",
		"response": null,
		"trial_part": "fixation",
		"trial_type": "html-keyboard-response",
		"trial_index": 364,
		"time_elapsed": 862377,
		"internal_node_id": "0.0-3.0-0.298-0.298"
	},
	{
		"rt": 269,
		"stimulus": "../audio/30-1-masc.mp3",
		"response": " ",
		"word": "O",
		"trial_type": "audio-keyboard-response",
		"trial_index": 365,
		"time_elapsed": 863022,
		"internal_node_id": "0.0-3.0-1.298"
	},
	{
		"rt": 781,
		"stimulus": "../audio/30-2-masc.mp3",
		"response": " ",
		"word": "funcionário",
		"trial_type": "audio-keyboard-response",
		"trial_index": 366,
		"time_elapsed": 864149,
		"internal_node_id": "0.0-3.0-1.299"
	},
	{
		"rt": 1669,
		"stimulus": "../audio/30-3-masc.mp3",
		"response": " ",
		"word": "entregou",
		"trial_type": "audio-keyboard-response",
		"trial_index": 367,
		"time_elapsed": 866125,
		"internal_node_id": "0.0-3.0-1.300"
	},
	{
		"rt": 1211,
		"stimulus": "../audio/30-4-masc.mp3",
		"response": " ",
		"word": "o",
		"trial_type": "audio-keyboard-response",
		"trial_index": 368,
		"time_elapsed": 867658,
		"internal_node_id": "0.0-3.0-1.301"
	},
	{
		"rt": 1461,
		"stimulus": "../audio/30-5-masc.mp3",
		"response": " ",
		"word": "restante",
		"trial_type": "audio-keyboard-response",
		"trial_index": 369,
		"time_elapsed": 869464,
		"internal_node_id": "0.0-3.0-1.302"
	},
	{
		"rt": 981,
		"stimulus": "../audio/30-6-masc.mp3",
		"response": " ",
		"word": "do",
		"trial_type": "audio-keyboard-response",
		"trial_index": 370,
		"time_elapsed": 870737,
		"internal_node_id": "0.0-3.0-1.303"
	},
	{
		"rt": 1099,
		"stimulus": "../audio/30-7-masc.mp3",
		"response": " ",
		"word": "dinheiro.",
		"trial_type": "audio-keyboard-response",
		"trial_index": 371,
		"time_elapsed": 872211,
		"internal_node_id": "0.0-3.0-1.304"
	},
	{
		"rt": 3173,
		"stimulus": "<span style=\"font-size:25px; font-family: monospace\">O funcionário entregou o contrato?</span>",
		"response": "n",
		"question": "O funcionário entregou o contrato?",
		"answer": "null",
		"trial": "exp-sent",
		"trial_type": "html-keyboard-response",
		"trial_index": 372,
		"time_elapsed": 875645,
		"internal_node_id": "0.0-3.0-2.304-0.304",
		"accuracy": false
	},
	{
		"rt": null,
		"stimulus": "<span style= \"font-size:30px; font-family: monospace\">+</span>",
		"response": null,
		"trial_part": "fixation",
		"trial_type": "html-keyboard-response",
		"trial_index": 373,
		"time_elapsed": 877162,
		"internal_node_id": "0.0-3.0-0.305-0.305"
	},
	{
		"rt": 1091,
		"stimulus": "../audio/71-1-masc.mp3",
		"response": " ",
		"word": "Minhas",
		"trial_type": "audio-keyboard-response",
		"trial_index": 374,
		"time_elapsed": 878614,
		"internal_node_id": "0.0-3.0-1.305"
	},
	{
		"rt": 960,
		"stimulus": "../audio/71-2-masc.mp3",
		"response": " ",
		"word": "comidas",
		"trial_type": "audio-keyboard-response",
		"trial_index": 375,
		"time_elapsed": 879886,
		"internal_node_id": "0.0-3.0-1.306"
	},
	{
		"rt": 1080,
		"stimulus": "../audio/71-3-masc.mp3",
		"response": " ",
		"word": "favoritas",
		"trial_type": "audio-keyboard-response",
		"trial_index": 376,
		"time_elapsed": 881294,
		"internal_node_id": "0.0-3.0-1.307"
	},
	{
		"rt": 1160,
		"stimulus": "../audio/71-4-masc.mp3",
		"response": " ",
		"word": "são",
		"trial_type": "audio-keyboard-response",
		"trial_index": 377,
		"time_elapsed": 882760,
		"internal_node_id": "0.0-3.0-1.308"
	},
	{
		"rt": 1088,
		"stimulus": "../audio/71-5-masc.mp3",
		"response": " ",
		"word": "morango",
		"trial_type": "audio-keyboard-response",
		"trial_index": 378,
		"time_elapsed": 884234,
		"internal_node_id": "0.0-3.0-1.309"
	},
	{
		"rt": 1589,
		"stimulus": "../audio/71-6-masc.mp3",
		"response": " ",
		"word": "e",
		"trial_type": "audio-keyboard-response",
		"trial_index": 379,
		"time_elapsed": 886115,
		"internal_node_id": "0.0-3.0-1.310"
	},
	{
		"rt": 1491,
		"stimulus": "../audio/71-7-masc.mp3",
		"response": " ",
		"word": "uva.",
		"trial_type": "audio-keyboard-response",
		"trial_index": 380,
		"time_elapsed": 888138,
		"internal_node_id": "0.0-3.0-1.311"
	},
	{
		"rt": null,
		"stimulus": "<span style= \"font-size:30px; font-family: monospace\">+</span>",
		"response": null,
		"trial_part": "fixation",
		"trial_type": "html-keyboard-response",
		"trial_index": 381,
		"time_elapsed": 889406,
		"internal_node_id": "0.0-3.0-0.312-0.312"
	},
	{
		"rt": 408,
		"stimulus": "../audio/74-1-fem.mp3",
		"response": " ",
		"word": "Este",
		"trial_type": "audio-keyboard-response",
		"trial_index": 382,
		"time_elapsed": 890162,
		"internal_node_id": "0.0-3.0-1.312"
	},
	{
		"rt": 581,
		"stimulus": "../audio/74-2-fem.mp3",
		"response": " ",
		"word": "emprego",
		"trial_type": "audio-keyboard-response",
		"trial_index": 383,
		"time_elapsed": 891066,
		"internal_node_id": "0.0-3.0-1.313"
	},
	{
		"rt": 829,
		"stimulus": "../audio/74-3-fem.mp3",
		"response": " ",
		"word": "é",
		"trial_type": "audio-keyboard-response",
		"trial_index": 384,
		"time_elapsed": 892200,
		"internal_node_id": "0.0-3.0-1.314"
	},
	{
		"rt": 1320,
		"stimulus": "../audio/74-4-fem.mp3",
		"response": " ",
		"word": "muito",
		"trial_type": "audio-keyboard-response",
		"trial_index": 385,
		"time_elapsed": 893925,
		"internal_node_id": "0.0-3.0-1.315"
	},
	{
		"rt": 1848,
		"stimulus": "../audio/74-5-fem.mp3",
		"response": " ",
		"word": "cansativo",
		"trial_type": "audio-keyboard-response",
		"trial_index": 386,
		"time_elapsed": 896117,
		"internal_node_id": "0.0-3.0-1.316"
	},
	{
		"rt": 1472,
		"stimulus": "../audio/74-6-fem.mp3",
		"response": " ",
		"word": "a",
		"trial_type": "audio-keyboard-response",
		"trial_index": 387,
		"time_elapsed": 897953,
		"internal_node_id": "0.0-3.0-1.317"
	},
	{
		"rt": 1269,
		"stimulus": "../audio/74-7-fem.mp3",
		"response": " ",
		"word": "longo",
		"trial_type": "audio-keyboard-response",
		"trial_index": 388,
		"time_elapsed": 899525,
		"internal_node_id": "0.0-3.0-1.318"
	},
	{
		"rt": 1440,
		"stimulus": "../audio/74-8-fem.mp3",
		"response": " ",
		"word": "prazo.",
		"trial_type": "audio-keyboard-response",
		"trial_index": 389,
		"time_elapsed": 901275,
		"internal_node_id": "0.0-3.0-1.319"
	},
	{
		"rt": null,
		"stimulus": "<span style= \"font-size:30px; font-family: monospace\">+</span>",
		"response": null,
		"trial_part": "fixation",
		"trial_type": "html-keyboard-response",
		"trial_index": 390,
		"time_elapsed": 902540,
		"internal_node_id": "0.0-3.0-0.320-0.320"
	},
	{
		"rt": 368,
		"stimulus": "../audio/73-1-masc.mp3",
		"response": " ",
		"word": "O",
		"trial_type": "audio-keyboard-response",
		"trial_index": 391,
		"time_elapsed": 903273,
		"internal_node_id": "0.0-3.0-1.320"
	},
	{
		"rt": 1440,
		"stimulus": "../audio/73-2-masc.mp3",
		"response": " ",
		"word": "cliente",
		"trial_type": "audio-keyboard-response",
		"trial_index": 392,
		"time_elapsed": 905048,
		"internal_node_id": "0.0-3.0-1.321"
	},
	{
		"rt": 1091,
		"stimulus": "../audio/73-3-masc.mp3",
		"response": " ",
		"word": "era",
		"trial_type": "audio-keyboard-response",
		"trial_index": 393,
		"time_elapsed": 906451,
		"internal_node_id": "0.0-3.0-1.322"
	},
	{
		"rt": 1080,
		"stimulus": "../audio/73-4-masc.mp3",
		"response": " ",
		"word": "um",
		"trial_type": "audio-keyboard-response",
		"trial_index": 394,
		"time_elapsed": 907843,
		"internal_node_id": "0.0-3.0-1.323"
	},
	{
		"rt": 1192,
		"stimulus": "../audio/73-5-masc.mp3",
		"response": " ",
		"word": "homem",
		"trial_type": "audio-keyboard-response",
		"trial_index": 395,
		"time_elapsed": 909343,
		"internal_node_id": "0.0-3.0-1.324"
	},
	{
		"rt": 1251,
		"stimulus": "../audio/73-6-masc.mp3",
		"response": " ",
		"word": "muito",
		"trial_type": "audio-keyboard-response",
		"trial_index": 396,
		"time_elapsed": 910942,
		"internal_node_id": "0.0-3.0-1.325"
	},
	{
		"rt": 1560,
		"stimulus": "../audio/73-7-masc.mp3",
		"response": " ",
		"word": "educado.",
		"trial_type": "audio-keyboard-response",
		"trial_index": 397,
		"time_elapsed": 912847,
		"internal_node_id": "0.0-3.0-1.326"
	},
	{
		"rt": null,
		"stimulus": "<span style= \"font-size:30px; font-family: monospace\">+</span>",
		"response": null,
		"trial_part": "fixation",
		"trial_type": "html-keyboard-response",
		"trial_index": 398,
		"time_elapsed": 914113,
		"internal_node_id": "0.0-3.0-0.327-0.327"
	},
	{
		"rt": 411,
		"stimulus": "../audio/72-1-fem.mp3",
		"response": " ",
		"word": "A",
		"trial_type": "audio-keyboard-response",
		"trial_index": 399,
		"time_elapsed": 914892,
		"internal_node_id": "0.0-3.0-1.327"
	},
	{
		"rt": 1419,
		"stimulus": "../audio/72-2-fem.mp3",
		"response": " ",
		"word": "vencedora",
		"trial_type": "audio-keyboard-response",
		"trial_index": 400,
		"time_elapsed": 916647,
		"internal_node_id": "0.0-3.0-1.328"
	},
	{
		"rt": 1411,
		"stimulus": "../audio/72-3-fem.mp3",
		"response": " ",
		"word": "recebeu",
		"trial_type": "audio-keyboard-response",
		"trial_index": 401,
		"time_elapsed": 918367,
		"internal_node_id": "0.0-3.0-1.329"
	},
	{
		"rt": 1440,
		"stimulus": "../audio/72-4-fem.mp3",
		"response": " ",
		"word": "um",
		"trial_type": "audio-keyboard-response",
		"trial_index": 402,
		"time_elapsed": 920093,
		"internal_node_id": "0.0-3.0-1.330"
	},
	{
		"rt": 1392,
		"stimulus": "../audio/72-5-fem.mp3",
		"response": " ",
		"word": "prêmio",
		"trial_type": "audio-keyboard-response",
		"trial_index": 403,
		"time_elapsed": 921784,
		"internal_node_id": "0.0-3.0-1.331"
	},
	{
		"rt": 1389,
		"stimulus": "../audio/72-6-fem.mp3",
		"response": " ",
		"word": "em",
		"trial_type": "audio-keyboard-response",
		"trial_index": 404,
		"time_elapsed": 923477,
		"internal_node_id": "0.0-3.0-1.332"
	},
	{
		"rt": 1360,
		"stimulus": "../audio/72-7-fem.mp3",
		"response": " ",
		"word": "dinheiro.",
		"trial_type": "audio-keyboard-response",
		"trial_index": 405,
		"time_elapsed": 925231,
		"internal_node_id": "0.0-3.0-1.333"
	},
	{
		"rt": null,
		"stimulus": "<span style= \"font-size:30px; font-family: monospace\">+</span>",
		"response": null,
		"trial_part": "fixation",
		"trial_type": "html-keyboard-response",
		"trial_index": 406,
		"time_elapsed": 926492,
		"internal_node_id": "0.0-3.0-0.334-0.334"
	},
	{
		"rt": 80,
		"stimulus": "../audio/75-1-fem.mp3",
		"response": " ",
		"word": "Só",
		"trial_type": "audio-keyboard-response",
		"trial_index": 407,
		"time_elapsed": 926923,
		"internal_node_id": "0.0-3.0-1.334"
	},
	{
		"rt": 1531,
		"stimulus": "../audio/75-2-fem.mp3",
		"response": " ",
		"word": "existe",
		"trial_type": "audio-keyboard-response",
		"trial_index": 408,
		"time_elapsed": 928774,
		"internal_node_id": "0.0-3.0-1.335"
	},
	{
		"rt": 1160,
		"stimulus": "../audio/75-3-fem.mp3",
		"response": " ",
		"word": "uma",
		"trial_type": "audio-keyboard-response",
		"trial_index": 409,
		"time_elapsed": 930259,
		"internal_node_id": "0.0-3.0-1.336"
	},
	{
		"rt": 1291,
		"stimulus": "../audio/75-4-fem.mp3",
		"response": " ",
		"word": "pessoa",
		"trial_type": "audio-keyboard-response",
		"trial_index": 410,
		"time_elapsed": 931865,
		"internal_node_id": "0.0-3.0-1.337"
	},
	{
		"rt": 891,
		"stimulus": "../audio/75-5-fem.mp3",
		"response": " ",
		"word": "canhota",
		"trial_type": "audio-keyboard-response",
		"trial_index": 411,
		"time_elapsed": 933108,
		"internal_node_id": "0.0-3.0-1.338"
	},
	{
		"rt": 1160,
		"stimulus": "../audio/75-6-fem.mp3",
		"response": " ",
		"word": "nesta",
		"trial_type": "audio-keyboard-response",
		"trial_index": 412,
		"time_elapsed": 934700,
		"internal_node_id": "0.0-3.0-1.339"
	},
	{
		"rt": 2269,
		"stimulus": "../audio/75-7-fem.mp3",
		"response": " ",
		"word": "cidade.",
		"trial_type": "audio-keyboard-response",
		"trial_index": 413,
		"time_elapsed": 937302,
		"internal_node_id": "0.0-3.0-1.340"
	},
	{
		"rt": 20079,
		"stimulus": "<span style=\"font-size:25px; font-family: monospace\">Só existe uma pessoa canhota na cidade?</span>",
		"response": "s",
		"question": "Só existe uma pessoa canhota na cidade?",
		"answer": "null",
		"trial": "exp-sent",
		"trial_type": "html-keyboard-response",
		"trial_index": 414,
		"time_elapsed": 957634,
		"internal_node_id": "0.0-3.0-2.340-0.340",
		"accuracy": false
	},
	{
		"rt": null,
		"stimulus": "<span style= \"font-size:30px; font-family: monospace\">+</span>",
		"response": null,
		"trial_part": "fixation",
		"trial_type": "html-keyboard-response",
		"trial_index": 415,
		"time_elapsed": 959160,
		"internal_node_id": "0.0-3.0-0.341-0.341"
	},
	{
		"rt": 1320,
		"stimulus": "../audio/06-1-fem.mp3",
		"response": " ",
		"word": "Ouvimos",
		"trial_type": "audio-keyboard-response",
		"trial_index": 416,
		"time_elapsed": 960946,
		"internal_node_id": "0.0-3.0-1.341"
	},
	{
		"rt": 1211,
		"stimulus": "../audio/06-2-fem.mp3",
		"response": " ",
		"word": "a",
		"trial_type": "audio-keyboard-response",
		"trial_index": 417,
		"time_elapsed": 962456,
		"internal_node_id": "0.0-3.0-1.342"
	},
	{
		"rt": 1200,
		"stimulus": "../audio/06-3-fem.mp3",
		"response": " ",
		"word": "fala",
		"trial_type": "audio-keyboard-response",
		"trial_index": 418,
		"time_elapsed": 964106,
		"internal_node_id": "0.0-3.0-1.343"
	},
	{
		"rt": 1000,
		"stimulus": "../audio/06-4-fem.mp3",
		"response": " ",
		"word": "do",
		"trial_type": "audio-keyboard-response",
		"trial_index": 419,
		"time_elapsed": 965408,
		"internal_node_id": "0.0-3.0-1.344"
	},
	{
		"rt": 1349,
		"stimulus": "../audio/06-5-fem.mp3",
		"response": " ",
		"word": "profeta",
		"trial_type": "audio-keyboard-response",
		"trial_index": 420,
		"time_elapsed": 967089,
		"internal_node_id": "0.0-3.0-1.345"
	},
	{
		"rt": 1099,
		"stimulus": "../audio/06-6-fem.mp3",
		"response": " ",
		"word": "no",
		"trial_type": "audio-keyboard-response",
