"view_history","rt","trial_type","trial_index","time_elapsed","internal_node_id","stimulus","response","trial_part","trial","word","question","answer","accuracy"
"[{""page_index"":0,""viewing_time"":147083},{""page_index"":1,""viewing_time"":3954}]","151037","instructions","0","151039","0.0-0.0","","","","","","","",""
"","null","html-keyboard-response","1","152142","0.0-1.0-0.0-0.0","<span style= ""font-size:30px; font-family: monospace"">+</span>","null","fixation","","","","",""
"","9687","html-keyboard-response","2","162080","0.0-1.0-1.0","<span style=""font-size:30px; font-family: monospace"">O</span>"," ","","prac-sent","O","","",""
"","4488","html-keyboard-response","3","166820","0.0-1.0-1.1","<span style=""font-size:30px; font-family: monospace"">dia</span>"," ","","prac-sent","dia","","",""
"","2286","html-keyboard-response","4","169358","0.0-1.0-1.2","<span style=""font-size:30px; font-family: monospace"">estará</span>"," ","","prac-sent","estará","","",""
"","1419","html-keyboard-response","5","171027","0.0-1.0-1.3","<span style=""font-size:30px; font-family: monospace"">cheio</span>"," ","","prac-sent","cheio","","",""
"","1559","html-keyboard-response","6","172837","0.0-1.0-1.4","<span style=""font-size:30px; font-family: monospace"">de</span>"," ","","prac-sent","de","","",""
"","2029","html-keyboard-response","7","175118","0.0-1.0-1.5","<span style=""font-size:30px; font-family: monospace"">nuvens</span>"," ","","prac-sent","nuvens","","",""
"","1244","html-keyboard-response","8","176615","0.0-1.0-1.6","<span style=""font-size:30px; font-family: monospace"">hoje.</span>"," ","","prac-sent","hoje.","","",""
"","null","html-keyboard-response","9","177867","0.0-1.0-0.7-0.7","<span style= ""font-size:30px; font-family: monospace"">+</span>","null","fixation","","","","",""
"","2031","html-keyboard-response","10","180150","0.0-1.0-1.7","<span style=""font-size:30px; font-family: monospace"">A</span>"," ","","prac-sent","A","","",""
"","1216","html-keyboard-response","11","181617","0.0-1.0-1.8","<span style=""font-size:30px; font-family: monospace"">caneca</span>"," ","","prac-sent","caneca","","",""
"","697","html-keyboard-response","12","182565","0.0-1.0-1.9","<span style=""font-size:30px; font-family: monospace"">colorida</span>"," ","","prac-sent","colorida","","",""
"","572","html-keyboard-response","13","183388","0.0-1.0-1.10","<span style=""font-size:30px; font-family: monospace"">caiu</span>"," ","","prac-sent","caiu","","",""
"","465","html-keyboard-response","14","184105","0.0-1.0-1.11","<span style=""font-size:30px; font-family: monospace"">da</span>"," ","","prac-sent","da","","",""
"","366","html-keyboard-response","15","184722","0.0-1.0-1.12","<span style=""font-size:30px; font-family: monospace"">mesa</span>"," ","","prac-sent","mesa","","",""
"","477","html-keyboard-response","16","185451","0.0-1.0-1.13","<span style=""font-size:30px; font-family: monospace"">de</span>"," ","","prac-sent","de","","",""
"","3727","html-keyboard-response","17","189429","0.0-1.0-1.14","<span style=""font-size:30px; font-family: monospace"">jantar.</span>"," ","","prac-comp","jantar.","","",""
"","49364","html-keyboard-response","18","239044","0.0-1.0-2.14-0.14","<span style=""font-size:30px; font-family: monospace"">A caneca permaneceu na mesa?</span>","s","","prac-comp","","A caneca permaneceu na mesa?","não","false"
"[{""page_index"":0,""viewing_time"":30079}]","30080","instructions","19","269626","0.0-2.0","","","","","","","",""
"","null","html-keyboard-response","20","270727","0.0-3.0-0.0-0.0","<span style= ""font-size:30px; font-family: monospace"">+</span>","null","fixation","","","","",""
"","7083","html-keyboard-response","21","278063","0.0-3.0-1.0","<span style=""font-size:30px; font-family: monospace"">A</span>"," ","","exp-sent","A","","",""
"","932","html-keyboard-response","22","279247","0.0-3.0-1.1","<span style=""font-size:30px; font-family: monospace"">senhora</span>"," ","","exp-sent","senhora","","",""
"","1538","html-keyboard-response","23","281036","0.0-3.0-1.2","<span style=""font-size:30px; font-family: monospace"">cumprimentou</span>"," ","","exp-sent","cumprimentou","","",""
"","822","html-keyboard-response","24","282109","0.0-3.0-1.3","<span style=""font-size:30px; font-family: monospace"">o</span>"," ","","exp-sent","o","","",""
"","965","html-keyboard-response","25","283326","0.0-3.0-1.4","<span style=""font-size:30px; font-family: monospace"">operador</span>"," ","","exp-sent","operador","","",""
"","644","html-keyboard-response","26","284221","0.0-3.0-1.5","<span style=""font-size:30px; font-family: monospace"">de</span>"," ","","exp-sent","de","","",""
"","2218","html-keyboard-response","27","286691","0.0-3.0-1.6","<span style=""font-size:30px; font-family: monospace"">caixa.</span>"," ","","exp-sent","caixa.","","",""
"","null","html-keyboard-response","28","287944","0.0-3.0-0.7-0.7","<span style= ""font-size:30px; font-family: monospace"">+</span>","null","fixation","","","","",""
"","774","html-keyboard-response","29","288970","0.0-3.0-1.7","<span style=""font-size:30px; font-family: monospace"">A</span>"," ","","exp-sent","A","","",""
"","699","html-keyboard-response","30","289920","0.0-3.0-1.8","<span style=""font-size:30px; font-family: monospace"">gente</span>"," ","","exp-sent","gente","","",""
"","790","html-keyboard-response","31","290961","0.0-3.0-1.9","<span style=""font-size:30px; font-family: monospace"">viu</span>"," ","","exp-sent","viu","","",""
"","635","html-keyboard-response","32","291847","0.0-3.0-1.10","<span style=""font-size:30px; font-family: monospace"">o</span>"," ","","exp-sent","o","","",""
"","797","html-keyboard-response","33","292896","0.0-3.0-1.11","<span style=""font-size:30px; font-family: monospace"">eclipse</span>"," ","","exp-sent","eclipse","","",""
"","720","html-keyboard-response","34","293868","0.0-3.0-1.12","<span style=""font-size:30px; font-family: monospace"">lunar</span>"," ","","exp-sent","lunar","","",""
"","910","html-keyboard-response","35","295031","0.0-3.0-1.13","<span style=""font-size:30px; font-family: monospace"">durante</span>"," ","","exp-sent","durante","","",""
"","604","html-keyboard-response","36","295886","0.0-3.0-1.14","<span style=""font-size:30px; font-family: monospace"">o</span>"," ","","exp-sent","o","","",""
"","948","html-keyboard-response","37","297085","0.0-3.0-1.15","<span style=""font-size:30px; font-family: monospace"">dia.</span>"," ","","exp-sent","dia.","","",""
"","null","html-keyboard-response","38","298337","0.0-3.0-0.16-0.16","<span style= ""font-size:30px; font-family: monospace"">+</span>","null","fixation","","","","",""
"","1322","html-keyboard-response","39","299912","0.0-3.0-1.16","<span style=""font-size:30px; font-family: monospace"">A</span>"," ","","exp-sent","A","","",""
"","1065","html-keyboard-response","40","301228","0.0-3.0-1.17","<span style=""font-size:30px; font-family: monospace"">mordida</span>"," ","","exp-sent","mordida","","",""
"","868","html-keyboard-response","41","302347","0.0-3.0-1.18","<span style=""font-size:30px; font-family: monospace"">do</span>"," ","","exp-sent","do","","",""
"","1126","html-keyboard-response","42","303724","0.0-3.0-1.19","<span style=""font-size:30px; font-family: monospace"">cachorro</span>"," ","","exp-sent","cachorro","","",""
"","936","html-keyboard-response","43","304911","0.0-3.0-1.20","<span style=""font-size:30px; font-family: monospace"">voraz</span>"," ","","exp-sent","voraz","","",""
"","856","html-keyboard-response","44","306019","0.0-3.0-1.21","<span style=""font-size:30px; font-family: monospace"">causou</span>"," ","","exp-sent","causou","","",""
"","628","html-keyboard-response","45","306898","0.0-3.0-1.22","<span style=""font-size:30px; font-family: monospace"">uma</span>"," ","","exp-sent","uma","","",""
"","1199","html-keyboard-response","46","308348","0.0-3.0-1.23","<span style=""font-size:30px; font-family: monospace"">cicatriz.</span>"," ","","exp-sent","cicatriz.","","",""
"","null","html-keyboard-response","47","309601","0.0-3.0-0.24-0.24","<span style= ""font-size:30px; font-family: monospace"">+</span>","null","fixation","","","","",""
"","1024","html-keyboard-response","48","310877","0.0-3.0-1.24","<span style=""font-size:30px; font-family: monospace"">Elas</span>"," ","","exp-sent","Elas","","",""
"","1150","html-keyboard-response","49","312278","0.0-3.0-1.25","<span style=""font-size:30px; font-family: monospace"">não</span>"," ","","exp-sent","não","","",""
"","1093","html-keyboard-response","50","313621","0.0-3.0-1.26","<span style=""font-size:30px; font-family: monospace"">viram</span>"," ","","exp-sent","viram","","",""
"","1114","html-keyboard-response","51","314985","0.0-3.0-1.27","<span style=""font-size:30px; font-family: monospace"">nenhuma</span>"," ","","exp-sent","nenhuma","","",""
"","944","html-keyboard-response","52","316183","0.0-3.0-1.28","<span style=""font-size:30px; font-family: monospace"">diferença</span>"," ","","exp-sent","diferença","","",""
"","718","html-keyboard-response","53","317153","0.0-3.0-1.29","<span style=""font-size:30px; font-family: monospace"">entre</span>"," ","","exp-sent","entre","","",""
"","715","html-keyboard-response","54","318119","0.0-3.0-1.30","<span style=""font-size:30px; font-family: monospace"">os</span>"," ","","exp-sent","os","","",""
"","1059","html-keyboard-response","55","319430","0.0-3.0-1.31","<span style=""font-size:30px; font-family: monospace"">textos.</span>"," ","","exp-sent","textos.","","",""
"","null","html-keyboard-response","56","320681","0.0-3.0-0.32-0.32","<span style= ""font-size:30px; font-family: monospace"">+</span>","null","fixation","","","","",""
"","1392","html-keyboard-response","57","322324","0.0-3.0-1.32","<span style=""font-size:30px; font-family: monospace"">Amanhã</span>"," ","","exp-sent","Amanhã","","",""
"","763","html-keyboard-response","58","323339","0.0-3.0-1.33","<span style=""font-size:30px; font-family: monospace"">vai</span>"," ","","exp-sent","vai","","",""
"","855","html-keyboard-response","59","324445","0.0-3.0-1.34","<span style=""font-size:30px; font-family: monospace"">ter</span>"," ","","exp-sent","ter","","",""
"","663","html-keyboard-response","60","325359","0.0-3.0-1.35","<span style=""font-size:30px; font-family: monospace"">um</span>"," ","","exp-sent","um","","",""
"","903","html-keyboard-response","61","326515","0.0-3.0-1.36","<span style=""font-size:30px; font-family: monospace"">bazar</span>"," ","","exp-sent","bazar","","",""
"","515","html-keyboard-response","62","327280","0.0-3.0-1.37","<span style=""font-size:30px; font-family: monospace"">no</span>"," ","","exp-sent","no","","",""
"","1058","html-keyboard-response","63","328589","0.0-3.0-1.38","<span style=""font-size:30px; font-family: monospace"">bairro.</span>"," ","","comp","bairro.","","",""
"","4027","html-keyboard-response","64","332868","0.0-3.0-2.38-0.38","<span style=""font-size:30px; font-family: monospace"">Amanhã vai acontecer um bazar no bairro?</span>","s","","comp","","Amanhã vai acontecer um bazar no bairro?","sim","false"
"","null","html-keyboard-response","65","334371","0.0-3.0-0.39-0.39","<span style= ""font-size:30px; font-family: monospace"">+</span>","null","fixation","","","","",""
"","2598","html-keyboard-response","66","337220","0.0-3.0-1.39","<span style=""font-size:30px; font-family: monospace"">Minha</span>"," ","","exp-sent","Minha","","",""
"","994","html-keyboard-response","67","338465","0.0-3.0-1.40","<span style=""font-size:30px; font-family: monospace"">prima</span>"," ","","exp-sent","prima","","",""
"","838","html-keyboard-response","68","339555","0.0-3.0-1.41","<span style=""font-size:30px; font-family: monospace"">trocou</span>"," ","","exp-sent","trocou","","",""
"","791","html-keyboard-response","69","340597","0.0-3.0-1.42","<span style=""font-size:30px; font-family: monospace"">a</span>"," ","","exp-sent","a","","",""
"","744","html-keyboard-response","70","341593","0.0-3.0-1.43","<span style=""font-size:30px; font-family: monospace"">tela</span>"," ","","exp-sent","tela","","",""
"","598","html-keyboard-response","71","342443","0.0-3.0-1.44","<span style=""font-size:30px; font-family: monospace"">do</span>"," ","","exp-sent","do","","",""
"","643","html-keyboard-response","72","343337","0.0-3.0-1.45","<span style=""font-size:30px; font-family: monospace"">celular</span>"," ","","exp-sent","celular","","",""
"","507","html-keyboard-response","73","344095","0.0-3.0-1.46","<span style=""font-size:30px; font-family: monospace"">duas</span>"," ","","exp-sent","duas","","",""
"","555","html-keyboard-response","74","344901","0.0-3.0-1.47","<span style=""font-size:30px; font-family: monospace"">vezes.</span>"," ","","exp-sent","vezes.","","",""
"","null","html-keyboard-response","75","346153","0.0-3.0-0.48-0.48","<span style= ""font-size:30px; font-family: monospace"">+</span>","null","fixation","","","","",""
"","679","html-keyboard-response","76","347083","0.0-3.0-1.48","<span style=""font-size:30px; font-family: monospace"">Agora</span>"," ","","exp-sent","Agora","","",""
"","558","html-keyboard-response","77","347892","0.0-3.0-1.49","<span style=""font-size:30px; font-family: monospace"">a</span>"," ","","exp-sent","a","","",""
"","621","html-keyboard-response","78","348765","0.0-3.0-1.50","<span style=""font-size:30px; font-family: monospace"">minha</span>"," ","","exp-sent","minha","","",""
"","652","html-keyboard-response","79","349668","0.0-3.0-1.51","<span style=""font-size:30px; font-family: monospace"">única</span>"," ","","exp-sent","única","","",""
"","662","html-keyboard-response","80","350582","0.0-3.0-1.52","<span style=""font-size:30px; font-family: monospace"">preocupação</span>"," ","","exp-sent","preocupação","","",""
"","539","html-keyboard-response","81","351372","0.0-3.0-1.53","<span style=""font-size:30px; font-family: monospace"">é</span>"," ","","exp-sent","é","","",""
"","459","html-keyboard-response","82","352083","0.0-3.0-1.54","<span style=""font-size:30px; font-family: monospace"">um</span>"," ","","exp-sent","um","","",""
"","673","html-keyboard-response","83","353007","0.0-3.0-1.55","<span style=""font-size:30px; font-family: monospace"">descanso</span>"," ","","exp-sent","descanso","","",""
"","629","html-keyboard-response","84","353887","0.0-3.0-1.56","<span style=""font-size:30px; font-family: monospace"">tranquilo.</span>"," ","","exp-sent","tranquilo.","","",""
"","null","html-keyboard-response","85","355138","0.0-3.0-0.57-0.57","<span style= ""font-size:30px; font-family: monospace"">+</span>","null","fixation","","","","",""
"","310","html-keyboard-response","86","355699","0.0-3.0-1.57","<span style=""font-size:30px; font-family: monospace"">A</span>"," ","","exp-sent","A","","",""
"","627","html-keyboard-response","87","356577","0.0-3.0-1.58","<span style=""font-size:30px; font-family: monospace"">criança</span>"," ","","exp-sent","criança","","",""
"","555","html-keyboard-response","88","357383","0.0-3.0-1.59","<span style=""font-size:30px; font-family: monospace"">ganhou</span>"," ","","exp-sent","ganhou","","",""
"","473","html-keyboard-response","89","358107","0.0-3.0-1.60","<span style=""font-size:30px; font-family: monospace"">um</span>"," ","","exp-sent","um","","",""
"","523","html-keyboard-response","90","358883","0.0-3.0-1.61","<span style=""font-size:30px; font-family: monospace"">presente</span>"," ","","exp-sent","presente","","",""
"","1133","html-keyboard-response","91","360268","0.0-3.0-1.62","<span style=""font-size:30px; font-family: monospace"">maravilhoso.</span>"," ","","exp-sent","maravilhoso.","","",""
"","null","html-keyboard-response","92","361520","0.0-3.0-0.63-0.63","<span style= ""font-size:30px; font-family: monospace"">+</span>","null","fixation","","","","",""
"","411","html-keyboard-response","93","362183","0.0-3.0-1.63","<span style=""font-size:30px; font-family: monospace"">Os</span>"," ","","exp-sent","Os","","",""
"","563","html-keyboard-response","94","362997","0.0-3.0-1.64","<span style=""font-size:30px; font-family: monospace"">bichos</span>"," ","","exp-sent","bichos","","",""
"","490","html-keyboard-response","95","363738","0.0-3.0-1.65","<span style=""font-size:30px; font-family: monospace"">têm</span>"," ","","exp-sent","têm","","",""
"","441","html-keyboard-response","96","364432","0.0-3.0-1.66","<span style=""font-size:30px; font-family: monospace"">um</span>"," ","","exp-sent","um","","",""
"","495","html-keyboard-response","97","365179","0.0-3.0-1.67","<span style=""font-size:30px; font-family: monospace"">instinto</span>"," ","","exp-sent","instinto","","",""
"","458","html-keyboard-response","98","365888","0.0-3.0-1.68","<span style=""font-size:30px; font-family: monospace"">de</span>"," ","","exp-sent","de","","",""
"","886","html-keyboard-response","99","367024","0.0-3.0-1.69","<span style=""font-size:30px; font-family: monospace"">sobrevivência</span>"," ","","exp-sent","sobrevivência","","",""
"","615","html-keyboard-response","100","367890","0.0-3.0-1.70","<span style=""font-size:30px; font-family: monospace"">forte.</span>"," ","","exp-sent","forte.","","",""
"","null","html-keyboard-response","101","369142","0.0-3.0-0.71-0.71","<span style= ""font-size:30px; font-family: monospace"">+</span>","null","fixation","","","","",""
"","566","html-keyboard-response","102","369959","0.0-3.0-1.71","<span style=""font-size:30px; font-family: monospace"">Aquele</span>"," ","","exp-sent","Aquele","","",""
"","643","html-keyboard-response","103","370854","0.0-3.0-1.72","<span style=""font-size:30px; font-family: monospace"">menino</span>"," ","","exp-sent","menino","","",""
"","529","html-keyboard-response","104","371637","0.0-3.0-1.73","<span style=""font-size:30px; font-family: monospace"">alto</span>"," ","","exp-sent","alto","","",""
"","518","html-keyboard-response","105","372406","0.0-3.0-1.74","<span style=""font-size:30px; font-family: monospace"">é</span>"," ","","exp-sent","é","","",""
"","538","html-keyboard-response","106","373195","0.0-3.0-1.75","<span style=""font-size:30px; font-family: monospace"">exibido</span>"," ","","exp-sent","exibido","","",""
"","477","html-keyboard-response","107","373923","0.0-3.0-1.76","<span style=""font-size:30px; font-family: monospace"">e</span>"," ","","exp-sent","e","","",""
"","826","html-keyboard-response","108","375000","0.0-3.0-1.77","<span style=""font-size:30px; font-family: monospace"">sovina.</span>"," ","","comp","sovina.","","",""
"","4981","html-keyboard-response","109","380233","0.0-3.0-2.77-0.77","<span style=""font-size:30px; font-family: monospace"">Aquele menino é humilde?</span>","s","","comp","","Aquele menino é humilde?","não","false"
"","null","html-keyboard-response","110","381735","0.0-3.0-0.78-0.78","<span style= ""font-size:30px; font-family: monospace"">+</span>","null","fixation","","","","",""
"","3438","html-keyboard-response","111","385425","0.0-3.0-1.78","<span style=""font-size:30px; font-family: monospace"">Ganhamos</span>"," ","","exp-sent","Ganhamos","","",""
"","986","html-keyboard-response","112","386663","0.0-3.0-1.79","<span style=""font-size:30px; font-family: monospace"">passagem</span>"," ","","exp-sent","passagem","","",""
"","934","html-keyboard-response","113","387848","0.0-3.0-1.80","<span style=""font-size:30px; font-family: monospace"">para</span>"," ","","exp-sent","para","","",""
"","808","html-keyboard-response","114","388908","0.0-3.0-1.81","<span style=""font-size:30px; font-family: monospace"">uma</span>"," ","","exp-sent","uma","","",""
"","910","html-keyboard-response","115","390070","0.0-3.0-1.82","<span style=""font-size:30px; font-family: monospace"">viagem</span>"," ","","exp-sent","viagem","","",""
"","534","html-keyboard-response","116","390855","0.0-3.0-1.83","<span style=""font-size:30px; font-family: monospace"">de</span>"," ","","exp-sent","de","","",""
"","1054","html-keyboard-response","117","392162","0.0-3.0-1.84","<span style=""font-size:30px; font-family: monospace"">férias.</span>"," ","","exp-sent","férias.","","",""
"","null","html-keyboard-response","118","393414","0.0-3.0-0.85-0.85","<span style= ""font-size:30px; font-family: monospace"">+</span>","null","fixation","","","","",""
"","588","html-keyboard-response","119","394253","0.0-3.0-1.85","<span style=""font-size:30px; font-family: monospace"">Caiu</span>"," ","","exp-sent","Caiu","","",""
"","1005","html-keyboard-response","120","395510","0.0-3.0-1.86","<span style=""font-size:30px; font-family: monospace"">algo</span>"," ","","exp-sent","algo","","",""
"","694","html-keyboard-response","121","396456","0.0-3.0-1.87","<span style=""font-size:30px; font-family: monospace"">no</span>"," ","","exp-sent","no","","",""
"","635","html-keyboard-response","122","397343","0.0-3.0-1.88","<span style=""font-size:30px; font-family: monospace"">meu</span>"," ","","exp-sent","meu","","",""
"","554","html-keyboard-response","123","398149","0.0-3.0-1.89","<span style=""font-size:30px; font-family: monospace"">olho</span>"," ","","exp-sent","olho","","",""
"","442","html-keyboard-response","124","398843","0.0-3.0-1.90","<span style=""font-size:30px; font-family: monospace"">ontem</span>"," ","","exp-sent","ontem","","",""
"","526","html-keyboard-response","125","399620","0.0-3.0-1.91","<span style=""font-size:30px; font-family: monospace"">de</span>"," ","","exp-sent","de","","",""
"","1260","html-keyboard-response","126","401131","0.0-3.0-1.92","<span style=""font-size:30px; font-family: monospace"">tarde.</span>"," ","","exp-sent","tarde.","","",""
"","null","html-keyboard-response","127","402383","0.0-3.0-0.93-0.93","<span style= ""font-size:30px; font-family: monospace"">+</span>","null","fixation","","","","",""
"","606","html-keyboard-response","128","403241","0.0-3.0-1.93","<span style=""font-size:30px; font-family: monospace"">Não</span>"," ","","exp-sent","Não","","",""
"","518","html-keyboard-response","129","404009","0.0-3.0-1.94","<span style=""font-size:30px; font-family: monospace"">havia</span>"," ","","exp-sent","havia","","",""
"","554","html-keyboard-response","130","404815","0.0-3.0-1.95","<span style=""font-size:30px; font-family: monospace"">mais</span>"," ","","exp-sent","mais","","",""
"","470","html-keyboard-response","131","405537","0.0-3.0-1.96","<span style=""font-size:30px; font-family: monospace"">nenhum</span>"," ","","exp-sent","nenhum","","",""
"","530","html-keyboard-response","132","406318","0.0-3.0-1.97","<span style=""font-size:30px; font-family: monospace"">ingresso</span>"," ","","exp-sent","ingresso","","",""
"","470","html-keyboard-response","133","407041","0.0-3.0-1.98","<span style=""font-size:30px; font-family: monospace"">para</span>"," ","","exp-sent","para","","",""
"","569","html-keyboard-response","134","407862","0.0-3.0-1.99","<span style=""font-size:30px; font-family: monospace"">o</span>"," ","","exp-sent","o","","",""
"","604","html-keyboard-response","135","408717","0.0-3.0-1.100","<span style=""font-size:30px; font-family: monospace"">evento.</span>"," ","","exp-sent","evento.","","",""
"","null","html-keyboard-response","136","409969","0.0-3.0-0.101-0.101","<span style= ""font-size:30px; font-family: monospace"">+</span>","null","fixation","","","","",""
"","113","html-keyboard-response","137","410334","0.0-3.0-1.101","<span style=""font-size:30px; font-family: monospace"">A</span>"," ","","exp-sent","A","","",""
"","17554","html-keyboard-response","138","428140","0.0-3.0-1.102","<span style=""font-size:30px; font-family: monospace"">médica</span>"," ","","exp-sent","médica","","",""
"","568","html-keyboard-response","139","428959","0.0-3.0-1.103","<span style=""font-size:30px; font-family: monospace"">descobriu</span>"," ","","exp-sent","descobriu","","",""
"","461","html-keyboard-response","140","429671","0.0-3.0-1.104","<span style=""font-size:30px; font-family: monospace"">uma</span>"," ","","exp-sent","uma","","",""
"","436","html-keyboard-response","141","430359","0.0-3.0-1.105","<span style=""font-size:30px; font-family: monospace"">cura</span>"," ","","exp-sent","cura","","",""
"","437","html-keyboard-response","142","431048","0.0-3.0-1.106","<span style=""font-size:30px; font-family: monospace"">para</span>"," ","","exp-sent","para","","",""
"","570","html-keyboard-response","143","431868","0.0-3.0-1.107","<span style=""font-size:30px; font-family: monospace"">a</span>"," ","","exp-sent","a","","",""
"","584","html-keyboard-response","144","432703","0.0-3.0-1.108","<span style=""font-size:30px; font-family: monospace"">doença.</span>"," ","","exp-sent","doença.","","",""
"","null","html-keyboard-response","145","433956","0.0-3.0-0.109-0.109","<span style= ""font-size:30px; font-family: monospace"">+</span>","null","fixation","","","","",""
"","413","html-keyboard-response","146","434621","0.0-3.0-1.109","<span style=""font-size:30px; font-family: monospace"">O</span>"," ","","exp-sent","O","","",""
"","520","html-keyboard-response","147","435392","0.0-3.0-1.110","<span style=""font-size:30px; font-family: monospace"">menino</span>"," ","","exp-sent","menino","","",""
"","504","html-keyboard-response","148","436147","0.0-3.0-1.111","<span style=""font-size:30px; font-family: monospace"">riscou</span>"," ","","exp-sent","riscou","","",""
"","388","html-keyboard-response","149","436786","0.0-3.0-1.112","<span style=""font-size:30px; font-family: monospace"">o</span>"," ","","exp-sent","o","","",""
"","442","html-keyboard-response","150","437479","0.0-3.0-1.113","<span style=""font-size:30px; font-family: monospace"">caderno</span>"," ","","exp-sent","caderno","","",""
"","344","html-keyboard-response","151","438074","0.0-3.0-1.114","<span style=""font-size:30px; font-family: monospace"">com</span>"," ","","exp-sent","com","","",""
"","404","html-keyboard-response","152","438731","0.0-3.0-1.115","<span style=""font-size:30px; font-family: monospace"">a</span>"," ","","exp-sent","a","","",""
"","624","html-keyboard-response","153","439607","0.0-3.0-1.116","<span style=""font-size:30px; font-family: monospace"">caneta.</span>"," ","","comp","caneta.","","",""
"","6785","html-keyboard-response","154","446643","0.0-3.0-2.116-0.116","<span style=""font-size:30px; font-family: monospace"">O menino riscou a parede com a caneta?</span>","n","","comp","","O menino riscou a parede com a caneta?","não","false"
"","null","html-keyboard-response","155","448145","0.0-3.0-0.117-0.117","<span style= ""font-size:30px; font-family: monospace"">+</span>","null","fixation","","","","",""
"","1219","html-keyboard-response","156","449630","0.0-3.0-1.117","<span style=""font-size:30px; font-family: monospace"">O</span>"," ","","exp-sent","O","","",""
"","591","html-keyboard-response","157","450474","0.0-3.0-1.118","<span style=""font-size:30px; font-family: monospace"">texto</span>"," ","","exp-sent","texto","","",""
"","520","html-keyboard-response","158","451245","0.0-3.0-1.119","<span style=""font-size:30px; font-family: monospace"">trazia</span>"," ","","exp-sent","trazia","","",""
"","456","html-keyboard-response","159","451953","0.0-3.0-1.120","<span style=""font-size:30px; font-family: monospace"">um</span>"," ","","exp-sent","um","","",""
"","555","html-keyboard-response","160","452759","0.0-3.0-1.121","<span style=""font-size:30px; font-family: monospace"">argumento</span>"," ","","exp-sent","argumento","","",""
"","378","html-keyboard-response","161","453388","0.0-3.0-1.122","<span style=""font-size:30px; font-family: monospace"">central</span>"," ","","exp-sent","central","","",""
"","376","html-keyboard-response","162","454015","0.0-3.0-1.123","<span style=""font-size:30px; font-family: monospace"">para</span>"," ","","exp-sent","para","","",""
"","480","html-keyboard-response","163","454746","0.0-3.0-1.124","<span style=""font-size:30px; font-family: monospace"">a</span>"," ","","exp-sent","a","","",""
"","1438","html-keyboard-response","164","456436","0.0-3.0-1.125","<span style=""font-size:30px; font-family: monospace"">conversa.</span>"," ","","exp-sent","conversa.","","",""
"","null","html-keyboard-response","165","457687","0.0-3.0-0.126-0.126","<span style= ""font-size:30px; font-family: monospace"">+</span>","null","fixation","","","","",""
"","636","html-keyboard-response","166","458574","0.0-3.0-1.126","<span style=""font-size:30px; font-family: monospace"">Ontem</span>"," ","","exp-sent","Ontem","","",""
"","582","html-keyboard-response","167","459407","0.0-3.0-1.127","<span style=""font-size:30px; font-family: monospace"">a</span>"," ","","exp-sent","a","","",""
"","746","html-keyboard-response","168","460406","0.0-3.0-1.128","<span style=""font-size:30px; font-family: monospace"">temperatura</span>"," ","","exp-sent","temperatura","","",""
"","471","html-keyboard-response","169","461128","0.0-3.0-1.129","<span style=""font-size:30px; font-family: monospace"">estava</span>"," ","","exp-sent","estava","","",""
"","471","html-keyboard-response","170","461850","0.0-3.0-1.130","<span style=""font-size:30px; font-family: monospace"">amena</span>"," ","","exp-sent","amena","","",""
"","632","html-keyboard-response","171","462734","0.0-3.0-1.131","<span style=""font-size:30px; font-family: monospace"">durante</span>"," ","","exp-sent","durante","","",""
"","1193","html-keyboard-response","172","464179","0.0-3.0-1.132","<span style=""font-size:30px; font-family: monospace"">o</span>"," ","","exp-sent","o","","",""
"","749","html-keyboard-response","173","465180","0.0-3.0-1.133","<span style=""font-size:30px; font-family: monospace"">dia.</span>"," ","","exp-sent","dia.","","",""
"","null","html-keyboard-response","174","466431","0.0-3.0-0.134-0.134","<span style= ""font-size:30px; font-family: monospace"">+</span>","null","fixation","","","","",""
"","820","html-keyboard-response","175","467503","0.0-3.0-1.134","<span style=""font-size:30px; font-family: monospace"">Havia</span>"," ","","exp-sent","Havia","","",""
"","410","html-keyboard-response","176","468165","0.0-3.0-1.135","<span style=""font-size:30px; font-family: monospace"">um</span>"," ","","exp-sent","um","","",""
"","982","html-keyboard-response","177","469398","0.0-3.0-1.136","<span style=""font-size:30px; font-family: monospace"">machucado</span>"," ","","exp-sent","machucado","","",""
"","483","html-keyboard-response","178","470133","0.0-3.0-1.137","<span style=""font-size:30px; font-family: monospace"">no</span>"," ","","exp-sent","no","","",""
"","457","html-keyboard-response","179","470841","0.0-3.0-1.138","<span style=""font-size:30px; font-family: monospace"">dedo</span>"," ","","exp-sent","dedo","","",""
"","770","html-keyboard-response","180","471862","0.0-3.0-1.139","<span style=""font-size:30px; font-family: monospace"">da</span>"," ","","exp-sent","da","","",""
"","885","html-keyboard-response","181","472999","0.0-3.0-1.140","<span style=""font-size:30px; font-family: monospace"">criança.</span>"," ","","exp-sent","criança.","","",""
"","null","html-keyboard-response","182","474251","0.0-3.0-0.141-0.141","<span style= ""font-size:30px; font-family: monospace"">+</span>","null","fixation","","","","",""
"","484","html-keyboard-response","183","474986","0.0-3.0-1.141","<span style=""font-size:30px; font-family: monospace"">A</span>"," ","","exp-sent","A","","",""
"","1061","html-keyboard-response","184","476298","0.0-3.0-1.142","<span style=""font-size:30px; font-family: monospace"">borboleta</span>"," ","","exp-sent","borboleta","","",""
"","692","html-keyboard-response","185","477242","0.0-3.0-1.143","<span style=""font-size:30px; font-family: monospace"">pousou</span>"," ","","exp-sent","pousou","","",""
"","467","html-keyboard-response","186","477960","0.0-3.0-1.144","<span style=""font-size:30px; font-family: monospace"">no</span>"," ","","exp-sent","no","","",""
"","792","html-keyboard-response","187","479004","0.0-3.0-1.145","<span style=""font-size:30px; font-family: monospace"">ombro</span>"," ","","exp-sent","ombro","","",""
"","817","html-keyboard-response","188","480073","0.0-3.0-1.146","<span style=""font-size:30px; font-family: monospace"">daquela</span>"," ","","exp-sent","daquela","","",""
"","706","html-keyboard-response","189","481030","0.0-3.0-1.147","<span style=""font-size:30px; font-family: monospace"">moça.</span>"," ","","exp-sent","moça.","","",""
"","null","html-keyboard-response","190","482282","0.0-3.0-0.148-0.148","<span style= ""font-size:30px; font-family: monospace"">+</span>","null","fixation","","","","",""
"","395","html-keyboard-response","191","482930","0.0-3.0-1.148","<span style=""font-size:30px; font-family: monospace"">Eu</span>"," ","","exp-sent","Eu","","",""
"","562","html-keyboard-response","192","483744","0.0-3.0-1.149","<span style=""font-size:30px; font-family: monospace"">quero</span>"," ","","exp-sent","quero","","",""
"","519","html-keyboard-response","193","484514","0.0-3.0-1.150","<span style=""font-size:30px; font-family: monospace"">um</span>"," ","","exp-sent","um","","",""
"","867","html-keyboard-response","194","485633","0.0-3.0-1.151","<span style=""font-size:30px; font-family: monospace"">namorado</span>"," ","","exp-sent","namorado","","",""
"","690","html-keyboard-response","195","486574","0.0-3.0-1.152","<span style=""font-size:30px; font-family: monospace"">honesto</span>"," ","","exp-sent","honesto","","",""
"","557","html-keyboard-response","196","487383","0.0-3.0-1.153","<span style=""font-size:30px; font-family: monospace"">e</span>"," ","","exp-sent","e","","",""
"","1098","html-keyboard-response","197","488733","0.0-3.0-1.154","<span style=""font-size:30px; font-family: monospace"">compreensivo.</span>"," ","","comp","compreensivo.","","",""
"","3841","html-keyboard-response","198","492825","0.0-3.0-2.154-0.154","<span style=""font-size:30px; font-family: monospace"">Eu quero um namorado honesto?</span>","s","","comp","","Eu quero um namorado honesto?","sim","false"
"","null","html-keyboard-response","199","494341","0.0-3.0-0.155-0.155","<span style= ""font-size:30px; font-family: monospace"">+</span>","null","fixation","","","","",""
"","225","html-keyboard-response","200","494818","0.0-3.0-1.155","<span style=""font-size:30px; font-family: monospace"">Ele</span>"," ","","exp-sent","Ele","","",""
"","1334","html-keyboard-response","201","496404","0.0-3.0-1.156","<span style=""font-size:30px; font-family: monospace"">é</span>"," ","","exp-sent","é","","",""
"","525","html-keyboard-response","202","497180","0.0-3.0-1.157","<span style=""font-size:30px; font-family: monospace"">um</span>"," ","","exp-sent","um","","",""
"","601","html-keyboard-response","203","498032","0.0-3.0-1.158","<span style=""font-size:30px; font-family: monospace"">pai</span>"," ","","exp-sent","pai","","",""
"","1333","html-keyboard-response","204","499617","0.0-3.0-1.159","<span style=""font-size:30px; font-family: monospace"">ausente</span>"," ","","exp-sent","ausente","","",""
"","719","html-keyboard-response","205","500587","0.0-3.0-1.160","<span style=""font-size:30px; font-family: monospace"">e</span>"," ","","exp-sent","e","","",""
"","1088","html-keyboard-response","206","501928","0.0-3.0-1.161","<span style=""font-size:30px; font-family: monospace"">muito</span>"," ","","exp-sent","muito","","",""
"","1878","html-keyboard-response","207","504058","0.0-3.0-1.162","<span style=""font-size:30px; font-family: monospace"">fofoqueiro.</span>"," ","","exp-sent","fofoqueiro.","","",""
"","null","html-keyboard-response","208","505309","0.0-3.0-0.163-0.163","<span style= ""font-size:30px; font-family: monospace"">+</span>","null","fixation","","","","",""
"","586","html-keyboard-response","209","506146","0.0-3.0-1.163","<span style=""font-size:30px; font-family: monospace"">O</span>"," ","","exp-sent","O","","",""
"","567","html-keyboard-response","210","506965","0.0-3.0-1.164","<span style=""font-size:30px; font-family: monospace"">filho</span>"," ","","exp-sent","filho","","",""
"","1333","html-keyboard-response","211","508549","0.0-3.0-1.165","<span style=""font-size:30px; font-family: monospace"">lavou</span>"," ","","exp-sent","lavou","","",""
"","585","html-keyboard-response","212","509386","0.0-3.0-1.166","<span style=""font-size:30px; font-family: monospace"">a</span>"," ","","exp-sent","a","","",""
"","647","html-keyboard-response","213","510284","0.0-3.0-1.167","<span style=""font-size:30px; font-family: monospace"">roupa</span>"," ","","exp-sent","roupa","","",""
"","607","html-keyboard-response","214","511142","0.0-3.0-1.168","<span style=""font-size:30px; font-family: monospace"">sem</span>"," ","","exp-sent","sem","","",""
"","623","html-keyboard-response","215","512017","0.0-3.0-1.169","<span style=""font-size:30px; font-family: monospace"">nenhuma</span>"," ","","exp-sent","nenhuma","","",""
"","1370","html-keyboard-response","216","513639","0.0-3.0-1.170","<span style=""font-size:30px; font-family: monospace"">ajuda.</span>"," ","","exp-sent","ajuda.","","",""
"","null","html-keyboard-response","217","514889","0.0-3.0-0.171-0.171","<span style= ""font-size:30px; font-family: monospace"">+</span>","null","fixation","","","","",""
"","405","html-keyboard-response","218","515545","0.0-3.0-1.171","<span style=""font-size:30px; font-family: monospace"">O</span>"," ","","exp-sent","O","","",""
"","574","html-keyboard-response","219","516370","0.0-3.0-1.172","<span style=""font-size:30px; font-family: monospace"">menino</span>"," ","","exp-sent","menino","","",""
"","606","html-keyboard-response","220","517228","0.0-3.0-1.173","<span style=""font-size:30px; font-family: monospace"">quebrou</span>"," ","","exp-sent","quebrou","","",""
"","445","html-keyboard-response","221","517925","0.0-3.0-1.174","<span style=""font-size:30px; font-family: monospace"">a</span>"," ","","exp-sent","a","","",""
"","649","html-keyboard-response","222","518826","0.0-3.0-1.175","<span style=""font-size:30px; font-family: monospace"">perna</span>"," ","","exp-sent","perna","","",""
"","767","html-keyboard-response","223","519844","0.0-3.0-1.176","<span style=""font-size:30px; font-family: monospace"">nos</span>"," ","","exp-sent","nos","","",""
"","1126","html-keyboard-response","224","521220","0.0-3.0-1.177","<span style=""font-size:30px; font-family: monospace"">esportes.</span>"," ","","exp-sent","esportes.","","",""
"","null","html-keyboard-response","225","522487","0.0-3.0-0.178-0.178","<span style= ""font-size:30px; font-family: monospace"">+</span>","null","fixation","","","","",""
"","434","html-keyboard-response","226","523173","0.0-3.0-1.178","<span style=""font-size:30px; font-family: monospace"">Ela</span>"," ","","exp-sent","Ela","","",""
"","627","html-keyboard-response","227","524051","0.0-3.0-1.179","<span style=""font-size:30px; font-family: monospace"">brincou</span>"," ","","exp-sent","brincou","","",""
"","769","html-keyboard-response","228","525071","0.0-3.0-1.180","<span style=""font-size:30px; font-family: monospace"">com</span>"," ","","exp-sent","com","","",""
"","464","html-keyboard-response","229","525788","0.0-3.0-1.181","<span style=""font-size:30px; font-family: monospace"">uma</span>"," ","","exp-sent","uma","","",""
"","653","html-keyboard-response","230","526692","0.0-3.0-1.182","<span style=""font-size:30px; font-family: monospace"">menina</span>"," ","","exp-sent","menina","","",""
"","929","html-keyboard-response","231","527872","0.0-3.0-1.183","<span style=""font-size:30px; font-family: monospace"">da</span>"," ","","exp-sent","da","","",""
"","739","html-keyboard-response","232","528863","0.0-3.0-1.184","<span style=""font-size:30px; font-family: monospace"">turma.</span>"," ","","exp-sent","turma.","","",""
"","null","html-keyboard-response","233","530116","0.0-3.0-0.185-0.185","<span style= ""font-size:30px; font-family: monospace"">+</span>","null","fixation","","","","",""
"","404","html-keyboard-response","234","530772","0.0-3.0-1.185","<span style=""font-size:30px; font-family: monospace"">Ele</span>"," ","","exp-sent","Ele","","",""
"","625","html-keyboard-response","235","531648","0.0-3.0-1.186","<span style=""font-size:30px; font-family: monospace"">esteve</span>"," ","","exp-sent","esteve","","",""
"","578","html-keyboard-response","236","532477","0.0-3.0-1.187","<span style=""font-size:30px; font-family: monospace"">no</span>"," ","","exp-sent","no","","",""
"","765","html-keyboard-response","237","533493","0.0-3.0-1.188","<span style=""font-size:30px; font-family: monospace"">escritório</span>"," ","","exp-sent","escritório","","",""
"","461","html-keyboard-response","238","534206","0.0-3.0-1.189","<span style=""font-size:30px; font-family: monospace"">o</span>"," ","","exp-sent","o","","",""
"","468","html-keyboard-response","239","534934","0.0-3.0-1.190","<span style=""font-size:30px; font-family: monospace"">dia</span>"," ","","exp-sent","dia","","",""
"","773","html-keyboard-response","240","535958","0.0-3.0-1.191","<span style=""font-size:30px; font-family: monospace"">inteiro.</span>"," ","","comp","inteiro.","","",""
"","3917","html-keyboard-response","241","540126","0.0-3.0-2.191-0.191","<span style=""font-size:30px; font-family: monospace"">Ele esteve no parque o dia inteiro?</span>","n","","comp","","Ele esteve no parque o dia inteiro?","não","false"
"","null","html-keyboard-response","242","541629","0.0-3.0-0.192-0.192","<span style= ""font-size:30px; font-family: monospace"">+</span>","null","fixation","","","","",""
"","587","html-keyboard-response","243","542468","0.0-3.0-1.192","<span style=""font-size:30px; font-family: monospace"">A</span>"," ","","exp-sent","A","","",""
"","673","html-keyboard-response","244","543391","0.0-3.0-1.193","<span style=""font-size:30px; font-family: monospace"">força</span>"," ","","exp-sent","força","","",""
"","1011","html-keyboard-response","245","544654","0.0-3.0-1.194","<span style=""font-size:30px; font-family: monospace"">d'água</span>"," ","","exp-sent","d'água","","",""
"","599","html-keyboard-response","246","545504","0.0-3.0-1.195","<span style=""font-size:30px; font-family: monospace"">estava</span>"," ","","exp-sent","estava","","",""
"","610","html-keyboard-response","247","546366","0.0-3.0-1.196","<span style=""font-size:30px; font-family: monospace"">normal</span>"," ","","exp-sent","normal","","",""
"","552","html-keyboard-response","248","547169","0.0-3.0-1.197","<span style=""font-size:30px; font-family: monospace"">naquele</span>"," ","","exp-sent","naquele","","",""
"","1016","html-keyboard-response","249","548436","0.0-3.0-1.198","<span style=""font-size:30px; font-family: monospace"">dia.</span>"," ","","exp-sent","dia.","","",""
"","null","html-keyboard-response","250","549688","0.0-3.0-0.199-0.199","<span style= ""font-size:30px; font-family: monospace"">+</span>","null","fixation","","","","",""
"","296","html-keyboard-response","251","550236","0.0-3.0-1.199","<span style=""font-size:30px; font-family: monospace"">A</span>"," ","","exp-sent","A","","",""
"","787","html-keyboard-response","252","551274","0.0-3.0-1.200","<span style=""font-size:30px; font-family: monospace"">médica</span>"," ","","exp-sent","médica","","",""
"","491","html-keyboard-response","253","552015","0.0-3.0-1.201","<span style=""font-size:30px; font-family: monospace"">ofereceu</span>"," ","","exp-sent","ofereceu","","",""
"","617","html-keyboard-response","254","552884","0.0-3.0-1.202","<span style=""font-size:30px; font-family: monospace"">a</span>"," ","","exp-sent","a","","",""
"","714","html-keyboard-response","255","553848","0.0-3.0-1.203","<span style=""font-size:30px; font-family: monospace"">pomada</span>"," ","","exp-sent","pomada","","",""
"","597","html-keyboard-response","256","554697","0.0-3.0-1.204","<span style=""font-size:30px; font-family: monospace"">para</span>"," ","","exp-sent","para","","",""
"","461","html-keyboard-response","257","555410","0.0-3.0-1.205","<span style=""font-size:30px; font-family: monospace"">o</span>"," ","","exp-sent","o","","",""
"","1512","html-keyboard-response","258","557174","0.0-3.0-1.206","<span style=""font-size:30px; font-family: monospace"">avô.</span>"," ","","exp-sent","avô.","","",""
"","null","html-keyboard-response","259","558426","0.0-3.0-0.207-0.207","<span style= ""font-size:30px; font-family: monospace"">+</span>","null","fixation","","","","",""
"","361","html-keyboard-response","260","559038","0.0-3.0-1.207","<span style=""font-size:30px; font-family: monospace"">Ele</span>"," ","","exp-sent","Ele","","",""
"","537","html-keyboard-response","261","559828","0.0-3.0-1.208","<span style=""font-size:30px; font-family: monospace"">conversou</span>"," ","","exp-sent","conversou","","",""
"","537","html-keyboard-response","262","560616","0.0-3.0-1.209","<span style=""font-size:30px; font-family: monospace"">com</span>"," ","","exp-sent","com","","",""
"","875","html-keyboard-response","263","561742","0.0-3.0-1.210","<span style=""font-size:30px; font-family: monospace"">o</span>"," ","","exp-sent","o","","",""
"","672","html-keyboard-response","264","562665","0.0-3.0-1.211","<span style=""font-size:30px; font-family: monospace"">patrão</span>"," ","","exp-sent","patrão","","",""
"","547","html-keyboard-response","265","563463","0.0-3.0-1.212","<span style=""font-size:30px; font-family: monospace"">durante</span>"," ","","exp-sent","durante","","",""
"","898","html-keyboard-response","266","564613","0.0-3.0-1.213","<span style=""font-size:30px; font-family: monospace"">a</span>"," ","","exp-sent","a","","",""
"","974","html-keyboard-response","267","565839","0.0-3.0-1.214","<span style=""font-size:30px; font-family: monospace"">tarde.</span>"," ","","exp-sent","tarde.","","",""
"","null","html-keyboard-response","268","567092","0.0-3.0-0.215-0.215","<span style= ""font-size:30px; font-family: monospace"">+</span>","null","fixation","","","","",""
"","495","html-keyboard-response","269","567838","0.0-3.0-1.215","<span style=""font-size:30px; font-family: monospace"">Algumas</span>"," ","","exp-sent","Algumas","","",""
"","744","html-keyboard-response","270","568835","0.0-3.0-1.216","<span style=""font-size:30px; font-family: monospace"">pessoas</span>"," ","","exp-sent","pessoas","","",""
"","2239","html-keyboard-response","271","571326","0.0-3.0-1.217","<span style=""font-size:30px; font-family: monospace"">acreditam</span>"," ","","exp-sent","acreditam","","",""
"","510","html-keyboard-response","272","572088","0.0-3.0-1.218","<span style=""font-size:30px; font-family: monospace"">em</span>"," ","","exp-sent","em","","",""
"","763","html-keyboard-response","273","573102","0.0-3.0-1.219","<span style=""font-size:30px; font-family: monospace"">espíritos</span>"," ","","exp-sent","espíritos","","",""
"","464","html-keyboard-response","274","573818","0.0-3.0-1.220","<span style=""font-size:30px; font-family: monospace"">e</span>"," ","","exp-sent","e","","",""
"","470","html-keyboard-response","275","574539","0.0-3.0-1.221","<span style=""font-size:30px; font-family: monospace"">em</span>"," ","","exp-sent","em","","",""
"","485","html-keyboard-response","276","575276","0.0-3.0-1.222","<span style=""font-size:30px; font-family: monospace"">outras</span>"," ","","exp-sent","outras","","",""
"","485","html-keyboard-response","277","576013","0.0-3.0-1.223","<span style=""font-size:30px; font-family: monospace"">vidas.</span>"," ","","exp-sent","vidas.","","",""
"","null","html-keyboard-response","278","577266","0.0-3.0-0.224-0.224","<span style= ""font-size:30px; font-family: monospace"">+</span>","null","fixation","","","","",""
"","548","html-keyboard-response","279","578066","0.0-3.0-1.224","<span style=""font-size:30px; font-family: monospace"">Ela</span>"," ","","exp-sent","Ela","","",""
"","589","html-keyboard-response","280","578905","0.0-3.0-1.225","<span style=""font-size:30px; font-family: monospace"">gosta</span>"," ","","exp-sent","gosta","","",""
"","802","html-keyboard-response","281","579959","0.0-3.0-1.226","<span style=""font-size:30px; font-family: monospace"">de</span>"," ","","exp-sent","de","","",""
"","666","html-keyboard-response","282","580876","0.0-3.0-1.227","<span style=""font-size:30px; font-family: monospace"">estudar</span>"," ","","exp-sent","estudar","","",""
"","618","html-keyboard-response","283","581745","0.0-3.0-1.228","<span style=""font-size:30px; font-family: monospace"">matemática</span>"," ","","exp-sent","matemática","","",""
"","503","html-keyboard-response","284","582500","0.0-3.0-1.229","<span style=""font-size:30px; font-family: monospace"">com</span>"," ","","exp-sent","com","","",""
"","508","html-keyboard-response","285","583259","0.0-3.0-1.230","<span style=""font-size:30px; font-family: monospace"">colegas.</span>"," ","","comp","colegas.","","",""
"","2744","html-keyboard-response","286","586255","0.0-3.0-2.230-0.230","<span style=""font-size:30px; font-family: monospace"">Ela gosta de estudar física?</span>","n","","comp","","Ela gosta de estudar física?","não","false"
"","null","html-keyboard-response","287","587757","0.0-3.0-0.231-0.231","<span style= ""font-size:30px; font-family: monospace"">+</span>","null","fixation","","","","",""
"","507","html-keyboard-response","288","588516","0.0-3.0-1.231","<span style=""font-size:30px; font-family: monospace"">As</span>"," ","","exp-sent","As","","",""
"","646","html-keyboard-response","289","589414","0.0-3.0-1.232","<span style=""font-size:30px; font-family: monospace"">crianças</span>"," ","","exp-sent","crianças","","",""
"","708","html-keyboard-response","290","590372","0.0-3.0-1.233","<span style=""font-size:30px; font-family: monospace"">viram</span>"," ","","exp-sent","viram","","",""
"","486","html-keyboard-response","291","591110","0.0-3.0-1.234","<span style=""font-size:30px; font-family: monospace"">um</span>"," ","","exp-sent","um","","",""
"","1571","html-keyboard-response","292","592932","0.0-3.0-1.235","<span style=""font-size:30px; font-family: monospace"">vaga-lume</span>"," ","","exp-sent","vaga-lume","","",""
"","596","html-keyboard-response","293","593780","0.0-3.0-1.236","<span style=""font-size:30px; font-family: monospace"">nos</span>"," ","","exp-sent","nos","","",""
"","1030","html-keyboard-response","294","595062","0.0-3.0-1.237","<span style=""font-size:30px; font-family: monospace"">arbustos.</span>"," ","","exp-sent","arbustos.","","",""
"","null","html-keyboard-response","295","596321","0.0-3.0-0.238-0.238","<span style= ""font-size:30px; font-family: monospace"">+</span>","null","fixation","","","","",""
"","462","html-keyboard-response","296","597036","0.0-3.0-1.238","<span style=""font-size:30px; font-family: monospace"">Ontem</span>"," ","","exp-sent","Ontem","","",""
"","641","html-keyboard-response","297","597927","0.0-3.0-1.239","<span style=""font-size:30px; font-family: monospace"">o</span>"," ","","exp-sent","o","","",""
"","697","html-keyboard-response","298","598875","0.0-3.0-1.240","<span style=""font-size:30px; font-family: monospace"">funcionário</span>"," ","","exp-sent","funcionário","","",""
"","493","html-keyboard-response","299","599619","0.0-3.0-1.241","<span style=""font-size:30px; font-family: monospace"">pediu</span>"," ","","exp-sent","pediu","","",""
"","773","html-keyboard-response","300","600644","0.0-3.0-1.242","<span style=""font-size:30px; font-family: monospace"">autorização</span>"," ","","exp-sent","autorização","","",""
"","912","html-keyboard-response","301","601806","0.0-3.0-1.243","<span style=""font-size:30px; font-family: monospace"">para</span>"," ","","exp-sent","para","","",""
"","536","html-keyboard-response","302","602597","0.0-3.0-1.244","<span style=""font-size:30px; font-family: monospace"">a</span>"," ","","exp-sent","a","","",""
"","426","html-keyboard-response","303","603274","0.0-3.0-1.245","<span style=""font-size:30px; font-family: monospace"">colega.</span>"," ","","exp-sent","colega.","","",""
"","null","html-keyboard-response","304","604527","0.0-3.0-0.246-0.246","<span style= ""font-size:30px; font-family: monospace"">+</span>","null","fixation","","","","",""
"","29","html-keyboard-response","305","604807","0.0-3.0-1.246","<span style=""font-size:30px; font-family: monospace"">Eu</span>"," ","","exp-sent","Eu","","",""
"","512","html-keyboard-response","306","605570","0.0-3.0-1.247","<span style=""font-size:30px; font-family: monospace"">sempre</span>"," ","","exp-sent","sempre","","",""
"","414","html-keyboard-response","307","606236","0.0-3.0-1.248","<span style=""font-size:30px; font-family: monospace"">fujo</span>"," ","","exp-sent","fujo","","",""
"","450","html-keyboard-response","308","606938","0.0-3.0-1.249","<span style=""font-size:30px; font-family: monospace"">de</span>"," ","","exp-sent","de","","",""
"","569","html-keyboard-response","309","607758","0.0-3.0-1.250","<span style=""font-size:30px; font-family: monospace"">conflito</span>"," ","","exp-sent","conflito","","",""
"","442","html-keyboard-response","310","608451","0.0-3.0-1.251","<span style=""font-size:30px; font-family: monospace"">com</span>"," ","","exp-sent","com","","",""
"","489","html-keyboard-response","311","609193","0.0-3.0-1.252","<span style=""font-size:30px; font-family: monospace"">as</span>"," ","","exp-sent","as","","",""
"","825","html-keyboard-response","312","610270","0.0-3.0-1.253","<span style=""font-size:30px; font-family: monospace"">pessoas.</span>"," ","","exp-sent","pessoas.","","",""
"","null","html-keyboard-response","313","611533","0.0-3.0-0.254-0.254","<span style= ""font-size:30px; font-family: monospace"">+</span>","null","fixation","","","","",""
"","99","html-keyboard-response","314","611885","0.0-3.0-1.254","<span style=""font-size:30px; font-family: monospace"">O</span>"," ","","exp-sent","O","","",""
"","515","html-keyboard-response","315","612652","0.0-3.0-1.255","<span style=""font-size:30px; font-family: monospace"">bolo</span>"," ","","exp-sent","bolo","","",""
"","489","html-keyboard-response","316","613392","0.0-3.0-1.256","<span style=""font-size:30px; font-family: monospace"">era</span>"," ","","exp-sent","era","","",""
"","447","html-keyboard-response","317","614090","0.0-3.0-1.257","<span style=""font-size:30px; font-family: monospace"">de</span>"," ","","exp-sent","de","","",""
"","1082","html-keyboard-response","318","615423","0.0-3.0-1.258","<span style=""font-size:30px; font-family: monospace"">abacaxi</span>"," ","","exp-sent","abacaxi","","",""
"","441","html-keyboard-response","319","616116","0.0-3.0-1.259","<span style=""font-size:30px; font-family: monospace"">e</span>"," ","","exp-sent","e","","",""
"","440","html-keyboard-response","320","616808","0.0-3.0-1.260","<span style=""font-size:30px; font-family: monospace"">creme</span>"," ","","exp-sent","creme","","",""
"","443","html-keyboard-response","321","617502","0.0-3.0-1.261","<span style=""font-size:30px; font-family: monospace"">de</span>"," ","","exp-sent","de","","",""
"","661","html-keyboard-response","322","618415","0.0-3.0-1.262","<span style=""font-size:30px; font-family: monospace"">coco.</span>"," ","","exp-sent","coco.","","",""
"","null","html-keyboard-response","323","619667","0.0-3.0-0.263-0.263","<span style= ""font-size:30px; font-family: monospace"">+</span>","null","fixation","","","","",""
"","91","html-keyboard-response","324","620010","0.0-3.0-1.263","<span style=""font-size:30px; font-family: monospace"">As</span>"," ","","exp-sent","As","","",""
"","578","html-keyboard-response","325","620839","0.0-3.0-1.264","<span style=""font-size:30px; font-family: monospace"">crianças</span>"," ","","exp-sent","crianças","","",""
"","746","html-keyboard-response","326","621835","0.0-3.0-1.265","<span style=""font-size:30px; font-family: monospace"">brincaram</span>"," ","","exp-sent","brincaram","","",""
"","431","html-keyboard-response","327","622517","0.0-3.0-1.266","<span style=""font-size:30px; font-family: monospace"">com</span>"," ","","exp-sent","com","","",""
"","472","html-keyboard-response","328","623240","0.0-3.0-1.267","<span style=""font-size:30px; font-family: monospace"">bolhas</span>"," ","","exp-sent","bolhas","","",""
"","521","html-keyboard-response","329","624012","0.0-3.0-1.268","<span style=""font-size:30px; font-family: monospace"">no</span>"," ","","exp-sent","no","","",""
"","695","html-keyboard-response","330","624959","0.0-3.0-1.269","<span style=""font-size:30px; font-family: monospace"">banho.</span>"," ","","comp","banho.","","",""
"","13420","html-keyboard-response","331","638630","0.0-3.0-2.269-0.269","<span style=""font-size:30px; font-family: monospace"">As crianças brincaram com bolhas?</span>","s","","comp","","As crianças brincaram com bolhas?","sim","false"
"","null","html-keyboard-response","332","640132","0.0-3.0-0.270-0.270","<span style= ""font-size:30px; font-family: monospace"">+</span>","null","fixation","","","","",""
"","467","html-keyboard-response","333","640851","0.0-3.0-1.270","<span style=""font-size:30px; font-family: monospace"">A</span>"," ","","exp-sent","A","","",""
"","717","html-keyboard-response","334","641820","0.0-3.0-1.271","<span style=""font-size:30px; font-family: monospace"">motorista</span>"," ","","exp-sent","motorista","","",""
"","384","html-keyboard-response","335","642455","0.0-3.0-1.272","<span style=""font-size:30px; font-family: monospace"">fez</span>"," ","","exp-sent","fez","","",""
"","550","html-keyboard-response","336","643256","0.0-3.0-1.273","<span style=""font-size:30px; font-family: monospace"">o</span>"," ","","exp-sent","o","","",""
"","649","html-keyboard-response","337","644157","0.0-3.0-1.274","<span style=""font-size:30px; font-family: monospace"">retorno</span>"," ","","exp-sent","retorno","","",""
"","433","html-keyboard-response","338","644842","0.0-3.0-1.275","<span style=""font-size:30px; font-family: monospace"">com</span>"," ","","exp-sent","com","","",""
"","4891","html-keyboard-response","339","649985","0.0-3.0-1.276","<span style=""font-size:30px; font-family: monospace"">cuidado.</span>"," ","","exp-sent","cuidado.","","",""
"","null","html-keyboard-response","340","651237","0.0-3.0-0.277-0.277","<span style= ""font-size:30px; font-family: monospace"">+</span>","null","fixation","","","","",""
"","336","html-keyboard-response","341","651824","0.0-3.0-1.277","<span style=""font-size:30px; font-family: monospace"">Contos</span>"," ","","exp-sent","Contos","","",""
"","430","html-keyboard-response","342","652505","0.0-3.0-1.278","<span style=""font-size:30px; font-family: monospace"">de</span>"," ","","exp-sent","de","","",""
"","441","html-keyboard-response","343","653197","0.0-3.0-1.279","<span style=""font-size:30px; font-family: monospace"">ação</span>"," ","","exp-sent","ação","","",""
"","324","html-keyboard-response","344","653773","0.0-3.0-1.280","<span style=""font-size:30px; font-family: monospace"">têm</span>"," ","","exp-sent","têm","","",""
"","1117","html-keyboard-response","345","655142","0.0-3.0-1.281","<span style=""font-size:30px; font-family: monospace"">chantagem</span>"," ","","exp-sent","chantagem","","",""
"","397","html-keyboard-response","346","655790","0.0-3.0-1.282","<span style=""font-size:30px; font-family: monospace"">e</span>"," ","","exp-sent","e","","",""
"","520","html-keyboard-response","347","656561","0.0-3.0-1.283","<span style=""font-size:30px; font-family: monospace"">muita</span>"," ","","exp-sent","muita","","",""
"","444","html-keyboard-response","348","657285","0.0-3.0-1.284","<span style=""font-size:30px; font-family: monospace"">luta.</span>"," ","","exp-sent","luta.","","",""
"","null","html-keyboard-response","349","658548","0.0-3.0-0.285-0.285","<span style= ""font-size:30px; font-family: monospace"">+</span>","null","fixation","","","","",""
"","568","html-keyboard-response","350","659367","0.0-3.0-1.285","<span style=""font-size:30px; font-family: monospace"">A</span>"," ","","exp-sent","A","","",""
"","454","html-keyboard-response","351","660072","0.0-3.0-1.286","<span style=""font-size:30px; font-family: monospace"">bisavó</span>"," ","","exp-sent","bisavó","","",""
"","501","html-keyboard-response","352","660825","0.0-3.0-1.287","<span style=""font-size:30px; font-family: monospace"">recebeu</span>"," ","","exp-sent","recebeu","","",""
"","382","html-keyboard-response","353","661458","0.0-3.0-1.288","<span style=""font-size:30px; font-family: monospace"">um</span>"," ","","exp-sent","um","","",""
"","721","html-keyboard-response","354","662431","0.0-3.0-1.289","<span style=""font-size:30px; font-family: monospace"">benefício</span>"," ","","exp-sent","benefício","","",""
"","507","html-keyboard-response","355","663190","0.0-3.0-1.290","<span style=""font-size:30px; font-family: monospace"">temporário</span>"," ","","exp-sent","temporário","","",""
"","440","html-keyboard-response","356","663881","0.0-3.0-1.291","<span style=""font-size:30px; font-family: monospace"">do</span>"," ","","exp-sent","do","","",""
"","563","html-keyboard-response","357","664705","0.0-3.0-1.292","<span style=""font-size:30px; font-family: monospace"">governo.</span>"," ","","exp-sent","governo.","","",""
"","null","html-keyboard-response","358","665958","0.0-3.0-0.293-0.293","<span style= ""font-size:30px; font-family: monospace"">+</span>","null","fixation","","","","",""
"","446","html-keyboard-response","359","666656","0.0-3.0-1.293","<span style=""font-size:30px; font-family: monospace"">As</span>"," ","","exp-sent","As","","",""
"","440","html-keyboard-response","360","667347","0.0-3.0-1.294","<span style=""font-size:30px; font-family: monospace"">crianças</span>"," ","","exp-sent","crianças","","",""
"","499","html-keyboard-response","361","668097","0.0-3.0-1.295","<span style=""font-size:30px; font-family: monospace"">brincaram</span>"," ","","exp-sent","brincaram","","",""
"","464","html-keyboard-response","362","668812","0.0-3.0-1.296","<span style=""font-size:30px; font-family: monospace"">no</span>"," ","","exp-sent","no","","",""
"","500","html-keyboard-response","363","669562","0.0-3.0-1.297","<span style=""font-size:30px; font-family: monospace"">balanço</span>"," ","","exp-sent","balanço","","",""
"","443","html-keyboard-response","364","670258","0.0-3.0-1.298","<span style=""font-size:30px; font-family: monospace"">a</span>"," ","","exp-sent","a","","",""
"","405","html-keyboard-response","365","670914","0.0-3.0-1.299","<span style=""font-size:30px; font-family: monospace"">tarde</span>"," ","","exp-sent","tarde","","",""
"","389","html-keyboard-response","366","671555","0.0-3.0-1.300","<span style=""font-size:30px; font-family: monospace"">toda.</span>"," ","","exp-sent","toda.","","",""
"","null","html-keyboard-response","367","672806","0.0-3.0-0.301-0.301","<span style= ""font-size:30px; font-family: monospace"">+</span>","null","fixation","","","","",""
"","484","html-keyboard-response","368","673541","0.0-3.0-1.301","<span style=""font-size:30px; font-family: monospace"">Ela</span>"," ","","exp-sent","Ela","","",""
"","443","html-keyboard-response","369","674235","0.0-3.0-1.302","<span style=""font-size:30px; font-family: monospace"">gosta</span>"," ","","exp-sent","gosta","","",""
"","396","html-keyboard-response","370","674881","0.0-3.0-1.303","<span style=""font-size:30px; font-family: monospace"">de</span>"," ","","exp-sent","de","","",""
"","406","html-keyboard-response","371","675539","0.0-3.0-1.304","<span style=""font-size:30px; font-family: monospace"">comida</span>"," ","","exp-sent","comida","","",""
"","386","html-keyboard-response","372","676176","0.0-3.0-1.305","<span style=""font-size:30px; font-family: monospace"">natural</span>"," ","","exp-sent","natural","","",""
"","440","html-keyboard-response","373","676868","0.0-3.0-1.306","<span style=""font-size:30px; font-family: monospace"">no</span>"," ","","exp-sent","no","","",""
"","688","html-keyboard-response","374","677808","0.0-3.0-1.307","<span style=""font-size:30px; font-family: monospace"">almoço.</span>"," ","","comp","almoço.","","",""
"","5848","html-keyboard-response","375","683907","0.0-3.0-2.307-0.307","<span style=""font-size:30px; font-family: monospace"">Ela gosta de comida natural no almoço?</span>","s","","comp","","Ela gosta de comida natural no almoço?","sim","false"
"","null","html-keyboard-response","376","685409","0.0-3.0-0.308-0.308","<span style= ""font-size:30px; font-family: monospace"">+</span>","null","fixation","","","","",""
"","2340","html-keyboard-response","377","688000","0.0-3.0-1.308","<span style=""font-size:30px; font-family: monospace"">Preciso</span>"," ","","exp-sent","Preciso","","",""
"","491","html-keyboard-response","378","688743","0.0-3.0-1.309","<span style=""font-size:30px; font-family: monospace"">de</span>"," ","","exp-sent","de","","",""
"","431","html-keyboard-response","379","689426","0.0-3.0-1.310","<span style=""font-size:30px; font-family: monospace"">um</span>"," ","","exp-sent","um","","",""
"","687","html-keyboard-response","380","690370","0.0-3.0-1.311","<span style=""font-size:30px; font-family: monospace"">relatório</span>"," ","","exp-sent","relatório","","",""
"","436","html-keyboard-response","381","691057","0.0-3.0-1.312","<span style=""font-size:30px; font-family: monospace"">oficial</span>"," ","","exp-sent","oficial","","",""
"","455","html-keyboard-response","382","691763","0.0-3.0-1.313","<span style=""font-size:30px; font-family: monospace"">para</span>"," ","","exp-sent","para","","",""
"","879","html-keyboard-response","383","692894","0.0-3.0-1.314","<span style=""font-size:30px; font-family: monospace"">amanhã.</span>"," ","","exp-sent","amanhã.","","",""
"","null","html-keyboard-response","384","694146","0.0-3.0-0.315-0.315","<span style= ""font-size:30px; font-family: monospace"">+</span>","null","fixation","","","","",""
"","404","html-keyboard-response","385","694802","0.0-3.0-1.315","<span style=""font-size:30px; font-family: monospace"">Ele</span>"," ","","exp-sent","Ele","","",""
"","355","html-keyboard-response","386","695408","0.0-3.0-1.316","<span style=""font-size:30px; font-family: monospace"">viu</span>"," ","","exp-sent","viu","","",""
"","391","html-keyboard-response","387","696051","0.0-3.0-1.317","<span style=""font-size:30px; font-family: monospace"">um</span>"," ","","exp-sent","um","","",""
"","397","html-keyboard-response","388","696701","0.0-3.0-1.318","<span style=""font-size:30px; font-family: monospace"">inseto</span>"," ","","exp-sent","inseto","","",""
"","438","html-keyboard-response","389","697390","0.0-3.0-1.319","<span style=""font-size:30px; font-family: monospace"">marrom</span>"," ","","exp-sent","marrom","","",""
"","464","html-keyboard-response","390","698105","0.0-3.0-1.320","<span style=""font-size:30px; font-family: monospace"">na</span>"," ","","exp-sent","na","","",""
"","499","html-keyboard-response","391","698855","0.0-3.0-1.321","<span style=""font-size:30px; font-family: monospace"">parede.</span>"," ","","exp-sent","parede.","","",""
"","null","html-keyboard-response","392","700111","0.0-3.0-0.322-0.322","<span style= ""font-size:30px; font-family: monospace"">+</span>","null","fixation","","","","",""
"","441","html-keyboard-response","393","700804","0.0-3.0-1.322","<span style=""font-size:30px; font-family: monospace"">O</span>"," ","","exp-sent","O","","",""
"","435","html-keyboard-response","394","701490","0.0-3.0-1.323","<span style=""font-size:30px; font-family: monospace"">avô</span>"," ","","exp-sent","avô","","",""
"","365","html-keyboard-response","395","702106","0.0-3.0-1.324","<span style=""font-size:30px; font-family: monospace"">fez</span>"," ","","exp-sent","fez","","",""
"","425","html-keyboard-response","396","702783","0.0-3.0-1.325","<span style=""font-size:30px; font-family: monospace"">uma</span>"," ","","exp-sent","uma","","",""
"","506","html-keyboard-response","397","703541","0.0-3.0-1.326","<span style=""font-size:30px; font-family: monospace"">lista</span>"," ","","exp-sent","lista","","",""
"","349","html-keyboard-response","398","704142","0.0-3.0-1.327","<span style=""font-size:30px; font-family: monospace"">de</span>"," ","","exp-sent","de","","",""
"","533","html-keyboard-response","399","704926","0.0-3.0-1.328","<span style=""font-size:30px; font-family: monospace"">compras</span>"," ","","exp-sent","compras","","",""
"","344","html-keyboard-response","400","705521","0.0-3.0-1.329","<span style=""font-size:30px; font-family: monospace"">do</span>"," ","","exp-sent","do","","",""
"","542","html-keyboard-response","401","706315","0.0-3.0-1.330","<span style=""font-size:30px; font-family: monospace"">mercado.</span>"," ","","exp-sent","mercado.","","",""
"","null","html-keyboard-response","402","707567","0.0-3.0-0.331-0.331","<span style= ""font-size:30px; font-family: monospace"">+</span>","null","fixation","","","","",""
"","310","html-keyboard-response","403","708128","0.0-3.0-1.331","<span style=""font-size:30px; font-family: monospace"">As</span>"," ","","exp-sent","As","","",""
"","433","html-keyboard-response","404","708813","0.0-3.0-1.332","<span style=""font-size:30px; font-family: monospace"">pessoas</span>"," ","","exp-sent","pessoas","","",""
"","454","html-keyboard-response","405","709519","0.0-3.0-1.333","<span style=""font-size:30px; font-family: monospace"">não</span>"," ","","exp-sent","não","","",""
"","483","html-keyboard-response","406","710253","0.0-3.0-1.334","<span style=""font-size:30px; font-family: monospace"">enviam</span>"," ","","exp-sent","enviam","","",""
"","455","html-keyboard-response","407","710960","0.0-3.0-1.335","<span style=""font-size:30px; font-family: monospace"">telegrama</span>"," ","","exp-sent","telegrama","","",""
"","462","html-keyboard-response","408","711674","0.0-3.0-1.336","<span style=""font-size:30px; font-family: monospace"">nos</span>"," ","","exp-sent","nos","","",""
"","410","html-keyboard-response","409","712335","0.0-3.0-1.337","<span style=""font-size:30px; font-family: monospace"">dias</span>"," ","","exp-sent","dias","","",""
"","391","html-keyboard-response","410","712978","0.0-3.0-1.338","<span style=""font-size:30px; font-family: monospace"">de</span>"," ","","exp-sent","de","","",""
"","410","html-keyboard-response","411","713638","0.0-3.0-1.339","<span style=""font-size:30px; font-family: monospace"">hoje.</span>"," ","","exp-sent","hoje.","","",""
"","null","html-keyboard-response","412","714890","0.0-3.0-0.340-0.340","<span style= ""font-size:30px; font-family: monospace"">+</span>","null","fixation","","","","",""
"","253","html-keyboard-response","413","715394","0.0-3.0-1.340","<span style=""font-size:30px; font-family: monospace"">Ele</span>"," ","","exp-sent","Ele","","",""
"","292","html-keyboard-response","414","715938","0.0-3.0-1.341","<span style=""font-size:30px; font-family: monospace"">não</span>"," ","","exp-sent","não","","",""
"","353","html-keyboard-response","415","716542","0.0-3.0-1.342","<span style=""font-size:30px; font-family: monospace"">gosta</span>"," ","","exp-sent","gosta","","",""
"","358","html-keyboard-response","416","717151","0.0-3.0-1.343","<span style=""font-size:30px; font-family: monospace"">de</span>"," ","","exp-sent","de","","",""
"","373","html-keyboard-response","417","717775","0.0-3.0-1.344","<span style=""font-size:30px; font-family: monospace"">tomate</span>"," ","","exp-sent","tomate","","",""
"","373","html-keyboard-response","418","718401","0.0-3.0-1.345","<span style=""font-size:30px; font-family: monospace"">misturado</span>"," ","","exp-sent","misturado","","",""
"","478","html-keyboard-response","419","719130","0.0-3.0-1.346","<span style=""font-size:30px; font-family: monospace"">na</span>"," ","","exp-sent","na","","",""
"","361","html-keyboard-response","420","719742","0.0-3.0-1.347","<span style=""font-size:30px; font-family: monospace"">comida.</span>"," ","","comp","comida.","","",""
"","5979","html-keyboard-response","421","725974","0.0-3.0-2.347-0.347","<span style=""font-size:30px; font-family: monospace"">Ele gosta de tomate na comida?</span>","n","","comp","","Ele gosta de tomate na comida?","não","false"
"","null","html-keyboard-response","422","727476","0.0-3.0-0.348-0.348","<span style= ""font-size:30px; font-family: monospace"">+</span>","null","fixation","","","","",""
"","715","html-keyboard-response","423","728444","0.0-3.0-1.348","<span style=""font-size:30px; font-family: monospace"">Eu</span>"," ","","exp-sent","Eu","","",""
"","831","html-keyboard-response","424","729526","0.0-3.0-1.349","<span style=""font-size:30px; font-family: monospace"">gosto</span>"," ","","exp-sent","gosto","","",""
"","493","html-keyboard-response","425","730271","0.0-3.0-1.350","<span style=""font-size:30px; font-family: monospace"">de</span>"," ","","exp-sent","de","","",""
"","460","html-keyboard-response","426","730982","0.0-3.0-1.351","<span style=""font-size:30px; font-family: monospace"">molho</span>"," ","","exp-sent","molho","","",""
"","866","html-keyboard-response","427","732099","0.0-3.0-1.352","<span style=""font-size:30px; font-family: monospace"">picante</span>"," ","","exp-sent","picante","","",""
"","395","html-keyboard-response","428","732745","0.0-3.0-1.353","<span style=""font-size:30px; font-family: monospace"">nas</span>"," ","","exp-sent","nas","","",""
"","728","html-keyboard-response","429","733725","0.0-3.0-1.354","<span style=""font-size:30px; font-family: monospace"">batatas.</span>"," ","","exp-sent","batatas.","","",""
"","null","html-keyboard-response","430","734994","0.0-3.0-0.355-0.355","<span style= ""font-size:30px; font-family: monospace"">+</span>","null","fixation","","","","",""
"","473","html-keyboard-response","431","735718","0.0-3.0-1.355","<span style=""font-size:30px; font-family: monospace"">As</span>"," ","","exp-sent","As","","",""
"","535","html-keyboard-response","432","736504","0.0-3.0-1.356","<span style=""font-size:30px; font-family: monospace"">pessoas</span>"," ","","exp-sent","pessoas","","",""
"","1262","html-keyboard-response","433","738017","0.0-3.0-1.357","<span style=""font-size:30px; font-family: monospace"">têm</span>"," ","","exp-sent","têm","","",""
"","438","html-keyboard-response","434","738706","0.0-3.0-1.358","<span style=""font-size:30px; font-family: monospace"">sua</span>"," ","","exp-sent","sua","","",""
"","669","html-keyboard-response","435","739626","0.0-3.0-1.359","<span style=""font-size:30px; font-family: monospace"">liberdade</span>"," ","","exp-sent","liberdade","","",""
"","473","html-keyboard-response","436","740350","0.0-3.0-1.360","<span style=""font-size:30px; font-family: monospace"">até</span>"," ","","exp-sent","até","","",""
"","684","html-keyboard-response","437","741285","0.0-3.0-1.361","<span style=""font-size:30px; font-family: monospace"">certo</span>"," ","","exp-sent","certo","","",""
"","621","html-keyboard-response","438","742168","0.0-3.0-1.362","<span style=""font-size:30px; font-family: monospace"">ponto.</span>"," ","","exp-sent","ponto.","","",""
"","null","html-keyboard-response","439","743421","0.0-3.0-0.363-0.363","<span style= ""font-size:30px; font-family: monospace"">+</span>","null","fixation","","","","",""
"","464","html-keyboard-response","440","744136","0.0-3.0-1.363","<span style=""font-size:30px; font-family: monospace"">A</span>"," ","","exp-sent","A","","",""
"","345","html-keyboard-response","441","744733","0.0-3.0-1.364","<span style=""font-size:30px; font-family: monospace"">empresa</span>"," ","","exp-sent","empresa","","",""
"","361","html-keyboard-response","442","745345","0.0-3.0-1.365","<span style=""font-size:30px; font-family: monospace"">enviou</span>"," ","","exp-sent","enviou","","",""
"","323","html-keyboard-response","443","745920","0.0-3.0-1.366","<span style=""font-size:30px; font-family: monospace"">o</span>"," ","","exp-sent","o","","",""
"","471","html-keyboard-response","444","746642","0.0-3.0-1.367","<span style=""font-size:30px; font-family: monospace"">aviso</span>"," ","","exp-sent","aviso","","",""
"","363","html-keyboard-response","445","747257","0.0-3.0-1.368","<span style=""font-size:30px; font-family: monospace"">hoje</span>"," ","","exp-sent","hoje","","",""
"","406","html-keyboard-response","446","747915","0.0-3.0-1.369","<span style=""font-size:30px; font-family: monospace"">de</span>"," ","","exp-sent","de","","",""
"","424","html-keyboard-response","447","748591","0.0-3.0-1.370","<span style=""font-size:30px; font-family: monospace"">tarde.</span>"," ","","exp-sent","tarde.","","",""
"","null","html-keyboard-response","448","749843","0.0-3.0-0.371-0.371","<span style= ""font-size:30px; font-family: monospace"">+</span>","null","fixation","","","","",""
"","500","html-keyboard-response","449","750596","0.0-3.0-1.371","<span style=""font-size:30px; font-family: monospace"">A</span>"," ","","exp-sent","A","","",""
"","1567","html-keyboard-response","450","752414","0.0-3.0-1.372","<span style=""font-size:30px; font-family: monospace"">loja</span>"," ","","exp-sent","loja","","",""
"","364","html-keyboard-response","451","753029","0.0-3.0-1.373","<span style=""font-size:30px; font-family: monospace"">vende</span>"," ","","exp-sent","vende","","",""
"","492","html-keyboard-response","452","753772","0.0-3.0-1.374","<span style=""font-size:30px; font-family: monospace"">tanto</span>"," ","","exp-sent","tanto","","",""
"","361","html-keyboard-response","453","754384","0.0-3.0-1.375","<span style=""font-size:30px; font-family: monospace"">frituras</span>"," ","","exp-sent","frituras","","",""
"","564","html-keyboard-response","454","755200","0.0-3.0-1.376","<span style=""font-size:30px; font-family: monospace"">quanto</span>"," ","","exp-sent","quanto","","",""
"","465","html-keyboard-response","455","755916","0.0-3.0-1.377","<span style=""font-size:30px; font-family: monospace"">comidas</span>"," ","","exp-sent","comidas","","",""
"","1745","html-keyboard-response","456","757912","0.0-3.0-1.378","<span style=""font-size:30px; font-family: monospace"">leves.</span>"," ","","exp-sent","leves.","","",""
"","null","html-keyboard-response","457","759164","0.0-3.0-0.379-0.379","<span style= ""font-size:30px; font-family: monospace"">+</span>","null","fixation","","","","",""
"","369","html-keyboard-response","458","759785","0.0-3.0-1.379","<span style=""font-size:30px; font-family: monospace"">As</span>"," ","","exp-sent","As","","",""
"","472","html-keyboard-response","459","760508","0.0-3.0-1.380","<span style=""font-size:30px; font-family: monospace"">cadeiras</span>"," ","","exp-sent","cadeiras","","",""
"","395","html-keyboard-response","460","761154","0.0-3.0-1.381","<span style=""font-size:30px; font-family: monospace"">azuis</span>"," ","","exp-sent","azuis","","",""
"","682","html-keyboard-response","461","762087","0.0-3.0-1.382","<span style=""font-size:30px; font-family: monospace"">da</span>"," ","","exp-sent","da","","",""
"","524","html-keyboard-response","462","762863","0.0-3.0-1.383","<span style=""font-size:30px; font-family: monospace"">sala</span>"," ","","exp-sent","sala","","",""
"","591","html-keyboard-response","463","763705","0.0-3.0-1.384","<span style=""font-size:30px; font-family: monospace"">eram</span>"," ","","exp-sent","eram","","",""
"","471","html-keyboard-response","464","764427","0.0-3.0-1.385","<span style=""font-size:30px; font-family: monospace"">da</span>"," ","","exp-sent","da","","",""
"","520","html-keyboard-response","465","765197","0.0-3.0-1.386","<span style=""font-size:30px; font-family: monospace"">minha</span>"," ","","exp-sent","minha","","",""
"","561","html-keyboard-response","466","766010","0.0-3.0-1.387","<span style=""font-size:30px; font-family: monospace"">vó.</span>"," ","","comp","vó.","","",""
"","4375","html-keyboard-response","467","770637","0.0-3.0-2.387-0.387","<span style=""font-size:30px; font-family: monospace"">As cadeiras eram da avó?</span>","s","","comp","","As cadeiras eram da avó?","sim","false"
"","null","html-keyboard-response","468","772139","0.0-3.0-0.388-0.388","<span style= ""font-size:30px; font-family: monospace"">+</span>","null","fixation","","","","",""
"","1708","html-keyboard-response","469","774097","0.0-3.0-1.388","<span style=""font-size:30px; font-family: monospace"">Este</span>"," ","","exp-sent","Este","","",""
"","1174","html-keyboard-response","470","775522","0.0-3.0-1.389","<span style=""font-size:30px; font-family: monospace"">conto</span>"," ","","exp-sent","conto","","",""
"","408","html-keyboard-response","471","776184","0.0-3.0-1.390","<span style=""font-size:30px; font-family: monospace"">tem</span>"," ","","exp-sent","tem","","",""
"","549","html-keyboard-response","472","776984","0.0-3.0-1.391","<span style=""font-size:30px; font-family: monospace"">um</span>"," ","","exp-sent","um","","",""
"","581","html-keyboard-response","473","777818","0.0-3.0-1.392","<span style=""font-size:30px; font-family: monospace"">final</span>"," ","","exp-sent","final","","",""
"","381","html-keyboard-response","474","778450","0.0-3.0-1.393","<span style=""font-size:30px; font-family: monospace"">perfeito.</span>"," ","","exp-sent","perfeito.","","",""
"","null","html-keyboard-response","475","779701","0.0-3.0-0.394-0.394","<span style= ""font-size:30px; font-family: monospace"">+</span>","null","fixation","","","","",""
"","389","html-keyboard-response","476","780341","0.0-3.0-1.394","<span style=""font-size:30px; font-family: monospace"">Ele</span>"," ","","exp-sent","Ele","","",""
"","399","html-keyboard-response","477","780991","0.0-3.0-1.395","<span style=""font-size:30px; font-family: monospace"">precisa</span>"," ","","exp-sent","precisa","","",""
"","333","html-keyboard-response","478","781576","0.0-3.0-1.396","<span style=""font-size:30px; font-family: monospace"">de</span>"," ","","exp-sent","de","","",""
"","327","html-keyboard-response","479","782156","0.0-3.0-1.397","<span style=""font-size:30px; font-family: monospace"">um</span>"," ","","exp-sent","um","","",""
"","584","html-keyboard-response","480","782991","0.0-3.0-1.398","<span style=""font-size:30px; font-family: monospace"">protetor</span>"," ","","exp-sent","protetor","","",""
"","341","html-keyboard-response","481","783583","0.0-3.0-1.399","<span style=""font-size:30px; font-family: monospace"">de</span>"," ","","exp-sent","de","","",""
"","453","html-keyboard-response","482","784288","0.0-3.0-1.400","<span style=""font-size:30px; font-family: monospace"">ouvido.</span>"," ","","exp-sent","ouvido.","","",""
"","null","html-keyboard-response","483","785540","0.0-3.0-0.401-0.401","<span style= ""font-size:30px; font-family: monospace"">+</span>","null","fixation","","","","",""
"","346","html-keyboard-response","484","786139","0.0-3.0-1.401","<span style=""font-size:30px; font-family: monospace"">Os</span>"," ","","exp-sent","Os","","",""
"","405","html-keyboard-response","485","786796","0.0-3.0-1.402","<span style=""font-size:30px; font-family: monospace"">hábitos</span>"," ","","exp-sent","hábitos","","",""
"","325","html-keyboard-response","486","787373","0.0-3.0-1.403","<span style=""font-size:30px; font-family: monospace"">de</span>"," ","","exp-sent","de","","",""
"","590","html-keyboard-response","487","788214","0.0-3.0-1.404","<span style=""font-size:30px; font-family: monospace"">lugares</span>"," ","","exp-sent","lugares","","",""
"","337","html-keyboard-response","488","788802","0.0-3.0-1.405","<span style=""font-size:30px; font-family: monospace"">diferentes</span>"," ","","exp-sent","diferentes","","",""
"","422","html-keyboard-response","489","789475","0.0-3.0-1.406","<span style=""font-size:30px; font-family: monospace"">são</span>"," ","","exp-sent","são","","",""
"","379","html-keyboard-response","490","790106","0.0-3.0-1.407","<span style=""font-size:30px; font-family: monospace"">muito</span>"," ","","exp-sent","muito","","",""
"","353","html-keyboard-response","491","790711","0.0-3.0-1.408","<span style=""font-size:30px; font-family: monospace"">lindos.</span>"," ","","exp-sent","lindos.","","",""
"","null","html-keyboard-response","492","791962","0.0-3.0-0.409-0.409","<span style= ""font-size:30px; font-family: monospace"">+</span>","null","fixation","","","","",""
"","388","html-keyboard-response","493","792602","0.0-3.0-1.409","<span style=""font-size:30px; font-family: monospace"">O</span>"," ","","exp-sent","O","","",""
"","357","html-keyboard-response","494","793210","0.0-3.0-1.410","<span style=""font-size:30px; font-family: monospace"">médico</span>"," ","","exp-sent","médico","","",""
"","405","html-keyboard-response","495","793866","0.0-3.0-1.411","<span style=""font-size:30px; font-family: monospace"">corrigiu</span>"," ","","exp-sent","corrigiu","","",""
"","7013","html-keyboard-response","496","801130","0.0-3.0-1.412","<span style=""font-size:30px; font-family: monospace"">a</span>"," ","","exp-sent","a","","",""
"","413","html-keyboard-response","497","801794","0.0-3.0-1.413","<span style=""font-size:30px; font-family: monospace"">postura</span>"," ","","exp-sent","postura","","",""
"","320","html-keyboard-response","498","802365","0.0-3.0-1.414","<span style=""font-size:30px; font-family: monospace"">das</span>"," ","","exp-sent","das","","",""
"","316","html-keyboard-response","499","802933","0.0-3.0-1.415","<span style=""font-size:30px; font-family: monospace"">costas</span>"," ","","exp-sent","costas","","",""
"","322","html-keyboard-response","500","803507","0.0-3.0-1.416","<span style=""font-size:30px; font-family: monospace"">da</span>"," ","","exp-sent","da","","",""
"","593","html-keyboard-response","501","804351","0.0-3.0-1.417","<span style=""font-size:30px; font-family: monospace"">pessoa.</span>"," ","","exp-sent","pessoa.","","",""
"","null","html-keyboard-response","502","805605","0.0-3.0-0.418-0.418","<span style= ""font-size:30px; font-family: monospace"">+</span>","null","fixation","","","","",""
"","264","html-keyboard-response","503","806120","0.0-3.0-1.418","<span style=""font-size:30px; font-family: monospace"">Aquele</span>"," ","","exp-sent","Aquele","","",""
"","358","html-keyboard-response","504","806730","0.0-3.0-1.419","<span style=""font-size:30px; font-family: monospace"">era</span>"," ","","exp-sent","era","","",""
"","371","html-keyboard-response","505","807352","0.0-3.0-1.420","<span style=""font-size:30px; font-family: monospace"">um</span>"," ","","exp-sent","um","","",""
"","375","html-keyboard-response","506","807978","0.0-3.0-1.421","<span style=""font-size:30px; font-family: monospace"">caso</span>"," ","","exp-sent","caso","","",""
"","409","html-keyboard-response","507","808638","0.0-3.0-1.422","<span style=""font-size:30px; font-family: monospace"">real</span>"," ","","exp-sent","real","","",""
"","389","html-keyboard-response","508","809278","0.0-3.0-1.423","<span style=""font-size:30px; font-family: monospace"">de</span>"," ","","exp-sent","de","","",""
"","966","html-keyboard-response","509","810496","0.0-3.0-1.424","<span style=""font-size:30px; font-family: monospace"">sequestro</span>"," ","","exp-sent","sequestro","","",""
"","1244","html-keyboard-response","510","811991","0.0-3.0-1.425","<span style=""font-size:30px; font-family: monospace"">premeditado.</span>"," ","","comp","premeditado.","","",""
"","3855","html-keyboard-response","511","816099","0.0-3.0-2.425-0.425","<span style=""font-size:30px; font-family: monospace"">Aquele era um caso real de roubo?</span>","n","","comp","","Aquele era um caso real de roubo?","não","false"
"","null","html-keyboard-response","512","817601","0.0-3.0-0.426-0.426","<span style= ""font-size:30px; font-family: monospace"">+</span>","null","fixation","","","","",""
"","10307","html-keyboard-response","513","828160","0.0-3.0-1.426","<span style=""font-size:30px; font-family: monospace"">Ursos</span>"," ","","exp-sent","Ursos","","",""
"","1519","html-keyboard-response","514","829930","0.0-3.0-1.427","<span style=""font-size:30px; font-family: monospace"">têm</span>"," ","","exp-sent","têm","","",""
"","460","html-keyboard-response","515","830642","0.0-3.0-1.428","<span style=""font-size:30px; font-family: monospace"">uma</span>"," ","","exp-sent","uma","","",""
"","593","html-keyboard-response","516","831486","0.0-3.0-1.429","<span style=""font-size:30px; font-family: monospace"">patada</span>"," ","","exp-sent","patada","","",""
"","1185","html-keyboard-response","517","832923","0.0-3.0-1.430","<span style=""font-size:30px; font-family: monospace"">brutal</span>"," ","","exp-sent","brutal","","",""
"","1241","html-keyboard-response","518","834416","0.0-3.0-1.431","<span style=""font-size:30px; font-family: monospace"">e</span>"," ","","exp-sent","e","","",""
"","1431","html-keyboard-response","519","836099","0.0-3.0-1.432","<span style=""font-size:30px; font-family: monospace"">poderosa.</span>"," ","","exp-sent","poderosa.","","",""
"","null","html-keyboard-response","520","837351","0.0-3.0-0.433-0.433","<span style= ""font-size:30px; font-family: monospace"">+</span>","null","fixation","","","","",""
"","628","html-keyboard-response","521","838230","0.0-3.0-1.433","<span style=""font-size:30px; font-family: monospace"">Eu</span>"," ","","exp-sent","Eu","","",""
"","494","html-keyboard-response","522","838976","0.0-3.0-1.434","<span style=""font-size:30px; font-family: monospace"">fiz</span>"," ","","exp-sent","fiz","","",""
"","515","html-keyboard-response","523","839743","0.0-3.0-1.435","<span style=""font-size:30px; font-family: monospace"">aulas</span>"," ","","exp-sent","aulas","","",""
"","467","html-keyboard-response","524","840461","0.0-3.0-1.436","<span style=""font-size:30px; font-family: monospace"">de</span>"," ","","exp-sent","de","","",""
"","636","html-keyboard-response","525","841348","0.0-3.0-1.437","<span style=""font-size:30px; font-family: monospace"">espanhol</span>"," ","","exp-sent","espanhol","","",""
"","422","html-keyboard-response","526","842020","0.0-3.0-1.438","<span style=""font-size:30px; font-family: monospace"">nesta</span>"," ","","exp-sent","nesta","","",""
"","540","html-keyboard-response","527","842811","0.0-3.0-1.439","<span style=""font-size:30px; font-family: monospace"">cidade.</span>"," ","","exp-sent","cidade.","","",""
"","null","html-keyboard-response","528","844063","0.0-3.0-0.440-0.440","<span style= ""font-size:30px; font-family: monospace"">+</span>","null","fixation","","","","",""
"","400","html-keyboard-response","529","844714","0.0-3.0-1.440","<span style=""font-size:30px; font-family: monospace"">Ele</span>"," ","","exp-sent","Ele","","",""
"","553","html-keyboard-response","530","845519","0.0-3.0-1.441","<span style=""font-size:30px; font-family: monospace"">comprou</span>"," ","","exp-sent","comprou","","",""
"","515","html-keyboard-response","531","846285","0.0-3.0-1.442","<span style=""font-size:30px; font-family: monospace"">mais</span>"," ","","exp-sent","mais","","",""
"","387","html-keyboard-response","532","846923","0.0-3.0-1.443","<span style=""font-size:30px; font-family: monospace"">uma</span>"," ","","exp-sent","uma","","",""
"","728","html-keyboard-response","533","847902","0.0-3.0-1.444","<span style=""font-size:30px; font-family: monospace"">esponja</span>"," ","","exp-sent","esponja","","",""
"","451","html-keyboard-response","534","848603","0.0-3.0-1.445","<span style=""font-size:30px; font-family: monospace"">para</span>"," ","","exp-sent","para","","",""
"","617","html-keyboard-response","535","849473","0.0-3.0-1.446","<span style=""font-size:30px; font-family: monospace"">a</span>"," ","","exp-sent","a","","",""
"","953","html-keyboard-response","536","850678","0.0-3.0-1.447","<span style=""font-size:30px; font-family: monospace"">cozinha.</span>"," ","","exp-sent","cozinha.","","",""
"","null","html-keyboard-response","537","851932","0.0-3.0-0.448-0.448","<span style= ""font-size:30px; font-family: monospace"">+</span>","null","fixation","","","","",""
"","419","html-keyboard-response","538","852604","0.0-3.0-1.448","<span style=""font-size:30px; font-family: monospace"">Ele</span>"," ","","exp-sent","Ele","","",""
"","1009","html-keyboard-response","539","853865","0.0-3.0-1.449","<span style=""font-size:30px; font-family: monospace"">teve</span>"," ","","exp-sent","teve","","",""
"","533","html-keyboard-response","540","854649","0.0-3.0-1.450","<span style=""font-size:30px; font-family: monospace"">um</span>"," ","","exp-sent","um","","",""
"","606","html-keyboard-response","541","855507","0.0-3.0-1.451","<span style=""font-size:30px; font-family: monospace"">sono</span>"," ","","exp-sent","sono","","",""
"","872","html-keyboard-response","542","856630","0.0-3.0-1.452","<span style=""font-size:30px; font-family: monospace"">bizarro</span>"," ","","exp-sent","bizarro","","",""
"","548","html-keyboard-response","543","857430","0.0-3.0-1.453","<span style=""font-size:30px; font-family: monospace"">sem</span>"," ","","exp-sent","sem","","",""
"","515","html-keyboard-response","544","858197","0.0-3.0-1.454","<span style=""font-size:30px; font-family: monospace"">nenhum</span>"," ","","exp-sent","nenhum","","",""
"","523","html-keyboard-response","545","858971","0.0-3.0-1.455","<span style=""font-size:30px; font-family: monospace"">motivo.</span>"," ","","exp-sent","motivo.","","",""
"","null","html-keyboard-response","546","860228","0.0-3.0-0.456-0.456","<span style= ""font-size:30px; font-family: monospace"">+</span>","null","fixation","","","","",""
"","7","html-keyboard-response","547","860487","0.0-3.0-1.456","<span style=""font-size:30px; font-family: monospace"">A</span>"," ","","exp-sent","A","","",""
"","547","html-keyboard-response","548","861285","0.0-3.0-1.457","<span style=""font-size:30px; font-family: monospace"">moça</span>"," ","","exp-sent","moça","","",""
"","466","html-keyboard-response","549","862002","0.0-3.0-1.458","<span style=""font-size:30px; font-family: monospace"">comprou</span>"," ","","exp-sent","comprou","","",""
"","525","html-keyboard-response","550","862779","0.0-3.0-1.459","<span style=""font-size:30px; font-family: monospace"">um</span>"," ","","exp-sent","um","","",""
"","700","html-keyboard-response","551","863729","0.0-3.0-1.460","<span style=""font-size:30px; font-family: monospace"">diamante</span>"," ","","exp-sent","diamante","","",""
"","479","html-keyboard-response","552","864461","0.0-3.0-1.461","<span style=""font-size:30px; font-family: monospace"">para</span>"," ","","exp-sent","para","","",""
"","482","html-keyboard-response","553","865195","0.0-3.0-1.462","<span style=""font-size:30px; font-family: monospace"">sua</span>"," ","","exp-sent","sua","","",""
"","536","html-keyboard-response","554","865983","0.0-3.0-1.463","<span style=""font-size:30px; font-family: monospace"">prima.</span>"," ","","comp","prima.","","",""
"","6350","html-keyboard-response","555","872585","0.0-3.0-2.463-0.463","<span style=""font-size:30px; font-family: monospace"">A moça comprou um diamante?</span>","s","","comp","","A moça comprou um diamante?","sim","false"
"","null","html-keyboard-response","556","874086","0.0-3.0-0.464-0.464","<span style= ""font-size:30px; font-family: monospace"">+</span>","null","fixation","","","","",""
"","983","html-keyboard-response","557","875322","0.0-3.0-1.464","<span style=""font-size:30px; font-family: monospace"">O</span>"," ","","exp-sent","O","","",""
"","1210","html-keyboard-response","558","876785","0.0-3.0-1.465","<span style=""font-size:30px; font-family: monospace"">moço</span>"," ","","exp-sent","moço","","",""
"","935","html-keyboard-response","559","877970","0.0-3.0-1.466","<span style=""font-size:30px; font-family: monospace"">usou</span>"," ","","exp-sent","usou","","",""
"","930","html-keyboard-response","560","879152","0.0-3.0-1.467","<span style=""font-size:30px; font-family: monospace"">várias</span>"," ","","exp-sent","várias","","",""
"","489","html-keyboard-response","561","879894","0.0-3.0-1.468","<span style=""font-size:30px; font-family: monospace"">velas</span>"," ","","exp-sent","velas","","",""
"","473","html-keyboard-response","562","880618","0.0-3.0-1.469","<span style=""font-size:30px; font-family: monospace"">no</span>"," ","","exp-sent","no","","",""
"","677","html-keyboard-response","563","881548","0.0-3.0-1.470","<span style=""font-size:30px; font-family: monospace"">enfeite</span>"," ","","exp-sent","enfeite","","",""
"","365","html-keyboard-response","564","882165","0.0-3.0-1.471","<span style=""font-size:30px; font-family: monospace"">de</span>"," ","","exp-sent","de","","",""
"","489","html-keyboard-response","565","882906","0.0-3.0-1.472","<span style=""font-size:30px; font-family: monospace"">mesa.</span>"," ","","exp-sent","mesa.","","",""
"","null","html-keyboard-response","566","884157","0.0-3.0-0.473-0.473","<span style= ""font-size:30px; font-family: monospace"">+</span>","null","fixation","","","","",""
"","676","html-keyboard-response","567","885086","0.0-3.0-1.473","<span style=""font-size:30px; font-family: monospace"">Gostamos</span>"," ","","exp-sent","Gostamos","","",""
"","499","html-keyboard-response","568","885837","0.0-3.0-1.474","<span style=""font-size:30px; font-family: monospace"">de</span>"," ","","exp-sent","de","","",""
"","487","html-keyboard-response","569","886575","0.0-3.0-1.475","<span style=""font-size:30px; font-family: monospace"">suco</span>"," ","","exp-sent","suco","","",""
"","469","html-keyboard-response","570","887296","0.0-3.0-1.476","<span style=""font-size:30px; font-family: monospace"">em</span>"," ","","exp-sent","em","","",""
"","649","html-keyboard-response","571","888196","0.0-3.0-1.477","<span style=""font-size:30px; font-family: monospace"">garrafa</span>"," ","","exp-sent","garrafa","","",""
"","564","html-keyboard-response","572","889011","0.0-3.0-1.478","<span style=""font-size:30px; font-family: monospace"">de</span>"," ","","exp-sent","de","","",""
"","653","html-keyboard-response","573","889917","0.0-3.0-1.479","<span style=""font-size:30px; font-family: monospace"">tamanho</span>"," ","","exp-sent","tamanho","","",""
"","1754","html-keyboard-response","574","891923","0.0-3.0-1.480","<span style=""font-size:30px; font-family: monospace"">pequeno.</span>"," ","","exp-sent","pequeno.","","",""
"","null","html-keyboard-response","575","893175","0.0-3.0-0.481-0.481","<span style= ""font-size:30px; font-family: monospace"">+</span>","null","fixation","","","","",""
"","641","html-keyboard-response","576","894067","0.0-3.0-1.481","<span style=""font-size:30px; font-family: monospace"">Sua</span>"," ","","exp-sent","Sua","","",""
"","625","html-keyboard-response","577","894944","0.0-3.0-1.482","<span style=""font-size:30px; font-family: monospace"">filha</span>"," ","","exp-sent","filha","","",""
"","600","html-keyboard-response","578","895796","0.0-3.0-1.483","<span style=""font-size:30px; font-family: monospace"">é</span>"," ","","exp-sent","é","","",""
"","668","html-keyboard-response","579","896715","0.0-3.0-1.484","<span style=""font-size:30px; font-family: monospace"">muito</span>"," ","","exp-sent","muito","","",""
"","547","html-keyboard-response","580","897514","0.0-3.0-1.485","<span style=""font-size:30px; font-family: monospace"">capaz</span>"," ","","exp-sent","capaz","","",""
"","623","html-keyboard-response","581","898387","0.0-3.0-1.486","<span style=""font-size:30px; font-family: monospace"">e</span>"," ","","exp-sent","e","","",""
"","557","html-keyboard-response","582","899195","0.0-3.0-1.487","<span style=""font-size:30px; font-family: monospace"">esforçada.</span>"," ","","exp-sent","esforçada.","","",""
"","null","html-keyboard-response","583","900447","0.0-3.0-0.488-0.488","<span style= ""font-size:30px; font-family: monospace"">+</span>","null","fixation","","","","",""
"","393","html-keyboard-response","584","901091","0.0-3.0-1.488","<span style=""font-size:30px; font-family: monospace"">A</span>"," ","","exp-sent","A","","",""
