"view_history","rt","trial_type","trial_index","time_elapsed","internal_node_id","stimulus","response","class","status","answer","correct","trial","letters"
"[{""page_index"":0,""viewing_time"":78594}]","78595","instructions","0","78599","0.0-0.0","","","","","","","",""
"","null","html-keyboard-response","1","79204","0.0-1.0-0.0","+","null","","","","","",""
"","10614","html-keyboard-response","2","89820","0.0-1.0-1.0","órgão","s","null","noncog","word","S","prac","null"
"","null","html-keyboard-response","3","90323","0.0-1.0-0.1","+","null","","","","","",""
"","3512","html-keyboard-response","4","93836","0.0-1.0-1.1","crante","n","null","noncog","pseudo","N","prac","null"
"","null","html-keyboard-response","5","94338","0.0-1.0-0.2","+","null","","","","","",""
"","2593","html-keyboard-response","6","96933","0.0-1.0-1.2","oliva","s","null","cog","word","S","prac","null"
"","null","html-keyboard-response","7","97434","0.0-1.0-0.3","+","null","","","","","",""
"","2338","html-keyboard-response","8","99773","0.0-1.0-1.3","plibar","n","null","noncog","pseudo","N","prac","null"
"","null","html-keyboard-response","9","100274","0.0-1.0-0.4","+","null","","","","","",""
"","4330","html-keyboard-response","10","104605","0.0-1.0-1.4","calmaria","s","null","noncog","word","S","prac","null"
"","null","html-keyboard-response","11","105116","0.0-1.0-0.5","+","null","","","","","",""
"","2102","html-keyboard-response","12","107219","0.0-1.0-1.5","daja","n","null","noncog","pseudo","N","prac","null"
"","null","html-keyboard-response","13","107721","0.0-1.0-0.6","+","null","","","","","",""
"","1967","html-keyboard-response","14","109688","0.0-1.0-1.6","chassi","s","null","cog","word","S","prac","null"
"[{""page_index"":0,""viewing_time"":9868}]","9869","instructions","15","119557","0.0-2.0","","","","","","","",""
"","null","html-keyboard-response","16","120159","0.0-3.0-0.0","+","null","","","","","",""
"","2842","html-keyboard-response","17","123002","0.0-3.0-1.0","ideisa","n","null","noncog","pseudo","N","exp","null"
"","null","html-keyboard-response","18","123503","0.0-3.0-0.1","+","null","","","","","",""
"","3606","html-keyboard-response","19","127110","0.0-3.0-1.1","verceja","n","null","noncog","pseudo","N","exp","null"
"","null","html-keyboard-response","20","127627","0.0-3.0-0.2","+","null","","","","","",""
"","3064","html-keyboard-response","21","130692","0.0-3.0-1.2","suipestar","n","null","noncog","pseudo","N","exp","null"
"","null","html-keyboard-response","22","131193","0.0-3.0-0.3","+","null","","","","","",""
"","1259","html-keyboard-response","23","132453","0.0-3.0-1.3","gordo","s","a","noncog","word","S","exp","5"
"","null","html-keyboard-response","24","132953","0.0-3.0-0.4","+","null","","","","","",""
"","1378","html-keyboard-response","25","134332","0.0-3.0-1.4","traduzir","s","v","cog","word","S","exp","8"
"","null","html-keyboard-response","26","134833","0.0-3.0-0.5","+","null","","","","","",""
"","851","html-keyboard-response","27","135685","0.0-3.0-1.5","filme","s","n","cog","word","S","exp","5"
"","null","html-keyboard-response","28","136186","0.0-3.0-0.6","+","null","","","","","",""
"","1976","html-keyboard-response","29","138163","0.0-3.0-1.6","morno","s","a","noncog","word","S","exp","5"
"","null","html-keyboard-response","30","138665","0.0-3.0-0.7","+","null","","","","","",""
"","2027","html-keyboard-response","31","140692","0.0-3.0-1.7","sanque","n","null","noncog","pseudo","N","exp","null"
"","null","html-keyboard-response","32","141193","0.0-3.0-0.8","+","null","","","","","",""
"","3000","html-keyboard-response","33","144194","0.0-3.0-1.8","encelhor","n","null","noncog","pseudo","N","exp","null"
"","null","html-keyboard-response","34","144696","0.0-3.0-0.9","+","null","","","","","",""
"","1615","html-keyboard-response","35","146312","0.0-3.0-1.9","nivelado","s","a","cog","word","S","exp","8"
"","null","html-keyboard-response","36","146813","0.0-3.0-0.10","+","null","","","","","",""
"","1801","html-keyboard-response","37","148615","0.0-3.0-1.10","loaco","n","null","noncog","pseudo","N","exp","null"
"","null","html-keyboard-response","38","149124","0.0-3.0-0.11","+","null","","","","","",""
"","2054","html-keyboard-response","39","151179","0.0-3.0-1.11","rovaz","s","null","noncog","pseudo","N","exp","null"
"","null","html-keyboard-response","40","151686","0.0-3.0-0.12","+","null","","","","","",""
"","1167","html-keyboard-response","41","152854","0.0-3.0-1.12","memória","s","n","cog","word","S","exp","7"
"","null","html-keyboard-response","42","153356","0.0-3.0-0.13","+","null","","","","","",""
"","2202","html-keyboard-response","43","155558","0.0-3.0-1.13","podilo","n","null","noncog","pseudo","N","exp","null"
"","null","html-keyboard-response","44","156060","0.0-3.0-0.14","+","null","","","","","",""
"","1082","html-keyboard-response","45","157143","0.0-3.0-1.14","glória","s","n","cog","word","S","exp","6"
"","null","html-keyboard-response","46","157644","0.0-3.0-0.15","+","null","","","","","",""
"","980","html-keyboard-response","47","158625","0.0-3.0-1.15","barco","s","n","cog","word","S","exp","5"
"","null","html-keyboard-response","48","159127","0.0-3.0-0.16","+","null","","","","","",""
"","2968","html-keyboard-response","49","162097","0.0-3.0-1.16","fasdas","n","null","noncog","pseudo","N","exp","null"
"","null","html-keyboard-response","50","162599","0.0-3.0-0.17","+","null","","","","","",""
"","2926","html-keyboard-response","51","165526","0.0-3.0-1.17","aitrou","n","null","noncog","pseudo","N","exp","null"
"","null","html-keyboard-response","52","166028","0.0-3.0-0.18","+","null","","","","","",""
"","2242","html-keyboard-response","53","168270","0.0-3.0-1.18","beima","n","null","noncog","pseudo","N","exp","null"
"","null","html-keyboard-response","54","168774","0.0-3.0-0.19","+","null","","","","","",""
"","1240","html-keyboard-response","55","170014","0.0-3.0-1.19","refletir","s","v","cog","word","S","exp","8"
"","null","html-keyboard-response","56","170516","0.0-3.0-0.20","+","null","","","","","",""
"","2919","html-keyboard-response","57","173436","0.0-3.0-1.20","revear","n","null","noncog","pseudo","N","exp","null"
"","null","html-keyboard-response","58","173937","0.0-3.0-0.21","+","null","","","","","",""
"","1235","html-keyboard-response","59","175173","0.0-3.0-1.21","fofo","s","a","noncog","word","S","exp","4"
"","null","html-keyboard-response","60","175674","0.0-3.0-0.22","+","null","","","","","",""
"","856","html-keyboard-response","61","176530","0.0-3.0-1.22","cerca","s","n","noncog","word","S","exp","5"
"","null","html-keyboard-response","62","177031","0.0-3.0-0.23","+","null","","","","","",""
"","1253","html-keyboard-response","63","178286","0.0-3.0-1.23","perbas","s","null","noncog","pseudo","N","exp","null"
"","null","html-keyboard-response","64","178786","0.0-3.0-0.24","+","null","","","","","",""
"","2709","html-keyboard-response","65","181497","0.0-3.0-1.24","âgnulo","n","null","noncog","pseudo","N","exp","null"
"","null","html-keyboard-response","66","181998","0.0-3.0-0.25","+","null","","","","","",""
"","1070","html-keyboard-response","67","183069","0.0-3.0-1.25","trair","s","v","cog","word","S","exp","5"
"","null","html-keyboard-response","68","183571","0.0-3.0-0.26","+","null","","","","","",""
"","2058","html-keyboard-response","69","185629","0.0-3.0-1.26","braras","n","null","noncog","pseudo","N","exp","null"
"","null","html-keyboard-response","70","186131","0.0-3.0-0.27","+","null","","","","","",""
"","1807","html-keyboard-response","71","187939","0.0-3.0-1.27","lagoa","s","n","cog","word","S","exp","5"
"","null","html-keyboard-response","72","188440","0.0-3.0-0.28","+","null","","","","","",""
"","1024","html-keyboard-response","73","189465","0.0-3.0-1.28","açúcar","s","n","noncog","word","S","exp","6"
"","null","html-keyboard-response","74","189966","0.0-3.0-0.29","+","null","","","","","",""
"","761","html-keyboard-response","75","190727","0.0-3.0-1.29","nervoso","s","a","noncog","word","S","exp","7"
"","null","html-keyboard-response","76","191228","0.0-3.0-0.30","+","null","","","","","",""
"","964","html-keyboard-response","77","192193","0.0-3.0-1.30","brincar","s","v","noncog","word","S","exp","7"
"","null","html-keyboard-response","78","192694","0.0-3.0-0.31","+","null","","","","","",""
"","1467","html-keyboard-response","79","194162","0.0-3.0-1.31","escumo","s","null","noncog","pseudo","N","exp","null"
"","null","html-keyboard-response","80","194664","0.0-3.0-0.32","+","null","","","","","",""
"","1448","html-keyboard-response","81","196112","0.0-3.0-1.32","ejerro","n","null","noncog","pseudo","N","exp","null"
"","null","html-keyboard-response","82","196613","0.0-3.0-0.33","+","null","","","","","",""
"","1792","html-keyboard-response","83","198406","0.0-3.0-1.33","prenas","n","null","noncog","pseudo","N","exp","null"
"","null","html-keyboard-response","84","198907","0.0-3.0-0.34","+","null","","","","","",""
"","954","html-keyboard-response","85","199862","0.0-3.0-1.34","melão","s","n","cog","word","S","exp","5"
"","null","html-keyboard-response","86","200363","0.0-3.0-0.35","+","null","","","","","",""
"","1568","html-keyboard-response","87","201932","0.0-3.0-1.35","jastor","n","null","noncog","pseudo","N","exp","null"
"","null","html-keyboard-response","88","202433","0.0-3.0-0.36","+","null","","","","","",""
"","3818","html-keyboard-response","89","206253","0.0-3.0-1.36","hébies","n","null","noncog","pseudo","N","exp","null"
"","null","html-keyboard-response","90","206754","0.0-3.0-0.37","+","null","","","","","",""
"","1743","html-keyboard-response","91","208498","0.0-3.0-1.37","resmungar","s","v","noncog","word","S","exp","9"
"","null","html-keyboard-response","92","208999","0.0-3.0-0.38","+","null","","","","","",""
"","1266","html-keyboard-response","93","210265","0.0-3.0-1.38","frotes","n","null","noncog","pseudo","N","exp","null"
"","null","html-keyboard-response","94","210766","0.0-3.0-0.39","+","null","","","","","",""
"","5260","html-keyboard-response","95","216027","0.0-3.0-1.39","tatear","n","v","cog","word","S","exp","6"
"","null","html-keyboard-response","96","216528","0.0-3.0-0.40","+","null","","","","","",""
"","856","html-keyboard-response","97","217385","0.0-3.0-1.40","pitada","s","n","noncog","word","S","exp","6"
"","null","html-keyboard-response","98","217887","0.0-3.0-0.41","+","null","","","","","",""
"","898","html-keyboard-response","99","218786","0.0-3.0-1.41","mania","s","n","cog","word","S","exp","5"
"","null","html-keyboard-response","100","219288","0.0-3.0-0.42","+","null","","","","","",""
"","687","html-keyboard-response","101","219976","0.0-3.0-1.42","grave","s","a","cog","word","S","exp","5"
"","null","html-keyboard-response","102","220477","0.0-3.0-0.43","+","null","","","","","",""
"","1230","html-keyboard-response","103","221708","0.0-3.0-1.43","afual","n","null","noncog","pseudo","N","exp","null"
"","null","html-keyboard-response","104","222210","0.0-3.0-0.44","+","null","","","","","",""
"","1401","html-keyboard-response","105","223612","0.0-3.0-1.44","lorfaz","n","null","noncog","pseudo","N","exp","null"
"","null","html-keyboard-response","106","224114","0.0-3.0-0.45","+","null","","","","","",""
"","625","html-keyboard-response","107","224740","0.0-3.0-1.45","nome","s","n","cog","word","S","exp","4"
"","null","html-keyboard-response","108","225243","0.0-3.0-0.46","+","null","","","","","",""
"","4265","html-keyboard-response","109","229509","0.0-3.0-1.46","undivídio","n","null","noncog","pseudo","N","exp","null"
"","null","html-keyboard-response","110","230020","0.0-3.0-0.47","+","null","","","","","",""
"","2072","html-keyboard-response","111","232093","0.0-3.0-1.47","uçar","n","null","noncog","pseudo","N","exp","null"
"","null","html-keyboard-response","112","232595","0.0-3.0-0.48","+","null","","","","","",""
"","1413","html-keyboard-response","113","234008","0.0-3.0-1.48","oper","n","null","noncog","pseudo","N","exp","null"
"","null","html-keyboard-response","114","234510","0.0-3.0-0.49","+","null","","","","","",""
"","2020","html-keyboard-response","115","236531","0.0-3.0-1.49","pangos","n","null","noncog","pseudo","N","exp","null"
"","null","html-keyboard-response","116","237032","0.0-3.0-0.50","+","null","","","","","",""
"","954","html-keyboard-response","117","237987","0.0-3.0-1.50","gertas","n","null","noncog","pseudo","N","exp","null"
"","null","html-keyboard-response","118","238488","0.0-3.0-0.51","+","null","","","","","",""
"","1304","html-keyboard-response","119","239794","0.0-3.0-1.51","mabras","n","null","noncog","pseudo","N","exp","null"
"","null","html-keyboard-response","120","240295","0.0-3.0-0.52","+","null","","","","","",""
"","1644","html-keyboard-response","121","241939","0.0-3.0-1.52","ofreta","n","null","noncog","pseudo","N","exp","null"
"","null","html-keyboard-response","122","242441","0.0-3.0-0.53","+","null","","","","","",""
"","1400","html-keyboard-response","123","243842","0.0-3.0-1.53","oricia","n","null","noncog","pseudo","N","exp","null"
"","null","html-keyboard-response","124","244342","0.0-3.0-0.54","+","null","","","","","",""
"","2224","html-keyboard-response","125","246567","0.0-3.0-1.54","promeção","n","null","noncog","pseudo","N","exp","null"
"","null","html-keyboard-response","126","247068","0.0-3.0-0.55","+","null","","","","","",""
"","1335","html-keyboard-response","127","248405","0.0-3.0-1.55","nacional","s","a","cog","word","S","exp","8"
"","null","html-keyboard-response","128","248906","0.0-3.0-0.56","+","null","","","","","",""
"","3126","html-keyboard-response","129","252033","0.0-3.0-1.56","prantal","n","null","noncog","pseudo","N","exp","null"
"","null","html-keyboard-response","130","252534","0.0-3.0-0.57","+","null","","","","","",""
"","796","html-keyboard-response","131","253331","0.0-3.0-1.57","carro","s","n","noncog","word","S","exp","5"
"","null","html-keyboard-response","132","253831","0.0-3.0-0.58","+","null","","","","","",""
"","744","html-keyboard-response","133","254576","0.0-3.0-1.58","verdade","s","n","cog","word","S","exp","7"
"","null","html-keyboard-response","134","255077","0.0-3.0-0.59","+","null","","","","","",""
"","1515","html-keyboard-response","135","256594","0.0-3.0-1.59","oecano","n","null","noncog","pseudo","N","exp","null"
"","null","html-keyboard-response","136","257095","0.0-3.0-0.60","+","null","","","","","",""
"","968","html-keyboard-response","137","258064","0.0-3.0-1.60","areia","s","n","noncog","word","S","exp","5"
"","null","html-keyboard-response","138","258566","0.0-3.0-0.61","+","null","","","","","",""
"","1868","html-keyboard-response","139","260435","0.0-3.0-1.61","boreta","n","null","noncog","pseudo","N","exp","null"
"","null","html-keyboard-response","140","260938","0.0-3.0-0.62","+","null","","","","","",""
"","3031","html-keyboard-response","141","263969","0.0-3.0-1.62","esfoce","s","null","noncog","pseudo","N","exp","null"
"","null","html-keyboard-response","142","264474","0.0-3.0-0.63","+","null","","","","","",""
"","723","html-keyboard-response","143","265198","0.0-3.0-1.63","telefone","s","n","cog","word","S","exp","8"
"","null","html-keyboard-response","144","265700","0.0-3.0-0.64","+","null","","","","","",""
"","750","html-keyboard-response","145","266451","0.0-3.0-1.64","destino","s","n","cog","word","S","exp","7"
"","null","html-keyboard-response","146","266952","0.0-3.0-0.65","+","null","","","","","",""
"","1539","html-keyboard-response","147","268492","0.0-3.0-1.65","plinta","n","null","noncog","pseudo","N","exp","null"
"","null","html-keyboard-response","148","268994","0.0-3.0-0.66","+","null","","","","","",""
"","1695","html-keyboard-response","149","270689","0.0-3.0-1.66","protas","n","null","noncog","pseudo","N","exp","null"
"","null","html-keyboard-response","150","271190","0.0-3.0-0.67","+","null","","","","","",""
"","1242","html-keyboard-response","151","272433","0.0-3.0-1.67","motros","n","null","noncog","pseudo","N","exp","null"
"","null","html-keyboard-response","152","272935","0.0-3.0-0.68","+","null","","","","","",""
"","1750","html-keyboard-response","153","274686","0.0-3.0-1.68","bracos","n","null","noncog","pseudo","N","exp","null"
"","null","html-keyboard-response","154","275188","0.0-3.0-0.69","+","null","","","","","",""
"","1937","html-keyboard-response","155","277126","0.0-3.0-1.69","lagras","n","null","noncog","pseudo","N","exp","null"
"","null","html-keyboard-response","156","277627","0.0-3.0-0.70","+","null","","","","","",""
"","925","html-keyboard-response","157","278553","0.0-3.0-1.70","reduzir","s","v","cog","word","S","exp","7"
"","null","html-keyboard-response","158","279055","0.0-3.0-0.71","+","null","","","","","",""
"","1164","html-keyboard-response","159","280220","0.0-3.0-1.71","comércio","s","n","noncog","word","S","exp","8"
"","null","html-keyboard-response","160","280722","0.0-3.0-0.72","+","null","","","","","",""
"","810","html-keyboard-response","161","281534","0.0-3.0-1.72","papai","s","n","cog","word","S","exp","5"
"","null","html-keyboard-response","162","282036","0.0-3.0-0.73","+","null","","","","","",""
"","1054","html-keyboard-response","163","283092","0.0-3.0-1.73","adoçar","s","v","noncog","word","S","exp","6"
"","null","html-keyboard-response","164","283594","0.0-3.0-0.74","+","null","","","","","",""
"","1175","html-keyboard-response","165","284770","0.0-3.0-1.74","fratos","n","null","noncog","pseudo","N","exp","null"
"","null","html-keyboard-response","166","285272","0.0-3.0-0.75","+","null","","","","","",""
"","908","html-keyboard-response","167","286180","0.0-3.0-1.75","matinal","s","a","cog","word","S","exp","7"
"","null","html-keyboard-response","168","286683","0.0-3.0-0.76","+","null","","","","","",""
"","1363","html-keyboard-response","169","288047","0.0-3.0-1.76","franda","n","null","noncog","pseudo","N","exp","null"
"","null","html-keyboard-response","170","288548","0.0-3.0-0.77","+","null","","","","","",""
"","2163","html-keyboard-response","171","290712","0.0-3.0-1.77","motre","n","null","noncog","pseudo","N","exp","null"
"","null","html-keyboard-response","172","291224","0.0-3.0-0.78","+","null","","","","","",""
"","2211","html-keyboard-response","173","293436","0.0-3.0-1.78","garastia","n","null","noncog","pseudo","N","exp","null"
"","null","html-keyboard-response","174","293937","0.0-3.0-0.79","+","null","","","","","",""
"","779","html-keyboard-response","175","294717","0.0-3.0-1.79","pulmão","s","n","noncog","word","S","exp","6"
"","null","html-keyboard-response","176","295218","0.0-3.0-0.80","+","null","","","","","",""
"","2333","html-keyboard-response","177","297552","0.0-3.0-1.80","casuas","n","null","noncog","pseudo","N","exp","null"
"","null","html-keyboard-response","178","298055","0.0-3.0-0.81","+","null","","","","","",""
"","1040","html-keyboard-response","179","299096","0.0-3.0-1.81","afonher","n","null","noncog","pseudo","N","exp","null"
"","null","html-keyboard-response","180","299597","0.0-3.0-0.82","+","null","","","","","",""
"","1093","html-keyboard-response","181","300692","0.0-3.0-1.82","fino","s","a","cog","word","S","exp","4"
"","null","html-keyboard-response","182","301193","0.0-3.0-0.83","+","null","","","","","",""
"","571","html-keyboard-response","183","301764","0.0-3.0-1.83","dia","s","n","noncog","word","S","exp","3"
"","null","html-keyboard-response","184","302265","0.0-3.0-0.84","+","null","","","","","",""
"","1777","html-keyboard-response","185","304043","0.0-3.0-1.84","delirar","n","v","noncog","word","S","exp","7"
"","null","html-keyboard-response","186","304545","0.0-3.0-0.85","+","null","","","","","",""
"","4334","html-keyboard-response","187","308879","0.0-3.0-1.85","chato","s","n","noncog","word","S","exp","5"
"","null","html-keyboard-response","188","309380","0.0-3.0-0.86","+","null","","","","","",""
"","1051","html-keyboard-response","189","310433","0.0-3.0-1.86","viver","s","v","cog","word","S","exp","5"
"","null","html-keyboard-response","190","310934","0.0-3.0-0.87","+","null","","","","","",""
"","2208","html-keyboard-response","191","313143","0.0-3.0-1.87","salpicado","n","a","noncog","word","S","exp","9"
"","null","html-keyboard-response","192","313644","0.0-3.0-0.88","+","null","","","","","",""
"","1646","html-keyboard-response","193","315292","0.0-3.0-1.88","planalto","s","n","cog","word","S","exp","8"
"","null","html-keyboard-response","194","315792","0.0-3.0-0.89","+","null","","","","","",""
"","1383","html-keyboard-response","195","317176","0.0-3.0-1.89","espinho","s","n","noncog","word","S","exp","7"
"","null","html-keyboard-response","196","317678","0.0-3.0-0.90","+","null","","","","","",""
"","2228","html-keyboard-response","197","319907","0.0-3.0-1.90","dacada","n","null","noncog","pseudo","N","exp","null"
"","null","html-keyboard-response","198","320408","0.0-3.0-0.91","+","null","","","","","",""
"","4173","html-keyboard-response","199","324582","0.0-3.0-1.91","hedoru","n","null","noncog","pseudo","N","exp","null"
"","null","html-keyboard-response","200","325084","0.0-3.0-0.92","+","null","","","","","",""
"","1065","html-keyboard-response","201","326149","0.0-3.0-1.92","enxarto","n","null","noncog","pseudo","N","exp","null"
"","null","html-keyboard-response","202","326650","0.0-3.0-0.93","+","null","","","","","",""
"","1388","html-keyboard-response","203","328039","0.0-3.0-1.93","atrasar","s","v","noncog","word","S","exp","7"
"","null","html-keyboard-response","204","328542","0.0-3.0-0.94","+","null","","","","","",""
"","6675","html-keyboard-response","205","335218","0.0-3.0-1.94","pimada","n","null","noncog","pseudo","N","exp","null"
"","null","html-keyboard-response","206","335719","0.0-3.0-0.95","+","null","","","","","",""
"","1152","html-keyboard-response","207","336872","0.0-3.0-1.95","selir","n","null","noncog","pseudo","N","exp","null"
"","null","html-keyboard-response","208","337374","0.0-3.0-0.96","+","null","","","","","",""
"","2783","html-keyboard-response","209","340158","0.0-3.0-1.96","ronronar","n","v","cog","word","S","exp","8"
"","null","html-keyboard-response","210","340659","0.0-3.0-0.97","+","null","","","","","",""
"","2502","html-keyboard-response","211","343162","0.0-3.0-1.97","enxerido","n","a","noncog","word","S","exp","8"
"","null","html-keyboard-response","212","343663","0.0-3.0-0.98","+","null","","","","","",""
"","1288","html-keyboard-response","213","344951","0.0-3.0-1.98","alfabeto","s","n","cog","word","S","exp","8"
"","null","html-keyboard-response","214","345452","0.0-3.0-0.99","+","null","","","","","",""
"","1187","html-keyboard-response","215","346640","0.0-3.0-1.99","risbos","n","null","noncog","pseudo","N","exp","null"
"","null","html-keyboard-response","216","347150","0.0-3.0-0.100","+","null","","","","","",""
"","2750","html-keyboard-response","217","349902","0.0-3.0-1.100","prever","s","v","cog","word","S","exp","6"
"","null","html-keyboard-response","218","350403","0.0-3.0-0.101","+","null","","","","","",""
"","879","html-keyboard-response","219","351282","0.0-3.0-1.101","civil","s","a","cog","word","S","exp","5"
"","null","html-keyboard-response","220","351799","0.0-3.0-0.102","+","null","","","","","",""
"","1817","html-keyboard-response","221","353616","0.0-3.0-1.102","vitrive","n","null","noncog","pseudo","N","exp","null"
"","null","html-keyboard-response","222","354118","0.0-3.0-0.103","+","null","","","","","",""
"","1950","html-keyboard-response","223","356069","0.0-3.0-1.103","tartos","n","null","noncog","pseudo","N","exp","null"
"","null","html-keyboard-response","224","356570","0.0-3.0-0.104","+","null","","","","","",""
"","892","html-keyboard-response","225","357463","0.0-3.0-1.104","fogão","s","n","noncog","word","S","exp","5"
"","null","html-keyboard-response","226","357966","0.0-3.0-0.105","+","null","","","","","",""
"","2801","html-keyboard-response","227","360768","0.0-3.0-1.105","bagunceira","s","a","noncog","word","S","exp","10"
"","null","html-keyboard-response","228","361270","0.0-3.0-0.106","+","null","","","","","",""
"","1512","html-keyboard-response","229","362783","0.0-3.0-1.106","pneucania","n","null","noncog","pseudo","N","exp","null"
"","null","html-keyboard-response","230","363284","0.0-3.0-0.107","+","null","","","","","",""
"","1142","html-keyboard-response","231","364427","0.0-3.0-1.107","aemaça","n","null","noncog","pseudo","N","exp","null"
"","null","html-keyboard-response","232","364929","0.0-3.0-0.108","+","null","","","","","",""
"","2585","html-keyboard-response","233","367515","0.0-3.0-1.108","crolatário","n","null","noncog","pseudo","N","exp","null"
"","null","html-keyboard-response","234","368018","0.0-3.0-0.109","+","null","","","","","",""
"","1550","html-keyboard-response","235","369569","0.0-3.0-1.109","gruja","n","null","noncog","pseudo","N","exp","null"
"","null","html-keyboard-response","236","370071","0.0-3.0-0.110","+","null","","","","","",""
"","1625","html-keyboard-response","237","371697","0.0-3.0-1.110","bibarconato","s","null","noncog","pseudo","N","exp","null"
"","null","html-keyboard-response","238","372198","0.0-3.0-0.111","+","null","","","","","",""
"","902","html-keyboard-response","239","373101","0.0-3.0-1.111","liberal","s","a","cog","word","S","exp","7"
"","null","html-keyboard-response","240","373602","0.0-3.0-0.112","+","null","","","","","",""
"","1821","html-keyboard-response","241","375424","0.0-3.0-1.112","berquesa","n","null","noncog","pseudo","N","exp","null"
"","null","html-keyboard-response","242","375925","0.0-3.0-0.113","+","null","","","","","",""
"","1908","html-keyboard-response","243","377834","0.0-3.0-1.113","propaganda","s","n","cog","word","S","exp","10"
"","null","html-keyboard-response","244","378335","0.0-3.0-0.114","+","null","","","","","",""
"","1038","html-keyboard-response","245","379374","0.0-3.0-1.114","drama","s","n","cog","word","S","exp","5"
"","null","html-keyboard-response","246","379875","0.0-3.0-0.115","+","null","","","","","",""
"","1162","html-keyboard-response","247","381038","0.0-3.0-1.115","grótis","n","null","noncog","pseudo","N","exp","null"
"","null","html-keyboard-response","248","381539","0.0-3.0-0.116","+","null","","","","","",""
"","861","html-keyboard-response","249","382402","0.0-3.0-1.116","cinema","s","n","cog","word","S","exp","6"
"","null","html-keyboard-response","250","382903","0.0-3.0-0.117","+","null","","","","","",""
"","1514","html-keyboard-response","251","384417","0.0-3.0-1.117","alpica","n","null","noncog","pseudo","N","exp","null"
"","null","html-keyboard-response","252","384919","0.0-3.0-0.118","+","null","","","","","",""
"","1086","html-keyboard-response","253","386005","0.0-3.0-1.118","crutas","n","null","noncog","pseudo","N","exp","null"
"","null","html-keyboard-response","254","386508","0.0-3.0-0.119","+","null","","","","","",""
"","1399","html-keyboard-response","255","387907","0.0-3.0-1.119","senareta","n","null","noncog","pseudo","N","exp","null"
"","null","html-keyboard-response","256","388409","0.0-3.0-0.120","+","null","","","","","",""
"","1357","html-keyboard-response","257","389766","0.0-3.0-1.120","bambu","s","n","cog","word","S","exp","5"
"","null","html-keyboard-response","258","390276","0.0-3.0-0.121","+","null","","","","","",""
"","1732","html-keyboard-response","259","392008","0.0-3.0-1.121","cascata","n","n","noncog","word","S","exp","7"
"","null","html-keyboard-response","260","392509","0.0-3.0-0.122","+","null","","","","","",""
"","1550","html-keyboard-response","261","394060","0.0-3.0-1.122","especial","s","a","cog","word","S","exp","8"
"","null","html-keyboard-response","262","394562","0.0-3.0-0.123","+","null","","","","","",""
"","3184","html-keyboard-response","263","397747","0.0-3.0-1.123","cenada","n","null","noncog","pseudo","N","exp","null"
"","null","html-keyboard-response","264","398249","0.0-3.0-0.124","+","null","","","","","",""
"","888","html-keyboard-response","265","399138","0.0-3.0-1.124","bandido","s","n","cog","word","S","exp","7"
"","null","html-keyboard-response","266","399640","0.0-3.0-0.125","+","null","","","","","",""
"","820","html-keyboard-response","267","400460","0.0-3.0-1.125","revista","s","n","cog","word","S","exp","7"
"","null","html-keyboard-response","268","400961","0.0-3.0-0.126","+","null","","","","","",""
"","1262","html-keyboard-response","269","402223","0.0-3.0-1.126","dilheira","n","null","noncog","pseudo","N","exp","null"
"","null","html-keyboard-response","270","402724","0.0-3.0-0.127","+","null","","","","","",""
"","2519","html-keyboard-response","271","405244","0.0-3.0-1.127","cravo","s","n","noncog","word","S","exp","5"
"","null","html-keyboard-response","272","405745","0.0-3.0-0.128","+","null","","","","","",""
"","718","html-keyboard-response","273","406465","0.0-3.0-1.128","morar","s","v","noncog","word","S","exp","5"
"","null","html-keyboard-response","274","406979","0.0-3.0-0.129","+","null","","","","","",""
"","1214","html-keyboard-response","275","408194","0.0-3.0-1.129","arranjar","s","v","cog","word","S","exp","8"
"","null","html-keyboard-response","276","408697","0.0-3.0-0.130","+","null","","","","","",""
"","923","html-keyboard-response","277","409621","0.0-3.0-1.130","tio","s","n","noncog","word","S","exp","3"
"","null","html-keyboard-response","278","410123","0.0-3.0-0.131","+","null","","","","","",""
"","846","html-keyboard-response","279","410969","0.0-3.0-1.131","esperar","s","v","cog","word","S","exp","7"
"","null","html-keyboard-response","280","411470","0.0-3.0-0.132","+","null","","","","","",""
"","1304","html-keyboard-response","281","412775","0.0-3.0-1.132","pritas","n","null","noncog","pseudo","N","exp","null"
"","null","html-keyboard-response","282","413276","0.0-3.0-0.133","+","null","","","","","",""
"","1511","html-keyboard-response","283","414787","0.0-3.0-1.133","aletiê","s","null","noncog","pseudo","N","exp","null"
"","null","html-keyboard-response","284","415289","0.0-3.0-0.134","+","null","","","","","",""
"","1259","html-keyboard-response","285","416549","0.0-3.0-1.134","tronca","s","null","noncog","pseudo","N","exp","null"
"","null","html-keyboard-response","286","417050","0.0-3.0-0.135","+","null","","","","","",""
"","2056","html-keyboard-response","287","419107","0.0-3.0-1.135","trenos","n","null","noncog","pseudo","N","exp","null"
"","null","html-keyboard-response","288","419609","0.0-3.0-0.136","+","null","","","","","",""
"","1082","html-keyboard-response","289","420692","0.0-3.0-1.136","extravagante","s","a","cog","word","S","exp","12"
"","null","html-keyboard-response","290","421194","0.0-3.0-0.137","+","null","","","","","",""
"","1403","html-keyboard-response","291","422597","0.0-3.0-1.137","macras","n","null","noncog","pseudo","N","exp","null"
"","null","html-keyboard-response","292","423100","0.0-3.0-0.138","+","null","","","","","",""
"","1311","html-keyboard-response","293","424412","0.0-3.0-1.138","liso","s","n","noncog","word","S","exp","4"
"","null","html-keyboard-response","294","424913","0.0-3.0-0.139","+","null","","","","","",""
"","1420","html-keyboard-response","295","426333","0.0-3.0-1.139","independente","s","a","noncog","word","S","exp","12"
"","null","html-keyboard-response","296","426842","0.0-3.0-0.140","+","null","","","","","",""
"","1356","html-keyboard-response","297","428199","0.0-3.0-1.140","terdia","n","null","noncog","pseudo","N","exp","null"
"","null","html-keyboard-response","298","428699","0.0-3.0-0.141","+","null","","","","","",""
"","1517","html-keyboard-response","299","430217","0.0-3.0-1.141","raspar","s","v","noncog","word","S","exp","6"
"","null","html-keyboard-response","300","430719","0.0-3.0-0.142","+","null","","","","","",""
"","1320","html-keyboard-response","301","432042","0.0-3.0-1.142","dipata","n","null","noncog","pseudo","N","exp","null"
"","null","html-keyboard-response","302","432543","0.0-3.0-0.143","+","null","","","","","",""
"","843","html-keyboard-response","303","433387","0.0-3.0-1.143","cápsula","s","n","noncog","word","S","exp","7"
"","null","html-keyboard-response","304","433888","0.0-3.0-0.144","+","null","","","","","",""
"","671","html-keyboard-response","305","434559","0.0-3.0-1.144","tênis","s","n","cog","word","S","exp","5"
"","null","html-keyboard-response","306","435060","0.0-3.0-0.145","+","null","","","","","",""
"","822","html-keyboard-response","307","435883","0.0-3.0-1.145","apontar","s","v","noncog","word","S","exp","7"
"","null","html-keyboard-response","308","436386","0.0-3.0-0.146","+","null","","","","","",""
"","851","html-keyboard-response","309","437237","0.0-3.0-1.146","multiplicar","s","v","cog","word","S","exp","11"
"","null","html-keyboard-response","310","437738","0.0-3.0-0.147","+","null","","","","","",""
"","1884","html-keyboard-response","311","439624","0.0-3.0-1.147","atapdar","n","null","noncog","pseudo","N","exp","null"
"","null","html-keyboard-response","312","440126","0.0-3.0-0.148","+","null","","","","","",""
"","964","html-keyboard-response","313","441091","0.0-3.0-1.148","montanha","s","n","cog","word","S","exp","8"
"","null","html-keyboard-response","314","441591","0.0-3.0-0.149","+","null","","","","","",""
"","737","html-keyboard-response","315","442329","0.0-3.0-1.149","verde","s","a","noncog","word","S","exp","5"
"","null","html-keyboard-response","316","442830","0.0-3.0-0.150","+","null","","","","","",""
"","887","html-keyboard-response","317","443718","0.0-3.0-1.150","bancada","s","n","noncog","word","S","exp","7"
"","null","html-keyboard-response","318","444219","0.0-3.0-0.151","+","null","","","","","",""
"","868","html-keyboard-response","319","445088","0.0-3.0-1.151","filosofia","s","n","cog","word","S","exp","9"
"","null","html-keyboard-response","320","445590","0.0-3.0-0.152","+","null","","","","","",""
"","1434","html-keyboard-response","321","447026","0.0-3.0-1.152","manfa","n","null","noncog","pseudo","N","exp","null"
"","null","html-keyboard-response","322","447529","0.0-3.0-0.153","+","null","","","","","",""
"","683","html-keyboard-response","323","448212","0.0-3.0-1.153","francês","s","a","cog","word","S","exp","7"
"","null","html-keyboard-response","324","448713","0.0-3.0-0.154","+","null","","","","","",""
"","999","html-keyboard-response","325","449713","0.0-3.0-1.154","ênclio","n","null","noncog","pseudo","N","exp","null"
"","null","html-keyboard-response","326","450218","0.0-3.0-0.155","+","null","","","","","",""
"","596","html-keyboard-response","327","450815","0.0-3.0-1.155","livro","s","n","cog","word","S","exp","5"
"","null","html-keyboard-response","328","451318","0.0-3.0-0.156","+","null","","","","","",""
"","1069","html-keyboard-response","329","452388","0.0-3.0-1.156","morija","s","null","noncog","pseudo","N","exp","null"
"","null","html-keyboard-response","330","452889","0.0-3.0-0.157","+","null","","","","","",""
"","1535","html-keyboard-response","331","454426","0.0-3.0-1.157","esprotiar","n","null","noncog","pseudo","N","exp","null"
"","null","html-keyboard-response","332","454927","0.0-3.0-0.158","+","null","","","","","",""
"","1245","html-keyboard-response","333","456173","0.0-3.0-1.158","euorpa","n","null","noncog","pseudo","N","exp","null"
"","null","html-keyboard-response","334","456674","0.0-3.0-0.159","+","null","","","","","",""
"","1334","html-keyboard-response","335","458009","0.0-3.0-1.159","uchães","n","null","noncog","pseudo","N","exp","null"
"","null","html-keyboard-response","336","458510","0.0-3.0-0.160","+","null","","","","","",""
"","746","html-keyboard-response","337","459257","0.0-3.0-1.160","carona","s","n","noncog","word","S","exp","6"
"","null","html-keyboard-response","338","459758","0.0-3.0-0.161","+","null","","","","","",""
"","980","html-keyboard-response","339","460739","0.0-3.0-1.161","agressivo","s","a","cog","word","S","exp","9"
"","null","html-keyboard-response","340","461240","0.0-3.0-0.162","+","null","","","","","",""
"","1599","html-keyboard-response","341","462839","0.0-3.0-1.162","nevela","n","null","noncog","pseudo","N","exp","null"
"","null","html-keyboard-response","342","463341","0.0-3.0-0.163","+","null","","","","","",""
"","1182","html-keyboard-response","343","464524","0.0-3.0-1.163","aperor","n","null","noncog","pseudo","N","exp","null"
"","null","html-keyboard-response","344","465025","0.0-3.0-0.164","+","null","","","","","",""
"","807","html-keyboard-response","345","465833","0.0-3.0-1.164","abieso","n","null","noncog","pseudo","N","exp","null"
"","null","html-keyboard-response","346","466334","0.0-3.0-0.165","+","null","","","","","",""
"","673","html-keyboard-response","347","467008","0.0-3.0-1.165","tímido","s","a","cog","word","S","exp","6"
"","null","html-keyboard-response","348","467509","0.0-3.0-0.166","+","null","","","","","",""
"","772","html-keyboard-response","349","468283","0.0-3.0-1.166","pedaço","s","n","noncog","word","S","exp","6"
"","null","html-keyboard-response","350","468784","0.0-3.0-0.167","+","null","","","","","",""
"","840","html-keyboard-response","351","469625","0.0-3.0-1.167","sábio","s","n","noncog","word","S","exp","5"
"","null","html-keyboard-response","352","470126","0.0-3.0-0.168","+","null","","","","","",""
"","1134","html-keyboard-response","353","471260","0.0-3.0-1.168","burtos","n","null","noncog","pseudo","N","exp","null"
"","null","html-keyboard-response","354","471761","0.0-3.0-0.169","+","null","","","","","",""
"","1855","html-keyboard-response","355","473618","0.0-3.0-1.169","preferir","s","v","cog","word","S","exp","8"
"","null","html-keyboard-response","356","474119","0.0-3.0-0.170","+","null","","","","","",""
"","1975","html-keyboard-response","357","476094","0.0-3.0-1.170","pantufa","s","n","cog","word","S","exp","7"
"","null","html-keyboard-response","358","476596","0.0-3.0-0.171","+","null","","","","","",""
"","728","html-keyboard-response","359","477324","0.0-3.0-1.171","país","s","n","noncog","word","S","exp","4"
"","null","html-keyboard-response","360","477827","0.0-3.0-0.172","+","null","","","","","",""
"","1321","html-keyboard-response","361","479149","0.0-3.0-1.172","aivões","n","null","noncog","pseudo","N","exp","null"
"","null","html-keyboard-response","362","479649","0.0-3.0-0.173","+","null","","","","","",""
"","1158","html-keyboard-response","363","480808","0.0-3.0-1.173","imitar","s","v","cog","word","S","exp","6"
"","null","html-keyboard-response","364","481312","0.0-3.0-0.174","+","null","","","","","",""
"","1931","html-keyboard-response","365","483244","0.0-3.0-1.174","manais","n","null","noncog","pseudo","N","exp","null"
"","null","html-keyboard-response","366","483745","0.0-3.0-0.175","+","null","","","","","",""
"","1629","html-keyboard-response","367","485375","0.0-3.0-1.175","atitro","n","null","noncog","pseudo","N","exp","null"
"","null","html-keyboard-response","368","485876","0.0-3.0-0.176","+","null","","","","","",""
"","1821","html-keyboard-response","369","487698","0.0-3.0-1.176","detative","n","null","noncog","pseudo","N","exp","null"
"","null","html-keyboard-response","370","488199","0.0-3.0-0.177","+","null","","","","","",""
"","936","html-keyboard-response","371","489135","0.0-3.0-1.177","faínas","n","null","noncog","pseudo","N","exp","null"
"","null","html-keyboard-response","372","489637","0.0-3.0-0.178","+","null","","","","","",""
"","730","html-keyboard-response","373","490368","0.0-3.0-1.178","tinta","s","n","cog","word","S","exp","5"
"","null","html-keyboard-response","374","490869","0.0-3.0-0.179","+","null","","","","","",""
"","1229","html-keyboard-response","375","492099","0.0-3.0-1.179","telafonir","n","null","noncog","pseudo","N","exp","null"
"","null","html-keyboard-response","376","492601","0.0-3.0-0.180","+","null","","","","","",""
"","1212","html-keyboard-response","377","493813","0.0-3.0-1.180","convidado","s","n","noncog","word","S","exp","9"
"","null","html-keyboard-response","378","494329","0.0-3.0-0.181","+","null","","","","","",""
"","854","html-keyboard-response","379","495184","0.0-3.0-1.181","ensuas","n","null","noncog","pseudo","N","exp","null"
"","null","html-keyboard-response","380","495685","0.0-3.0-0.182","+","null","","","","","",""
"","1021","html-keyboard-response","381","496707","0.0-3.0-1.182","sustentar","s","v","noncog","word","S","exp","9"
"","null","html-keyboard-response","382","497209","0.0-3.0-0.183","+","null","","","","","",""
"","2585","html-keyboard-response","383","499794","0.0-3.0-1.183","pega-pega","s","n","noncog","word","S","exp","8"
"","null","html-keyboard-response","384","500295","0.0-3.0-0.184","+","null","","","","","",""
"","1430","html-keyboard-response","385","501726","0.0-3.0-1.184","temperar","s","v","noncog","word","S","exp","8"
"","null","html-keyboard-response","386","502227","0.0-3.0-0.185","+","null","","","","","",""
"","1190","html-keyboard-response","387","503418","0.0-3.0-1.185","bachir","n","null","noncog","pseudo","N","exp","null"
"","null","html-keyboard-response","388","503919","0.0-3.0-0.186","+","null","","","","","",""
"","754","html-keyboard-response","389","504674","0.0-3.0-1.186","ótimo","s","a","noncog","word","S","exp","5"
"","null","html-keyboard-response","390","505176","0.0-3.0-0.187","+","null","","","","","",""
"","893","html-keyboard-response","391","506069","0.0-3.0-1.187","conjerto","n","null","noncog","pseudo","N","exp","null"
"","null","html-keyboard-response","392","506570","0.0-3.0-0.188","+","null","","","","","",""
"","2197","html-keyboard-response","393","508768","0.0-3.0-1.188","farcas","n","null","noncog","pseudo","N","exp","null"
"","null","html-keyboard-response","394","509270","0.0-3.0-0.189","+","null","","","","","",""
"","5956","html-keyboard-response","395","515227","0.0-3.0-1.189","deselegante","n","a","noncog","word","S","exp","11"
"","null","html-keyboard-response","396","515729","0.0-3.0-0.190","+","null","","","","","",""
"","989","html-keyboard-response","397","516719","0.0-3.0-1.190","ocinto","n","null","noncog","pseudo","N","exp","null"
"","null","html-keyboard-response","398","517220","0.0-3.0-0.191","+","null","","","","","",""
"","1801","html-keyboard-response","399","519022","0.0-3.0-1.191","instruído","s","a","noncog","word","S","exp","9"
"","null","html-keyboard-response","400","519523","0.0-3.0-0.192","+","null","","","","","",""
"","888","html-keyboard-response","401","520412","0.0-3.0-1.192","delomir","n","null","noncog","pseudo","N","exp","null"
"","null","html-keyboard-response","402","520914","0.0-3.0-0.193","+","null","","","","","",""
"","952","html-keyboard-response","403","521867","0.0-3.0-1.193","incomodar","s","v","noncog","word","S","exp","9"
"","null","html-keyboard-response","404","522368","0.0-3.0-0.194","+","null","","","","","",""
"","1164","html-keyboard-response","405","523533","0.0-3.0-1.194","perdão","s","n","noncog","word","S","exp","6"
"","null","html-keyboard-response","406","524033","0.0-3.0-0.195","+","null","","","","","",""
"","653","html-keyboard-response","407","524687","0.0-3.0-1.195","tela","s","n","noncog","word","S","exp","4"
"","null","html-keyboard-response","408","525189","0.0-3.0-0.196","+","null","","","","","",""
"","701","html-keyboard-response","409","525892","0.0-3.0-1.196","grátis","s","a","cog","word","S","exp","6"
"","null","html-keyboard-response","410","526395","0.0-3.0-0.197","+","null","","","","","",""
"","2009","html-keyboard-response","411","528405","0.0-3.0-1.197","parceter","n","null","noncog","pseudo","N","exp","null"
"","null","html-keyboard-response","412","528908","0.0-3.0-0.198","+","null","","","","","",""
"","1070","html-keyboard-response","413","529979","0.0-3.0-1.198","fusbão","n","null","noncog","pseudo","N","exp","null"
"","null","html-keyboard-response","414","530481","0.0-3.0-0.199","+","null","","","","","",""
"","621","html-keyboard-response","415","531103","0.0-3.0-1.199","jantar","s","v","noncog","word","S","exp","6"
"","null","html-keyboard-response","416","531606","0.0-3.0-0.200","+","null","","","","","",""
"","1030","html-keyboard-response","417","532636","0.0-3.0-1.200","carregar","s","v","noncog","word","S","exp","8"
"","null","html-keyboard-response","418","533137","0.0-3.0-0.201","+","null","","","","","",""
"","1760","html-keyboard-response","419","534898","0.0-3.0-1.201","dobradiça","s","n","noncog","word","S","exp","9"
"","null","html-keyboard-response","420","535399","0.0-3.0-0.202","+","null","","","","","",""
"","1223","html-keyboard-response","421","536623","0.0-3.0-1.202","dencosto","n","null","noncog","pseudo","N","exp","null"
"","null","html-keyboard-response","422","537124","0.0-3.0-0.203","+","null","","","","","",""
"","849","html-keyboard-response","423","537973","0.0-3.0-1.203","usfiga","n","null","noncog","pseudo","N","exp","null"
"","null","html-keyboard-response","424","538474","0.0-3.0-0.204","+","null","","","","","",""
"","3736","html-keyboard-response","425","542211","0.0-3.0-1.204","disbrituir","n","null","noncog","pseudo","N","exp","null"
"","null","html-keyboard-response","426","542713","0.0-3.0-0.205","+","null","","","","","",""
"","2681","html-keyboard-response","427","545395","0.0-3.0-1.205","candifência","n","null","noncog","pseudo","N","exp","null"
"","null","html-keyboard-response","428","545897","0.0-3.0-0.206","+","null","","","","","",""
"","1327","html-keyboard-response","429","547225","0.0-3.0-1.206","irratinte","n","null","noncog","pseudo","N","exp","null"
"","null","html-keyboard-response","430","547726","0.0-3.0-0.207","+","null","","","","","",""
"","929","html-keyboard-response","431","548656","0.0-3.0-1.207","mudança","s","n","noncog","word","S","exp","7"
"","null","html-keyboard-response","432","549158","0.0-3.0-0.208","+","null","","","","","",""
"","941","html-keyboard-response","433","550100","0.0-3.0-1.208","chorão","n","a","noncog","word","S","exp","6"
"","null","html-keyboard-response","434","550602","0.0-3.0-0.209","+","null","","","","","",""
"","1658","html-keyboard-response","435","552260","0.0-3.0-1.209","árovre","n","null","noncog","pseudo","N","exp","null"
"","null","html-keyboard-response","436","552763","0.0-3.0-0.210","+","null","","","","","",""
"","2663","html-keyboard-response","437","555427","0.0-3.0-1.210","vervas","n","null","noncog","pseudo","N","exp","null"
"","null","html-keyboard-response","438","555928","0.0-3.0-0.211","+","null","","","","","",""
"","1182","html-keyboard-response","439","557110","0.0-3.0-1.211","anjo","s","n","cog","word","S","exp","4"
"","null","html-keyboard-response","440","557611","0.0-3.0-0.212","+","null","","","","","",""
"","1304","html-keyboard-response","441","558916","0.0-3.0-1.212","distraído","s","a","cog","word","S","exp","9"
"","null","html-keyboard-response","442","559419","0.0-3.0-0.213","+","null","","","","","",""
"","881","html-keyboard-response","443","560301","0.0-3.0-1.213","ilhure","n","null","noncog","pseudo","N","exp","null"
"","null","html-keyboard-response","444","560803","0.0-3.0-0.214","+","null","","","","","",""
"","1209","html-keyboard-response","445","562013","0.0-3.0-1.214","avenas","n","null","noncog","pseudo","N","exp","null"
"","null","html-keyboard-response","446","562515","0.0-3.0-0.215","+","null","","","","","",""
"","1112","html-keyboard-response","447","563628","0.0-3.0-1.215","taberia","n","null","noncog","pseudo","N","exp","null"
"","null","html-keyboard-response","448","564133","0.0-3.0-0.216","+","null","","","","","",""
"","1364","html-keyboard-response","449","565498","0.0-3.0-1.216","gilha","n","null","noncog","pseudo","N","exp","null"
"","null","html-keyboard-response","450","565999","0.0-3.0-0.217","+","null","","","","","",""
"","824","html-keyboard-response","451","566824","0.0-3.0-1.217","azul","s","n","noncog","word","S","exp","4"
"","null","html-keyboard-response","452","567326","0.0-3.0-0.218","+","null","","","","","",""
"","772","html-keyboard-response","453","568100","0.0-3.0-1.218","socorro","s","n","noncog","word","S","exp","7"
"","null","html-keyboard-response","454","568601","0.0-3.0-0.219","+","null","","","","","",""
"","533","html-keyboard-response","455","569135","0.0-3.0-1.219","mal","s","a","cog","word","S","exp","3"
"","null","html-keyboard-response","456","569637","0.0-3.0-0.220","+","null","","","","","",""
"","662","html-keyboard-response","457","570300","0.0-3.0-1.220","trabalhar","s","v","noncog","word","S","exp","9"
"","null","html-keyboard-response","458","570801","0.0-3.0-0.221","+","null","","","","","",""
"","863","html-keyboard-response","459","571665","0.0-3.0-1.221","aparme","n","null","noncog","pseudo","N","exp","null"
"","null","html-keyboard-response","460","572167","0.0-3.0-0.222","+","null","","","","","",""
"","883","html-keyboard-response","461","573051","0.0-3.0-1.222","usnado","n","null","noncog","pseudo","N","exp","null"
"","null","html-keyboard-response","462","573552","0.0-3.0-0.223","+","null","","","","","",""
"","1151","html-keyboard-response","463","574703","0.0-3.0-1.223","quenzina","n","null","noncog","pseudo","N","exp","null"
"","null","html-keyboard-response","464","575213","0.0-3.0-0.224","+","null","","","","","",""
"","807","html-keyboard-response","465","576021","0.0-3.0-1.224","agravar","s","v","cog","word","S","exp","7"
"","null","html-keyboard-response","466","576523","0.0-3.0-0.225","+","null","","","","","",""
"","1648","html-keyboard-response","467","578171","0.0-3.0-1.225","sintonizar","s","v","noncog","word","S","exp","10"
"","null","html-keyboard-response","468","578673","0.0-3.0-0.226","+","null","","","","","",""
"","789","html-keyboard-response","469","579463","0.0-3.0-1.226","enedro","n","null","noncog","pseudo","N","exp","null"
"","null","html-keyboard-response","470","579965","0.0-3.0-0.227","+","null","","","","","",""
"","1288","html-keyboard-response","471","581254","0.0-3.0-1.227","medalha","s","n","cog","word","S","exp","7"
"","null","html-keyboard-response","472","581755","0.0-3.0-0.228","+","null","","","","","",""
"","672","html-keyboard-response","473","582428","0.0-3.0-1.228","espaço","s","n","cog","word","S","exp","6"
"","null","html-keyboard-response","474","582929","0.0-3.0-0.229","+","null","","","","","",""
"","1299","html-keyboard-response","475","584228","0.0-3.0-1.229","lapestra","n","null","noncog","pseudo","N","exp","null"
"","null","html-keyboard-response","476","584731","0.0-3.0-0.230","+","null","","","","","",""
"","1120","html-keyboard-response","477","585852","0.0-3.0-1.230","cirado","n","null","noncog","pseudo","N","exp","null"
"","null","html-keyboard-response","478","586354","0.0-3.0-0.231","+","null","","","","","",""
"","745","html-keyboard-response","479","587100","0.0-3.0-1.231","promessa","s","n","noncog","word","S","exp","8"
"","null","html-keyboard-response","480","587602","0.0-3.0-0.232","+","null","","","","","",""
"","2655","html-keyboard-response","481","590258","0.0-3.0-1.232","mua","n","null","noncog","pseudo","N","exp","null"
"","null","html-keyboard-response","482","590759","0.0-3.0-0.233","+","null","","","","","",""
"","615","html-keyboard-response","483","591375","0.0-3.0-1.233","cristal","s","n","cog","word","S","exp","7"
"","null","html-keyboard-response","484","591876","0.0-3.0-0.234","+","null","","","","","",""
"","953","html-keyboard-response","485","592830","0.0-3.0-1.234","costra","n","null","noncog","pseudo","N","exp","null"
"","null","html-keyboard-response","486","593331","0.0-3.0-0.235","+","null","","","","","",""
"","938","html-keyboard-response","487","594270","0.0-3.0-1.235","rédesa","n","null","noncog","pseudo","N","exp","null"
"","null","html-keyboard-response","488","594772","0.0-3.0-0.236","+","null","","","","","",""
"","1584","html-keyboard-response","489","596357","0.0-3.0-1.236","orupas","n","null","noncog","pseudo","N","exp","null"
"","null","html-keyboard-response","490","596859","0.0-3.0-0.237","+","null","","","","","",""
"","747","html-keyboard-response","491","597607","0.0-3.0-1.237","espionar","s","v","cog","word","S","exp","8"
"","null","html-keyboard-response","492","598120","0.0-3.0-0.238","+","null","","","","","",""
"","942","html-keyboard-response","493","599063","0.0-3.0-1.238","animado","s","a","noncog","word","S","exp","7"
"","null","html-keyboard-response","494","599565","0.0-3.0-0.239","+","null","","","","","",""
"","1179","html-keyboard-response","495","600745","0.0-3.0-1.239","hipócrita","s","a","noncog","word","S","exp","9"
