[
	{
		"view_history": [
			{
				"page_index": 0,
				"viewing_time": 3841
			}
		],
		"rt": 3841,
		"trial_type": "instructions",
		"trial_index": 0,
		"time_elapsed": 3842,
		"internal_node_id": "0.0-0.0"
	},
	{
		"rt": 7914,
		"response": {
			"tcle": "Concordo voluntariamente em participar da pesquisa conforme texto acima."
		},
		"question_order": [
			0
		],
		"trial_type": "survey-multi-choice",
		"trial_index": 1,
		"time_elapsed": 11976,
		"internal_node_id": "0.0-1.0"
	},
	{
		"rt": 19790,
		"response": {
			"email": "PO94X"
		},
		"trial_type": "survey-text",
		"trial_index": 2,
		"time_elapsed": 32804,
		"internal_node_id": "0.0-2.0"
	}
]