[
	{
		"view_history": [
			{
				"page_index": 0,
				"viewing_time": 147083
			},
			{
				"page_index": 1,
				"viewing_time": 3954
			}
		],
		"rt": 151037,
		"trial_type": "instructions",
		"trial_index": 0,
		"time_elapsed": 151039,
		"internal_node_id": "0.0-0.0"
	},
	{
		"rt": null,
		"stimulus": "<span style= \"font-size:30px; font-family: monospace\">+</span>",
		"response": null,
		"trial_part": "fixation",
		"trial_type": "html-keyboard-response",
		"trial_index": 1,
		"time_elapsed": 152142,
		"internal_node_id": "0.0-1.0-0.0-0.0"
	},
	{
		"rt": 9687,
		"stimulus": "<span style=\"font-size:30px; font-family: monospace\">O</span>",
		"response": " ",
		"trial": "prac-sent",
		"word": "O",
		"trial_type": "html-keyboard-response",
		"trial_index": 2,
		"time_elapsed": 162080,
		"internal_node_id": "0.0-1.0-1.0"
	},
	{
		"rt": 4488,
		"stimulus": "<span style=\"font-size:30px; font-family: monospace\">dia</span>",
		"response": " ",
		"trial": "prac-sent",
		"word": "dia",
		"trial_type": "html-keyboard-response",
		"trial_index": 3,
		"time_elapsed": 166820,
		"internal_node_id": "0.0-1.0-1.1"
	},
	{
		"rt": 2286,
		"stimulus": "<span style=\"font-size:30px; font-family: monospace\">estará</span>",
		"response": " ",
		"trial": "prac-sent",
		"word": "estará",
		"trial_type": "html-keyboard-response",
		"trial_index": 4,
		"time_elapsed": 169358,
		"internal_node_id": "0.0-1.0-1.2"
	},
	{
		"rt": 1419,
		"stimulus": "<span style=\"font-size:30px; font-family: monospace\">cheio</span>",
		"response": " ",
		"trial": "prac-sent",
		"word": "cheio",
		"trial_type": "html-keyboard-response",
		"trial_index": 5,
		"time_elapsed": 171027,
		"internal_node_id": "0.0-1.0-1.3"
	},
	{
		"rt": 1559,
		"stimulus": "<span style=\"font-size:30px; font-family: monospace\">de</span>",
		"response": " ",
		"trial": "prac-sent",
		"word": "de",
		"trial_type": "html-keyboard-response",
		"trial_index": 6,
		"time_elapsed": 172837,
		"internal_node_id": "0.0-1.0-1.4"
	},
	{
		"rt": 2029,
		"stimulus": "<span style=\"font-size:30px; font-family: monospace\">nuvens</span>",
		"response": " ",
		"trial": "prac-sent",
		"word": "nuvens",
		"trial_type": "html-keyboard-response",
		"trial_index": 7,
		"time_elapsed": 175118,
		"internal_node_id": "0.0-1.0-1.5"
	},
	{
		"rt": 1244,
		"stimulus": "<span style=\"font-size:30px; font-family: monospace\">hoje.</span>",
		"response": " ",
		"trial": "prac-sent",
		"word": "hoje.",
		"trial_type": "html-keyboard-response",
		"trial_index": 8,
		"time_elapsed": 176615,
		"internal_node_id": "0.0-1.0-1.6"
	},
	{
		"rt": null,
		"stimulus": "<span style= \"font-size:30px; font-family: monospace\">+</span>",
		"response": null,
		"trial_part": "fixation",
		"trial_type": "html-keyboard-response",
		"trial_index": 9,
		"time_elapsed": 177867,
		"internal_node_id": "0.0-1.0-0.7-0.7"
	},
	{
		"rt": 2031,
		"stimulus": "<span style=\"font-size:30px; font-family: monospace\">A</span>",
		"response": " ",
		"trial": "prac-sent",
		"word": "A",
		"trial_type": "html-keyboard-response",
		"trial_index": 10,
		"time_elapsed": 180150,
		"internal_node_id": "0.0-1.0-1.7"
	},
	{
		"rt": 1216,
		"stimulus": "<span style=\"font-size:30px; font-family: monospace\">caneca</span>",
		"response": " ",
		"trial": "prac-sent",
		"word": "caneca",
		"trial_type": "html-keyboard-response",
		"trial_index": 11,
		"time_elapsed": 181617,
		"internal_node_id": "0.0-1.0-1.8"
	},
	{
		"rt": 697,
		"stimulus": "<span style=\"font-size:30px; font-family: monospace\">colorida</span>",
		"response": " ",
		"trial": "prac-sent",
		"word": "colorida",
		"trial_type": "html-keyboard-response",
		"trial_index": 12,
		"time_elapsed": 182565,
		"internal_node_id": "0.0-1.0-1.9"
	},
	{
		"rt": 572,
		"stimulus": "<span style=\"font-size:30px; font-family: monospace\">caiu</span>",
		"response": " ",
		"trial": "prac-sent",
		"word": "caiu",
		"trial_type": "html-keyboard-response",
		"trial_index": 13,
		"time_elapsed": 183388,
		"internal_node_id": "0.0-1.0-1.10"
	},
	{
		"rt": 465,
		"stimulus": "<span style=\"font-size:30px; font-family: monospace\">da</span>",
		"response": " ",
		"trial": "prac-sent",
		"word": "da",
		"trial_type": "html-keyboard-response",
		"trial_index": 14,
		"time_elapsed": 184105,
		"internal_node_id": "0.0-1.0-1.11"
	},
	{
		"rt": 366,
		"stimulus": "<span style=\"font-size:30px; font-family: monospace\">mesa</span>",
		"response": " ",
		"trial": "prac-sent",
		"word": "mesa",
		"trial_type": "html-keyboard-response",
		"trial_index": 15,
		"time_elapsed": 184722,
		"internal_node_id": "0.0-1.0-1.12"
	},
	{
		"rt": 477,
		"stimulus": "<span style=\"font-size:30px; font-family: monospace\">de</span>",
		"response": " ",
		"trial": "prac-sent",
		"word": "de",
		"trial_type": "html-keyboard-response",
		"trial_index": 16,
		"time_elapsed": 185451,
		"internal_node_id": "0.0-1.0-1.13"
	},
	{
		"rt": 3727,
		"stimulus": "<span style=\"font-size:30px; font-family: monospace\">jantar.</span>",
		"response": " ",
		"trial": "prac-comp",
		"word": "jantar.",
		"trial_type": "html-keyboard-response",
		"trial_index": 17,
		"time_elapsed": 189429,
		"internal_node_id": "0.0-1.0-1.14"
	},
	{
		"rt": 49364,
		"stimulus": "<span style=\"font-size:30px; font-family: monospace\">A caneca permaneceu na mesa?</span>",
		"response": "s",
		"question": "A caneca permaneceu na mesa?",
		"answer": "não",
		"trial": "prac-comp",
		"trial_type": "html-keyboard-response",
		"trial_index": 18,
		"time_elapsed": 239044,
		"internal_node_id": "0.0-1.0-2.14-0.14",
		"accuracy": false
	},
	{
		"view_history": [
			{
				"page_index": 0,
				"viewing_time": 30079
			}
		],
		"rt": 30080,
		"trial_type": "instructions",
		"trial_index": 19,
		"time_elapsed": 269626,
		"internal_node_id": "0.0-2.0"
	},
	{
		"rt": null,
		"stimulus": "<span style= \"font-size:30px; font-family: monospace\">+</span>",
		"response": null,
		"trial_part": "fixation",
		"trial_type": "html-keyboard-response",
		"trial_index": 20,
		"time_elapsed": 270727,
		"internal_node_id": "0.0-3.0-0.0-0.0"
	},
	{
		"rt": 7083,
		"stimulus": "<span style=\"font-size:30px; font-family: monospace\">A</span>",
		"response": " ",
		"trial": "exp-sent",
		"word": "A",
		"trial_type": "html-keyboard-response",
		"trial_index": 21,
		"time_elapsed": 278063,
		"internal_node_id": "0.0-3.0-1.0"
	},
	{
		"rt": 932,
		"stimulus": "<span style=\"font-size:30px; font-family: monospace\">senhora</span>",
		"response": " ",
		"trial": "exp-sent",
		"word": "senhora",
		"trial_type": "html-keyboard-response",
		"trial_index": 22,
		"time_elapsed": 279247,
		"internal_node_id": "0.0-3.0-1.1"
	},
	{
		"rt": 1538,
		"stimulus": "<span style=\"font-size:30px; font-family: monospace\">cumprimentou</span>",
		"response": " ",
		"trial": "exp-sent",
		"word": "cumprimentou",
		"trial_type": "html-keyboard-response",
		"trial_index": 23,
		"time_elapsed": 281036,
		"internal_node_id": "0.0-3.0-1.2"
	},
	{
		"rt": 822,
		"stimulus": "<span style=\"font-size:30px; font-family: monospace\">o</span>",
		"response": " ",
		"trial": "exp-sent",
		"word": "o",
		"trial_type": "html-keyboard-response",
		"trial_index": 24,
		"time_elapsed": 282109,
		"internal_node_id": "0.0-3.0-1.3"
	},
	{
		"rt": 965,
		"stimulus": "<span style=\"font-size:30px; font-family: monospace\">operador</span>",
		"response": " ",
		"trial": "exp-sent",
		"word": "operador",
		"trial_type": "html-keyboard-response",
		"trial_index": 25,
		"time_elapsed": 283326,
		"internal_node_id": "0.0-3.0-1.4"
	},
	{
		"rt": 644,
		"stimulus": "<span style=\"font-size:30px; font-family: monospace\">de</span>",
		"response": " ",
		"trial": "exp-sent",
		"word": "de",
		"trial_type": "html-keyboard-response",
		"trial_index": 26,
		"time_elapsed": 284221,
		"internal_node_id": "0.0-3.0-1.5"
	},
	{
		"rt": 2218,
		"stimulus": "<span style=\"font-size:30px; font-family: monospace\">caixa.</span>",
		"response": " ",
		"trial": "exp-sent",
		"word": "caixa.",
		"trial_type": "html-keyboard-response",
		"trial_index": 27,
		"time_elapsed": 286691,
		"internal_node_id": "0.0-3.0-1.6"
	},
	{
		"rt": null,
		"stimulus": "<span style= \"font-size:30px; font-family: monospace\">+</span>",
		"response": null,
		"trial_part": "fixation",
		"trial_type": "html-keyboard-response",
		"trial_index": 28,
		"time_elapsed": 287944,
		"internal_node_id": "0.0-3.0-0.7-0.7"
	},
	{
		"rt": 774,
		"stimulus": "<span style=\"font-size:30px; font-family: monospace\">A</span>",
		"response": " ",
		"trial": "exp-sent",
		"word": "A",
		"trial_type": "html-keyboard-response",
		"trial_index": 29,
		"time_elapsed": 288970,
		"internal_node_id": "0.0-3.0-1.7"
	},
	{
		"rt": 699,
		"stimulus": "<span style=\"font-size:30px; font-family: monospace\">gente</span>",
		"response": " ",
		"trial": "exp-sent",
		"word": "gente",
		"trial_type": "html-keyboard-response",
		"trial_index": 30,
		"time_elapsed": 289920,
		"internal_node_id": "0.0-3.0-1.8"
	},
	{
		"rt": 790,
		"stimulus": "<span style=\"font-size:30px; font-family: monospace\">viu</span>",
		"response": " ",
		"trial": "exp-sent",
		"word": "viu",
		"trial_type": "html-keyboard-response",
		"trial_index": 31,
		"time_elapsed": 290961,
		"internal_node_id": "0.0-3.0-1.9"
	},
	{
		"rt": 635,
		"stimulus": "<span style=\"font-size:30px; font-family: monospace\">o</span>",
		"response": " ",
		"trial": "exp-sent",
		"word": "o",
		"trial_type": "html-keyboard-response",
		"trial_index": 32,
		"time_elapsed": 291847,
		"internal_node_id": "0.0-3.0-1.10"
	},
	{
		"rt": 797,
		"stimulus": "<span style=\"font-size:30px; font-family: monospace\">eclipse</span>",
		"response": " ",
		"trial": "exp-sent",
		"word": "eclipse",
		"trial_type": "html-keyboard-response",
		"trial_index": 33,
		"time_elapsed": 292896,
		"internal_node_id": "0.0-3.0-1.11"
	},
	{
		"rt": 720,
		"stimulus": "<span style=\"font-size:30px; font-family: monospace\">lunar</span>",
		"response": " ",
		"trial": "exp-sent",
		"word": "lunar",
		"trial_type": "html-keyboard-response",
		"trial_index": 34,
		"time_elapsed": 293868,
		"internal_node_id": "0.0-3.0-1.12"
	},
	{
		"rt": 910,
		"stimulus": "<span style=\"font-size:30px; font-family: monospace\">durante</span>",
		"response": " ",
		"trial": "exp-sent",
		"word": "durante",
		"trial_type": "html-keyboard-response",
		"trial_index": 35,
		"time_elapsed": 295031,
		"internal_node_id": "0.0-3.0-1.13"
	},
	{
		"rt": 604,
		"stimulus": "<span style=\"font-size:30px; font-family: monospace\">o</span>",
		"response": " ",
		"trial": "exp-sent",
		"word": "o",
		"trial_type": "html-keyboard-response",
		"trial_index": 36,
		"time_elapsed": 295886,
		"internal_node_id": "0.0-3.0-1.14"
	},
	{
		"rt": 948,
		"stimulus": "<span style=\"font-size:30px; font-family: monospace\">dia.</span>",
		"response": " ",
		"trial": "exp-sent",
		"word": "dia.",
		"trial_type": "html-keyboard-response",
		"trial_index": 37,
		"time_elapsed": 297085,
		"internal_node_id": "0.0-3.0-1.15"
	},
	{
		"rt": null,
		"stimulus": "<span style= \"font-size:30px; font-family: monospace\">+</span>",
		"response": null,
		"trial_part": "fixation",
		"trial_type": "html-keyboard-response",
		"trial_index": 38,
		"time_elapsed": 298337,
		"internal_node_id": "0.0-3.0-0.16-0.16"
	},
	{
		"rt": 1322,
		"stimulus": "<span style=\"font-size:30px; font-family: monospace\">A</span>",
		"response": " ",
		"trial": "exp-sent",
		"word": "A",
		"trial_type": "html-keyboard-response",
		"trial_index": 39,
		"time_elapsed": 299912,
		"internal_node_id": "0.0-3.0-1.16"
	},
	{
		"rt": 1065,
		"stimulus": "<span style=\"font-size:30px; font-family: monospace\">mordida</span>",
		"response": " ",
		"trial": "exp-sent",
		"word": "mordida",
		"trial_type": "html-keyboard-response",
		"trial_index": 40,
		"time_elapsed": 301228,
		"internal_node_id": "0.0-3.0-1.17"
	},
	{
		"rt": 868,
		"stimulus": "<span style=\"font-size:30px; font-family: monospace\">do</span>",
		"response": " ",
		"trial": "exp-sent",
		"word": "do",
		"trial_type": "html-keyboard-response",
		"trial_index": 41,
		"time_elapsed": 302347,
		"internal_node_id": "0.0-3.0-1.18"
	},
	{
		"rt": 1126,
		"stimulus": "<span style=\"font-size:30px; font-family: monospace\">cachorro</span>",
		"response": " ",
		"trial": "exp-sent",
		"word": "cachorro",
		"trial_type": "html-keyboard-response",
		"trial_index": 42,
		"time_elapsed": 303724,
		"internal_node_id": "0.0-3.0-1.19"
	},
	{
		"rt": 936,
		"stimulus": "<span style=\"font-size:30px; font-family: monospace\">voraz</span>",
		"response": " ",
		"trial": "exp-sent",
		"word": "voraz",
		"trial_type": "html-keyboard-response",
		"trial_index": 43,
		"time_elapsed": 304911,
		"internal_node_id": "0.0-3.0-1.20"
	},
	{
		"rt": 856,
		"stimulus": "<span style=\"font-size:30px; font-family: monospace\">causou</span>",
		"response": " ",
		"trial": "exp-sent",
		"word": "causou",
		"trial_type": "html-keyboard-response",
		"trial_index": 44,
		"time_elapsed": 306019,
		"internal_node_id": "0.0-3.0-1.21"
	},
	{
		"rt": 628,
		"stimulus": "<span style=\"font-size:30px; font-family: monospace\">uma</span>",
		"response": " ",
		"trial": "exp-sent",
		"word": "uma",
		"trial_type": "html-keyboard-response",
		"trial_index": 45,
		"time_elapsed": 306898,
		"internal_node_id": "0.0-3.0-1.22"
	},
	{
		"rt": 1199,
		"stimulus": "<span style=\"font-size:30px; font-family: monospace\">cicatriz.</span>",
		"response": " ",
		"trial": "exp-sent",
		"word": "cicatriz.",
		"trial_type": "html-keyboard-response",
		"trial_index": 46,
		"time_elapsed": 308348,
		"internal_node_id": "0.0-3.0-1.23"
	},
	{
		"rt": null,
		"stimulus": "<span style= \"font-size:30px; font-family: monospace\">+</span>",
		"response": null,
		"trial_part": "fixation",
		"trial_type": "html-keyboard-response",
		"trial_index": 47,
		"time_elapsed": 309601,
		"internal_node_id": "0.0-3.0-0.24-0.24"
	},
	{
		"rt": 1024,
		"stimulus": "<span style=\"font-size:30px; font-family: monospace\">Elas</span>",
		"response": " ",
		"trial": "exp-sent",
		"word": "Elas",
		"trial_type": "html-keyboard-response",
		"trial_index": 48,
		"time_elapsed": 310877,
		"internal_node_id": "0.0-3.0-1.24"
	},
	{
		"rt": 1150,
		"stimulus": "<span style=\"font-size:30px; font-family: monospace\">não</span>",
		"response": " ",
		"trial": "exp-sent",
		"word": "não",
		"trial_type": "html-keyboard-response",
		"trial_index": 49,
		"time_elapsed": 312278,
		"internal_node_id": "0.0-3.0-1.25"
	},
	{
		"rt": 1093,
		"stimulus": "<span style=\"font-size:30px; font-family: monospace\">viram</span>",
		"response": " ",
		"trial": "exp-sent",
		"word": "viram",
		"trial_type": "html-keyboard-response",
		"trial_index": 50,
		"time_elapsed": 313621,
		"internal_node_id": "0.0-3.0-1.26"
	},
	{
		"rt": 1114,
		"stimulus": "<span style=\"font-size:30px; font-family: monospace\">nenhuma</span>",
		"response": " ",
		"trial": "exp-sent",
		"word": "nenhuma",
		"trial_type": "html-keyboard-response",
		"trial_index": 51,
		"time_elapsed": 314985,
		"internal_node_id": "0.0-3.0-1.27"
	},
	{
		"rt": 944,
		"stimulus": "<span style=\"font-size:30px; font-family: monospace\">diferença</span>",
		"response": " ",
		"trial": "exp-sent",
		"word": "diferença",
		"trial_type": "html-keyboard-response",
		"trial_index": 52,
		"time_elapsed": 316183,
		"internal_node_id": "0.0-3.0-1.28"
	},
	{
		"rt": 718,
		"stimulus": "<span style=\"font-size:30px; font-family: monospace\">entre</span>",
		"response": " ",
		"trial": "exp-sent",
		"word": "entre",
		"trial_type": "html-keyboard-response",
		"trial_index": 53,
		"time_elapsed": 317153,
		"internal_node_id": "0.0-3.0-1.29"
	},
	{
		"rt": 715,
		"stimulus": "<span style=\"font-size:30px; font-family: monospace\">os</span>",
		"response": " ",
		"trial": "exp-sent",
		"word": "os",
		"trial_type": "html-keyboard-response",
		"trial_index": 54,
		"time_elapsed": 318119,
		"internal_node_id": "0.0-3.0-1.30"
	},
	{
		"rt": 1059,
		"stimulus": "<span style=\"font-size:30px; font-family: monospace\">textos.</span>",
		"response": " ",
		"trial": "exp-sent",
		"word": "textos.",
		"trial_type": "html-keyboard-response",
		"trial_index": 55,
		"time_elapsed": 319430,
		"internal_node_id": "0.0-3.0-1.31"
	},
	{
		"rt": null,
		"stimulus": "<span style= \"font-size:30px; font-family: monospace\">+</span>",
		"response": null,
		"trial_part": "fixation",
		"trial_type": "html-keyboard-response",
		"trial_index": 56,
		"time_elapsed": 320681,
		"internal_node_id": "0.0-3.0-0.32-0.32"
	},
	{
		"rt": 1392,
		"stimulus": "<span style=\"font-size:30px; font-family: monospace\">Amanhã</span>",
		"response": " ",
		"trial": "exp-sent",
		"word": "Amanhã",
		"trial_type": "html-keyboard-response",
		"trial_index": 57,
		"time_elapsed": 322324,
		"internal_node_id": "0.0-3.0-1.32"
	},
	{
		"rt": 763,
		"stimulus": "<span style=\"font-size:30px; font-family: monospace\">vai</span>",
		"response": " ",
		"trial": "exp-sent",
		"word": "vai",
		"trial_type": "html-keyboard-response",
		"trial_index": 58,
		"time_elapsed": 323339,
		"internal_node_id": "0.0-3.0-1.33"
	},
	{
		"rt": 855,
		"stimulus": "<span style=\"font-size:30px; font-family: monospace\">ter</span>",
		"response": " ",
		"trial": "exp-sent",
		"word": "ter",
		"trial_type": "html-keyboard-response",
		"trial_index": 59,
		"time_elapsed": 324445,
		"internal_node_id": "0.0-3.0-1.34"
	},
	{
		"rt": 663,
		"stimulus": "<span style=\"font-size:30px; font-family: monospace\">um</span>",
		"response": " ",
		"trial": "exp-sent",
		"word": "um",
		"trial_type": "html-keyboard-response",
		"trial_index": 60,
		"time_elapsed": 325359,
		"internal_node_id": "0.0-3.0-1.35"
	},
	{
		"rt": 903,
		"stimulus": "<span style=\"font-size:30px; font-family: monospace\">bazar</span>",
		"response": " ",
		"trial": "exp-sent",
		"word": "bazar",
		"trial_type": "html-keyboard-response",
		"trial_index": 61,
		"time_elapsed": 326515,
		"internal_node_id": "0.0-3.0-1.36"
	},
	{
		"rt": 515,
		"stimulus": "<span style=\"font-size:30px; font-family: monospace\">no</span>",
		"response": " ",
		"trial": "exp-sent",
		"word": "no",
		"trial_type": "html-keyboard-response",
		"trial_index": 62,
		"time_elapsed": 327280,
		"internal_node_id": "0.0-3.0-1.37"
	},
	{
		"rt": 1058,
		"stimulus": "<span style=\"font-size:30px; font-family: monospace\">bairro.</span>",
		"response": " ",
		"trial": "comp",
		"word": "bairro.",
		"trial_type": "html-keyboard-response",
		"trial_index": 63,
		"time_elapsed": 328589,
		"internal_node_id": "0.0-3.0-1.38"
	},
	{
		"rt": 4027,
		"stimulus": "<span style=\"font-size:30px; font-family: monospace\">Amanhã vai acontecer um bazar no bairro?</span>",
		"response": "s",
		"question": "Amanhã vai acontecer um bazar no bairro?",
		"answer": "sim",
		"trial": "comp",
		"trial_type": "html-keyboard-response",
		"trial_index": 64,
		"time_elapsed": 332868,
		"internal_node_id": "0.0-3.0-2.38-0.38",
		"accuracy": false
	},
	{
		"rt": null,
		"stimulus": "<span style= \"font-size:30px; font-family: monospace\">+</span>",
		"response": null,
		"trial_part": "fixation",
		"trial_type": "html-keyboard-response",
		"trial_index": 65,
		"time_elapsed": 334371,
		"internal_node_id": "0.0-3.0-0.39-0.39"
	},
	{
		"rt": 2598,
		"stimulus": "<span style=\"font-size:30px; font-family: monospace\">Minha</span>",
		"response": " ",
		"trial": "exp-sent",
		"word": "Minha",
		"trial_type": "html-keyboard-response",
		"trial_index": 66,
		"time_elapsed": 337220,
		"internal_node_id": "0.0-3.0-1.39"
	},
	{
		"rt": 994,
		"stimulus": "<span style=\"font-size:30px; font-family: monospace\">prima</span>",
		"response": " ",
		"trial": "exp-sent",
		"word": "prima",
		"trial_type": "html-keyboard-response",
		"trial_index": 67,
		"time_elapsed": 338465,
		"internal_node_id": "0.0-3.0-1.40"
	},
	{
		"rt": 838,
		"stimulus": "<span style=\"font-size:30px; font-family: monospace\">trocou</span>",
		"response": " ",
		"trial": "exp-sent",
		"word": "trocou",
		"trial_type": "html-keyboard-response",
		"trial_index": 68,
		"time_elapsed": 339555,
		"internal_node_id": "0.0-3.0-1.41"
	},
	{
		"rt": 791,
		"stimulus": "<span style=\"font-size:30px; font-family: monospace\">a</span>",
		"response": " ",
		"trial": "exp-sent",
		"word": "a",
		"trial_type": "html-keyboard-response",
		"trial_index": 69,
		"time_elapsed": 340597,
		"internal_node_id": "0.0-3.0-1.42"
	},
	{
		"rt": 744,
		"stimulus": "<span style=\"font-size:30px; font-family: monospace\">tela</span>",
		"response": " ",
		"trial": "exp-sent",
		"word": "tela",
		"trial_type": "html-keyboard-response",
		"trial_index": 70,
		"time_elapsed": 341593,
		"internal_node_id": "0.0-3.0-1.43"
	},
	{
		"rt": 598,
		"stimulus": "<span style=\"font-size:30px; font-family: monospace\">do</span>",
		"response": " ",
		"trial": "exp-sent",
		"word": "do",
		"trial_type": "html-keyboard-response",
		"trial_index": 71,
		"time_elapsed": 342443,
		"internal_node_id": "0.0-3.0-1.44"
	},
	{
		"rt": 643,
		"stimulus": "<span style=\"font-size:30px; font-family: monospace\">celular</span>",
		"response": " ",
		"trial": "exp-sent",
		"word": "celular",
		"trial_type": "html-keyboard-response",
		"trial_index": 72,
		"time_elapsed": 343337,
		"internal_node_id": "0.0-3.0-1.45"
	},
	{
		"rt": 507,
		"stimulus": "<span style=\"font-size:30px; font-family: monospace\">duas</span>",
		"response": " ",
		"trial": "exp-sent",
		"word": "duas",
		"trial_type": "html-keyboard-response",
		"trial_index": 73,
		"time_elapsed": 344095,
		"internal_node_id": "0.0-3.0-1.46"
	},
	{
		"rt": 555,
		"stimulus": "<span style=\"font-size:30px; font-family: monospace\">vezes.</span>",
		"response": " ",
		"trial": "exp-sent",
		"word": "vezes.",
		"trial_type": "html-keyboard-response",
		"trial_index": 74,
		"time_elapsed": 344901,
		"internal_node_id": "0.0-3.0-1.47"
	},
	{
		"rt": null,
		"stimulus": "<span style= \"font-size:30px; font-family: monospace\">+</span>",
		"response": null,
		"trial_part": "fixation",
		"trial_type": "html-keyboard-response",
		"trial_index": 75,
		"time_elapsed": 346153,
		"internal_node_id": "0.0-3.0-0.48-0.48"
	},
	{
		"rt": 679,
		"stimulus": "<span style=\"font-size:30px; font-family: monospace\">Agora</span>",
		"response": " ",
		"trial": "exp-sent",
		"word": "Agora",
		"trial_type": "html-keyboard-response",
		"trial_index": 76,
		"time_elapsed": 347083,
		"internal_node_id": "0.0-3.0-1.48"
	},
	{
		"rt": 558,
		"stimulus": "<span style=\"font-size:30px; font-family: monospace\">a</span>",
		"response": " ",
		"trial": "exp-sent",
		"word": "a",
		"trial_type": "html-keyboard-response",
		"trial_index": 77,
		"time_elapsed": 347892,
		"internal_node_id": "0.0-3.0-1.49"
	},
	{
		"rt": 621,
		"stimulus": "<span style=\"font-size:30px; font-family: monospace\">minha</span>",
		"response": " ",
		"trial": "exp-sent",
		"word": "minha",
		"trial_type": "html-keyboard-response",
		"trial_index": 78,
		"time_elapsed": 348765,
		"internal_node_id": "0.0-3.0-1.50"
	},
	{
		"rt": 652,
		"stimulus": "<span style=\"font-size:30px; font-family: monospace\">única</span>",
		"response": " ",
		"trial": "exp-sent",
		"word": "única",
		"trial_type": "html-keyboard-response",
		"trial_index": 79,
		"time_elapsed": 349668,
		"internal_node_id": "0.0-3.0-1.51"
	},
	{
		"rt": 662,
		"stimulus": "<span style=\"font-size:30px; font-family: monospace\">preocupação</span>",
		"response": " ",
		"trial": "exp-sent",
		"word": "preocupação",
		"trial_type": "html-keyboard-response",
		"trial_index": 80,
		"time_elapsed": 350582,
		"internal_node_id": "0.0-3.0-1.52"
	},
	{
		"rt": 539,
		"stimulus": "<span style=\"font-size:30px; font-family: monospace\">é</span>",
		"response": " ",
		"trial": "exp-sent",
		"word": "é",
		"trial_type": "html-keyboard-response",
		"trial_index": 81,
		"time_elapsed": 351372,
		"internal_node_id": "0.0-3.0-1.53"
	},
	{
		"rt": 459,
		"stimulus": "<span style=\"font-size:30px; font-family: monospace\">um</span>",
		"response": " ",
		"trial": "exp-sent",
		"word": "um",
		"trial_type": "html-keyboard-response",
		"trial_index": 82,
		"time_elapsed": 352083,
		"internal_node_id": "0.0-3.0-1.54"
	},
	{
		"rt": 673,
		"stimulus": "<span style=\"font-size:30px; font-family: monospace\">descanso</span>",
		"response": " ",
		"trial": "exp-sent",
		"word": "descanso",
		"trial_type": "html-keyboard-response",
		"trial_index": 83,
		"time_elapsed": 353007,
		"internal_node_id": "0.0-3.0-1.55"
	},
	{
		"rt": 629,
		"stimulus": "<span style=\"font-size:30px; font-family: monospace\">tranquilo.</span>",
		"response": " ",
		"trial": "exp-sent",
		"word": "tranquilo.",
		"trial_type": "html-keyboard-response",
		"trial_index": 84,
		"time_elapsed": 353887,
		"internal_node_id": "0.0-3.0-1.56"
	},
	{
		"rt": null,
		"stimulus": "<span style= \"font-size:30px; font-family: monospace\">+</span>",
		"response": null,
		"trial_part": "fixation",
		"trial_type": "html-keyboard-response",
		"trial_index": 85,
		"time_elapsed": 355138,
		"internal_node_id": "0.0-3.0-0.57-0.57"
	},
	{
		"rt": 310,
		"stimulus": "<span style=\"font-size:30px; font-family: monospace\">A</span>",
		"response": " ",
		"trial": "exp-sent",
		"word": "A",
		"trial_type": "html-keyboard-response",
		"trial_index": 86,
		"time_elapsed": 355699,
		"internal_node_id": "0.0-3.0-1.57"
	},
	{
		"rt": 627,
		"stimulus": "<span style=\"font-size:30px; font-family: monospace\">criança</span>",
		"response": " ",
		"trial": "exp-sent",
		"word": "criança",
		"trial_type": "html-keyboard-response",
		"trial_index": 87,
		"time_elapsed": 356577,
		"internal_node_id": "0.0-3.0-1.58"
	},
	{
		"rt": 555,
		"stimulus": "<span style=\"font-size:30px; font-family: monospace\">ganhou</span>",
		"response": " ",
		"trial": "exp-sent",
		"word": "ganhou",
		"trial_type": "html-keyboard-response",
		"trial_index": 88,
		"time_elapsed": 357383,
		"internal_node_id": "0.0-3.0-1.59"
	},
	{
		"rt": 473,
		"stimulus": "<span style=\"font-size:30px; font-family: monospace\">um</span>",
		"response": " ",
		"trial": "exp-sent",
		"word": "um",
		"trial_type": "html-keyboard-response",
		"trial_index": 89,
		"time_elapsed": 358107,
		"internal_node_id": "0.0-3.0-1.60"
	},
	{
		"rt": 523,
		"stimulus": "<span style=\"font-size:30px; font-family: monospace\">presente</span>",
		"response": " ",
		"trial": "exp-sent",
		"word": "presente",
		"trial_type": "html-keyboard-response",
		"trial_index": 90,
		"time_elapsed": 358883,
		"internal_node_id": "0.0-3.0-1.61"
	},
	{
		"rt": 1133,
		"stimulus": "<span style=\"font-size:30px; font-family: monospace\">maravilhoso.</span>",
		"response": " ",
		"trial": "exp-sent",
		"word": "maravilhoso.",
		"trial_type": "html-keyboard-response",
		"trial_index": 91,
		"time_elapsed": 360268,
		"internal_node_id": "0.0-3.0-1.62"
	},
	{
		"rt": null,
		"stimulus": "<span style= \"font-size:30px; font-family: monospace\">+</span>",
		"response": null,
		"trial_part": "fixation",
		"trial_type": "html-keyboard-response",
		"trial_index": 92,
		"time_elapsed": 361520,
		"internal_node_id": "0.0-3.0-0.63-0.63"
	},
	{
		"rt": 411,
		"stimulus": "<span style=\"font-size:30px; font-family: monospace\">Os</span>",
		"response": " ",
		"trial": "exp-sent",
		"word": "Os",
		"trial_type": "html-keyboard-response",
		"trial_index": 93,
		"time_elapsed": 362183,
		"internal_node_id": "0.0-3.0-1.63"
	},
	{
		"rt": 563,
		"stimulus": "<span style=\"font-size:30px; font-family: monospace\">bichos</span>",
		"response": " ",
		"trial": "exp-sent",
		"word": "bichos",
		"trial_type": "html-keyboard-response",
		"trial_index": 94,
		"time_elapsed": 362997,
		"internal_node_id": "0.0-3.0-1.64"
	},
	{
		"rt": 490,
		"stimulus": "<span style=\"font-size:30px; font-family: monospace\">têm</span>",
		"response": " ",
		"trial": "exp-sent",
		"word": "têm",
		"trial_type": "html-keyboard-response",
		"trial_index": 95,
		"time_elapsed": 363738,
		"internal_node_id": "0.0-3.0-1.65"
	},
	{
		"rt": 441,
		"stimulus": "<span style=\"font-size:30px; font-family: monospace\">um</span>",
		"response": " ",
		"trial": "exp-sent",
		"word": "um",
		"trial_type": "html-keyboard-response",
		"trial_index": 96,
		"time_elapsed": 364432,
		"internal_node_id": "0.0-3.0-1.66"
	},
	{
		"rt": 495,
		"stimulus": "<span style=\"font-size:30px; font-family: monospace\">instinto</span>",
		"response": " ",
		"trial": "exp-sent",
		"word": "instinto",
		"trial_type": "html-keyboard-response",
		"trial_index": 97,
		"time_elapsed": 365179,
		"internal_node_id": "0.0-3.0-1.67"
	},
	{
		"rt": 458,
		"stimulus": "<span style=\"font-size:30px; font-family: monospace\">de</span>",
		"response": " ",
		"trial": "exp-sent",
		"word": "de",
		"trial_type": "html-keyboard-response",
		"trial_index": 98,
		"time_elapsed": 365888,
		"internal_node_id": "0.0-3.0-1.68"
	},
	{
		"rt": 886,
		"stimulus": "<span style=\"font-size:30px; font-family: monospace\">sobrevivência</span>",
		"response": " ",
		"trial": "exp-sent",
		"word": "sobrevivência",
		"trial_type": "html-keyboard-response",
		"trial_index": 99,
		"time_elapsed": 367024,
		"internal_node_id": "0.0-3.0-1.69"
	},
	{
		"rt": 615,
		"stimulus": "<span style=\"font-size:30px; font-family: monospace\">forte.</span>",
		"response": " ",
		"trial": "exp-sent",
		"word": "forte.",
		"trial_type": "html-keyboard-response",
		"trial_index": 100,
		"time_elapsed": 367890,
		"internal_node_id": "0.0-3.0-1.70"
	},
	{
		"rt": null,
		"stimulus": "<span style= \"font-size:30px; font-family: monospace\">+</span>",
		"response": null,
		"trial_part": "fixation",
		"trial_type": "html-keyboard-response",
		"trial_index": 101,
		"time_elapsed": 369142,
		"internal_node_id": "0.0-3.0-0.71-0.71"
	},
	{
		"rt": 566,
		"stimulus": "<span style=\"font-size:30px; font-family: monospace\">Aquele</span>",
		"response": " ",
		"trial": "exp-sent",
		"word": "Aquele",
		"trial_type": "html-keyboard-response",
		"trial_index": 102,
		"time_elapsed": 369959,
		"internal_node_id": "0.0-3.0-1.71"
	},
	{
		"rt": 643,
		"stimulus": "<span style=\"font-size:30px; font-family: monospace\">menino</span>",
		"response": " ",
		"trial": "exp-sent",
		"word": "menino",
		"trial_type": "html-keyboard-response",
		"trial_index": 103,
		"time_elapsed": 370854,
		"internal_node_id": "0.0-3.0-1.72"
	},
	{
		"rt": 529,
		"stimulus": "<span style=\"font-size:30px; font-family: monospace\">alto</span>",
		"response": " ",
		"trial": "exp-sent",
		"word": "alto",
		"trial_type": "html-keyboard-response",
		"trial_index": 104,
		"time_elapsed": 371637,
		"internal_node_id": "0.0-3.0-1.73"
	},
	{
		"rt": 518,
		"stimulus": "<span style=\"font-size:30px; font-family: monospace\">é</span>",
		"response": " ",
		"trial": "exp-sent",
		"word": "é",
		"trial_type": "html-keyboard-response",
		"trial_index": 105,
		"time_elapsed": 372406,
		"internal_node_id": "0.0-3.0-1.74"
	},
	{
		"rt": 538,
		"stimulus": "<span style=\"font-size:30px; font-family: monospace\">exibido</span>",
		"response": " ",
		"trial": "exp-sent",
		"word": "exibido",
		"trial_type": "html-keyboard-response",
		"trial_index": 106,
		"time_elapsed": 373195,
		"internal_node_id": "0.0-3.0-1.75"
	},
	{
		"rt": 477,
		"stimulus": "<span style=\"font-size:30px; font-family: monospace\">e</span>",
		"response": " ",
		"trial": "exp-sent",
		"word": "e",
		"trial_type": "html-keyboard-response",
		"trial_index": 107,
		"time_elapsed": 373923,
		"internal_node_id": "0.0-3.0-1.76"
	},
	{
		"rt": 826,
		"stimulus": "<span style=\"font-size:30px; font-family: monospace\">sovina.</span>",
		"response": " ",
		"trial": "comp",
		"word": "sovina.",
		"trial_type": "html-keyboard-response",
		"trial_index": 108,
		"time_elapsed": 375000,
		"internal_node_id": "0.0-3.0-1.77"
	},
	{
		"rt": 4981,
		"stimulus": "<span style=\"font-size:30px; font-family: monospace\">Aquele menino é humilde?</span>",
		"response": "s",
		"question": "Aquele menino é humilde?",
		"answer": "não",
		"trial": "comp",
		"trial_type": "html-keyboard-response",
		"trial_index": 109,
		"time_elapsed": 380233,
		"internal_node_id": "0.0-3.0-2.77-0.77",
		"accuracy": false
	},
	{
		"rt": null,
		"stimulus": "<span style= \"font-size:30px; font-family: monospace\">+</span>",
		"response": null,
		"trial_part": "fixation",
		"trial_type": "html-keyboard-response",
		"trial_index": 110,
		"time_elapsed": 381735,
		"internal_node_id": "0.0-3.0-0.78-0.78"
	},
	{
		"rt": 3438,
		"stimulus": "<span style=\"font-size:30px; font-family: monospace\">Ganhamos</span>",
		"response": " ",
		"trial": "exp-sent",
		"word": "Ganhamos",
		"trial_type": "html-keyboard-response",
		"trial_index": 111,
		"time_elapsed": 385425,
		"internal_node_id": "0.0-3.0-1.78"
	},
	{
		"rt": 986,
		"stimulus": "<span style=\"font-size:30px; font-family: monospace\">passagem</span>",
		"response": " ",
		"trial": "exp-sent",
		"word": "passagem",
		"trial_type": "html-keyboard-response",
		"trial_index": 112,
		"time_elapsed": 386663,
		"internal_node_id": "0.0-3.0-1.79"
	},
	{
		"rt": 934,
		"stimulus": "<span style=\"font-size:30px; font-family: monospace\">para</span>",
		"response": " ",
		"trial": "exp-sent",
		"word": "para",
		"trial_type": "html-keyboard-response",
		"trial_index": 113,
		"time_elapsed": 387848,
		"internal_node_id": "0.0-3.0-1.80"
	},
	{
		"rt": 808,
		"stimulus": "<span style=\"font-size:30px; font-family: monospace\">uma</span>",
		"response": " ",
		"trial": "exp-sent",
		"word": "uma",
		"trial_type": "html-keyboard-response",
		"trial_index": 114,
		"time_elapsed": 388908,
		"internal_node_id": "0.0-3.0-1.81"
	},
	{
		"rt": 910,
		"stimulus": "<span style=\"font-size:30px; font-family: monospace\">viagem</span>",
		"response": " ",
		"trial": "exp-sent",
		"word": "viagem",
		"trial_type": "html-keyboard-response",
		"trial_index": 115,
		"time_elapsed": 390070,
		"internal_node_id": "0.0-3.0-1.82"
	},
	{
		"rt": 534,
		"stimulus": "<span style=\"font-size:30px; font-family: monospace\">de</span>",
		"response": " ",
		"trial": "exp-sent",
		"word": "de",
		"trial_type": "html-keyboard-response",
		"trial_index": 116,
		"time_elapsed": 390855,
		"internal_node_id": "0.0-3.0-1.83"
	},
	{
		"rt": 1054,
		"stimulus": "<span style=\"font-size:30px; font-family: monospace\">férias.</span>",
		"response": " ",
		"trial": "exp-sent",
		"word": "férias.",
		"trial_type": "html-keyboard-response",
		"trial_index": 117,
		"time_elapsed": 392162,
		"internal_node_id": "0.0-3.0-1.84"
	},
	{
		"rt": null,
		"stimulus": "<span style= \"font-size:30px; font-family: monospace\">+</span>",
		"response": null,
		"trial_part": "fixation",
		"trial_type": "html-keyboard-response",
		"trial_index": 118,
		"time_elapsed": 393414,
		"internal_node_id": "0.0-3.0-0.85-0.85"
	},
	{
		"rt": 588,
		"stimulus": "<span style=\"font-size:30px; font-family: monospace\">Caiu</span>",
		"response": " ",
		"trial": "exp-sent",
		"word": "Caiu",
		"trial_type": "html-keyboard-response",
		"trial_index": 119,
		"time_elapsed": 394253,
		"internal_node_id": "0.0-3.0-1.85"
	},
	{
		"rt": 1005,
		"stimulus": "<span style=\"font-size:30px; font-family: monospace\">algo</span>",
		"response": " ",
		"trial": "exp-sent",
		"word": "algo",
		"trial_type": "html-keyboard-response",
		"trial_index": 120,
		"time_elapsed": 395510,
		"internal_node_id": "0.0-3.0-1.86"
	},
	{
		"rt": 694,
		"stimulus": "<span style=\"font-size:30px; font-family: monospace\">no</span>",
		"response": " ",
		"trial": "exp-sent",
		"word": "no",
		"trial_type": "html-keyboard-response",
		"trial_index": 121,
		"time_elapsed": 396456,
		"internal_node_id": "0.0-3.0-1.87"
	},
	{
		"rt": 635,
		"stimulus": "<span style=\"font-size:30px; font-family: monospace\">meu</span>",
		"response": " ",
		"trial": "exp-sent",
		"word": "meu",
		"trial_type": "html-keyboard-response",
		"trial_index": 122,
		"time_elapsed": 397343,
		"internal_node_id": "0.0-3.0-1.88"
	},
	{
		"rt": 554,
		"stimulus": "<span style=\"font-size:30px; font-family: monospace\">olho</span>",
		"response": " ",
		"trial": "exp-sent",
		"word": "olho",
		"trial_type": "html-keyboard-response",
		"trial_index": 123,
		"time_elapsed": 398149,
		"internal_node_id": "0.0-3.0-1.89"
	},
	{
		"rt": 442,
		"stimulus": "<span style=\"font-size:30px; font-family: monospace\">ontem</span>",
		"response": " ",
		"trial": "exp-sent",
		"word": "ontem",
		"trial_type": "html-keyboard-response",
		"trial_index": 124,
		"time_elapsed": 398843,
		"internal_node_id": "0.0-3.0-1.90"
	},
	{
		"rt": 526,
		"stimulus": "<span style=\"font-size:30px; font-family: monospace\">de</span>",
		"response": " ",
		"trial": "exp-sent",
		"word": "de",
		"trial_type": "html-keyboard-response",
		"trial_index": 125,
		"time_elapsed": 399620,
		"internal_node_id": "0.0-3.0-1.91"
	},
	{
		"rt": 1260,
		"stimulus": "<span style=\"font-size:30px; font-family: monospace\">tarde.</span>",
		"response": " ",
		"trial": "exp-sent",
		"word": "tarde.",
		"trial_type": "html-keyboard-response",
		"trial_index": 126,
		"time_elapsed": 401131,
		"internal_node_id": "0.0-3.0-1.92"
	},
	{
		"rt": null,
		"stimulus": "<span style= \"font-size:30px; font-family: monospace\">+</span>",
		"response": null,
		"trial_part": "fixation",
		"trial_type": "html-keyboard-response",
		"trial_index": 127,
		"time_elapsed": 402383,
		"internal_node_id": "0.0-3.0-0.93-0.93"
	},
	{
		"rt": 606,
		"stimulus": "<span style=\"font-size:30px; font-family: monospace\">Não</span>",
		"response": " ",
		"trial": "exp-sent",
		"word": "Não",
		"trial_type": "html-keyboard-response",
		"trial_index": 128,
		"time_elapsed": 403241,
		"internal_node_id": "0.0-3.0-1.93"
	},
	{
		"rt": 518,
		"stimulus": "<span style=\"font-size:30px; font-family: monospace\">havia</span>",
		"response": " ",
		"trial": "exp-sent",
		"word": "havia",
		"trial_type": "html-keyboard-response",
		"trial_index": 129,
		"time_elapsed": 404009,
		"internal_node_id": "0.0-3.0-1.94"
	},
	{
		"rt": 554,
		"stimulus": "<span style=\"font-size:30px; font-family: monospace\">mais</span>",
		"response": " ",
		"trial": "exp-sent",
		"word": "mais",
		"trial_type": "html-keyboard-response",
		"trial_index": 130,
		"time_elapsed": 404815,
		"internal_node_id": "0.0-3.0-1.95"
	},
	{
		"rt": 470,
		"stimulus": "<span style=\"font-size:30px; font-family: monospace\">nenhum</span>",
		"response": " ",
		"trial": "exp-sent",
		"word": "nenhum",
		"trial_type": "html-keyboard-response",
		"trial_index": 131,
		"time_elapsed": 405537,
		"internal_node_id": "0.0-3.0-1.96"
	},
	{
		"rt": 530,
		"stimulus": "<span style=\"font-size:30px; font-family: monospace\">ingresso</span>",
		"response": " ",
		"trial": "exp-sent",
		"word": "ingresso",
		"trial_type": "html-keyboard-response",
		"trial_index": 132,
		"time_elapsed": 406318,
		"internal_node_id": "0.0-3.0-1.97"
	},
	{
		"rt": 470,
		"stimulus": "<span style=\"font-size:30px; font-family: monospace\">para</span>",
		"response": " ",
		"trial": "exp-sent",
		"word": "para",
		"trial_type": "html-keyboard-response",
		"trial_index": 133,
		"time_elapsed": 407041,
		"internal_node_id": "0.0-3.0-1.98"
	},
	{
		"rt": 569,
		"stimulus": "<span style=\"font-size:30px; font-family: monospace\">o</span>",
		"response": " ",
		"trial": "exp-sent",
		"word": "o",
		"trial_type": "html-keyboard-response",
		"trial_index": 134,
		"time_elapsed": 407862,
		"internal_node_id": "0.0-3.0-1.99"
	},
	{
		"rt": 604,
		"stimulus": "<span style=\"font-size:30px; font-family: monospace\">evento.</span>",
		"response": " ",
		"trial": "exp-sent",
		"word": "evento.",
		"trial_type": "html-keyboard-response",
		"trial_index": 135,
		"time_elapsed": 408717,
		"internal_node_id": "0.0-3.0-1.100"
	},
	{
		"rt": null,
		"stimulus": "<span style= \"font-size:30px; font-family: monospace\">+</span>",
		"response": null,
		"trial_part": "fixation",
		"trial_type": "html-keyboard-response",
		"trial_index": 136,
		"time_elapsed": 409969,
		"internal_node_id": "0.0-3.0-0.101-0.101"
	},
	{
		"rt": 113,
		"stimulus": "<span style=\"font-size:30px; font-family: monospace\">A</span>",
		"response": " ",
		"trial": "exp-sent",
		"word": "A",
		"trial_type": "html-keyboard-response",
		"trial_index": 137,
		"time_elapsed": 410334,
		"internal_node_id": "0.0-3.0-1.101"
	},
	{
		"rt": 17554,
		"stimulus": "<span style=\"font-size:30px; font-family: monospace\">médica</span>",
		"response": " ",
		"trial": "exp-sent",
		"word": "médica",
		"trial_type": "html-keyboard-response",
		"trial_index": 138,
		"time_elapsed": 428140,
		"internal_node_id": "0.0-3.0-1.102"
	},
	{
		"rt": 568,
		"stimulus": "<span style=\"font-size:30px; font-family: monospace\">descobriu</span>",
		"response": " ",
		"trial": "exp-sent",
		"word": "descobriu",
		"trial_type": "html-keyboard-response",
		"trial_index": 139,
		"time_elapsed": 428959,
		"internal_node_id": "0.0-3.0-1.103"
	},
	{
		"rt": 461,
		"stimulus": "<span style=\"font-size:30px; font-family: monospace\">uma</span>",
		"response": " ",
		"trial": "exp-sent",
		"word": "uma",
		"trial_type": "html-keyboard-response",
		"trial_index": 140,
		"time_elapsed": 429671,
		"internal_node_id": "0.0-3.0-1.104"
	},
	{
		"rt": 436,
		"stimulus": "<span style=\"font-size:30px; font-family: monospace\">cura</span>",
		"response": " ",
		"trial": "exp-sent",
		"word": "cura",
		"trial_type": "html-keyboard-response",
		"trial_index": 141,
		"time_elapsed": 430359,
		"internal_node_id": "0.0-3.0-1.105"
	},
	{
		"rt": 437,
		"stimulus": "<span style=\"font-size:30px; font-family: monospace\">para</span>",
		"response": " ",
		"trial": "exp-sent",
		"word": "para",
		"trial_type": "html-keyboard-response",
		"trial_index": 142,
		"time_elapsed": 431048,
		"internal_node_id": "0.0-3.0-1.106"
	},
	{
		"rt": 570,
		"stimulus": "<span style=\"font-size:30px; font-family: monospace\">a</span>",
		"response": " ",
		"trial": "exp-sent",
		"word": "a",
		"trial_type": "html-keyboard-response",
		"trial_index": 143,
		"time_elapsed": 431868,
		"internal_node_id": "0.0-3.0-1.107"
	},
	{
		"rt": 584,
		"stimulus": "<span style=\"font-size:30px; font-family: monospace\">doença.</span>",
		"response": " ",
		"trial": "exp-sent",
		"word": "doença.",
		"trial_type": "html-keyboard-response",
		"trial_index": 144,
		"time_elapsed": 432703,
		"internal_node_id": "0.0-3.0-1.108"
	},
	{
		"rt": null,
		"stimulus": "<span style= \"font-size:30px; font-family: monospace\">+</span>",
		"response": null,
		"trial_part": "fixation",
		"trial_type": "html-keyboard-response",
		"trial_index": 145,
		"time_elapsed": 433956,
		"internal_node_id": "0.0-3.0-0.109-0.109"
	},
	{
		"rt": 413,
		"stimulus": "<span style=\"font-size:30px; font-family: monospace\">O</span>",
		"response": " ",
		"trial": "exp-sent",
		"word": "O",
		"trial_type": "html-keyboard-response",
		"trial_index": 146,
		"time_elapsed": 434621,
		"internal_node_id": "0.0-3.0-1.109"
	},
	{
		"rt": 520,
		"stimulus": "<span style=\"font-size:30px; font-family: monospace\">menino</span>",
		"response": " ",
		"trial": "exp-sent",
		"word": "menino",
		"trial_type": "html-keyboard-response",
		"trial_index": 147,
		"time_elapsed": 435392,
		"internal_node_id": "0.0-3.0-1.110"
	},
	{
		"rt": 504,
		"stimulus": "<span style=\"font-size:30px; font-family: monospace\">riscou</span>",
		"response": " ",
		"trial": "exp-sent",
		"word": "riscou",
		"trial_type": "html-keyboard-response",
		"trial_index": 148,
		"time_elapsed": 436147,
		"internal_node_id": "0.0-3.0-1.111"
	},
	{
		"rt": 388,
		"stimulus": "<span style=\"font-size:30px; font-family: monospace\">o</span>",
		"response": " ",
		"trial": "exp-sent",
		"word": "o",
		"trial_type": "html-keyboard-response",
		"trial_index": 149,
		"time_elapsed": 436786,
		"internal_node_id": "0.0-3.0-1.112"
	},
	{
		"rt": 442,
		"stimulus": "<span style=\"font-size:30px; font-family: monospace\">caderno</span>",
		"response": " ",
		"trial": "exp-sent",
		"word": "caderno",
		"trial_type": "html-keyboard-response",
		"trial_index": 150,
		"time_elapsed": 437479,
		"internal_node_id": "0.0-3.0-1.113"
	},
	{
		"rt": 344,
		"stimulus": "<span style=\"font-size:30px; font-family: monospace\">com</span>",
		"response": " ",
		"trial": "exp-sent",
		"word": "com",
		"trial_type": "html-keyboard-response",
		"trial_index": 151,
		"time_elapsed": 438074,
		"internal_node_id": "0.0-3.0-1.114"
	},
	{
		"rt": 404,
		"stimulus": "<span style=\"font-size:30px; font-family: monospace\">a</span>",
		"response": " ",
		"trial": "exp-sent",
		"word": "a",
		"trial_type": "html-keyboard-response",
		"trial_index": 152,
		"time_elapsed": 438731,
		"internal_node_id": "0.0-3.0-1.115"
	},
	{
		"rt": 624,
		"stimulus": "<span style=\"font-size:30px; font-family: monospace\">caneta.</span>",
		"response": " ",
		"trial": "comp",
		"word": "caneta.",
		"trial_type": "html-keyboard-response",
		"trial_index": 153,
		"time_elapsed": 439607,
		"internal_node_id": "0.0-3.0-1.116"
	},
	{
		"rt": 6785,
		"stimulus": "<span style=\"font-size:30px; font-family: monospace\">O menino riscou a parede com a caneta?</span>",
		"response": "n",
		"question": "O menino riscou a parede com a caneta?",
		"answer": "não",
		"trial": "comp",
		"trial_type": "html-keyboard-response",
		"trial_index": 154,
		"time_elapsed": 446643,
		"internal_node_id": "0.0-3.0-2.116-0.116",
		"accuracy": false
	},
	{
		"rt": null,
		"stimulus": "<span style= \"font-size:30px; font-family: monospace\">+</span>",
		"response": null,
		"trial_part": "fixation",
		"trial_type": "html-keyboard-response",
		"trial_index": 155,
		"time_elapsed": 448145,
		"internal_node_id": "0.0-3.0-0.117-0.117"
	},
	{
		"rt": 1219,
		"stimulus": "<span style=\"font-size:30px; font-family: monospace\">O</span>",
		"response": " ",
		"trial": "exp-sent",
		"word": "O",
		"trial_type": "html-keyboard-response",
		"trial_index": 156,
		"time_elapsed": 449630,
		"internal_node_id": "0.0-3.0-1.117"
	},
	{
		"rt": 591,
		"stimulus": "<span style=\"font-size:30px; font-family: monospace\">texto</span>",
		"response": " ",
		"trial": "exp-sent",
		"word": "texto",
		"trial_type": "html-keyboard-response",
		"trial_index": 157,
		"time_elapsed": 450474,
		"internal_node_id": "0.0-3.0-1.118"
	},
	{
		"rt": 520,
		"stimulus": "<span style=\"font-size:30px; font-family: monospace\">trazia</span>",
		"response": " ",
		"trial": "exp-sent",
		"word": "trazia",
		"trial_type": "html-keyboard-response",
		"trial_index": 158,
		"time_elapsed": 451245,
		"internal_node_id": "0.0-3.0-1.119"
	},
	{
		"rt": 456,
		"stimulus": "<span style=\"font-size:30px; font-family: monospace\">um</span>",
		"response": " ",
		"trial": "exp-sent",
		"word": "um",
		"trial_type": "html-keyboard-response",
		"trial_index": 159,
		"time_elapsed": 451953,
		"internal_node_id": "0.0-3.0-1.120"
	},
	{
		"rt": 555,
		"stimulus": "<span style=\"font-size:30px; font-family: monospace\">argumento</span>",
		"response": " ",
		"trial": "exp-sent",
		"word": "argumento",
		"trial_type": "html-keyboard-response",
		"trial_index": 160,
		"time_elapsed": 452759,
		"internal_node_id": "0.0-3.0-1.121"
	},
	{
		"rt": 378,
		"stimulus": "<span style=\"font-size:30px; font-family: monospace\">central</span>",
		"response": " ",
		"trial": "exp-sent",
		"word": "central",
		"trial_type": "html-keyboard-response",
		"trial_index": 161,
		"time_elapsed": 453388,
		"internal_node_id": "0.0-3.0-1.122"
	},
	{
		"rt": 376,
		"stimulus": "<span style=\"font-size:30px; font-family: monospace\">para</span>",
		"response": " ",
		"trial": "exp-sent",
		"word": "para",
		"trial_type": "html-keyboard-response",
		"trial_index": 162,
		"time_elapsed": 454015,
		"internal_node_id": "0.0-3.0-1.123"
	},
	{
		"rt": 480,
		"stimulus": "<span style=\"font-size:30px; font-family: monospace\">a</span>",
		"response": " ",
		"trial": "exp-sent",
		"word": "a",
		"trial_type": "html-keyboard-response",
		"trial_index": 163,
		"time_elapsed": 454746,
		"internal_node_id": "0.0-3.0-1.124"
	},
	{
		"rt": 1438,
		"stimulus": "<span style=\"font-size:30px; font-family: monospace\">conversa.</span>",
		"response": " ",
		"trial": "exp-sent",
		"word": "conversa.",
		"trial_type": "html-keyboard-response",
		"trial_index": 164,
		"time_elapsed": 456436,
		"internal_node_id": "0.0-3.0-1.125"
	},
	{
		"rt": null,
		"stimulus": "<span style= \"font-size:30px; font-family: monospace\">+</span>",
		"response": null,
		"trial_part": "fixation",
		"trial_type": "html-keyboard-response",
		"trial_index": 165,
		"time_elapsed": 457687,
		"internal_node_id": "0.0-3.0-0.126-0.126"
	},
	{
		"rt": 636,
		"stimulus": "<span style=\"font-size:30px; font-family: monospace\">Ontem</span>",
		"response": " ",
		"trial": "exp-sent",
		"word": "Ontem",
		"trial_type": "html-keyboard-response",
		"trial_index": 166,
		"time_elapsed": 458574,
		"internal_node_id": "0.0-3.0-1.126"
	},
	{
		"rt": 582,
		"stimulus": "<span style=\"font-size:30px; font-family: monospace\">a</span>",
		"response": " ",
		"trial": "exp-sent",
		"word": "a",
		"trial_type": "html-keyboard-response",
		"trial_index": 167,
		"time_elapsed": 459407,
		"internal_node_id": "0.0-3.0-1.127"
	},
	{
		"rt": 746,
		"stimulus": "<span style=\"font-size:30px; font-family: monospace\">temperatura</span>",
		"response": " ",
		"trial": "exp-sent",
		"word": "temperatura",
		"trial_type": "html-keyboard-response",
		"trial_index": 168,
		"time_elapsed": 460406,
		"internal_node_id": "0.0-3.0-1.128"
	},
	{
		"rt": 471,
		"stimulus": "<span style=\"font-size:30px; font-family: monospace\">estava</span>",
		"response": " ",
		"trial": "exp-sent",
		"word": "estava",
		"trial_type": "html-keyboard-response",
		"trial_index": 169,
		"time_elapsed": 461128,
		"internal_node_id": "0.0-3.0-1.129"
	},
	{
		"rt": 471,
		"stimulus": "<span style=\"font-size:30px; font-family: monospace\">amena</span>",
		"response": " ",
		"trial": "exp-sent",
		"word": "amena",
		"trial_type": "html-keyboard-response",
		"trial_index": 170,
		"time_elapsed": 461850,
		"internal_node_id": "0.0-3.0-1.130"
	},
	{
		"rt": 632,
		"stimulus": "<span style=\"font-size:30px; font-family: monospace\">durante</span>",
		"response": " ",
		"trial": "exp-sent",
		"word": "durante",
		"trial_type": "html-keyboard-response",
		"trial_index": 171,
		"time_elapsed": 462734,
		"internal_node_id": "0.0-3.0-1.131"
	},
	{
		"rt": 1193,
		"stimulus": "<span style=\"font-size:30px; font-family: monospace\">o</span>",
		"response": " ",
		"trial": "exp-sent",
		"word": "o",
		"trial_type": "html-keyboard-response",
		"trial_index": 172,
		"time_elapsed": 464179,
		"internal_node_id": "0.0-3.0-1.132"
	},
	{
		"rt": 749,
		"stimulus": "<span style=\"font-size:30px; font-family: monospace\">dia.</span>",
		"response": " ",
		"trial": "exp-sent",
		"word": "dia.",
		"trial_type": "html-keyboard-response",
		"trial_index": 173,
		"time_elapsed": 465180,
		"internal_node_id": "0.0-3.0-1.133"
	},
	{
		"rt": null,
		"stimulus": "<span style= \"font-size:30px; font-family: monospace\">+</span>",
		"response": null,
		"trial_part": "fixation",
		"trial_type": "html-keyboard-response",
		"trial_index": 174,
		"time_elapsed": 466431,
		"internal_node_id": "0.0-3.0-0.134-0.134"
	},
	{
		"rt": 820,
		"stimulus": "<span style=\"font-size:30px; font-family: monospace\">Havia</span>",
		"response": " ",
		"trial": "exp-sent",
		"word": "Havia",
		"trial_type": "html-keyboard-response",
		"trial_index": 175,
		"time_elapsed": 467503,
		"internal_node_id": "0.0-3.0-1.134"
	},
	{
		"rt": 410,
		"stimulus": "<span style=\"font-size:30px; font-family: monospace\">um</span>",
		"response": " ",
		"trial": "exp-sent",
		"word": "um",
		"trial_type": "html-keyboard-response",
		"trial_index": 176,
		"time_elapsed": 468165,
		"internal_node_id": "0.0-3.0-1.135"
	},
	{
		"rt": 982,
		"stimulus": "<span style=\"font-size:30px; font-family: monospace\">machucado</span>",
		"response": " ",
		"trial": "exp-sent",
		"word": "machucado",
		"trial_type": "html-keyboard-response",
		"trial_index": 177,
		"time_elapsed": 469398,
		"internal_node_id": "0.0-3.0-1.136"
	},
	{
		"rt": 483,
		"stimulus": "<span style=\"font-size:30px; font-family: monospace\">no</span>",
		"response": " ",
		"trial": "exp-sent",
		"word": "no",
		"trial_type": "html-keyboard-response",
		"trial_index": 178,
		"time_elapsed": 470133,
		"internal_node_id": "0.0-3.0-1.137"
	},
	{
		"rt": 457,
		"stimulus": "<span style=\"font-size:30px; font-family: monospace\">dedo</span>",
		"response": " ",
		"trial": "exp-sent",
		"word": "dedo",
		"trial_type": "html-keyboard-response",
		"trial_index": 179,
		"time_elapsed": 470841,
		"internal_node_id": "0.0-3.0-1.138"
	},
	{
		"rt": 770,
		"stimulus": "<span style=\"font-size:30px; font-family: monospace\">da</span>",
		"response": " ",
		"trial": "exp-sent",
		"word": "da",
		"trial_type": "html-keyboard-response",
		"trial_index": 180,
		"time_elapsed": 471862,
		"internal_node_id": "0.0-3.0-1.139"
	},
	{
		"rt": 885,
		"stimulus": "<span style=\"font-size:30px; font-family: monospace\">criança.</span>",
		"response": " ",
		"trial": "exp-sent",
		"word": "criança.",
		"trial_type": "html-keyboard-response",
		"trial_index": 181,
		"time_elapsed": 472999,
		"internal_node_id": "0.0-3.0-1.140"
	},
	{
		"rt": null,
		"stimulus": "<span style= \"font-size:30px; font-family: monospace\">+</span>",
		"response": null,
		"trial_part": "fixation",
		"trial_type": "html-keyboard-response",
		"trial_index": 182,
		"time_elapsed": 474251,
		"internal_node_id": "0.0-3.0-0.141-0.141"
	},
	{
		"rt": 484,
		"stimulus": "<span style=\"font-size:30px; font-family: monospace\">A</span>",
		"response": " ",
		"trial": "exp-sent",
		"word": "A",
		"trial_type": "html-keyboard-response",
		"trial_index": 183,
		"time_elapsed": 474986,
		"internal_node_id": "0.0-3.0-1.141"
	},
	{
		"rt": 1061,
		"stimulus": "<span style=\"font-size:30px; font-family: monospace\">borboleta</span>",
		"response": " ",
		"trial": "exp-sent",
		"word": "borboleta",
		"trial_type": "html-keyboard-response",
		"trial_index": 184,
		"time_elapsed": 476298,
		"internal_node_id": "0.0-3.0-1.142"
	},
	{
		"rt": 692,
		"stimulus": "<span style=\"font-size:30px; font-family: monospace\">pousou</span>",
		"response": " ",
		"trial": "exp-sent",
		"word": "pousou",
		"trial_type": "html-keyboard-response",
		"trial_index": 185,
		"time_elapsed": 477242,
		"internal_node_id": "0.0-3.0-1.143"
	},
	{
		"rt": 467,
		"stimulus": "<span style=\"font-size:30px; font-family: monospace\">no</span>",
		"response": " ",
		"trial": "exp-sent",
		"word": "no",
		"trial_type": "html-keyboard-response",
		"trial_index": 186,
		"time_elapsed": 477960,
		"internal_node_id": "0.0-3.0-1.144"
	},
	{
		"rt": 792,
		"stimulus": "<span style=\"font-size:30px; font-family: monospace\">ombro</span>",
		"response": " ",
		"trial": "exp-sent",
		"word": "ombro",
		"trial_type": "html-keyboard-response",
		"trial_index": 187,
		"time_elapsed": 479004,
		"internal_node_id": "0.0-3.0-1.145"
	},
	{
		"rt": 817,
		"stimulus": "<span style=\"font-size:30px; font-family: monospace\">daquela</span>",
		"response": " ",
		"trial": "exp-sent",
		"word": "daquela",
		"trial_type": "html-keyboard-response",
		"trial_index": 188,
		"time_elapsed": 480073,
		"internal_node_id": "0.0-3.0-1.146"
	},
	{
		"rt": 706,
		"stimulus": "<span style=\"font-size:30px; font-family: monospace\">moça.</span>",
		"response": " ",
		"trial": "exp-sent",
		"word": "moça.",
		"trial_type": "html-keyboard-response",
		"trial_index": 189,
		"time_elapsed": 481030,
		"internal_node_id": "0.0-3.0-1.147"
	},
	{
		"rt": null,
		"stimulus": "<span style= \"font-size:30px; font-family: monospace\">+</span>",
		"response": null,
		"trial_part": "fixation",
		"trial_type": "html-keyboard-response",
		"trial_index": 190,
		"time_elapsed": 482282,
		"internal_node_id": "0.0-3.0-0.148-0.148"
	},
	{
		"rt": 395,
		"stimulus": "<span style=\"font-size:30px; font-family: monospace\">Eu</span>",
		"response": " ",
		"trial": "exp-sent",
		"word": "Eu",
		"trial_type": "html-keyboard-response",
		"trial_index": 191,
		"time_elapsed": 482930,
		"internal_node_id": "0.0-3.0-1.148"
	},
	{
		"rt": 562,
		"stimulus": "<span style=\"font-size:30px; font-family: monospace\">quero</span>",
		"response": " ",
		"trial": "exp-sent",
		"word": "quero",
		"trial_type": "html-keyboard-response",
		"trial_index": 192,
		"time_elapsed": 483744,
		"internal_node_id": "0.0-3.0-1.149"
	},
	{
		"rt": 519,
		"stimulus": "<span style=\"font-size:30px; font-family: monospace\">um</span>",
		"response": " ",
		"trial": "exp-sent",
		"word": "um",
		"trial_type": "html-keyboard-response",
		"trial_index": 193,
		"time_elapsed": 484514,
		"internal_node_id": "0.0-3.0-1.150"
	},
	{
		"rt": 867,
		"stimulus": "<span style=\"font-size:30px; font-family: monospace\">namorado</span>",
		"response": " ",
		"trial": "exp-sent",
		"word": "namorado",
		"trial_type": "html-keyboard-response",
		"trial_index": 194,
		"time_elapsed": 485633,
		"internal_node_id": "0.0-3.0-1.151"
	},
	{
		"rt": 690,
		"stimulus": "<span style=\"font-size:30px; font-family: monospace\">honesto</span>",
		"response": " ",
		"trial": "exp-sent",
		"word": "honesto",
		"trial_type": "html-keyboard-response",
		"trial_index": 195,
		"time_elapsed": 486574,
		"internal_node_id": "0.0-3.0-1.152"
	},
	{
		"rt": 557,
		"stimulus": "<span style=\"font-size:30px; font-family: monospace\">e</span>",
		"response": " ",
		"trial": "exp-sent",
		"word": "e",
		"trial_type": "html-keyboard-response",
		"trial_index": 196,
		"time_elapsed": 487383,
		"internal_node_id": "0.0-3.0-1.153"
	},
	{
		"rt": 1098,
		"stimulus": "<span style=\"font-size:30px; font-family: monospace\">compreensivo.</span>",
		"response": " ",
		"trial": "comp",
		"word": "compreensivo.",
		"trial_type": "html-keyboard-response",
		"trial_index": 197,
		"time_elapsed": 488733,
		"internal_node_id": "0.0-3.0-1.154"
	},
	{
		"rt": 3841,
		"stimulus": "<span style=\"font-size:30px; font-family: monospace\">Eu quero um namorado honesto?</span>",
		"response": "s",
		"question": "Eu quero um namorado honesto?",
		"answer": "sim",
		"trial": "comp",
		"trial_type": "html-keyboard-response",
		"trial_index": 198,
		"time_elapsed": 492825,
		"internal_node_id": "0.0-3.0-2.154-0.154",
		"accuracy": false
	},
	{
		"rt": null,
		"stimulus": "<span style= \"font-size:30px; font-family: monospace\">+</span>",
		"response": null,
		"trial_part": "fixation",
		"trial_type": "html-keyboard-response",
		"trial_index": 199,
		"time_elapsed": 494341,
		"internal_node_id": "0.0-3.0-0.155-0.155"
	},
	{
		"rt": 225,
		"stimulus": "<span style=\"font-size:30px; font-family: monospace\">Ele</span>",
		"response": " ",
		"trial": "exp-sent",
		"word": "Ele",
		"trial_type": "html-keyboard-response",
		"trial_index": 200,
		"time_elapsed": 494818,
		"internal_node_id": "0.0-3.0-1.155"
	},
	{
		"rt": 1334,
		"stimulus": "<span style=\"font-size:30px; font-family: monospace\">é</span>",
		"response": " ",
		"trial": "exp-sent",
		"word": "é",
		"trial_type": "html-keyboard-response",
		"trial_index": 201,
		"time_elapsed": 496404,
		"internal_node_id": "0.0-3.0-1.156"
	},
	{
		"rt": 525,
		"stimulus": "<span style=\"font-size:30px; font-family: monospace\">um</span>",
		"response": " ",
		"trial": "exp-sent",
		"word": "um",
		"trial_type": "html-keyboard-response",
		"trial_index": 202,
		"time_elapsed": 497180,
		"internal_node_id": "0.0-3.0-1.157"
	},
	{
		"rt": 601,
		"stimulus": "<span style=\"font-size:30px; font-family: monospace\">pai</span>",
		"response": " ",
		"trial": "exp-sent",
		"word": "pai",
		"trial_type": "html-keyboard-response",
		"trial_index": 203,
		"time_elapsed": 498032,
		"internal_node_id": "0.0-3.0-1.158"
	},
	{
		"rt": 1333,
		"stimulus": "<span style=\"font-size:30px; font-family: monospace\">ausente</span>",
		"response": " ",
		"trial": "exp-sent",
		"word": "ausente",
		"trial_type": "html-keyboard-response",
		"trial_index": 204,
		"time_elapsed": 499617,
		"internal_node_id": "0.0-3.0-1.159"
	},
	{
		"rt": 719,
		"stimulus": "<span style=\"font-size:30px; font-family: monospace\">e</span>",
		"response": " ",
		"trial": "exp-sent",
		"word": "e",
		"trial_type": "html-keyboard-response",
		"trial_index": 205,
		"time_elapsed": 500587,
		"internal_node_id": "0.0-3.0-1.160"
	},
	{
		"rt": 1088,
		"stimulus": "<span style=\"font-size:30px; font-family: monospace\">muito</span>",
		"response": " ",
		"trial": "exp-sent",
		"word": "muito",
		"trial_type": "html-keyboard-response",
		"trial_index": 206,
		"time_elapsed": 501928,
		"internal_node_id": "0.0-3.0-1.161"
	},
	{
		"rt": 1878,
		"stimulus": "<span style=\"font-size:30px; font-family: monospace\">fofoqueiro.</span>",
		"response": " ",
		"trial": "exp-sent",
		"word": "fofoqueiro.",
		"trial_type": "html-keyboard-response",
		"trial_index": 207,
		"time_elapsed": 504058,
		"internal_node_id": "0.0-3.0-1.162"
	},
	{
		"rt": null,
		"stimulus": "<span style= \"font-size:30px; font-family: monospace\">+</span>",
		"response": null,
		"trial_part": "fixation",
		"trial_type": "html-keyboard-response",
		"trial_index": 208,
		"time_elapsed": 505309,
		"internal_node_id": "0.0-3.0-0.163-0.163"
	},
	{
		"rt": 586,
		"stimulus": "<span style=\"font-size:30px; font-family: monospace\">O</span>",
		"response": " ",
		"trial": "exp-sent",
		"word": "O",
		"trial_type": "html-keyboard-response",
		"trial_index": 209,
		"time_elapsed": 506146,
		"internal_node_id": "0.0-3.0-1.163"
	},
	{
		"rt": 567,
		"stimulus": "<span style=\"font-size:30px; font-family: monospace\">filho</span>",
		"response": " ",
		"trial": "exp-sent",
		"word": "filho",
		"trial_type": "html-keyboard-response",
		"trial_index": 210,
		"time_elapsed": 506965,
		"internal_node_id": "0.0-3.0-1.164"
	},
	{
		"rt": 1333,
		"stimulus": "<span style=\"font-size:30px; font-family: monospace\">lavou</span>",
		"response": " ",
		"trial": "exp-sent",
		"word": "lavou",
		"trial_type": "html-keyboard-response",
		"trial_index": 211,
		"time_elapsed": 508549,
		"internal_node_id": "0.0-3.0-1.165"
	},
	{
		"rt": 585,
		"stimulus": "<span style=\"font-size:30px; font-family: monospace\">a</span>",
		"response": " ",
		"trial": "exp-sent",
		"word": "a",
		"trial_type": "html-keyboard-response",
		"trial_index": 212,
		"time_elapsed": 509386,
		"internal_node_id": "0.0-3.0-1.166"
	},
	{
		"rt": 647,
		"stimulus": "<span style=\"font-size:30px; font-family: monospace\">roupa</span>",
		"response": " ",
		"trial": "exp-sent",
		"word": "roupa",
		"trial_type": "html-keyboard-response",
		"trial_index": 213,
		"time_elapsed": 510284,
		"internal_node_id": "0.0-3.0-1.167"
	},
	{
		"rt": 607,
		"stimulus": "<span style=\"font-size:30px; font-family: monospace\">sem</span>",
		"response": " ",
		"trial": "exp-sent",
		"word": "sem",
		"trial_type": "html-keyboard-response",
		"trial_index": 214,
		"time_elapsed": 511142,
		"internal_node_id": "0.0-3.0-1.168"
	},
	{
		"rt": 623,
		"stimulus": "<span style=\"font-size:30px; font-family: monospace\">nenhuma</span>",
		"response": " ",
		"trial": "exp-sent",
		"word": "nenhuma",
		"trial_type": "html-keyboard-response",
		"trial_index": 215,
		"time_elapsed": 512017,
		"internal_node_id": "0.0-3.0-1.169"
	},
	{
		"rt": 1370,
		"stimulus": "<span style=\"font-size:30px; font-family: monospace\">ajuda.</span>",
		"response": " ",
		"trial": "exp-sent",
		"word": "ajuda.",
		"trial_type": "html-keyboard-response",
		"trial_index": 216,
		"time_elapsed": 513639,
		"internal_node_id": "0.0-3.0-1.170"
	},
	{
		"rt": null,
		"stimulus": "<span style= \"font-size:30px; font-family: monospace\">+</span>",
		"response": null,
		"trial_part": "fixation",
		"trial_type": "html-keyboard-response",
		"trial_index": 217,
		"time_elapsed": 514889,
		"internal_node_id": "0.0-3.0-0.171-0.171"
	},
	{
		"rt": 405,
		"stimulus": "<span style=\"font-size:30px; font-family: monospace\">O</span>",
		"response": " ",
		"trial": "exp-sent",
		"word": "O",
		"trial_type": "html-keyboard-response",
		"trial_index": 218,
		"time_elapsed": 515545,
		"internal_node_id": "0.0-3.0-1.171"
	},
	{
		"rt": 574,
		"stimulus": "<span style=\"font-size:30px; font-family: monospace\">menino</span>",
		"response": " ",
		"trial": "exp-sent",
		"word": "menino",
		"trial_type": "html-keyboard-response",
		"trial_index": 219,
		"time_elapsed": 516370,
		"internal_node_id": "0.0-3.0-1.172"
	},
	{
		"rt": 606,
		"stimulus": "<span style=\"font-size:30px; font-family: monospace\">quebrou</span>",
		"response": " ",
		"trial": "exp-sent",
		"word": "quebrou",
		"trial_type": "html-keyboard-response",
		"trial_index": 220,
		"time_elapsed": 517228,
		"internal_node_id": "0.0-3.0-1.173"
	},
	{
		"rt": 445,
		"stimulus": "<span style=\"font-size:30px; font-family: monospace\">a</span>",
		"response": " ",
		"trial": "exp-sent",
		"word": "a",
		"trial_type": "html-keyboard-response",
		"trial_index": 221,
		"time_elapsed": 517925,
		"internal_node_id": "0.0-3.0-1.174"
	},
	{
		"rt": 649,
		"stimulus": "<span style=\"font-size:30px; font-family: monospace\">perna</span>",
		"response": " ",
		"trial": "exp-sent",
		"word": "perna",
		"trial_type": "html-keyboard-response",
		"trial_index": 222,
		"time_elapsed": 518826,
		"internal_node_id": "0.0-3.0-1.175"
	},
	{
		"rt": 767,
		"stimulus": "<span style=\"font-size:30px; font-family: monospace\">nos</span>",
		"response": " ",
		"trial": "exp-sent",
		"word": "nos",
		"trial_type": "html-keyboard-response",
		"trial_index": 223,
		"time_elapsed": 519844,
		"internal_node_id": "0.0-3.0-1.176"
	},
	{
		"rt": 1126,
		"stimulus": "<span style=\"font-size:30px; font-family: monospace\">esportes.</span>",
		"response": " ",
		"trial": "exp-sent",
		"word": "esportes.",
		"trial_type": "html-keyboard-response",
		"trial_index": 224,
		"time_elapsed": 521220,
		"internal_node_id": "0.0-3.0-1.177"
	},
	{
		"rt": null,
		"stimulus": "<span style= \"font-size:30px; font-family: monospace\">+</span>",
		"response": null,
		"trial_part": "fixation",
		"trial_type": "html-keyboard-response",
		"trial_index": 225,
		"time_elapsed": 522487,
		"internal_node_id": "0.0-3.0-0.178-0.178"
	},
	{
		"rt": 434,
		"stimulus": "<span style=\"font-size:30px; font-family: monospace\">Ela</span>",
		"response": " ",
		"trial": "exp-sent",
		"word": "Ela",
		"trial_type": "html-keyboard-response",
		"trial_index": 226,
		"time_elapsed": 523173,
		"internal_node_id": "0.0-3.0-1.178"
	},
	{
		"rt": 627,
		"stimulus": "<span style=\"font-size:30px; font-family: monospace\">brincou</span>",
		"response": " ",
		"trial": "exp-sent",
		"word": "brincou",
		"trial_type": "html-keyboard-response",
		"trial_index": 227,
		"time_elapsed": 524051,
		"internal_node_id": "0.0-3.0-1.179"
	},
	{
		"rt": 769,
		"stimulus": "<span style=\"font-size:30px; font-family: monospace\">com</span>",
		"response": " ",
		"trial": "exp-sent",
		"word": "com",
		"trial_type": "html-keyboard-response",
		"trial_index": 228,
		"time_elapsed": 525071,
		"internal_node_id": "0.0-3.0-1.180"
	},
	{
		"rt": 464,
		"stimulus": "<span style=\"font-size:30px; font-family: monospace\">uma</span>",
		"response": " ",
		"trial": "exp-sent",
		"word": "uma",
		"trial_type": "html-keyboard-response",
		"trial_index": 229,
		"time_elapsed": 525788,
		"internal_node_id": "0.0-3.0-1.181"
	},
	{
		"rt": 653,
		"stimulus": "<span style=\"font-size:30px; font-family: monospace\">menina</span>",
		"response": " ",
		"trial": "exp-sent",
		"word": "menina",
		"trial_type": "html-keyboard-response",
		"trial_index": 230,
		"time_elapsed": 526692,
		"internal_node_id": "0.0-3.0-1.182"
	},
	{
		"rt": 929,
		"stimulus": "<span style=\"font-size:30px; font-family: monospace\">da</span>",
		"response": " ",
		"trial": "exp-sent",
		"word": "da",
		"trial_type": "html-keyboard-response",
		"trial_index": 231,
		"time_elapsed": 527872,
		"internal_node_id": "0.0-3.0-1.183"
	},
	{
		"rt": 739,
		"stimulus": "<span style=\"font-size:30px; font-family: monospace\">turma.</span>",
		"response": " ",
		"trial": "exp-sent",
		"word": "turma.",
		"trial_type": "html-keyboard-response",
		"trial_index": 232,
		"time_elapsed": 528863,
		"internal_node_id": "0.0-3.0-1.184"
	},
	{
		"rt": null,
		"stimulus": "<span style= \"font-size:30px; font-family: monospace\">+</span>",
		"response": null,
		"trial_part": "fixation",
		"trial_type": "html-keyboard-response",
		"trial_index": 233,
		"time_elapsed": 530116,
		"internal_node_id": "0.0-3.0-0.185-0.185"
	},
	{
		"rt": 404,
		"stimulus": "<span style=\"font-size:30px; font-family: monospace\">Ele</span>",
		"response": " ",
		"trial": "exp-sent",
		"word": "Ele",
		"trial_type": "html-keyboard-response",
		"trial_index": 234,
		"time_elapsed": 530772,
		"internal_node_id": "0.0-3.0-1.185"
	},
	{
		"rt": 625,
		"stimulus": "<span style=\"font-size:30px; font-family: monospace\">esteve</span>",
		"response": " ",
		"trial": "exp-sent",
		"word": "esteve",
		"trial_type": "html-keyboard-response",
		"trial_index": 235,
		"time_elapsed": 531648,
		"internal_node_id": "0.0-3.0-1.186"
	},
	{
		"rt": 578,
		"stimulus": "<span style=\"font-size:30px; font-family: monospace\">no</span>",
		"response": " ",
		"trial": "exp-sent",
		"word": "no",
		"trial_type": "html-keyboard-response",
		"trial_index": 236,
		"time_elapsed": 532477,
		"internal_node_id": "0.0-3.0-1.187"
	},
	{
		"rt": 765,
		"stimulus": "<span style=\"font-size:30px; font-family: monospace\">escritório</span>",
		"response": " ",
		"trial": "exp-sent",
		"word": "escritório",
		"trial_type": "html-keyboard-response",
		"trial_index": 237,
		"time_elapsed": 533493,
		"internal_node_id": "0.0-3.0-1.188"
	},
	{
		"rt": 461,
		"stimulus": "<span style=\"font-size:30px; font-family: monospace\">o</span>",
		"response": " ",
		"trial": "exp-sent",
		"word": "o",
		"trial_type": "html-keyboard-response",
		"trial_index": 238,
		"time_elapsed": 534206,
		"internal_node_id": "0.0-3.0-1.189"
	},
	{
		"rt": 468,
		"stimulus": "<span style=\"font-size:30px; font-family: monospace\">dia</span>",
		"response": " ",
		"trial": "exp-sent",
		"word": "dia",
		"trial_type": "html-keyboard-response",
		"trial_index": 239,
		"time_elapsed": 534934,
		"internal_node_id": "0.0-3.0-1.190"
	},
	{
		"rt": 773,
		"stimulus": "<span style=\"font-size:30px; font-family: monospace\">inteiro.</span>",
		"response": " ",
		"trial": "comp",
		"word": "inteiro.",
		"trial_type": "html-keyboard-response",
		"trial_index": 240,
		"time_elapsed": 535958,
		"internal_node_id": "0.0-3.0-1.191"
	},
	{
		"rt": 3917,
		"stimulus": "<span style=\"font-size:30px; font-family: monospace\">Ele esteve no parque o dia inteiro?</span>",
		"response": "n",
		"question": "Ele esteve no parque o dia inteiro?",
		"answer": "não",
		"trial": "comp",
		"trial_type": "html-keyboard-response",
		"trial_index": 241,
		"time_elapsed": 540126,
		"internal_node_id": "0.0-3.0-2.191-0.191",
		"accuracy": false
	},
	{
		"rt": null,
		"stimulus": "<span style= \"font-size:30px; font-family: monospace\">+</span>",
		"response": null,
		"trial_part": "fixation",
		"trial_type": "html-keyboard-response",
		"trial_index": 242,
		"time_elapsed": 541629,
		"internal_node_id": "0.0-3.0-0.192-0.192"
	},
	{
		"rt": 587,
		"stimulus": "<span style=\"font-size:30px; font-family: monospace\">A</span>",
		"response": " ",
		"trial": "exp-sent",
		"word": "A",
		"trial_type": "html-keyboard-response",
		"trial_index": 243,
		"time_elapsed": 542468,
		"internal_node_id": "0.0-3.0-1.192"
	},
	{
		"rt": 673,
		"stimulus": "<span style=\"font-size:30px; font-family: monospace\">força</span>",
		"response": " ",
		"trial": "exp-sent",
		"word": "força",
		"trial_type": "html-keyboard-response",
		"trial_index": 244,
		"time_elapsed": 543391,
		"internal_node_id": "0.0-3.0-1.193"
	},
	{
		"rt": 1011,
		"stimulus": "<span style=\"font-size:30px; font-family: monospace\">d'água</span>",
		"response": " ",
		"trial": "exp-sent",
		"word": "d'água",
		"trial_type": "html-keyboard-response",
		"trial_index": 245,
		"time_elapsed": 544654,
		"internal_node_id": "0.0-3.0-1.194"
	},
	{
		"rt": 599,
		"stimulus": "<span style=\"font-size:30px; font-family: monospace\">estava</span>",
		"response": " ",
		"trial": "exp-sent",
		"word": "estava",
		"trial_type": "html-keyboard-response",
		"trial_index": 246,
		"time_elapsed": 545504,
		"internal_node_id": "0.0-3.0-1.195"
	},
	{
		"rt": 610,
		"stimulus": "<span style=\"font-size:30px; font-family: monospace\">normal</span>",
		"response": " ",
		"trial": "exp-sent",
		"word": "normal",
		"trial_type": "html-keyboard-response",
		"trial_index": 247,
		"time_elapsed": 546366,
		"internal_node_id": "0.0-3.0-1.196"
	},
	{
		"rt": 552,
		"stimulus": "<span style=\"font-size:30px; font-family: monospace\">naquele</span>",
		"response": " ",
		"trial": "exp-sent",
		"word": "naquele",
		"trial_type": "html-keyboard-response",
		"trial_index": 248,
		"time_elapsed": 547169,
		"internal_node_id": "0.0-3.0-1.197"
	},
	{
		"rt": 1016,
		"stimulus": "<span style=\"font-size:30px; font-family: monospace\">dia.</span>",
		"response": " ",
		"trial": "exp-sent",
		"word": "dia.",
		"trial_type": "html-keyboard-response",
		"trial_index": 249,
		"time_elapsed": 548436,
		"internal_node_id": "0.0-3.0-1.198"
	},
	{
		"rt": null,
		"stimulus": "<span style= \"font-size:30px; font-family: monospace\">+</span>",
		"response": null,
		"trial_part": "fixation",
		"trial_type": "html-keyboard-response",
		"trial_index": 250,
		"time_elapsed": 549688,
		"internal_node_id": "0.0-3.0-0.199-0.199"
	},
	{
		"rt": 296,
		"stimulus": "<span style=\"font-size:30px; font-family: monospace\">A</span>",
		"response": " ",
		"trial": "exp-sent",
		"word": "A",
		"trial_type": "html-keyboard-response",
		"trial_index": 251,
		"time_elapsed": 550236,
		"internal_node_id": "0.0-3.0-1.199"
	},
	{
		"rt": 787,
		"stimulus": "<span style=\"font-size:30px; font-family: monospace\">médica</span>",
		"response": " ",
		"trial": "exp-sent",
		"word": "médica",
		"trial_type": "html-keyboard-response",
		"trial_index": 252,
		"time_elapsed": 551274,
		"internal_node_id": "0.0-3.0-1.200"
	},
	{
		"rt": 491,
		"stimulus": "<span style=\"font-size:30px; font-family: monospace\">ofereceu</span>",
		"response": " ",
		"trial": "exp-sent",
		"word": "ofereceu",
		"trial_type": "html-keyboard-response",
		"trial_index": 253,
		"time_elapsed": 552015,
		"internal_node_id": "0.0-3.0-1.201"
	},
	{
		"rt": 617,
		"stimulus": "<span style=\"font-size:30px; font-family: monospace\">a</span>",
		"response": " ",
		"trial": "exp-sent",
		"word": "a",
		"trial_type": "html-keyboard-response",
		"trial_index": 254,
		"time_elapsed": 552884,
		"internal_node_id": "0.0-3.0-1.202"
	},
	{
		"rt": 714,
		"stimulus": "<span style=\"font-size:30px; font-family: monospace\">pomada</span>",
		"response": " ",
		"trial": "exp-sent",
		"word": "pomada",
		"trial_type": "html-keyboard-response",
		"trial_index": 255,
		"time_elapsed": 553848,
		"internal_node_id": "0.0-3.0-1.203"
	},
	{
		"rt": 597,
		"stimulus": "<span style=\"font-size:30px; font-family: monospace\">para</span>",
		"response": " ",
		"trial": "exp-sent",
		"word": "para",
		"trial_type": "html-keyboard-response",
		"trial_index": 256,
		"time_elapsed": 554697,
		"internal_node_id": "0.0-3.0-1.204"
	},
	{
		"rt": 461,
		"stimulus": "<span style=\"font-size:30px; font-family: monospace\">o</span>",
		"response": " ",
		"trial": "exp-sent",
		"word": "o",
		"trial_type": "html-keyboard-response",
		"trial_index": 257,
		"time_elapsed": 555410,
		"internal_node_id": "0.0-3.0-1.205"
	},
	{
		"rt": 1512,
		"stimulus": "<span style=\"font-size:30px; font-family: monospace\">avô.</span>",
		"response": " ",
		"trial": "exp-sent",
		"word": "avô.",
		"trial_type": "html-keyboard-response",
		"trial_index": 258,
		"time_elapsed": 557174,
		"internal_node_id": "0.0-3.0-1.206"
	},
	{
		"rt": null,
		"stimulus": "<span style= \"font-size:30px; font-family: monospace\">+</span>",
		"response": null,
		"trial_part": "fixation",
		"trial_type": "html-keyboard-response",
		"trial_index": 259,
		"time_elapsed": 558426,
		"internal_node_id": "0.0-3.0-0.207-0.207"
	},
	{
		"rt": 361,
		"stimulus": "<span style=\"font-size:30px; font-family: monospace\">Ele</span>",
		"response": " ",
		"trial": "exp-sent",
		"word": "Ele",
		"trial_type": "html-keyboard-response",
		"trial_index": 260,
		"time_elapsed": 559038,
		"internal_node_id": "0.0-3.0-1.207"
	},
	{
		"rt": 537,
		"stimulus": "<span style=\"font-size:30px; font-family: monospace\">conversou</span>",
		"response": " ",
		"trial": "exp-sent",
		"word": "conversou",
		"trial_type": "html-keyboard-response",
		"trial_index": 261,
		"time_elapsed": 559828,
		"internal_node_id": "0.0-3.0-1.208"
	},
	{
		"rt": 537,
		"stimulus": "<span style=\"font-size:30px; font-family: monospace\">com</span>",
		"response": " ",
		"trial": "exp-sent",
		"word": "com",
		"trial_type": "html-keyboard-response",
		"trial_index": 262,
		"time_elapsed": 560616,
		"internal_node_id": "0.0-3.0-1.209"
	},
	{
		"rt": 875,
		"stimulus": "<span style=\"font-size:30px; font-family: monospace\">o</span>",
		"response": " ",
		"trial": "exp-sent",
		"word": "o",
		"trial_type": "html-keyboard-response",
		"trial_index": 263,
		"time_elapsed": 561742,
		"internal_node_id": "0.0-3.0-1.210"
	},
	{
		"rt": 672,
		"stimulus": "<span style=\"font-size:30px; font-family: monospace\">patrão</span>",
		"response": " ",
		"trial": "exp-sent",
		"word": "patrão",
		"trial_type": "html-keyboard-response",
		"trial_index": 264,
		"time_elapsed": 562665,
		"internal_node_id": "0.0-3.0-1.211"
	},
	{
		"rt": 547,
		"stimulus": "<span style=\"font-size:30px; font-family: monospace\">durante</span>",
		"response": " ",
		"trial": "exp-sent",
		"word": "durante",
		"trial_type": "html-keyboard-response",
		"trial_index": 265,
		"time_elapsed": 563463,
		"internal_node_id": "0.0-3.0-1.212"
	},
	{
		"rt": 898,
		"stimulus": "<span style=\"font-size:30px; font-family: monospace\">a</span>",
		"response": " ",
		"trial": "exp-sent",
		"word": "a",
		"trial_type": "html-keyboard-response",
		"trial_index": 266,
		"time_elapsed": 564613,
		"internal_node_id": "0.0-3.0-1.213"
	},
	{
		"rt": 974,
		"stimulus": "<span style=\"font-size:30px; font-family: monospace\">tarde.</span>",
		"response": " ",
		"trial": "exp-sent",
		"word": "tarde.",
		"trial_type": "html-keyboard-response",
		"trial_index": 267,
		"time_elapsed": 565839,
		"internal_node_id": "0.0-3.0-1.214"
	},
	{
		"rt": null,
		"stimulus": "<span style= \"font-size:30px; font-family: monospace\">+</span>",
		"response": null,
		"trial_part": "fixation",
		"trial_type": "html-keyboard-response",
		"trial_index": 268,
		"time_elapsed": 567092,
		"internal_node_id": "0.0-3.0-0.215-0.215"
	},
	{
		"rt": 495,
		"stimulus": "<span style=\"font-size:30px; font-family: monospace\">Algumas</span>",
		"response": " ",
		"trial": "exp-sent",
		"word": "Algumas",
		"trial_type": "html-keyboard-response",
		"trial_index": 269,
		"time_elapsed": 567838,
		"internal_node_id": "0.0-3.0-1.215"
	},
	{
		"rt": 744,
		"stimulus": "<span style=\"font-size:30px; font-family: monospace\">pessoas</span>",
		"response": " ",
		"trial": "exp-sent",
		"word": "pessoas",
		"trial_type": "html-keyboard-response",
		"trial_index": 270,
		"time_elapsed": 568835,
		"internal_node_id": "0.0-3.0-1.216"
	},
	{
		"rt": 2239,
		"stimulus": "<span style=\"font-size:30px; font-family: monospace\">acreditam</span>",
		"response": " ",
		"trial": "exp-sent",
		"word": "acreditam",
		"trial_type": "html-keyboard-response",
		"trial_index": 271,
		"time_elapsed": 571326,
		"internal_node_id": "0.0-3.0-1.217"
	},
	{
		"rt": 510,
		"stimulus": "<span style=\"font-size:30px; font-family: monospace\">em</span>",
		"response": " ",
		"trial": "exp-sent",
		"word": "em",
		"trial_type": "html-keyboard-response",
		"trial_index": 272,
		"time_elapsed": 572088,
		"internal_node_id": "0.0-3.0-1.218"
	},
	{
		"rt": 763,
		"stimulus": "<span style=\"font-size:30px; font-family: monospace\">espíritos</span>",
		"response": " ",
		"trial": "exp-sent",
		"word": "espíritos",
		"trial_type": "html-keyboard-response",
		"trial_index": 273,
		"time_elapsed": 573102,
		"internal_node_id": "0.0-3.0-1.219"
	},
	{
		"rt": 464,
		"stimulus": "<span style=\"font-size:30px; font-family: monospace\">e</span>",
		"response": " ",
		"trial": "exp-sent",
		"word": "e",
		"trial_type": "html-keyboard-response",
		"trial_index": 274,
		"time_elapsed": 573818,
		"internal_node_id": "0.0-3.0-1.220"
	},
	{
		"rt": 470,
		"stimulus": "<span style=\"font-size:30px; font-family: monospace\">em</span>",
		"response": " ",
		"trial": "exp-sent",
		"word": "em",
		"trial_type": "html-keyboard-response",
		"trial_index": 275,
		"time_elapsed": 574539,
		"internal_node_id": "0.0-3.0-1.221"
	},
	{
		"rt": 485,
		"stimulus": "<span style=\"font-size:30px; font-family: monospace\">outras</span>",
		"response": " ",
		"trial": "exp-sent",
		"word": "outras",
		"trial_type": "html-keyboard-response",
		"trial_index": 276,
		"time_elapsed": 575276,
		"internal_node_id": "0.0-3.0-1.222"
	},
	{
		"rt": 485,
		"stimulus": "<span style=\"font-size:30px; font-family: monospace\">vidas.</span>",
		"response": " ",
		"trial": "exp-sent",
		"word": "vidas.",
		"trial_type": "html-keyboard-response",
		"trial_index": 277,
		"time_elapsed": 576013,
		"internal_node_id": "0.0-3.0-1.223"
	},
	{
		"rt": null,
		"stimulus": "<span style= \"font-size:30px; font-family: monospace\">+</span>",
		"response": null,
		"trial_part": "fixation",
		"trial_type": "html-keyboard-response",
		"trial_index": 278,
		"time_elapsed": 577266,
		"internal_node_id": "0.0-3.0-0.224-0.224"
	},
	{
		"rt": 548,
		"stimulus": "<span style=\"font-size:30px; font-family: monospace\">Ela</span>",
		"response": " ",
		"trial": "exp-sent",
		"word": "Ela",
		"trial_type": "html-keyboard-response",
		"trial_index": 279,
		"time_elapsed": 578066,
		"internal_node_id": "0.0-3.0-1.224"
	},
	{
		"rt": 589,
		"stimulus": "<span style=\"font-size:30px; font-family: monospace\">gosta</span>",
		"response": " ",
		"trial": "exp-sent",
		"word": "gosta",
		"trial_type": "html-keyboard-response",
		"trial_index": 280,
		"time_elapsed": 578905,
		"internal_node_id": "0.0-3.0-1.225"
	},
	{
		"rt": 802,
		"stimulus": "<span style=\"font-size:30px; font-family: monospace\">de</span>",
		"response": " ",
		"trial": "exp-sent",
		"word": "de",
		"trial_type": "html-keyboard-response",
		"trial_index": 281,
		"time_elapsed": 579959,
		"internal_node_id": "0.0-3.0-1.226"
	},
	{
		"rt": 666,
		"stimulus": "<span style=\"font-size:30px; font-family: monospace\">estudar</span>",
		"response": " ",
		"trial": "exp-sent",
		"word": "estudar",
		"trial_type": "html-keyboard-response",
		"trial_index": 282,
		"time_elapsed": 580876,
		"internal_node_id": "0.0-3.0-1.227"
	},
	{
		"rt": 618,
		"stimulus": "<span style=\"font-size:30px; font-family: monospace\">matemática</span>",
		"response": " ",
		"trial": "exp-sent",
		"word": "matemática",
		"trial_type": "html-keyboard-response",
		"trial_index": 283,
		"time_elapsed": 581745,
		"internal_node_id": "0.0-3.0-1.228"
	},
	{
		"rt": 503,
		"stimulus": "<span style=\"font-size:30px; font-family: monospace\">com</span>",
		"response": " ",
		"trial": "exp-sent",
		"word": "com",
		"trial_type": "html-keyboard-response",
		"trial_index": 284,
		"time_elapsed": 582500,
		"internal_node_id": "0.0-3.0-1.229"
	},
	{
		"rt": 508,
		"stimulus": "<span style=\"font-size:30px; font-family: monospace\">colegas.</span>",
		"response": " ",
		"trial": "comp",
		"word": "colegas.",
		"trial_type": "html-keyboard-response",
		"trial_index": 285,
		"time_elapsed": 583259,
		"internal_node_id": "0.0-3.0-1.230"
	},
	{
		"rt": 2744,
		"stimulus": "<span style=\"font-size:30px; font-family: monospace\">Ela gosta de estudar física?</span>",
		"response": "n",
		"question": "Ela gosta de estudar física?",
		"answer": "não",
		"trial": "comp",
		"trial_type": "html-keyboard-response",
		"trial_index": 286,
		"time_elapsed": 586255,
		"internal_node_id": "0.0-3.0-2.230-0.230",
		"accuracy": false
	},
	{
		"rt": null,
		"stimulus": "<span style= \"font-size:30px; font-family: monospace\">+</span>",
		"response": null,
		"trial_part": "fixation",
		"trial_type": "html-keyboard-response",
		"trial_index": 287,
		"time_elapsed": 587757,
		"internal_node_id": "0.0-3.0-0.231-0.231"
	},
	{
		"rt": 507,
		"stimulus": "<span style=\"font-size:30px; font-family: monospace\">As</span>",
		"response": " ",
		"trial": "exp-sent",
		"word": "As",
		"trial_type": "html-keyboard-response",
		"trial_index": 288,
		"time_elapsed": 588516,
		"internal_node_id": "0.0-3.0-1.231"
	},
	{
		"rt": 646,
		"stimulus": "<span style=\"font-size:30px; font-family: monospace\">crianças</span>",
		"response": " ",
		"trial": "exp-sent",
		"word": "crianças",
		"trial_type": "html-keyboard-response",
		"trial_index": 289,
		"time_elapsed": 589414,
		"internal_node_id": "0.0-3.0-1.232"
	},
	{
		"rt": 708,
		"stimulus": "<span style=\"font-size:30px; font-family: monospace\">viram</span>",
		"response": " ",
		"trial": "exp-sent",
		"word": "viram",
		"trial_type": "html-keyboard-response",
		"trial_index": 290,
		"time_elapsed": 590372,
		"internal_node_id": "0.0-3.0-1.233"
	},
	{
		"rt": 486,
		"stimulus": "<span style=\"font-size:30px; font-family: monospace\">um</span>",
		"response": " ",
		"trial": "exp-sent",
		"word": "um",
		"trial_type": "html-keyboard-response",
		"trial_index": 291,
		"time_elapsed": 591110,
		"internal_node_id": "0.0-3.0-1.234"
	},
	{
		"rt": 1571,
		"stimulus": "<span style=\"font-size:30px; font-family: monospace\">vaga-lume</span>",
		"response": " ",
		"trial": "exp-sent",
		"word": "vaga-lume",
		"trial_type": "html-keyboard-response",
		"trial_index": 292,
		"time_elapsed": 592932,
		"internal_node_id": "0.0-3.0-1.235"
	},
	{
		"rt": 596,
		"stimulus": "<span style=\"font-size:30px; font-family: monospace\">nos</span>",
		"response": " ",
		"trial": "exp-sent",
		"word": "nos",
		"trial_type": "html-keyboard-response",
		"trial_index": 293,
		"time_elapsed": 593780,
		"internal_node_id": "0.0-3.0-1.236"
	},
	{
		"rt": 1030,
		"stimulus": "<span style=\"font-size:30px; font-family: monospace\">arbustos.</span>",
		"response": " ",
		"trial": "exp-sent",
		"word": "arbustos.",
		"trial_type": "html-keyboard-response",
		"trial_index": 294,
		"time_elapsed": 595062,
		"internal_node_id": "0.0-3.0-1.237"
	},
	{
		"rt": null,
		"stimulus": "<span style= \"font-size:30px; font-family: monospace\">+</span>",
		"response": null,
		"trial_part": "fixation",
		"trial_type": "html-keyboard-response",
		"trial_index": 295,
		"time_elapsed": 596321,
		"internal_node_id": "0.0-3.0-0.238-0.238"
	},
	{
		"rt": 462,
		"stimulus": "<span style=\"font-size:30px; font-family: monospace\">Ontem</span>",
		"response": " ",
		"trial": "exp-sent",
		"word": "Ontem",
		"trial_type": "html-keyboard-response",
		"trial_index": 296,
		"time_elapsed": 597036,
		"internal_node_id": "0.0-3.0-1.238"
	},
	{
		"rt": 641,
		"stimulus": "<span style=\"font-size:30px; font-family: monospace\">o</span>",
		"response": " ",
		"trial": "exp-sent",
		"word": "o",
		"trial_type": "html-keyboard-response",
		"trial_index": 297,
		"time_elapsed": 597927,
		"internal_node_id": "0.0-3.0-1.239"
	},
	{
		"rt": 697,
		"stimulus": "<span style=\"font-size:30px; font-family: monospace\">funcionário</span>",
		"response": " ",
		"trial": "exp-sent",
		"word": "funcionário",
		"trial_type": "html-keyboard-response",
		"trial_index": 298,
		"time_elapsed": 598875,
		"internal_node_id": "0.0-3.0-1.240"
	},
	{
		"rt": 493,
		"stimulus": "<span style=\"font-size:30px; font-family: monospace\">pediu</span>",
		"response": " ",
		"trial": "exp-sent",
		"word": "pediu",
		"trial_type": "html-keyboard-response",
		"trial_index": 299,
		"time_elapsed": 599619,
		"internal_node_id": "0.0-3.0-1.241"
	},
	{
		"rt": 773,
		"stimulus": "<span style=\"font-size:30px; font-family: monospace\">autorização</span>",
		"response": " ",
		"trial": "exp-sent",
		"word": "autorização",
		"trial_type": "html-keyboard-response",
		"trial_index": 300,
		"time_elapsed": 600644,
		"internal_node_id": "0.0-3.0-1.242"
	},
	{
		"rt": 912,
		"stimulus": "<span style=\"font-size:30px; font-family: monospace\">para</span>",
		"response": " ",
		"trial": "exp-sent",
		"word": "para",
		"trial_type": "html-keyboard-response",
		"trial_index": 301,
		"time_elapsed": 601806,
		"internal_node_id": "0.0-3.0-1.243"
	},
	{
		"rt": 536,
		"stimulus": "<span style=\"font-size:30px; font-family: monospace\">a</span>",
		"response": " ",
		"trial": "exp-sent",
		"word": "a",
		"trial_type": "html-keyboard-response",
		"trial_index": 302,
		"time_elapsed": 602597,
		"internal_node_id": "0.0-3.0-1.244"
	},
	{
		"rt": 426,
		"stimulus": "<span style=\"font-size:30px; font-family: monospace\">colega.</span>",
		"response": " ",
		"trial": "exp-sent",
		"word": "colega.",
		"trial_type": "html-keyboard-response",
		"trial_index": 303,
		"time_elapsed": 603274,
		"internal_node_id": "0.0-3.0-1.245"
	},
	{
		"rt": null,
		"stimulus": "<span style= \"font-size:30px; font-family: monospace\">+</span>",
		"response": null,
		"trial_part": "fixation",
		"trial_type": "html-keyboard-response",
		"trial_index": 304,
		"time_elapsed": 604527,
		"internal_node_id": "0.0-3.0-0.246-0.246"
	},
	{
		"rt": 29,
		"stimulus": "<span style=\"font-size:30px; font-family: monospace\">Eu</span>",
		"response": " ",
		"trial": "exp-sent",
		"word": "Eu",
		"trial_type": "html-keyboard-response",
		"trial_index": 305,
		"time_elapsed": 604807,
		"internal_node_id": "0.0-3.0-1.246"
	},
	{
		"rt": 512,
		"stimulus": "<span style=\"font-size:30px; font-family: monospace\">sempre</span>",
		"response": " ",
		"trial": "exp-sent",
		"word": "sempre",
		"trial_type": "html-keyboard-response",
		"trial_index": 306,
		"time_elapsed": 605570,
		"internal_node_id": "0.0-3.0-1.247"
	},
	{
		"rt": 414,
		"stimulus": "<span style=\"font-size:30px; font-family: monospace\">fujo</span>",
		"response": " ",
		"trial": "exp-sent",
		"word": "fujo",
		"trial_type": "html-keyboard-response",
		"trial_index": 307,
		"time_elapsed": 606236,
		"internal_node_id": "0.0-3.0-1.248"
	},
	{
		"rt": 450,
		"stimulus": "<span style=\"font-size:30px; font-family: monospace\">de</span>",
		"response": " ",
		"trial": "exp-sent",
		"word": "de",
		"trial_type": "html-keyboard-response",
		"trial_index": 308,
		"time_elapsed": 606938,
		"internal_node_id": "0.0-3.0-1.249"
	},
	{
		"rt": 569,
		"stimulus": "<span style=\"font-size:30px; font-family: monospace\">conflito</span>",
		"response": " ",
		"trial": "exp-sent",
		"word": "conflito",
		"trial_type": "html-keyboard-response",
		"trial_index": 309,
		"time_elapsed": 607758,
		"internal_node_id": "0.0-3.0-1.250"
	},
	{
		"rt": 442,
		"stimulus": "<span style=\"font-size:30px; font-family: monospace\">com</span>",
		"response": " ",
		"trial": "exp-sent",
		"word": "com",
		"trial_type": "html-keyboard-response",
		"trial_index": 310,
		"time_elapsed": 608451,
		"internal_node_id": "0.0-3.0-1.251"
	},
	{
		"rt": 489,
		"stimulus": "<span style=\"font-size:30px; font-family: monospace\">as</span>",
		"response": " ",
		"trial": "exp-sent",
		"word": "as",
		"trial_type": "html-keyboard-response",
		"trial_index": 311,
		"time_elapsed": 609193,
		"internal_node_id": "0.0-3.0-1.252"
	},
	{
		"rt": 825,
		"stimulus": "<span style=\"font-size:30px; font-family: monospace\">pessoas.</span>",
		"response": " ",
		"trial": "exp-sent",
		"word": "pessoas.",
		"trial_type": "html-keyboard-response",
		"trial_index": 312,
		"time_elapsed": 610270,
		"internal_node_id": "0.0-3.0-1.253"
	},
	{
		"rt": null,
		"stimulus": "<span style= \"font-size:30px; font-family: monospace\">+</span>",
		"response": null,
		"trial_part": "fixation",
		"trial_type": "html-keyboard-response",
		"trial_index": 313,
		"time_elapsed": 611533,
		"internal_node_id": "0.0-3.0-0.254-0.254"
	},
	{
		"rt": 99,
		"stimulus": "<span style=\"font-size:30px; font-family: monospace\">O</span>",
		"response": " ",
		"trial": "exp-sent",
		"word": "O",
		"trial_type": "html-keyboard-response",
		"trial_index": 314,
		"time_elapsed": 611885,
		"internal_node_id": "0.0-3.0-1.254"
	},
	{
		"rt": 515,
		"stimulus": "<span style=\"font-size:30px; font-family: monospace\">bolo</span>",
		"response": " ",
		"trial": "exp-sent",
		"word": "bolo",
		"trial_type": "html-keyboard-response",
		"trial_index": 315,
		"time_elapsed": 612652,
		"internal_node_id": "0.0-3.0-1.255"
	},
	{
		"rt": 489,
		"stimulus": "<span style=\"font-size:30px; font-family: monospace\">era</span>",
		"response": " ",
		"trial": "exp-sent",
		"word": "era",
		"trial_type": "html-keyboard-response",
		"trial_index": 316,
		"time_elapsed": 613392,
		"internal_node_id": "0.0-3.0-1.256"
	},
	{
		"rt": 447,
		"stimulus": "<span style=\"font-size:30px; font-family: monospace\">de</span>",
		"response": " ",
		"trial": "exp-sent",
		"word": "de",
		"trial_type": "html-keyboard-response",
		"trial_index": 317,
		"time_elapsed": 614090,
		"internal_node_id": "0.0-3.0-1.257"
	},
	{
		"rt": 1082,
		"stimulus": "<span style=\"font-size:30px; font-family: monospace\">abacaxi</span>",
		"response": " ",
		"trial": "exp-sent",
		"word": "abacaxi",
		"trial_type": "html-keyboard-response",
		"trial_index": 318,
		"time_elapsed": 615423,
		"internal_node_id": "0.0-3.0-1.258"
	},
	{
		"rt": 441,
		"stimulus": "<span style=\"font-size:30px; font-family: monospace\">e</span>",
		"response": " ",
		"trial": "exp-sent",
		"word": "e",
		"trial_type": "html-keyboard-response",
		"trial_index": 319,
		"time_elapsed": 616116,
		"internal_node_id": "0.0-3.0-1.259"
	},
	{
		"rt": 440,
		"stimulus": "<span style=\"font-size:30px; font-family: monospace\">creme</span>",
		"response": " ",
		"trial": "exp-sent",
		"word": "creme",
		"trial_type": "html-keyboard-response",
		"trial_index": 320,
		"time_elapsed": 616808,
		"internal_node_id": "0.0-3.0-1.260"
	},
	{
		"rt": 443,
		"stimulus": "<span style=\"font-size:30px; font-family: monospace\">de</span>",
		"response": " ",
		"trial": "exp-sent",
		"word": "de",
		"trial_type": "html-keyboard-response",
		"trial_index": 321,
		"time_elapsed": 617502,
		"internal_node_id": "0.0-3.0-1.261"
	},
	{
		"rt": 661,
		"stimulus": "<span style=\"font-size:30px; font-family: monospace\">coco.</span>",
		"response": " ",
		"trial": "exp-sent",
		"word": "coco.",
		"trial_type": "html-keyboard-response",
		"trial_index": 322,
		"time_elapsed": 618415,
		"internal_node_id": "0.0-3.0-1.262"
	},
	{
		"rt": null,
		"stimulus": "<span style= \"font-size:30px; font-family: monospace\">+</span>",
		"response": null,
		"trial_part": "fixation",
		"trial_type": "html-keyboard-response",
		"trial_index": 323,
		"time_elapsed": 619667,
		"internal_node_id": "0.0-3.0-0.263-0.263"
	},
	{
		"rt": 91,
		"stimulus": "<span style=\"font-size:30px; font-family: monospace\">As</span>",
		"response": " ",
		"trial": "exp-sent",
		"word": "As",
		"trial_type": "html-keyboard-response",
		"trial_index": 324,
		"time_elapsed": 620010,
		"internal_node_id": "0.0-3.0-1.263"
	},
	{
		"rt": 578,
		"stimulus": "<span style=\"font-size:30px; font-family: monospace\">crianças</span>",
		"response": " ",
		"trial": "exp-sent",
		"word": "crianças",
		"trial_type": "html-keyboard-response",
		"trial_index": 325,
		"time_elapsed": 620839,
		"internal_node_id": "0.0-3.0-1.264"
	},
	{
		"rt": 746,
		"stimulus": "<span style=\"font-size:30px; font-family: monospace\">brincaram</span>",
		"response": " ",
		"trial": "exp-sent",
		"word": "brincaram",
		"trial_type": "html-keyboard-response",
		"trial_index": 326,
		"time_elapsed": 621835,
		"internal_node_id": "0.0-3.0-1.265"
	},
	{
		"rt": 431,
		"stimulus": "<span style=\"font-size:30px; font-family: monospace\">com</span>",
		"response": " ",
		"trial": "exp-sent",
		"word": "com",
		"trial_type": "html-keyboard-response",
		"trial_index": 327,
		"time_elapsed": 622517,
		"internal_node_id": "0.0-3.0-1.266"
	},
	{
		"rt": 472,
		"stimulus": "<span style=\"font-size:30px; font-family: monospace\">bolhas</span>",
		"response": " ",
		"trial": "exp-sent",
		"word": "bolhas",
		"trial_type": "html-keyboard-response",
		"trial_index": 328,
		"time_elapsed": 623240,
		"internal_node_id": "0.0-3.0-1.267"
	},
	{
		"rt": 521,
		"stimulus": "<span style=\"font-size:30px; font-family: monospace\">no</span>",
		"response": " ",
		"trial": "exp-sent",
		"word": "no",
		"trial_type": "html-keyboard-response",
		"trial_index": 329,
		"time_elapsed": 624012,
		"internal_node_id": "0.0-3.0-1.268"
	},
	{
		"rt": 695,
		"stimulus": "<span style=\"font-size:30px; font-family: monospace\">banho.</span>",
		"response": " ",
		"trial": "comp",
		"word": "banho.",
		"trial_type": "html-keyboard-response",
		"trial_index": 330,
		"time_elapsed": 624959,
		"internal_node_id": "0.0-3.0-1.269"
	},
	{
		"rt": 13420,
		"stimulus": "<span style=\"font-size:30px; font-family: monospace\">As crianças brincaram com bolhas?</span>",
		"response": "s",
		"question": "As crianças brincaram com bolhas?",
		"answer": "sim",
		"trial": "comp",
		"trial_type": "html-keyboard-response",
		"trial_index": 331,
		"time_elapsed": 638630,
		"internal_node_id": "0.0-3.0-2.269-0.269",
		"accuracy": false
	},
	{
		"rt": null,
		"stimulus": "<span style= \"font-size:30px; font-family: monospace\">+</span>",
		"response": null,
		"trial_part": "fixation",
		"trial_type": "html-keyboard-response",
		"trial_index": 332,
		"time_elapsed": 640132,
		"internal_node_id": "0.0-3.0-0.270-0.270"
	},
	{
		"rt": 467,
		"stimulus": "<span style=\"font-size:30px; font-family: monospace\">A</span>",
		"response": " ",
		"trial": "exp-sent",
		"word": "A",
		"trial_type": "html-keyboard-response",
		"trial_index": 333,
		"time_elapsed": 640851,
		"internal_node_id": "0.0-3.0-1.270"
	},
	{
		"rt": 717,
		"stimulus": "<span style=\"font-size:30px; font-family: monospace\">motorista</span>",
		"response": " ",
		"trial": "exp-sent",
		"word": "motorista",
		"trial_type": "html-keyboard-response",
		"trial_index": 334,
		"time_elapsed": 641820,
		"internal_node_id": "0.0-3.0-1.271"
	},
	{
		"rt": 384,
		"stimulus": "<span style=\"font-size:30px; font-family: monospace\">fez</span>",
		"response": " ",
		"trial": "exp-sent",
		"word": "fez",
		"trial_type": "html-keyboard-response",
		"trial_index": 335,
		"time_elapsed": 642455,
		"internal_node_id": "0.0-3.0-1.272"
	},
	{
		"rt": 550,
		"stimulus": "<span style=\"font-size:30px; font-family: monospace\">o</span>",
		"response": " ",
		"trial": "exp-sent",
		"word": "o",
		"trial_type": "html-keyboard-response",
		"trial_index": 336,
		"time_elapsed": 643256,
		"internal_node_id": "0.0-3.0-1.273"
	},
	{
		"rt": 649,
		"stimulus": "<span style=\"font-size:30px; font-family: monospace\">retorno</span>",
		"response": " ",
		"trial": "exp-sent",
		"word": "retorno",
		"trial_type": "html-keyboard-response",
		"trial_index": 337,
		"time_elapsed": 644157,
		"internal_node_id": "0.0-3.0-1.274"
	},
	{
		"rt": 433,
		"stimulus": "<span style=\"font-size:30px; font-family: monospace\">com</span>",
		"response": " ",
		"trial": "exp-sent",
		"word": "com",
		"trial_type": "html-keyboard-response",
		"trial_index": 338,
		"time_elapsed": 644842,
		"internal_node_id": "0.0-3.0-1.275"
	},
	{
		"rt": 4891,
		"stimulus": "<span style=\"font-size:30px; font-family: monospace\">cuidado.</span>",
		"response": " ",
		"trial": "exp-sent",
		"word": "cuidado.",
		"trial_type": "html-keyboard-response",
		"trial_index": 339,
		"time_elapsed": 649985,
		"internal_node_id": "0.0-3.0-1.276"
	},
	{
		"rt": null,
