"view_history","rt","trial_type","trial_index","time_elapsed","internal_node_id","stimulus","response","portuguese","kreyol"
"[{""page_index"":0,""viewing_time"":18927}]","18929","instructions","0","18933","0.0-0.0","","","",""
"","null","html-keyboard-response","1","19556","0.0-1.0-0.0","+","null","",""
"","2771","audio-keyboard-response","2","22501","0.0-1.0-1.0","../audio/teste-vocab--29.mp3","s","rasgar","chire"
"","null","html-keyboard-response","3","23008","0.0-1.0-0.1","+","null","",""
"","2509","audio-keyboard-response","4","25697","0.0-1.0-1.1","../audio/teste-vocab--94.mp3","s","paralelo","paralèl"
"","null","html-keyboard-response","5","26212","0.0-1.0-0.2","+","null","",""
"","2280","audio-keyboard-response","6","28647","0.0-1.0-1.2","../audio/teste-vocab--67.mp3","s","corrimão","ranp"
"","null","html-keyboard-response","7","29151","0.0-1.0-0.3","+","null","",""
"","4149","audio-keyboard-response","8","33486","0.0-1.0-1.3","../audio/teste-vocab--74.mp3","s","desilusão","dezilizyon"
"","null","html-keyboard-response","9","33995","0.0-1.0-0.4","+","null","",""
"","1920","audio-keyboard-response","10","36053","0.0-1.0-1.4","../audio/teste-vocab--82.mp3","s","roer","ronje"
"","null","html-keyboard-response","11","36563","0.0-1.0-0.5","+","null","",""
"","1971","audio-keyboard-response","12","38666","0.0-1.0-1.5","../audio/teste-vocab--46.mp3","s","ombro","zepòl"
"","null","html-keyboard-response","13","39175","0.0-1.0-0.6","+","null","",""
"","2211","audio-keyboard-response","14","41540","0.0-1.0-1.6","../audio/teste-vocab--100.mp3","s","consumir","konsome"
"","null","html-keyboard-response","15","42044","0.0-1.0-0.7","+","null","",""
"","3840","audio-keyboard-response","16","46047","0.0-1.0-1.7","../audio/teste-vocab--119.mp3","n","numeroso","anpil"
"","null","html-keyboard-response","17","46559","0.0-1.0-0.8","+","null","",""
"","1760","audio-keyboard-response","18","48447","0.0-1.0-1.8","../audio/teste-vocab--14.mp3","s","ler","li"
"","null","html-keyboard-response","19","48952","0.0-1.0-0.9","+","null","",""
"","2240","audio-keyboard-response","20","51328","0.0-1.0-1.9","../audio/teste-vocab--75.mp3","s","carpinteiro","chapantye"
"","null","html-keyboard-response","21","51839","0.0-1.0-0.10","+","null","",""
"","4331","audio-keyboard-response","22","56347","0.0-1.0-1.10","../audio/teste-vocab--109.mp3","s","anfíbio","anfibyen"
"","null","html-keyboard-response","23","56850","0.0-1.0-0.11","+","null","",""
"","2931","audio-keyboard-response","24","59934","0.0-1.0-1.11","../audio/teste-vocab--127.mp3","s","côncavo","konkav"
"","null","html-keyboard-response","25","60449","0.0-1.0-0.12","+","null","",""
"","2200","audio-keyboard-response","26","62782","0.0-1.0-1.12","../audio/teste-vocab--72.mp3","s","ilha","zile"
"","null","html-keyboard-response","27","63294","0.0-1.0-0.13","+","null","",""
"","2520","audio-keyboard-response","28","65980","0.0-1.0-1.13","../audio/teste-vocab--106.mp3","s","lubrificar","grese"
"","null","html-keyboard-response","29","66484","0.0-1.0-0.14","+","null","",""
"","1901","audio-keyboard-response","30","68510","0.0-1.0-1.14","../audio/teste-vocab--04.mp3","s","roda","wonn"
"","null","html-keyboard-response","31","69018","0.0-1.0-0.15","+","null","",""
"","1920","audio-keyboard-response","32","71059","0.0-1.0-1.15","../audio/teste-vocab--53.mp3","s","orientar","oryante"
"","null","html-keyboard-response","33","71567","0.0-1.0-0.16","+","null","",""
"","1912","audio-keyboard-response","34","73717","0.0-1.0-1.16","../audio/teste-vocab--21.mp3","s","baleia","balèn"
"","null","html-keyboard-response","35","74233","0.0-1.0-0.17","+","null","",""
"","2469","audio-keyboard-response","36","76828","0.0-1.0-1.17","../audio/teste-vocab--76.mp3","s","arquivar","achive"
"","null","html-keyboard-response","37","77342","0.0-1.0-0.18","+","null","",""
"","2928","audio-keyboard-response","38","80409","0.0-1.0-1.18","../audio/teste-vocab--103.mp3","s","utensílio","istansil"
"","null","html-keyboard-response","39","80919","0.0-1.0-0.19","+","null","",""
"","2032","audio-keyboard-response","40","83078","0.0-1.0-1.19","../audio/teste-vocab--77.mp3","s","comércio","komès"
"","null","html-keyboard-response","41","83588","0.0-1.0-0.20","+","null","",""
"","2080","audio-keyboard-response","42","85832","0.0-1.0-1.20","../audio/teste-vocab--54.mp3","s","arbusto","raje"
"","null","html-keyboard-response","43","86345","0.0-1.0-0.21","+","null","",""
"","1971","audio-keyboard-response","44","88463","0.0-1.0-1.21","../audio/teste-vocab--22.mp3","s","quebrado","kraze"
"","null","html-keyboard-response","45","88970","0.0-1.0-0.22","+","null","",""
"","2451","audio-keyboard-response","46","91561","0.0-1.0-1.22","../audio/teste-vocab--35.mp3","s","líquido","likid"
"","null","html-keyboard-response","47","92066","0.0-1.0-0.23","+","null","",""
"","2120","audio-keyboard-response","48","94297","0.0-1.0-1.23","../audio/teste-vocab--01.mp3","s","boneca","pope"
"","null","html-keyboard-response","49","94802","0.0-1.0-0.24","+","null","",""
"","2069","audio-keyboard-response","50","97050","0.0-1.0-1.24","../audio/teste-vocab--50.mp3","s","artista","atis"
"","null","html-keyboard-response","51","97555","0.0-1.0-0.25","+","null","",""
"","1912","audio-keyboard-response","52","99596","0.0-1.0-1.25","../audio/teste-vocab--121.mp3","s","atônito","sezi"
"","null","html-keyboard-response","53","100105","0.0-1.0-0.26","+","null","",""
"","3421","audio-keyboard-response","54","103675","0.0-1.0-1.26","../audio/teste-vocab--93.mp3","s","felino","leopa"
"","null","html-keyboard-response","55","104183","0.0-1.0-0.27","+","null","",""
"","1989","audio-keyboard-response","56","106331","0.0-1.0-1.27","../audio/teste-vocab--51.mp3","s","recolher","kolekte"
"","null","html-keyboard-response","57","106845","0.0-1.0-0.28","+","null","",""
"","3371","audio-keyboard-response","58","110338","0.0-1.0-1.28","../audio/teste-vocab--79.mp3","n","moldura"," chanbranl"
"","null","html-keyboard-response","59","110847","0.0-1.0-0.29","+","null","",""
"","1971","audio-keyboard-response","60","112947","0.0-1.0-1.29","../audio/teste-vocab--44.mp3","s","premiar","rekonpanse"
"","null","html-keyboard-response","61","113448","0.0-1.0-0.30","+","null","",""
"","2219","audio-keyboard-response","62","115858","0.0-1.0-1.30","../audio/teste-vocab--56.mp3","s","agricultura","agrikilti"
"","null","html-keyboard-response","63","116373","0.0-1.0-0.31","+","null","",""
"","2000","audio-keyboard-response","64","118513","0.0-1.0-1.31","../audio/teste-vocab--24.mp3","s","acidente","aksidan"
"","null","html-keyboard-response","65","119028","0.0-1.0-0.32","+","null","",""
"","2779","audio-keyboard-response","66","121928","0.0-1.0-1.32","../audio/teste-vocab--70.mp3","s","funil","antónwa"
"","null","html-keyboard-response","67","122438","0.0-1.0-0.33","+","null","",""
"","3461","audio-keyboard-response","68","126120","0.0-1.0-1.33","../audio/teste-vocab--101.mp3","n","incandescente","enkandesan"
"","null","html-keyboard-response","69","126631","0.0-1.0-0.34","+","null","",""
"","2011","audio-keyboard-response","70","128796","0.0-1.0-1.34","../audio/teste-vocab--87.mp3","s","ave","zwazo"
"","null","html-keyboard-response","71","129305","0.0-1.0-0.35","+","null","",""
"","3259","audio-keyboard-response","72","132700","0.0-1.0-1.35","../audio/teste-vocab--19.mp3","n","hora","è"
"","null","html-keyboard-response","73","133205","0.0-1.0-0.36","+","null","",""
"","2579","audio-keyboard-response","74","135927","0.0-1.0-1.36","../audio/teste-vocab--13.mp3","s","ambulância","anbilans"
"","null","html-keyboard-response","75","136440","0.0-1.0-0.37","+","null","",""
"","2029","audio-keyboard-response","76","138610","0.0-1.0-1.37","../audio/teste-vocab--48.mp3","s","joia","bijou"
"","null","html-keyboard-response","77","139111","0.0-1.0-0.38","+","null","",""
"","1851","audio-keyboard-response","78","141080","0.0-1.0-1.38","../audio/teste-vocab--15.mp3","s","flecha","flèch"
"","null","html-keyboard-response","79","141589","0.0-1.0-0.39","+","null","",""
"","2419","audio-keyboard-response","80","144130","0.0-1.0-1.39","../audio/teste-vocab--39.mp3","s","cobra","koulèv"
"","null","html-keyboard-response","81","144635","0.0-1.0-0.40","+","null","",""
"","3661","audio-keyboard-response","82","148435","0.0-1.0-1.40","../audio/teste-vocab--98.mp3","s","instruir","enstwi"
"","null","html-keyboard-response","83","148948","0.0-1.0-0.41","+","null","",""
"","6931","audio-keyboard-response","84","156035","0.0-1.0-1.41","../audio/teste-vocab--104.mp3","n","ira","pwal"
"","null","html-keyboard-response","85","156544","0.0-1.0-0.42","+","null","",""
"","2480","audio-keyboard-response","86","159178","0.0-1.0-1.42","../audio/teste-vocab--113.mp3","s","ascender","limen"
"","null","html-keyboard-response","87","159685","0.0-1.0-0.43","+","null","",""
"","1960","audio-keyboard-response","88","161781","0.0-1.0-1.43","../audio/teste-vocab--08.mp3","s","vaca","vach"
"","null","html-keyboard-response","89","162297","0.0-1.0-0.44","+","null","",""
"","1699","audio-keyboard-response","90","164137","0.0-1.0-1.44","../audio/teste-vocab--10.mp3","s","corneta","kòn"
"","null","html-keyboard-response","91","164644","0.0-1.0-0.45","+","null","",""
"","2651","audio-keyboard-response","92","167436","0.0-1.0-1.45","../audio/teste-vocab--124.mp3","n","obelisco","obelisk"
"","null","html-keyboard-response","93","167944","0.0-1.0-0.46","+","null","",""
"","1931","audio-keyboard-response","94","170067","0.0-1.0-1.46","../audio/teste-vocab--17.mp3","s","móvel","mobil"
"","null","html-keyboard-response","95","170569","0.0-1.0-0.47","+","null","",""
"","3741","audio-keyboard-response","96","174435","0.0-1.0-1.47","../audio/teste-vocab--83.mp3","n","morsa","mòs"
"","null","html-keyboard-response","97","174948","0.0-1.0-0.48","+","null","",""
"","2360","audio-keyboard-response","98","177465","0.0-1.0-1.48","../audio/teste-vocab--25.mp3","s","canguru","kanguwou"
"","null","html-keyboard-response","99","177981","0.0-1.0-0.49","+","null","",""
"","2299","audio-keyboard-response","100","180445","0.0-1.0-1.49","../audio/teste-vocab--102.mp3","s","arrogante","arogan"
"","null","html-keyboard-response","101","180959","0.0-1.0-0.50","+","null","",""
"","2400","audio-keyboard-response","102","183496","0.0-1.0-1.50","../audio/teste-vocab--84.mp3","s","confiar","konfye"
"","null","html-keyboard-response","103","184005","0.0-1.0-0.51","+","null","",""
"","3331","audio-keyboard-response","104","187550","0.0-1.0-1.51","../audio/teste-vocab--27.mp3","s","rio","rivyè"
"","null","html-keyboard-response","105","188065","0.0-1.0-0.52","+","null","",""
"","2451","audio-keyboard-response","106","190661","0.0-1.0-1.52","../audio/teste-vocab--65.mp3","s","discussão","diskisyon"
"","null","html-keyboard-response","107","191170","0.0-1.0-0.53","+","null","",""
"","2261","audio-keyboard-response","108","193560","0.0-1.0-1.53","../audio/teste-vocab--69.mp3","s","pingar","degoute"
"","null","html-keyboard-response","109","194075","0.0-1.0-0.54","+","null","",""
"","2592","audio-keyboard-response","110","196799","0.0-1.0-1.54","../audio/teste-vocab--36.mp3","s","grupo","gwoup"
"","null","html-keyboard-response","111","197310","0.0-1.0-0.55","+","null","",""
"","2120","audio-keyboard-response","112","199542","0.0-1.0-1.55","../audio/teste-vocab--64.mp3","s","colher","kiyè"
"","null","html-keyboard-response","113","200047","0.0-1.0-0.56","+","null","",""
"","2112","audio-keyboard-response","114","202272","0.0-1.0-1.56","../audio/teste-vocab--28.mp3","s","águia","èg"
"","null","html-keyboard-response","115","202783","0.0-1.0-0.57","+","null","",""
"","2032","audio-keyboard-response","116","205032","0.0-1.0-1.57","../audio/teste-vocab--110.mp3","s","prodígio","pwodij"
"","null","html-keyboard-response","117","205539","0.0-1.0-0.58","+","null","",""
"","2099","audio-keyboard-response","118","207812","0.0-1.0-1.58","../audio/teste-vocab--66.mp3","s","cooperação","koperasyon"
"","null","html-keyboard-response","119","208327","0.0-1.0-0.59","+","null","",""
"","1869","audio-keyboard-response","120","210344","0.0-1.0-1.59","../audio/teste-vocab--16.mp3","s","pescoço","kou"
"","null","html-keyboard-response","121","210851","0.0-1.0-0.60","+","null","",""
"","1931","audio-keyboard-response","122","212909","0.0-1.0-1.60","../audio/teste-vocab--05.mp3","s","limpar","netwaye"
"","null","html-keyboard-response","123","213420","0.0-1.0-0.61","+","null","",""
"","2061","audio-keyboard-response","124","215622","0.0-1.0-1.61","../audio/teste-vocab--18.mp3","s","abelha","myèl"
"","null","html-keyboard-response","125","216132","0.0-1.0-0.62","+","null","",""
"","2632","audio-keyboard-response","126","218914","0.0-1.0-1.62","../audio/teste-vocab--81.mp3","s","judicial","jidisyè"
"","null","html-keyboard-response","127","219427","0.0-1.0-0.63","+","null","",""
"","3861","audio-keyboard-response","128","223471","0.0-1.0-1.63","../audio/teste-vocab--105.mp3","n","cítrico","sitrik"
"","null","html-keyboard-response","129","223972","0.0-1.0-0.64","+","null","",""
"","2141","audio-keyboard-response","130","226308","0.0-1.0-1.64","../audio/teste-vocab--20.mp3","s","medir","mezire"
"","null","html-keyboard-response","131","226819","0.0-1.0-0.65","+","null","",""
"","2360","audio-keyboard-response","132","229299","0.0-1.0-1.65","../audio/teste-vocab--71.mp3","s","caule","tij"
"","null","html-keyboard-response","133","229810","0.0-1.0-0.66","+","null","",""
"","3501","audio-keyboard-response","134","233480","0.0-1.0-1.66","../audio/teste-vocab--37.mp3","s","músico","mizisyen"
"","null","html-keyboard-response","135","233983","0.0-1.0-0.67","+","null","",""
"","1840","audio-keyboard-response","136","235964","0.0-1.0-1.67","../audio/teste-vocab--26.mp3","s","cotovelo","koud"
"","null","html-keyboard-response","137","236471","0.0-1.0-0.68","+","null","",""
"","2651","audio-keyboard-response","138","239372","0.0-1.0-1.68","../audio/teste-vocab--11.mp3","s","joelho","jenou"
"","null","html-keyboard-response","139","239878","0.0-1.0-0.69","+","null","",""
"","2440","audio-keyboard-response","140","242463","0.0-1.0-1.69","../audio/teste-vocab--45.mp3","s","dentista","dantis"
"","null","html-keyboard-response","141","242964","0.0-1.0-0.70","+","null","",""
"","1760","audio-keyboard-response","142","244849","0.0-1.0-1.70","../audio/teste-vocab--34.mp3","s","tronco","twon"
"","null","html-keyboard-response","143","245352","0.0-1.0-0.71","+","null","",""
"","2379","audio-keyboard-response","144","247883","0.0-1.0-1.71","../audio/teste-vocab--12.mp3","s","jaula","kaj"
"","null","html-keyboard-response","145","248388","0.0-1.0-0.72","+","null","",""
"","1821","audio-keyboard-response","146","250350","0.0-1.0-1.72","../audio/teste-vocab--62.mp3","s","carretel","bobin"
"","null","html-keyboard-response","147","250858","0.0-1.0-0.73","+","null","",""
"","2821","audio-keyboard-response","148","253837","0.0-1.0-1.73","../audio/teste-vocab--112.mp3","s","aparição","aparisyon"
"","null","html-keyboard-response","149","254346","0.0-1.0-0.74","+","null","",""
"","2008","audio-keyboard-response","150","256487","0.0-1.0-1.74","../audio/teste-vocab--80.mp3","s","binóculo","longvi"
"","null","html-keyboard-response","151","256993","0.0-1.0-0.75","+","null","",""
"","1920","audio-keyboard-response","152","259079","0.0-1.0-1.75","../audio/teste-vocab--97.mp3","s","frágil","frajil"
"","null","html-keyboard-response","153","259591","0.0-1.0-0.76","+","null","",""
"","1909","audio-keyboard-response","154","261658","0.0-1.0-1.76","../audio/teste-vocab--41.mp3","s","médico","doktè,"
"","null","html-keyboard-response","155","262168","0.0-1.0-0.77","+","null","",""
"","2261","audio-keyboard-response","156","264584","0.0-1.0-1.77","../audio/teste-vocab--91.mp3","s","bússola","bousòl"
"","null","html-keyboard-response","157","265097","0.0-1.0-0.78","+","null","",""
"","1821","audio-keyboard-response","158","267068","0.0-1.0-1.78","../audio/teste-vocab--85.mp3","s","trio","trio"
"","null","html-keyboard-response","159","267580","0.0-1.0-0.79","+","null","",""
"","1701","audio-keyboard-response","160","269391","0.0-1.0-1.79","../audio/teste-vocab--23.mp3","s","acariciar","karese"
"","null","html-keyboard-response","161","269900","0.0-1.0-0.80","+","null","",""
"","1659","audio-keyboard-response","162","271722","0.0-1.0-1.80","../audio/teste-vocab--38.mp3","s","cerimônia","seremoni"
"","null","html-keyboard-response","163","272226","0.0-1.0-0.81","+","null","",""
"","3448","audio-keyboard-response","164","275845","0.0-1.0-1.81","../audio/teste-vocab--128.mp3","s","incisivo","ensisiv"
"","null","html-keyboard-response","165","276360","0.0-1.0-0.82","+","null","",""
"","2491","audio-keyboard-response","166","279014","0.0-1.0-1.82","../audio/teste-vocab--61.mp3","s","iluminação","iliminasyon"
"","null","html-keyboard-response","167","279529","0.0-1.0-0.83","+","null","",""
"","5272","audio-keyboard-response","168","284961","0.0-1.0-1.83","../audio/teste-vocab--118.mp3","s","paralelogramo","paralelogram"
"","null","html-keyboard-response","169","285474","0.0-1.0-0.84","+","null","",""
"","1832","audio-keyboard-response","170","287433","0.0-1.0-1.84","../audio/teste-vocab--130.mp3","s","gentil","dou"
"","null","html-keyboard-response","171","287937","0.0-1.0-0.85","+","null","",""
"","2269","audio-keyboard-response","172","290340","0.0-1.0-1.85","../audio/teste-vocab--111.mp3","s","jubilosa","rejwisans"
"","null","html-keyboard-response","173","290850","0.0-1.0-0.86","+","null","",""
"","3581","audio-keyboard-response","174","294548","0.0-1.0-1.86","../audio/teste-vocab--30.mp3","s","pintor","pent"
"","null","html-keyboard-response","175","295062","0.0-1.0-0.87","+","null","",""
"","2069","audio-keyboard-response","176","297255","0.0-1.0-1.87","../audio/teste-vocab--88.mp3","s","portátil","pòtab"
"","null","html-keyboard-response","177","297770","0.0-1.0-0.88","+","null","",""
"","1240","audio-keyboard-response","178","299147","0.0-1.0-1.88","../audio/teste-vocab--95.mp3","s","submergir","plonje"
"","null","html-keyboard-response","179","299649","0.0-1.0-0.89","+","null","",""
"","3829","audio-keyboard-response","180","303541","0.0-1.0-1.89","../audio/teste-vocab--59.mp3","n","par","pè"
"","null","html-keyboard-response","181","304050","0.0-1.0-0.90","+","null","",""
"","2221","audio-keyboard-response","182","306382","0.0-1.0-1.90","../audio/teste-vocab--58.mp3","s","nutritivo","nourisan"
"","null","html-keyboard-response","183","306897","0.0-1.0-0.91","+","null","",""
"","2011","audio-keyboard-response","184","309066","0.0-1.0-1.91","../audio/teste-vocab--06.mp3","s","barco","bato"
"","null","html-keyboard-response","185","309570","0.0-1.0-0.92","+","null","",""
"","2109","audio-keyboard-response","186","311822","0.0-1.0-1.92","../audio/teste-vocab--60.mp3","s","secretaria","sekretè"
"","null","html-keyboard-response","187","312325","0.0-1.0-0.93","+","null","",""
"","2251","audio-keyboard-response","188","314771","0.0-1.0-1.93","../audio/teste-vocab--86.mp3","s","pensar","panse"
"","null","html-keyboard-response","189","315274","0.0-1.0-0.94","+","null","",""
"","2000","audio-keyboard-response","190","317417","0.0-1.0-1.94","../audio/teste-vocab--57.mp3","s","raiz","rasin"
"","null","html-keyboard-response","191","317924","0.0-1.0-0.95","+","null","",""
"","1880","audio-keyboard-response","192","319940","0.0-1.0-1.95","../audio/teste-vocab--07.mp3","s","abajur","lanp"
"","null","html-keyboard-response","193","320441","0.0-1.0-0.96","+","null","",""
"","2592","audio-keyboard-response","194","323234","0.0-1.0-1.96","../audio/teste-vocab--107.mp3","s","elo","emay"
"","null","html-keyboard-response","195","323737","0.0-1.0-0.97","+","null","",""
"","2949","audio-keyboard-response","196","326818","0.0-1.0-1.97","../audio/teste-vocab--78.mp3","s","quarteto","qwatèt"
"","null","html-keyboard-response","197","327326","0.0-1.0-0.98","+","null","",""
"","2579","audio-keyboard-response","198","330058","0.0-1.0-1.98","../audio/teste-vocab--116.mp3","s","vestuário","vestyè"
"","null","html-keyboard-response","199","330562","0.0-1.0-0.99","+","null","",""
"","2051","audio-keyboard-response","200","332738","0.0-1.0-1.99","../audio/teste-vocab--90.mp3","s","carniça","kanivò"
"","null","html-keyboard-response","201","333247","0.0-1.0-0.100","+","null","",""
"","6011","audio-keyboard-response","202","339385","0.0-1.0-1.100","../audio/teste-vocab--122.mp3","s","transeunte","pasajè"
"","null","html-keyboard-response","203","339891","0.0-1.0-0.101","+","null","",""
"","2600","audio-keyboard-response","204","342687","0.0-1.0-1.101","../audio/teste-vocab--89.mp3","s","classificar","klasifika"
"","null","html-keyboard-response","205","343192","0.0-1.0-0.102","+","null","",""
"","3309","audio-keyboard-response","206","346660","0.0-1.0-1.102","../audio/teste-vocab--115.mp3","s","perpendicular","pèpandikilè"
"","null","html-keyboard-response","207","347172","0.0-1.0-0.103","+","null","",""
"","3120","audio-keyboard-response","208","350403","0.0-1.0-1.103","../audio/teste-vocab--117.mp3","s","córnea","kòn"
"","null","html-keyboard-response","209","350914","0.0-1.0-0.104","+","null","",""
"","2411","audio-keyboard-response","210","353518","0.0-1.0-1.104","../audio/teste-vocab--49.mp3","s","humano","moun"
"","null","html-keyboard-response","211","354036","0.0-1.0-0.105","+","null","",""
"","2648","audio-keyboard-response","212","356807","0.0-1.0-1.105","../audio/teste-vocab--02.mp3","s","homem","gason"
"","null","html-keyboard-response","213","357312","0.0-1.0-0.106","+","null","",""
"","2280","audio-keyboard-response","214","359716","0.0-1.0-1.106","../audio/teste-vocab--108.mp3","s","moradia","kay"
"","null","html-keyboard-response","215","360233","0.0-1.0-0.107","+","null","",""
"","1099","audio-keyboard-response","216","361484","0.0-1.0-1.107","../audio/teste-vocab--123.mp3","s","emissão","emisyon"
"","null","html-keyboard-response","217","361990","0.0-1.0-0.108","+","null","",""
"","1488","audio-keyboard-response","218","363561","0.0-1.0-1.108","../audio/teste-vocab--125.mp3","s","lamaçal","labou"
"","null","html-keyboard-response","219","364071","0.0-1.0-0.109","+","null","",""
"","1331","audio-keyboard-response","220","365598","0.0-1.0-1.109","../audio/teste-vocab--63.mp3","s","transparente","transparan"
"","null","html-keyboard-response","221","366099","0.0-1.0-0.110","+","null","",""
"","2709","audio-keyboard-response","222","368945","0.0-1.0-1.110","../audio/teste-vocab--96.mp3","s","árido","sechrès"
"","null","html-keyboard-response","223","369453","0.0-1.0-0.111","+","null","",""
"","2640","audio-keyboard-response","224","372228","0.0-1.0-1.111","../audio/teste-vocab--33.mp3","s","uniforme","inifòm"
"","null","html-keyboard-response","225","372732","0.0-1.0-0.112","+","null","",""
"","2541","audio-keyboard-response","226","375429","0.0-1.0-1.112","../audio/teste-vocab--114.mp3","s","fragmentar","dechire"
"","null","html-keyboard-response","227","375932","0.0-1.0-0.113","+","null","",""
"","2291","audio-keyboard-response","228","378343","0.0-1.0-1.113","../audio/teste-vocab--99.mp3","s","arqueólogo","akeyológ"
"","null","html-keyboard-response","229","378850","0.0-1.0-0.114","+","null","",""
"","2221","audio-keyboard-response","230","381200","0.0-1.0-1.114","../audio/teste-vocab--47.mp3","s","envelope","anvlope"
"","null","html-keyboard-response","231","381704","0.0-1.0-0.115","+","null","",""
"","1789","audio-keyboard-response","232","383624","0.0-1.0-1.115","../audio/teste-vocab--120.mp3","s","induzir","pwovoke"
"","null","html-keyboard-response","233","384130","0.0-1.0-0.116","+","null","",""
"","1712","audio-keyboard-response","234","385954","0.0-1.0-1.116","../audio/teste-vocab--73.mp3","s","ângulo","ang"
"","null","html-keyboard-response","235","386458","0.0-1.0-0.117","+","null","",""
"","1651","audio-keyboard-response","236","388240","0.0-1.0-1.117","../audio/teste-vocab--55.mp3","s","bosque","forè"
"","null","html-keyboard-response","237","388756","0.0-1.0-0.118","+","null","",""
"","7320","audio-keyboard-response","238","396224","0.0-1.0-1.118","../audio/teste-vocab--92.mp3","s","esférico","won"
"","null","html-keyboard-response","239","396733","0.0-1.0-0.119","+","null","",""
"","2600","audio-keyboard-response","240","399465","0.0-1.0-1.119","../audio/teste-vocab--09.mp3","s","vela","bouji"
"","null","html-keyboard-response","241","399970","0.0-1.0-0.120","+","null","",""
"","2229","audio-keyboard-response","242","402334","0.0-1.0-1.120","../audio/teste-vocab--31.mp3","s","vazio","vid"
"","null","html-keyboard-response","243","402836","0.0-1.0-0.121","+","null","",""
"","1669","audio-keyboard-response","244","404658","0.0-1.0-1.121","../audio/teste-vocab--126.mp3","s","ambulante","promennen"
"","null","html-keyboard-response","245","405168","0.0-1.0-0.122","+","null","",""
"","1768","audio-keyboard-response","246","407081","0.0-1.0-1.122","../audio/teste-vocab--129.mp3","s","elipse","elips"
"","null","html-keyboard-response","247","407594","0.0-1.0-0.123","+","null","",""
"","2501","audio-keyboard-response","248","410274","0.0-1.0-1.123","../audio/teste-vocab--52.mp3","s","construção","konstriksyon"
"","null","html-keyboard-response","249","410790","0.0-1.0-0.124","+","null","",""
"","1800","audio-keyboard-response","250","412741","0.0-1.0-1.124","../audio/teste-vocab--68.mp3","s","surpreendido","sezi"
"","null","html-keyboard-response","251","413250","0.0-1.0-0.125","+","null","",""
"","2749","audio-keyboard-response","252","416132","0.0-1.0-1.125","../audio/teste-vocab--03.mp3","s","balançar","balanse"
"","null","html-keyboard-response","253","416641","0.0-1.0-0.126","+","null","",""
"","3931","audio-keyboard-response","254","420779","0.0-1.0-1.126","../audio/teste-vocab--40.mp3","s","bebida","bwason"
"","null","html-keyboard-response","255","421281","0.0-1.0-0.127","+","null","",""
"","2109","audio-keyboard-response","256","423650","0.0-1.0-1.127","../audio/teste-vocab--32.mp3","s","descascar","dekale"
"","null","html-keyboard-response","257","424157","0.0-1.0-0.128","+","null","",""
"","1771","audio-keyboard-response","258","426058","0.0-1.0-1.128","../audio/teste-vocab--43.mp3","s","mecânico","mekanisyen"
"","null","html-keyboard-response","259","426564","0.0-1.0-0.129","+","null","",""
"","1760","audio-keyboard-response","260","428458","0.0-1.0-1.129","../audio/teste-vocab--42.mp3","s","isolamento","izòlman"
