"view_history","rt","trial_type","trial_index","time_elapsed","internal_node_id","stimulus","response","trial_part","word","question","answer","trial","accuracy"
"[{""page_index"":0,""viewing_time"":73671},{""page_index"":1,""viewing_time"":17272}]","90943","instructions","0","90944","0.0-0.0","","","","","","","",""
"","null","html-keyboard-response","1","92057","0.0-1.0-0.0-0.0","<span style= ""font-size:30px; font-family: monospace"">+</span>","null","fixation","","","","",""
"","3112","audio-keyboard-response","2","95480","0.0-1.0-1.0","../audio/prac-question-1-1.mp3"," ","","O","","","",""
"","1760","audio-keyboard-response","3","97511","0.0-1.0-1.1","../audio/prac-question-1-2.mp3"," ","","dia","","","",""
"","1800","audio-keyboard-response","4","99591","0.0-1.0-1.2","../audio/prac-question-1-3.mp3"," ","","estará","","","",""
"","1640","audio-keyboard-response","5","101511","0.0-1.0-1.3","../audio/prac-question-1-4.mp3"," ","","cheio","","","",""
"","1440","audio-keyboard-response","6","103223","0.0-1.0-1.4","../audio/prac-question-1-5.mp3"," ","","de","","","",""
"","1800","audio-keyboard-response","7","105287","0.0-1.0-1.5","../audio/prac-question-1-6.mp3"," ","","nuvens","","","",""
"","1709","audio-keyboard-response","8","107271","0.0-1.0-1.6","../audio/prac-question-1-7.mp3"," ","","hoje.","","","",""
"","null","html-keyboard-response","9","108544","0.0-1.0-0.7-0.7","<span style= ""font-size:30px; font-family: monospace"">+</span>","null","fixation","","","","",""
"","2501","audio-keyboard-response","10","111319","0.0-1.0-1.7","../audio/prac-question-2-1.mp3"," ","","A","","","",""
"","2309","audio-keyboard-response","11","113911","0.0-1.0-1.8","../audio/prac-question-2-2.mp3"," ","","caneca","","","",""
"","1861","audio-keyboard-response","12","116039","0.0-1.0-1.9","../audio/prac-question-2-3.mp3"," ","","colorida","","","",""
"","1909","audio-keyboard-response","13","118215","0.0-1.0-1.10","../audio/prac-question-2-4.mp3"," ","","caiu","","","",""
"","1472","audio-keyboard-response","14","119959","0.0-1.0-1.11","../audio/prac-question-2-5.mp3"," ","","da","","","",""
"","1589","audio-keyboard-response","15","121831","0.0-1.0-1.12","../audio/prac-question-2-6.mp3"," ","","mesa","","","",""
"","1461","audio-keyboard-response","16","123559","0.0-1.0-1.13","../audio/prac-question-2-7.mp3"," ","","de","","","",""
"","2579","audio-keyboard-response","17","126407","0.0-1.0-1.14","../audio/prac-question-2-8.mp3"," ","","jantar.","","","",""
"","64309","html-keyboard-response","18","190981","0.0-1.0-2.14-0.14","<span style=""font-size:25px; font-family: monospace"">A caneca era colorida?</span>","s","","","A caneca era colorida?","null","prac-sent","false"
"[{""page_index"":0,""viewing_time"":19467}]","19467","instructions","19","210949","0.0-2.0","","","","","","","",""
"","null","html-keyboard-response","20","212051","0.0-3.0-0.0-0.0","<span style= ""font-size:30px; font-family: monospace"">+</span>","null","fixation","","","","",""
"","2251","audio-keyboard-response","21","214613","0.0-3.0-1.0","../audio/31-1-fem.mp3"," ","","O","","","",""
"","1632","audio-keyboard-response","22","216518","0.0-3.0-1.1","../audio/31-2-fem.mp3"," ","","padeiro","","","",""
"","1419","audio-keyboard-response","23","218214","0.0-3.0-1.2","../audio/31-3-fem.mp3"," ","","usou","","","",""
"","1320","audio-keyboard-response","24","219814","0.0-3.0-1.3","../audio/31-4-fem.mp3"," ","","a","","","",""
"","1640","audio-keyboard-response","25","221734","0.0-3.0-1.4","../audio/31-5-fem.mp3"," ","","balança","","","",""
"","1552","audio-keyboard-response","26","223558","0.0-3.0-1.5","../audio/31-6-fem.mp3"," ","","o","","","",""
"","1528","audio-keyboard-response","27","225366","0.0-3.0-1.6","../audio/31-7-fem.mp3"," ","","dia","","","",""
"","2152","audio-keyboard-response","28","227798","0.0-3.0-1.7","../audio/31-8-fem.mp3"," ","","inteiro.","","","",""
"","null","html-keyboard-response","29","229064","0.0-3.0-0.8-0.8","<span style= ""font-size:30px; font-family: monospace"">+</span>","null","fixation","","","","",""
"","1571","audio-keyboard-response","30","230902","0.0-3.0-1.8","../audio/34-1-fem.mp3"," ","","Cobrança","","","",""
"","1629","audio-keyboard-response","31","232806","0.0-3.0-1.9","../audio/34-2-fem.mp3"," ","","excessiva","","","",""
"","1088","audio-keyboard-response","32","234166","0.0-3.0-1.10","../audio/34-3-fem.mp3"," ","","é","","","",""
"","1101","audio-keyboard-response","33","235542","0.0-3.0-1.11","../audio/34-4-fem.mp3"," ","","um","","","",""
"","1251","audio-keyboard-response","34","237078","0.0-3.0-1.12","../audio/34-5-fem.mp3"," ","","fardo","","","",""
"","1179","audio-keyboard-response","35","238534","0.0-3.0-1.13","../audio/34-6-fem.mp3"," ","","para","","","",""
"","1301","audio-keyboard-response","36","240118","0.0-3.0-1.14","../audio/34-7-fem.mp3"," ","","a","","","",""
"","2920","audio-keyboard-response","37","243318","0.0-3.0-1.15","../audio/34-8-fem.mp3"," ","","cabeça.","","","",""
"","null","html-keyboard-response","38","244581","0.0-3.0-0.16-0.16","<span style= ""font-size:30px; font-family: monospace"">+</span>","null","fixation","","","","",""
"","1411","audio-keyboard-response","39","246278","0.0-3.0-1.16","../audio/32-1-masc.mp3"," ","","A","","","",""
"","1109","audio-keyboard-response","40","247654","0.0-3.0-1.17","../audio/32-2-masc.mp3"," ","","tia","","","",""
"","1211","audio-keyboard-response","41","249142","0.0-3.0-1.18","../audio/32-3-masc.mp3"," ","","comprou","","","",""
"","1029","audio-keyboard-response","42","250454","0.0-3.0-1.19","../audio/32-4-masc.mp3"," ","","um","","","",""
"","1091","audio-keyboard-response","43","251814","0.0-3.0-1.20","../audio/32-5-masc.mp3"," ","","pilão","","","",""
"","1341","audio-keyboard-response","44","253430","0.0-3.0-1.21","../audio/32-6-masc.mp3"," ","","para","","","",""
"","939","audio-keyboard-response","45","254646","0.0-3.0-1.22","../audio/32-7-masc.mp3"," ","","a","","","",""
"","2400","audio-keyboard-response","46","257318","0.0-3.0-1.23","../audio/32-8-masc.mp3"," ","","cozinha.","","","",""
"","null","html-keyboard-response","47","258582","0.0-3.0-0.24-0.24","<span style= ""font-size:30px; font-family: monospace"">+</span>","null","fixation","","","","",""
"","1331","audio-keyboard-response","48","260182","0.0-3.0-1.24","../audio/33-1-fem.mp3"," ","","Eles","","","",""
"","1288","audio-keyboard-response","49","261766","0.0-3.0-1.25","../audio/33-2-fem.mp3"," ","","sabem","","","",""
"","1408","audio-keyboard-response","50","263446","0.0-3.0-1.26","../audio/33-3-fem.mp3"," ","","do","","","",""
"","1192","audio-keyboard-response","51","264918","0.0-3.0-1.27","../audio/33-4-fem.mp3"," ","","seu","","","",""
"","2120","audio-keyboard-response","52","267318","0.0-3.0-1.28","../audio/33-5-fem.mp3"," ","","privilégio","","","",""
"","1240","audio-keyboard-response","53","268822","0.0-3.0-1.29","../audio/33-6-fem.mp3"," ","","nessa","","","",""
"","2560","audio-keyboard-response","54","271670","0.0-3.0-1.30","../audio/33-7-fem.mp3"," ","","confusão.","","","",""
"","null","html-keyboard-response","55","272940","0.0-3.0-0.31-0.31","<span style= ""font-size:30px; font-family: monospace"">+</span>","null","fixation","","","","",""
"","1131","audio-keyboard-response","56","274342","0.0-3.0-1.31","../audio/35-1-masc.mp3"," ","","A","","","",""
"","1200","audio-keyboard-response","57","275810","0.0-3.0-1.32","../audio/35-2-masc.mp3"," ","","receita","","","",""
"","1280","audio-keyboard-response","58","277362","0.0-3.0-1.33","../audio/35-3-masc.mp3"," ","","para","","","",""
"","1160","audio-keyboard-response","59","278802","0.0-3.0-1.34","../audio/35-4-masc.mp3"," ","","a","","","",""
"","1451","audio-keyboard-response","60","280530","0.0-3.0-1.35","../audio/35-5-masc.mp3"," ","","preparação","","","",""
"","1301","audio-keyboard-response","61","282114","0.0-3.0-1.36","../audio/35-6-masc.mp3"," ","","do","","","",""
"","1229","audio-keyboard-response","62","283618","0.0-3.0-1.37","../audio/35-7-masc.mp3"," ","","bolo","","","",""
"","1011","audio-keyboard-response","63","284898","0.0-3.0-1.38","../audio/35-8-masc.mp3"," ","","é","","","",""
"","3021","audio-keyboard-response","64","288194","0.0-3.0-1.39","../audio/35-9-masc.mp3"," ","","leve.","","","",""
"","9850","html-keyboard-response","65","298306","0.0-3.0-2.39-0.39","<span style=""font-size:25px; font-family: monospace"">A receita do bolo é pesada?</span>","s","","","A receita do bolo é pesada?","null","exp-sent","false"
"","null","html-keyboard-response","66","299836","0.0-3.0-0.40-0.40","<span style= ""font-size:30px; font-family: monospace"">+</span>","null","fixation","","","","",""
"","1941","audio-keyboard-response","67","302066","0.0-3.0-1.40","../audio/68-1-masc.mp3"," ","","Meu","","","",""
"","1229","audio-keyboard-response","68","303570","0.0-3.0-1.41","../audio/68-2-masc.mp3"," ","","irmão","","","",""
"","1181","audio-keyboard-response","69","305026","0.0-3.0-1.42","../audio/68-3-masc.mp3"," ","","teve","","","",""
"","1029","audio-keyboard-response","70","306338","0.0-3.0-1.43","../audio/68-4-masc.mp3"," ","","um","","","",""
"","1651","audio-keyboard-response","71","308258","0.0-3.0-1.44","../audio/68-5-masc.mp3"," ","","noivado","","","",""
"","1211","audio-keyboard-response","72","309746","0.0-3.0-1.45","../audio/68-6-masc.mp3"," ","","longo","","","",""
"","1000","audio-keyboard-response","73","311010","0.0-3.0-1.46","../audio/68-7-masc.mp3"," ","","e","","","",""
"","1872","audio-keyboard-response","74","313154","0.0-3.0-1.47","../audio/68-8-masc.mp3"," ","","maravilhoso.","","","",""
"","null","html-keyboard-response","75","314416","0.0-3.0-0.48-0.48","<span style= ""font-size:30px; font-family: monospace"">+</span>","null","fixation","","","","",""
"","1320","audio-keyboard-response","76","316018","0.0-3.0-1.48","../audio/67-1-fem.mp3"," ","","Minha","","","",""
"","1109","audio-keyboard-response","77","317410","0.0-3.0-1.49","../audio/67-2-fem.mp3"," ","","tia","","","",""
"","1152","audio-keyboard-response","78","318834","0.0-3.0-1.50","../audio/67-3-fem.mp3"," ","","comprou","","","",""
"","1000","audio-keyboard-response","79","320098","0.0-3.0-1.51","../audio/67-4-fem.mp3"," ","","um","","","",""
"","1200","audio-keyboard-response","80","321586","0.0-3.0-1.52","../audio/67-5-fem.mp3"," ","","cordão","","","",""
"","1000","audio-keyboard-response","81","322850","0.0-3.0-1.53","../audio/67-6-fem.mp3"," ","","para","","","",""
"","1152","audio-keyboard-response","82","324274","0.0-3.0-1.54","../audio/67-7-fem.mp3"," ","","o","","","",""
"","1528","audio-keyboard-response","83","326082","0.0-3.0-1.55","../audio/67-8-fem.mp3"," ","","varal.","","","",""
"","null","html-keyboard-response","84","327356","0.0-3.0-0.56-0.56","<span style= ""font-size:30px; font-family: monospace"">+</span>","null","fixation","","","","",""
"","571","audio-keyboard-response","85","328194","0.0-3.0-1.56","../audio/69-1-fem.mp3"," ","","A","","","",""
"","1120","audio-keyboard-response","86","329586","0.0-3.0-1.57","../audio/69-2-fem.mp3"," ","","loja","","","",""
"","1080","audio-keyboard-response","87","330946","0.0-3.0-1.58","../audio/69-3-fem.mp3"," ","","recebeu","","","",""
"","901","audio-keyboard-response","88","332114","0.0-3.0-1.59","../audio/69-4-fem.mp3"," ","","uma","","","",""
"","1171","audio-keyboard-response","89","333554","0.0-3.0-1.60","../audio/69-5-fem.mp3"," ","","poltrona","","","",""
"","1240","audio-keyboard-response","90","335074","0.0-3.0-1.61","../audio/69-6-fem.mp3"," ","","de","","","",""
"","1040","audio-keyboard-response","91","336390","0.0-3.0-1.62","../audio/69-7-fem.mp3"," ","","couro","","","",""
"","1371","audio-keyboard-response","92","338037","0.0-3.0-1.63","../audio/69-8-fem.mp3"," ","","preto.","","","",""
"","null","html-keyboard-response","93","339291","0.0-3.0-0.64-0.64","<span style= ""font-size:30px; font-family: monospace"">+</span>","null","fixation","","","","",""
"","1040","audio-keyboard-response","94","340613","0.0-3.0-1.64","../audio/66-1-fem.mp3"," ","","Não","","","",""
"","1261","audio-keyboard-response","95","342150","0.0-3.0-1.65","../audio/66-2-fem.mp3"," ","","gosto","","","",""
"","848","audio-keyboard-response","96","343285","0.0-3.0-1.66","../audio/66-3-fem.mp3"," ","","de","","","",""
"","1168","audio-keyboard-response","97","344725","0.0-3.0-1.67","../audio/66-4-fem.mp3"," ","","gente","","","",""
"","1752","audio-keyboard-response","98","346757","0.0-3.0-1.68","../audio/66-5-fem.mp3"," ","","egoísta","","","",""
"","1099","audio-keyboard-response","99","348133","0.0-3.0-1.69","../audio/66-6-fem.mp3"," ","","nem","","","",""
"","1571","audio-keyboard-response","100","349989","0.0-3.0-1.70","../audio/66-7-fem.mp3"," ","","chata.","","","",""
"","null","html-keyboard-response","101","351249","0.0-3.0-0.71-0.71","<span style= ""font-size:30px; font-family: monospace"">+</span>","null","fixation","","","","",""
"","880","audio-keyboard-response","102","352406","0.0-3.0-1.71","../audio/70-1-masc.mp3"," ","","O","","","",""
"","1141","audio-keyboard-response","103","353829","0.0-3.0-1.72","../audio/70-2-masc.mp3"," ","","meu","","","",""
"","1029","audio-keyboard-response","104","355125","0.0-3.0-1.73","../audio/70-3-masc.mp3"," ","","filho","","","",""
"","880","audio-keyboard-response","105","356277","0.0-3.0-1.74","../audio/70-4-masc.mp3"," ","","tem","","","",""
"","1379","audio-keyboard-response","106","357925","0.0-3.0-1.75","../audio/70-5-masc.mp3"," ","","medo","","","",""
"","1040","audio-keyboard-response","107","359237","0.0-3.0-1.76","../audio/70-6-masc.mp3"," ","","de","","","",""
"","1440","audio-keyboard-response","108","360949","0.0-3.0-1.77","../audio/70-7-masc.mp3"," ","","enguia","","","",""
"","1339","audio-keyboard-response","109","362566","0.0-3.0-1.78","../audio/70-8-masc.mp3"," ","","e","","","",""
"","1661","audio-keyboard-response","110","364501","0.0-3.0-1.79","../audio/70-9-masc.mp3"," ","","beija-flor.","","","",""
"","8990","html-keyboard-response","111","373750","0.0-3.0-2.79-0.79","<span style=""font-size:25px; font-family: monospace"">O filho tem medo de tigre?</span>","n","","","O filho tem medo de tigre?","null","exp-sent","false"
"","null","html-keyboard-response","112","375259","0.0-3.0-0.80-0.80","<span style= ""font-size:30px; font-family: monospace"">+</span>","null","fixation","","","","",""
"","1171","audio-keyboard-response","113","376709","0.0-3.0-1.80","../audio/76-1-fem.mp3"," ","","O","","","",""
"","1611","audio-keyboard-response","114","378597","0.0-3.0-1.81","../audio/76-2-fem.mp3"," ","","bisavô","","","",""
"","1251","audio-keyboard-response","115","380117","0.0-3.0-1.82","../audio/76-3-fem.mp3"," ","","comprou","","","",""
"","1179","audio-keyboard-response","116","381573","0.0-3.0-1.83","../audio/76-4-fem.mp3"," ","","um","","","",""
"","1509","audio-keyboard-response","117","383365","0.0-3.0-1.84","../audio/76-5-fem.mp3"," ","","ralador","","","",""
"","989","audio-keyboard-response","118","384630","0.0-3.0-1.85","../audio/76-6-fem.mp3"," ","","de","","","",""
"","1499","audio-keyboard-response","119","386405","0.0-3.0-1.86","../audio/76-7-fem.mp3"," ","","queijo.","","","",""
"","null","html-keyboard-response","120","387689","0.0-3.0-0.87-0.87","<span style= ""font-size:30px; font-family: monospace"">+</span>","null","fixation","","","","",""
"","952","audio-keyboard-response","121","388917","0.0-3.0-1.87","../audio/79-1-fem.mp3"," ","","A","","","",""
"","1269","audio-keyboard-response","122","390469","0.0-3.0-1.88","../audio/79-2-fem.mp3"," ","","médica","","","",""
"","1291","audio-keyboard-response","123","392037","0.0-3.0-1.89","../audio/79-3-fem.mp3"," ","","verificou","","","",""
"","899","audio-keyboard-response","124","393205","0.0-3.0-1.90","../audio/79-4-fem.mp3"," ","","a","","","",""
"","1451","audio-keyboard-response","125","394933","0.0-3.0-1.91","../audio/79-5-fem.mp3"," ","","gengiva","","","",""
"","1120","audio-keyboard-response","126","396325","0.0-3.0-1.92","../audio/79-6-fem.mp3"," ","","por","","","",""
"","1400","audio-keyboard-response","127","398006","0.0-3.0-1.93","../audio/79-7-fem.mp3"," ","","último.","","","",""
"","null","html-keyboard-response","128","399270","0.0-3.0-0.94-0.94","<span style= ""font-size:30px; font-family: monospace"">+</span>","null","fixation","","","","",""
"","1120","audio-keyboard-response","129","400678","0.0-3.0-1.94","../audio/78-1-masc.mp3"," ","","Eles","","","",""
"","1309","audio-keyboard-response","130","402262","0.0-3.0-1.95","../audio/78-2-masc.mp3"," ","","trazem","","","",""
"","1021","audio-keyboard-response","131","403558","0.0-3.0-1.96","../audio/78-3-masc.mp3"," ","","um","","","",""
"","1139","audio-keyboard-response","132","404966","0.0-3.0-1.97","../audio/78-4-masc.mp3"," ","","fato","","","",""
"","1272","audio-keyboard-response","133","406518","0.0-3.0-1.98","../audio/78-5-masc.mp3"," ","","urgente","","","",""
"","1069","audio-keyboard-response","134","407862","0.0-3.0-1.99","../audio/78-6-masc.mp3"," ","","todos","","","",""
"","971","audio-keyboard-response","135","409110","0.0-3.0-1.100","../audio/78-7-masc.mp3"," ","","os","","","",""
"","1349","audio-keyboard-response","136","410742","0.0-3.0-1.101","../audio/78-8-masc.mp3"," ","","dias.","","","",""
"","null","html-keyboard-response","137","412030","0.0-3.0-0.102-0.102","<span style= ""font-size:30px; font-family: monospace"">+</span>","null","fixation","","","","",""
"","680","audio-keyboard-response","138","412982","0.0-3.0-1.102","../audio/77-1-masc.mp3"," ","","A","","","",""
"","1091","audio-keyboard-response","139","414342","0.0-3.0-1.103","../audio/77-2-masc.mp3"," ","","criança","","","",""
"","1331","audio-keyboard-response","140","415958","0.0-3.0-1.104","../audio/77-3-masc.mp3"," ","","ficou","","","",""
"","1320","audio-keyboard-response","141","417558","0.0-3.0-1.105","../audio/77-4-masc.mp3"," ","","muito","","","",""
"","1549","audio-keyboard-response","142","419382","0.0-3.0-1.106","../audio/77-5-masc.mp3"," ","","feliz","","","",""
"","1000","audio-keyboard-response","143","420662","0.0-3.0-1.107","../audio/77-6-masc.mp3"," ","","com","","","",""
"","1131","audio-keyboard-response","144","422070","0.0-3.0-1.108","../audio/77-7-masc.mp3"," ","","o","","","",""
"","2669","audio-keyboard-response","145","425014","0.0-3.0-1.109","../audio/77-8-masc.mp3"," ","","brinquedo.","","","",""
"","null","html-keyboard-response","146","426278","0.0-3.0-0.110-0.110","<span style= ""font-size:30px; font-family: monospace"">+</span>","null","fixation","","","","",""
"","1240","audio-keyboard-response","147","427782","0.0-3.0-1.110","../audio/80-1-masc.mp3"," ","","Meu","","","",""
"","1211","audio-keyboard-response","148","429270","0.0-3.0-1.111","../audio/80-2-masc.mp3"," ","","primo","","","",""
"","1349","audio-keyboard-response","149","430902","0.0-3.0-1.112","../audio/80-3-masc.mp3"," ","","conheceu","","","",""
"","1261","audio-keyboard-response","150","432438","0.0-3.0-1.113","../audio/80-4-masc.mp3"," ","","um","","","",""
"","1139","audio-keyboard-response","151","433846","0.0-3.0-1.114","../audio/80-5-masc.mp3"," ","","jovem","","","",""
"","1379","audio-keyboard-response","152","435494","0.0-3.0-1.115","../audio/80-6-masc.mp3"," ","","amável","","","",""
"","1072","audio-keyboard-response","153","436838","0.0-3.0-1.116","../audio/80-7-masc.mp3"," ","","e","","","",""
"","2120","audio-keyboard-response","154","439238","0.0-3.0-1.117","../audio/80-8-masc.mp3"," ","","confiante.","","","",""
"","8378","html-keyboard-response","155","447878","0.0-3.0-2.117-0.117","<span style=""font-size:25px; font-family: monospace"">O primo conheceu um jovem irritante?</span>","n","","","O primo conheceu um jovem irritante?","null","exp-sent","false"
"","null","html-keyboard-response","156","449410","0.0-3.0-0.118-0.118","<span style= ""font-size:30px; font-family: monospace"">+</span>","null","fixation","","","","",""
"","1021","audio-keyboard-response","157","450710","0.0-3.0-1.118","../audio/11-1-fem.mp3"," ","","Elas","","","",""
"","1179","audio-keyboard-response","158","452166","0.0-3.0-1.119","../audio/11-2-fem.mp3"," ","","gostam","","","",""
"","1189","audio-keyboard-response","159","453622","0.0-3.0-1.120","../audio/11-3-fem.mp3"," ","","muito","","","",""
"","1360","audio-keyboard-response","160","455254","0.0-3.0-1.121","../audio/11-4-fem.mp3"," ","","de","","","",""
"","2171","audio-keyboard-response","161","457710","0.0-3.0-1.122","../audio/11-5-fem.mp3"," ","","aritmética","","","",""
"","1309","audio-keyboard-response","162","459294","0.0-3.0-1.123","../audio/11-6-fem.mp3"," ","","e","","","",""
"","1381","audio-keyboard-response","163","460942","0.0-3.0-1.124","../audio/11-7-fem.mp3"," ","","de","","","",""
"","1699","audio-keyboard-response","164","462926","0.0-3.0-1.125","../audio/11-8-fem.mp3"," ","","leitura.","","","",""
"","null","html-keyboard-response","165","464212","0.0-3.0-0.126-0.126","<span style= ""font-size:30px; font-family: monospace"">+</span>","null","fixation","","","","",""
"","1080","audio-keyboard-response","166","465566","0.0-3.0-1.126","../audio/14-1-masc.mp3"," ","","O","","","",""
"","1232","audio-keyboard-response","167","467070","0.0-3.0-1.127","../audio/14-2-masc.mp3"," ","","cachorro","","","",""
"","1189","audio-keyboard-response","168","468542","0.0-3.0-1.128","../audio/14-3-masc.mp3"," ","","é","","","",""
"","1091","audio-keyboard-response","169","469902","0.0-3.0-1.129","../audio/14-4-masc.mp3"," ","","muito","","","",""
"","1371","audio-keyboard-response","170","471550","0.0-3.0-1.130","../audio/14-5-masc.mp3"," ","","fiel","","","",""
"","979","audio-keyboard-response","171","472798","0.0-3.0-1.131","../audio/14-6-masc.mp3"," ","","a","","","",""
"","960","audio-keyboard-response","172","474030","0.0-3.0-1.132","../audio/14-7-masc.mp3"," ","","seus","","","",""
"","1269","audio-keyboard-response","173","475566","0.0-3.0-1.133","../audio/14-8-masc.mp3"," ","","donos.","","","",""
"","null","html-keyboard-response","174","476842","0.0-3.0-0.134-0.134","<span style= ""font-size:30px; font-family: monospace"">+</span>","null","fixation","","","","",""
"","760","audio-keyboard-response","175","477886","0.0-3.0-1.134","../audio/12-1-fem.mp3"," ","","O","","","",""
"","1091","audio-keyboard-response","176","479246","0.0-3.0-1.135","../audio/12-2-fem.mp3"," ","","dia","","","",""
"","1011","audio-keyboard-response","177","480542","0.0-3.0-1.136","../audio/12-3-fem.mp3"," ","","estava","","","",""
"","1859","audio-keyboard-response","178","482686","0.0-3.0-1.137","../audio/12-4-fem.mp3"," ","","quente,","","","",""
"","1320","audio-keyboard-response","179","484302","0.0-3.0-1.138","../audio/12-5-fem.mp3"," ","","tranquilo","","","",""
"","1051","audio-keyboard-response","180","485630","0.0-3.0-1.139","../audio/12-6-fem.mp3"," ","","e","","","",""
"","2600","audio-keyboard-response","181","488494","0.0-3.0-1.140","../audio/12-7-fem.mp3"," ","","ensolarado.","","","",""
"","null","html-keyboard-response","182","489764","0.0-3.0-0.141-0.141","<span style= ""font-size:30px; font-family: monospace"">+</span>","null","fixation","","","","",""
"","840","audio-keyboard-response","183","490878","0.0-3.0-1.141","../audio/13-1-masc.mp3"," ","","Para","","","",""
"","901","audio-keyboard-response","184","492062","0.0-3.0-1.142","../audio/13-2-masc.mp3"," ","","mim","","","",""
"","891","audio-keyboard-response","185","493230","0.0-3.0-1.143","../audio/13-3-masc.mp3"," ","","é","","","",""
"","1059","audio-keyboard-response","186","494558","0.0-3.0-1.144","../audio/13-4-masc.mp3"," ","","muito","","","",""
"","1131","audio-keyboard-response","187","495966","0.0-3.0-1.145","../audio/13-5-masc.mp3"," ","","difícil","","","",""
"","1171","audio-keyboard-response","188","497406","0.0-3.0-1.146","../audio/13-6-masc.mp3"," ","","acordar","","","",""
"","1891","audio-keyboard-response","189","499566","0.0-3.0-1.147","../audio/13-7-masc.mp3"," ","","cedo.","","","",""
"","null","html-keyboard-response","190","500830","0.0-3.0-0.148-0.148","<span style= ""font-size:30px; font-family: monospace"">+</span>","null","fixation","","","","",""
"","939","audio-keyboard-response","191","502046","0.0-3.0-1.148","../audio/15-1-masc.mp3"," ","","Meu","","","",""
"","1000","audio-keyboard-response","192","503326","0.0-3.0-1.149","../audio/15-2-masc.mp3"," ","","primo","","","",""
"","1101","audio-keyboard-response","193","504702","0.0-3.0-1.150","../audio/15-3-masc.mp3"," ","","é","","","",""
"","979","audio-keyboard-response","194","505966","0.0-3.0-1.151","../audio/15-4-masc.mp3"," ","","um","","","",""
"","1141","audio-keyboard-response","195","507390","0.0-3.0-1.152","../audio/15-5-masc.mp3"," ","","grande","","","",""
"","1331","audio-keyboard-response","196","508990","0.0-3.0-1.153","../audio/15-6-masc.mp3"," ","","vendedor","","","",""
"","1080","audio-keyboard-response","197","510350","0.0-3.0-1.154","../audio/15-7-masc.mp3"," ","","de","","","",""
"","2168","audio-keyboard-response","198","512798","0.0-3.0-1.155","../audio/15-8-masc.mp3"," ","","carros.","","","",""
"","5586","html-keyboard-response","199","518640","0.0-3.0-2.155-0.155","<span style=""font-size:25px; font-family: monospace"">O primo é um vendedor de carros?</span>","s","","","O primo é um vendedor de carros?","null","exp-sent","false"
"","null","html-keyboard-response","200","520164","0.0-3.0-0.156-0.156","<span style= ""font-size:30px; font-family: monospace"">+</span>","null","fixation","","","","",""
"","1931","audio-keyboard-response","201","522368","0.0-3.0-1.156","../audio/22-1-fem.mp3"," ","","Eu","","","",""
"","1331","audio-keyboard-response","202","523967","0.0-3.0-1.157","../audio/22-2-fem.mp3"," ","","detesto","","","",""
"","1251","audio-keyboard-response","203","525488","0.0-3.0-1.158","../audio/22-3-fem.mp3"," ","","fumaça","","","",""
"","981","audio-keyboard-response","204","526752","0.0-3.0-1.159","../audio/22-4-fem.mp3"," ","","de","","","",""
"","1640","audio-keyboard-response","205","528656","0.0-3.0-1.160","../audio/22-5-fem.mp3"," ","","cachimbo","","","",""
"","1189","audio-keyboard-response","206","530128","0.0-3.0-1.161","../audio/22-6-fem.mp3"," ","","e","","","",""
"","971","audio-keyboard-response","207","531375","0.0-3.0-1.162","../audio/22-7-fem.mp3"," ","","de","","","",""
"","1651","audio-keyboard-response","208","533312","0.0-3.0-1.163","../audio/22-8-fem.mp3"," ","","cigarro.","","","",""
"","null","html-keyboard-response","209","534593","0.0-3.0-0.164-0.164","<span style= ""font-size:30px; font-family: monospace"">+</span>","null","fixation","","","","",""
"","1109","audio-keyboard-response","210","535984","0.0-3.0-1.164","../audio/24-1-masc.mp3"," ","","As","","","",""
"","1200","audio-keyboard-response","211","537472","0.0-3.0-1.165","../audio/24-2-masc.mp3"," ","","crianças","","","",""
"","1080","audio-keyboard-response","212","538816","0.0-3.0-1.166","../audio/24-3-masc.mp3"," ","","vão","","","",""
"","1091","audio-keyboard-response","213","540192","0.0-3.0-1.167","../audio/24-4-masc.mp3"," ","","ao","","","",""
"","1309","audio-keyboard-response","214","541775","0.0-3.0-1.168","../audio/24-5-masc.mp3"," ","","cinema","","","",""
"","1181","audio-keyboard-response","215","543232","0.0-3.0-1.169","../audio/24-6-masc.mp3"," ","","mais","","","",""
"","1640","audio-keyboard-response","216","545135","0.0-3.0-1.170","../audio/24-7-masc.mp3"," ","","tarde.","","","",""
"","null","html-keyboard-response","217","546403","0.0-3.0-0.171-0.171","<span style= ""font-size:30px; font-family: monospace"">+</span>","null","fixation","","","","",""
"","1061","audio-keyboard-response","218","547744","0.0-3.0-1.171","../audio/21-1-masc.mp3"," ","","Precisamos","","","",""
"","1200","audio-keyboard-response","219","549215","0.0-3.0-1.172","../audio/21-2-masc.mp3"," ","","de","","","",""
"","1341","audio-keyboard-response","220","550832","0.0-3.0-1.173","../audio/21-3-masc.mp3"," ","","paciência","","","",""
"","1109","audio-keyboard-response","221","552224","0.0-3.0-1.174","../audio/21-4-masc.mp3"," ","","e","","","",""
"","1328","audio-keyboard-response","222","553840","0.0-3.0-1.175","../audio/21-5-masc.mp3"," ","","bondade","","","",""
"","1008","audio-keyboard-response","223","555119","0.0-3.0-1.176","../audio/21-6-masc.mp3"," ","","para","","","",""
"","949","audio-keyboard-response","224","556335","0.0-3.0-1.177","../audio/21-7-masc.mp3"," ","","um","","","",""
"","1200","audio-keyboard-response","225","557823","0.0-3.0-1.178","../audio/21-8-masc.mp3"," ","","mundo","","","",""
"","1709","audio-keyboard-response","226","559824","0.0-3.0-1.179","../audio/21-9-masc.mp3"," ","","melhor.","","","",""
"","null","html-keyboard-response","227","561103","0.0-3.0-0.180-0.180","<span style= ""font-size:30px; font-family: monospace"">+</span>","null","fixation","","","","",""
"","829","audio-keyboard-response","228","562208","0.0-3.0-1.180","../audio/23-1-masc.mp3"," ","","Português","","","",""
"","971","audio-keyboard-response","229","563455","0.0-3.0-1.181","../audio/23-2-masc.mp3"," ","","é","","","",""
"","1299","audio-keyboard-response","230","565040","0.0-3.0-1.182","../audio/23-3-masc.mp3"," ","","um","","","",""
"","1360","audio-keyboard-response","231","566672","0.0-3.0-1.183","../audio/23-4-masc.mp3"," ","","assunto","","","",""
"","1509","audio-keyboard-response","232","568464","0.0-3.0-1.184","../audio/23-5-masc.mp3"," ","","elementar","","","",""
"","1069","audio-keyboard-response","233","569824","0.0-3.0-1.185","../audio/23-6-masc.mp3"," ","","para","","","",""
"","1149","audio-keyboard-response","234","571247","0.0-3.0-1.186","../audio/23-7-masc.mp3"," ","","os","","","",""
"","1520","audio-keyboard-response","235","573040","0.0-3.0-1.187","../audio/23-8-masc.mp3"," ","","alunos.","","","",""
"","null","html-keyboard-response","236","574323","0.0-3.0-0.188-0.188","<span style= ""font-size:30px; font-family: monospace"">+</span>","null","fixation","","","","",""
"","829","audio-keyboard-response","237","575424","0.0-3.0-1.188","../audio/25-1-masc.mp3"," ","","Ela","","","",""
"","949","audio-keyboard-response","238","576655","0.0-3.0-1.189","../audio/25-2-masc.mp3"," ","","faz","","","",""
"","979","audio-keyboard-response","239","577920","0.0-3.0-1.190","../audio/25-3-masc.mp3"," ","","tanto","","","",""
"","1219","audio-keyboard-response","240","579414","0.0-3.0-1.191","../audio/25-4-masc.mp3"," ","","cabelo","","","",""
"","1232","audio-keyboard-response","241","580918","0.0-3.0-1.192","../audio/25-5-masc.mp3"," ","","liso","","","",""
"","1080","audio-keyboard-response","242","582262","0.0-3.0-1.193","../audio/25-6-masc.mp3"," ","","quanto","","","",""
"","1491","audio-keyboard-response","243","584022","0.0-3.0-1.194","../audio/25-7-masc.mp3"," ","","cacheado.","","","",""
"","5982","html-keyboard-response","244","590261","0.0-3.0-2.194-0.194","<span style=""font-size:25px; font-family: monospace"">Ela só faz cabelo cacheado?</span>","s","","","Ela só faz cabelo cacheado?","null","exp-sent","false"
"","null","html-keyboard-response","245","591780","0.0-3.0-0.195-0.195","<span style= ""font-size:30px; font-family: monospace"">+</span>","null","fixation","","","","",""
"","709","audio-keyboard-response","246","592774","0.0-3.0-1.195","../audio/56-1-fem.mp3"," ","","A","","","",""
"","1029","audio-keyboard-response","247","594086","0.0-3.0-1.196","../audio/56-2-fem.mp3"," ","","moça","","","",""
"","1088","audio-keyboard-response","248","595446","0.0-3.0-1.197","../audio/56-3-fem.mp3"," ","","foi","","","",""
"","1059","audio-keyboard-response","249","596774","0.0-3.0-1.198","../audio/56-4-fem.mp3"," ","","à","","","",""
"","1520","audio-keyboard-response","250","598566","0.0-3.0-1.199","../audio/56-5-fem.mp3"," ","","agência","","","",""
"","1429","audio-keyboard-response","251","600262","0.0-3.0-1.200","../audio/56-6-fem.mp3"," ","","bancária","","","",""
"","1149","audio-keyboard-response","252","601686","0.0-3.0-1.201","../audio/56-7-fem.mp3"," ","","ontem","","","",""
"","1139","audio-keyboard-response","253","603094","0.0-3.0-1.202","../audio/56-8-fem.mp3"," ","","de","","","",""
"","1411","audio-keyboard-response","254","604790","0.0-3.0-1.203","../audio/56-9-fem.mp3"," ","","tarde.","","","",""
"","null","html-keyboard-response","255","606050","0.0-3.0-0.204-0.204","<span style= ""font-size:30px; font-family: monospace"">+</span>","null","fixation","","","","",""
"","1181","audio-keyboard-response","256","607510","0.0-3.0-1.204","../audio/57-1-masc.mp3"," ","","O","","","",""
"","1280","audio-keyboard-response","257","609062","0.0-3.0-1.205","../audio/57-2-masc.mp3"," ","","capitão","","","",""
"","1091","audio-keyboard-response","258","610438","0.0-3.0-1.206","../audio/57-3-masc.mp3"," ","","deu","","","",""
"","1208","audio-keyboard-response","259","611926","0.0-3.0-1.207","../audio/57-4-masc.mp3"," ","","uma","","","",""
"","1709","audio-keyboard-response","260","613910","0.0-3.0-1.208","../audio/57-5-masc.mp3"," ","","instrução","","","",""
"","1149","audio-keyboard-response","261","615334","0.0-3.0-1.209","../audio/57-6-masc.mp3"," ","","para","","","",""
"","1040","audio-keyboard-response","262","616646","0.0-3.0-1.210","../audio/57-7-masc.mp3"," ","","as","","","",""
"","1760","audio-keyboard-response","263","618678","0.0-3.0-1.211","../audio/57-8-masc.mp3"," ","","pessoas.","","","",""
"","null","html-keyboard-response","264","619939","0.0-3.0-0.212-0.212","<span style= ""font-size:30px; font-family: monospace"">+</span>","null","fixation","","","","",""
"","720","audio-keyboard-response","265","620950","0.0-3.0-1.212","../audio/59-1-masc.mp3"," ","","O","","","",""
"","1179","audio-keyboard-response","266","622406","0.0-3.0-1.213","../audio/59-2-masc.mp3"," ","","carteiro","","","",""
"","1000","audio-keyboard-response","267","623686","0.0-3.0-1.214","../audio/59-3-masc.mp3"," ","","fez","","","",""
"","1291","audio-keyboard-response","268","625254","0.0-3.0-1.215","../audio/59-4-masc.mp3"," ","","uma","","","",""
"","1480","audio-keyboard-response","269","627014","0.0-3.0-1.216","../audio/59-5-masc.mp3"," ","","tentativa","","","",""
"","949","audio-keyboard-response","270","628246","0.0-3.0-1.217","../audio/59-6-masc.mp3"," ","","de","","","",""
"","1749","audio-keyboard-response","271","630261","0.0-3.0-1.218","../audio/59-7-masc.mp3"," ","","entrega.","","","",""
"","null","html-keyboard-response","272","631549","0.0-3.0-0.219-0.219","<span style= ""font-size:30px; font-family: monospace"">+</span>","null","fixation","","","","",""
"","1171","audio-keyboard-response","273","632998","0.0-3.0-1.219","../audio/58-1-masc.mp3"," ","","Havia","","","",""
"","1251","audio-keyboard-response","274","634518","0.0-3.0-1.220","../audio/58-2-masc.mp3"," ","","apenas","","","",""
"","1029","audio-keyboard-response","275","635814","0.0-3.0-1.221","../audio/58-3-masc.mp3"," ","","um","","","",""
"","1280","audio-keyboard-response","276","637366","0.0-3.0-1.222","../audio/58-4-masc.mp3"," ","","último","","","",""
"","1200","audio-keyboard-response","277","638838","0.0-3.0-1.223","../audio/58-5-masc.mp3"," ","","herdeiro","","","",""
"","869","audio-keyboard-response","278","639990","0.0-3.0-1.224","../audio/58-6-masc.mp3"," ","","do","","","",""
"","3389","audio-keyboard-response","279","643670","0.0-3.0-1.225","../audio/58-7-masc.mp3"," ","","dinheiro.","","","",""
"","null","html-keyboard-response","280","644949","0.0-3.0-0.226-0.226","<span style= ""font-size:30px; font-family: monospace"">+</span>","null","fixation","","","","",""
"","1179","audio-keyboard-response","281","646406","0.0-3.0-1.226","../audio/60-1-fem.mp3"," ","","Ondas","","","",""
"","1219","audio-keyboard-response","282","647894","0.0-3.0-1.227","../audio/60-2-fem.mp3"," ","","têm","","","",""
"","869","audio-keyboard-response","283","649046","0.0-3.0-1.228","../audio/60-3-fem.mp3"," ","","um","","","",""
"","1371","audio-keyboard-response","284","650694","0.0-3.0-1.229","../audio/60-4-fem.mp3"," ","","impacto","","","",""
"","1061","audio-keyboard-response","285","652038","0.0-3.0-1.230","../audio/60-5-fem.mp3"," ","","destrutivo","","","",""
"","1251","audio-keyboard-response","286","653557","0.0-3.0-1.231","../audio/60-6-fem.mp3"," ","","no","","","",""
"","1419","audio-keyboard-response","287","655254","0.0-3.0-1.232","../audio/60-7-fem.mp3"," ","","litoral.","","","",""
"","6976","html-keyboard-response","288","662486","0.0-3.0-2.232-0.232","<span style=""font-size:25px; font-family: monospace"">Ondas têm um impacto destrutivo?</span>","s","","","Ondas têm um impacto destrutivo?","null","exp-sent","false"
"","null","html-keyboard-response","289","664010","0.0-3.0-0.233-0.233","<span style= ""font-size:30px; font-family: monospace"">+</span>","null","fixation","","","","",""
"","1131","audio-keyboard-response","290","665414","0.0-3.0-1.233","../audio/18-1-fem.mp3"," ","","O","","","",""
"","1491","audio-keyboard-response","291","667190","0.0-3.0-1.234","../audio/18-2-fem.mp3"," ","","enredo","","","",""
"","1459","audio-keyboard-response","292","668934","0.0-3.0-1.235","../audio/18-3-fem.mp3"," ","","traz","","","",""
"","1760","audio-keyboard-response","293","670966","0.0-3.0-1.236","../audio/18-4-fem.mp3"," ","","um","","","",""
"","1581","audio-keyboard-response","294","672838","0.0-3.0-1.237","../audio/18-5-fem.mp3"," ","","dragão","","","",""
"","1320","audio-keyboard-response","295","674422","0.0-3.0-1.238","../audio/18-6-fem.mp3"," ","","forte","","","",""
"","1131","audio-keyboard-response","296","675829","0.0-3.0-1.239","../audio/18-7-fem.mp3"," ","","e","","","",""
"","1469","audio-keyboard-response","297","677590","0.0-3.0-1.240","../audio/18-8-fem.mp3"," ","","solitário.","","","",""
"","null","html-keyboard-response","298","678850","0.0-3.0-0.241-0.241","<span style= ""font-size:30px; font-family: monospace"">+</span>","null","fixation","","","","",""
"","781","audio-keyboard-response","299","679910","0.0-3.0-1.241","../audio/16-1-masc.mp3"," ","","Eu","","","",""
"","1371","audio-keyboard-response","300","681558","0.0-3.0-1.242","../audio/16-2-masc.mp3"," ","","nunca","","","",""
"","1189","audio-keyboard-response","301","683014","0.0-3.0-1.243","../audio/16-3-masc.mp3"," ","","conheci","","","",""
"","1040","audio-keyboard-response","302","684326","0.0-3.0-1.244","../audio/16-4-masc.mp3"," ","","um","","","",""
"","1272","audio-keyboard-response","303","685878","0.0-3.0-1.245","../audio/16-5-masc.mp3"," ","","general","","","",""
"","1059","audio-keyboard-response","304","687206","0.0-3.0-1.246","../audio/16-6-masc.mp3"," ","","do","","","",""
"","1931","audio-keyboard-response","305","689413","0.0-3.0-1.247","../audio/16-7-masc.mp3"," ","","exército.","","","",""
"","null","html-keyboard-response","306","690679","0.0-3.0-0.248-0.248","<span style= ""font-size:30px; font-family: monospace"">+</span>","null","fixation","","","","",""
"","1101","audio-keyboard-response","307","692070","0.0-3.0-1.248","../audio/17-1-fem.mp3"," ","","Falaram","","","",""
"","989","audio-keyboard-response","308","693350","0.0-3.0-1.249","../audio/17-2-fem.mp3"," ","","da","","","",""
"","1160","audio-keyboard-response","309","694774","0.0-3.0-1.250","../audio/17-3-fem.mp3"," ","","lei","","","",""
"","1072","audio-keyboard-response","310","696117","0.0-3.0-1.251","../audio/17-4-fem.mp3"," ","","no","","","",""
"","1560","audio-keyboard-response","311","697941","0.0-3.0-1.252","../audio/17-5-fem.mp3"," ","","ministério","","","",""
"","1261","audio-keyboard-response","312","699478","0.0-3.0-1.253","../audio/17-6-fem.mp3"," ","","diversas","","","",""
"","1509","audio-keyboard-response","313","701269","0.0-3.0-1.254","../audio/17-7-fem.mp3"," ","","vezes.","","","",""
"","null","html-keyboard-response","314","702539","0.0-3.0-0.255-0.255","<span style= ""font-size:30px; font-family: monospace"">+</span>","null","fixation","","","","",""
"","880","audio-keyboard-response","315","703701","0.0-3.0-1.255","../audio/19-1-masc.mp3"," ","","O","","","",""
"","1120","audio-keyboard-response","316","705093","0.0-3.0-1.256","../audio/19-2-masc.mp3"," ","","menino","","","",""
"","1251","audio-keyboard-response","317","706613","0.0-3.0-1.257","../audio/19-3-masc.mp3"," ","","ganhou","","","",""
"","1171","audio-keyboard-response","318","708053","0.0-3.0-1.258","../audio/19-4-masc.mp3"," ","","uma","","","",""
"","1240","audio-keyboard-response","319","709573","0.0-3.0-1.259","../audio/19-5-masc.mp3"," ","","bala","","","",""
"","1371","audio-keyboard-response","320","711221","0.0-3.0-1.260","../audio/19-6-masc.mp3"," ","","depois","","","",""
"","1011","audio-keyboard-response","321","712517","0.0-3.0-1.261","../audio/19-7-masc.mp3"," ","","do","","","",""
"","2051","audio-keyboard-response","322","714837","0.0-3.0-1.262","../audio/19-8-masc.mp3"," ","","almoço.","","","",""
"","null","html-keyboard-response","323","716100","0.0-3.0-0.263-0.263","<span style= ""font-size:30px; font-family: monospace"">+</span>","null","fixation","","","","",""
"","1069","audio-keyboard-response","324","717445","0.0-3.0-1.263","../audio/20-1-fem.mp3"," ","","O","","","",""
"","1211","audio-keyboard-response","325","718933","0.0-3.0-1.264","../audio/20-2-fem.mp3"," ","","colega","","","",""
"","1411","audio-keyboard-response","326","720629","0.0-3.0-1.265","../audio/20-3-fem.mp3"," ","","parecia","","","",""
"","1211","audio-keyboard-response","327","722117","0.0-3.0-1.266","../audio/20-4-fem.mp3"," ","","muito","","","",""
"","1520","audio-keyboard-response","328","723910","0.0-3.0-1.267","../audio/20-5-fem.mp3"," ","","gripado","","","",""
"","1000","audio-keyboard-response","329","725189","0.0-3.0-1.268","../audio/20-6-fem.mp3"," ","","no","","","",""
"","949","audio-keyboard-response","330","726421","0.0-3.0-1.269","../audio/20-7-fem.mp3"," ","","dia","","","",""
"","2301","audio-keyboard-response","331","728981","0.0-3.0-1.270","../audio/20-8-fem.mp3"," ","","anterior.","","","",""
"","5316","html-keyboard-response","332","734565","0.0-3.0-2.270-0.270","<span style=""font-size:25px; font-family: monospace"">O colega parecia muito gripado?</span>","s","","","O colega parecia muito gripado?","null","exp-sent","false"
"","null","html-keyboard-response","333","736099","0.0-3.0-0.271-0.271","<span style= ""font-size:30px; font-family: monospace"">+</span>","null","fixation","","","","",""
"","1120","audio-keyboard-response","334","737509","0.0-3.0-1.271","../audio/29-1-masc.mp3"," ","","Hoje","","","",""
"","1339","audio-keyboard-response","335","739125","0.0-3.0-1.272","../audio/29-2-masc.mp3"," ","","vamos","","","",""
"","1352","audio-keyboard-response","336","740757","0.0-3.0-1.273","../audio/29-3-masc.mp3"," ","","fazer","","","",""
"","1349","audio-keyboard-response","337","742389","0.0-3.0-1.274","../audio/29-4-masc.mp3"," ","","uma","","","",""
"","1760","audio-keyboard-response","338","744437","0.0-3.0-1.275","../audio/29-5-masc.mp3"," ","","atividade","","","",""
"","1400","audio-keyboard-response","339","746117","0.0-3.0-1.276","../audio/29-6-masc.mp3"," ","","sobre","","","",""
"","1331","audio-keyboard-response","340","747717","0.0-3.0-1.277","../audio/29-7-masc.mp3"," ","","fauna","","","",""
"","1669","audio-keyboard-response","341","749669","0.0-3.0-1.278","../audio/29-8-masc.mp3"," ","","marinha.","","","",""
"","null","html-keyboard-response","342","750929","0.0-3.0-0.279-0.279","<span style= ""font-size:30px; font-family: monospace"">+</span>","null","fixation","","","","",""
"","779","audio-keyboard-response","343","752005","0.0-3.0-1.279","../audio/28-1-fem.mp3"," ","","O","","","",""
"","1088","audio-keyboard-response","344","753365","0.0-3.0-1.280","../audio/28-2-fem.mp3"," ","","time","","","",""
"","1069","audio-keyboard-response","345","754709","0.0-3.0-1.281","../audio/28-3-fem.mp3"," ","","quer","","","",""
"","920","audio-keyboard-response","346","755909","0.0-3.0-1.282","../audio/28-4-fem.mp3"," ","","a","","","",""
"","1440","audio-keyboard-response","347","757637","0.0-3.0-1.283","../audio/28-5-fem.mp3"," ","","vitória","","","",""
"","1091","audio-keyboard-response","348","758997","0.0-3.0-1.284","../audio/28-6-fem.mp3"," ","","no","","","",""
"","1299","audio-keyboard-response","349","760565","0.0-3.0-1.285","../audio/28-7-fem.mp3"," ","","jogo","","","",""
"","1181","audio-keyboard-response","350","762020","0.0-3.0-1.286","../audio/28-8-fem.mp3"," ","","de","","","",""
"","1661","audio-keyboard-response","351","763956","0.0-3.0-1.287","../audio/28-9-fem.mp3"," ","","vôlei.","","","",""
"","null","html-keyboard-response","352","765218","0.0-3.0-0.288-0.288","<span style= ""font-size:30px; font-family: monospace"">+</span>","null","fixation","","","","",""
"","811","audio-keyboard-response","353","766308","0.0-3.0-1.288","../audio/27-1-fem.mp3"," ","","O","","","",""
"","1339","audio-keyboard-response","354","767924","0.0-3.0-1.289","../audio/27-2-fem.mp3"," ","","dinheiro","","","",""
"","1211","audio-keyboard-response","355","769412","0.0-3.0-1.290","../audio/27-3-fem.mp3"," ","","chegou","","","",""
"","1120","audio-keyboard-response","356","770804","0.0-3.0-1.291","../audio/27-4-fem.mp3"," ","","à","","","",""
"","1459","audio-keyboard-response","357","772532","0.0-3.0-1.292","../audio/27-5-fem.mp3"," ","","elite","","","",""
"","1360","audio-keyboard-response","358","774164","0.0-3.0-1.293","../audio/27-6-fem.mp3"," ","","deste","","","",""
"","2472","audio-keyboard-response","359","776916","0.0-3.0-1.294","../audio/27-7-fem.mp3"," ","","país.","","","",""
"","null","html-keyboard-response","360","778178","0.0-3.0-0.295-0.295","<span style= ""font-size:30px; font-family: monospace"">+</span>","null","fixation","","","","",""
"","1251","audio-keyboard-response","361","779716","0.0-3.0-1.295","../audio/26-1-fem.mp3"," ","","Amanhã","","","",""
"","1069","audio-keyboard-response","362","781060","0.0-3.0-1.296","../audio/26-2-fem.mp3"," ","","temos","","","",""
"","1309","audio-keyboard-response","363","782644","0.0-3.0-1.297","../audio/26-3-fem.mp3"," ","","festa","","","",""
"","1309","audio-keyboard-response","364","784228","0.0-3.0-1.298","../audio/26-4-fem.mp3"," ","","na","","","",""
"","1880","audio-keyboard-response","365","786372","0.0-3.0-1.299","../audio/26-5-fem.mp3"," ","","piscina","","","",""
"","1072","audio-keyboard-response","366","787716","0.0-3.0-1.300","../audio/26-6-fem.mp3"," ","","o","","","",""
"","1360","audio-keyboard-response","367","789348","0.0-3.0-1.301","../audio/26-7-fem.mp3"," ","","dia","","","",""
"","1549","audio-keyboard-response","368","791172","0.0-3.0-1.302","../audio/26-8-fem.mp3"," ","","todo.","","","",""
"","null","html-keyboard-response","369","792440","0.0-3.0-0.303-0.303","<span style= ""font-size:30px; font-family: monospace"">+</span>","null","fixation","","","","",""
"","981","audio-keyboard-response","370","793716","0.0-3.0-1.303","../audio/30-1-masc.mp3"," ","","O","","","",""
"","1320","audio-keyboard-response","371","795316","0.0-3.0-1.304","../audio/30-2-masc.mp3"," ","","funcionário","","","",""
"","1200","audio-keyboard-response","372","796788","0.0-3.0-1.305","../audio/30-3-masc.mp3"," ","","entregou","","","",""
"","989","audio-keyboard-response","373","798052","0.0-3.0-1.306","../audio/30-4-masc.mp3"," ","","o","","","",""
"","1341","audio-keyboard-response","374","799668","0.0-3.0-1.307","../audio/30-5-masc.mp3"," ","","restante","","","",""
"","901","audio-keyboard-response","375","800836","0.0-3.0-1.308","../audio/30-6-masc.mp3"," ","","do","","","",""
"","1269","audio-keyboard-response","376","802388","0.0-3.0-1.309","../audio/30-7-masc.mp3"," ","","dinheiro.","","","",""
"","17330","html-keyboard-response","377","819988","0.0-3.0-2.309-0.309","<span style=""font-size:25px; font-family: monospace"">O funcionário entregou o contrato?</span>","n","","","O funcionário entregou o contrato?","null","exp-sent","false"
"","null","html-keyboard-response","378","821508","0.0-3.0-0.310-0.310","<span style= ""font-size:30px; font-family: monospace"">+</span>","null","fixation","","","","",""
"","1211","audio-keyboard-response","379","822989","0.0-3.0-1.310","../audio/48-1-masc.mp3"," ","","Ela","","","",""
"","1019","audio-keyboard-response","380","824285","0.0-3.0-1.311","../audio/48-2-masc.mp3"," ","","come","","","",""
"","1891","audio-keyboard-response","381","826461","0.0-3.0-1.312","../audio/48-3-masc.mp3"," ","","feijão","","","",""
"","1120","audio-keyboard-response","382","827869","0.0-3.0-1.313","../audio/48-4-masc.mp3"," ","","com","","","",""
"","1688","audio-keyboard-response","383","829837","0.0-3.0-1.314","../audio/48-5-masc.mp3"," ","","arroz","","","",""
"","1360","audio-keyboard-response","384","831469","0.0-3.0-1.315","../audio/48-6-masc.mp3"," ","","todos","","","",""
"","1400","audio-keyboard-response","385","833133","0.0-3.0-1.316","../audio/48-7-masc.mp3"," ","","os","","","",""
"","1619","audio-keyboard-response","386","835037","0.0-3.0-1.317","../audio/48-8-masc.mp3"," ","","dias.","","","",""
"","null","html-keyboard-response","387","836321","0.0-3.0-0.318-0.318","<span style= ""font-size:30px; font-family: monospace"">+</span>","null","fixation","","","","",""
"","891","audio-keyboard-response","388","837501","0.0-3.0-1.318","../audio/49-1-masc.mp3"," ","","Eu","","","",""
"","1389","audio-keyboard-response","389","839181","0.0-3.0-1.319","../audio/49-2-masc.mp3"," ","","quero","","","",""
"","1379","audio-keyboard-response","390","840845","0.0-3.0-1.320","../audio/49-3-masc.mp3"," ","","um","","","",""
"","1440","audio-keyboard-response","391","842557","0.0-3.0-1.321","../audio/49-4-masc.mp3"," ","","lanche","","","",""
"","1480","audio-keyboard-response","392","844317","0.0-3.0-1.322","../audio/49-5-masc.mp3"," ","","duplo","","","",""
"","1192","audio-keyboard-response","393","845789","0.0-3.0-1.323","../audio/49-6-masc.mp3"," ","","e","","","",""
"","1480","audio-keyboard-response","394","847533","0.0-3.0-1.324","../audio/49-7-masc.mp3"," ","","um","","","",""
"","1741","audio-keyboard-response","395","849549","0.0-3.0-1.325","../audio/49-8-masc.mp3"," ","","suco.","","","",""
"","null","html-keyboard-response","396","850807","0.0-3.0-0.326-0.326","<span style= ""font-size:30px; font-family: monospace"">+</span>","null","fixation","","","","",""
"","872","audio-keyboard-response","397","851949","0.0-3.0-1.326","../audio/47-1-masc.mp3"," ","","O","","","",""
"","920","audio-keyboard-response","398","853133","0.0-3.0-1.327","../audio/47-2-masc.mp3"," ","","tio","","","",""
"","1139","audio-keyboard-response","399","854557","0.0-3.0-1.328","../audio/47-3-masc.mp3"," ","","recusou","","","",""
"","920","audio-keyboard-response","400","855757","0.0-3.0-1.329","../audio/47-4-masc.mp3"," ","","a","","","",""
"","1291","audio-keyboard-response","401","857325","0.0-3.0-1.330","../audio/47-5-masc.mp3"," ","","sobremesa","","","",""
"","931","audio-keyboard-response","402","858525","0.0-3.0-1.331","../audio/47-6-masc.mp3"," ","","no","","","",""
"","1931","audio-keyboard-response","403","860733","0.0-3.0-1.332","../audio/47-7-masc.mp3"," ","","almoço.","","","",""
"","null","html-keyboard-response","404","862021","0.0-3.0-0.333-0.333","<span style= ""font-size:30px; font-family: monospace"">+</span>","null","fixation","","","","",""
"","669","audio-keyboard-response","405","862973","0.0-3.0-1.333","../audio/46-1-masc.mp3"," ","","Meu","","","",""
"","800","audio-keyboard-response","406","864061","0.0-3.0-1.334","../audio/46-2-masc.mp3"," ","","primo","","","",""
"","1069","audio-keyboard-response","407","865405","0.0-3.0-1.335","../audio/46-3-masc.mp3"," ","","estava","","","",""
"","1029","audio-keyboard-response","408","866717","0.0-3.0-1.336","../audio/46-4-masc.mp3"," ","","muito","","","",""
"","1469","audio-keyboard-response","409","868461","0.0-3.0-1.337","../audio/46-5-masc.mp3"," ","","deprimido","","","",""
"","909","audio-keyboard-response","410","869645","0.0-3.0-1.338","../audio/46-6-masc.mp3"," ","","no","","","",""
"","1581","audio-keyboard-response","411","871501","0.0-3.0-1.339","../audio/46-7-masc.mp3"," ","","inverno.","","","",""
"","null","html-keyboard-response","412","872771","0.0-3.0-0.340-0.340","<span style= ""font-size:30px; font-family: monospace"">+</span>","null","fixation","","","","",""
"","640","audio-keyboard-response","413","873693","0.0-3.0-1.340","../audio/50-1-masc.mp3"," ","","O","","","",""
"","1051","audio-keyboard-response","414","875021","0.0-3.0-1.341","../audio/50-2-masc.mp3"," ","","pássaro","","","",""
"","989","audio-keyboard-response","415","876285","0.0-3.0-1.342","../audio/50-3-masc.mp3"," ","","fugiu","","","",""
"","1091","audio-keyboard-response","416","877661","0.0-3.0-1.343","../audio/50-4-masc.mp3"," ","","da","","","",""
"","1168","audio-keyboard-response","417","879117","0.0-3.0-1.344","../audio/50-5-masc.mp3"," ","","gaiola","","","",""
"","989","audio-keyboard-response","418","880381","0.0-3.0-1.345","../audio/50-6-masc.mp3"," ","","pela","","","",""
"","1429","audio-keyboard-response","419","882093","0.0-3.0-1.346","../audio/50-7-masc.mp3"," ","","portinhola.","","","",""
"","6318","html-keyboard-response","420","888670","0.0-3.0-2.346-0.346","<span style=""font-size:25px; font-family: monospace"">O pássaro fugiu da gaiola?</span>","s","","","O pássaro fugiu da gaiola?","null","exp-sent","false"
"","null","html-keyboard-response","421","890191","0.0-3.0-0.347-0.347","<span style= ""font-size:30px; font-family: monospace"">+</span>","null","fixation","","","","",""
"","989","audio-keyboard-response","422","891453","0.0-3.0-1.347","../audio/54-1-fem.mp3"," ","","Estou","","","",""
"","1011","audio-keyboard-response","423","892733","0.0-3.0-1.348","../audio/54-2-fem.mp3"," ","","com","","","",""
"","1371","audio-keyboard-response","424","894382","0.0-3.0-1.349","../audio/54-3-fem.mp3"," ","","medo","","","",""
"","971","audio-keyboard-response","425","895629","0.0-3.0-1.350","../audio/54-4-fem.mp3"," ","","da","","","",""
"","1179","audio-keyboard-response","426","897085","0.0-3.0-1.351","../audio/54-5-fem.mp3"," ","","atual","","","",""
"","1589","audio-keyboard-response","427","898942","0.0-3.0-1.352","../audio/54-6-fem.mp3"," ","","organização","","","",""
"","848","audio-keyboard-response","428","900077","0.0-3.0-1.353","../audio/54-7-fem.mp3"," ","","do","","","",""
"","1568","audio-keyboard-response","429","901917","0.0-3.0-1.354","../audio/54-8-fem.mp3"," ","","país.","","","",""
"","null","html-keyboard-response","430","903183","0.0-3.0-0.355-0.355","<span style= ""font-size:30px; font-family: monospace"">+</span>","null","fixation","","","","",""
"","1080","audio-keyboard-response","431","904557","0.0-3.0-1.355","../audio/52-1-masc.mp3"," ","","Às","","","",""
"","1051","audio-keyboard-response","432","905885","0.0-3.0-1.356","../audio/52-2-masc.mp3"," ","","vezes","","","",""
"","861","audio-keyboard-response","433","907022","0.0-3.0-1.357","../audio/52-3-masc.mp3"," ","","eu","","","",""
"","909","audio-keyboard-response","434","908205","0.0-3.0-1.358","../audio/52-4-masc.mp3"," ","","tenho","","","",""
"","1152","audio-keyboard-response","435","909630","0.0-3.0-1.359","../audio/52-5-masc.mp3"," ","","azia","","","",""
"","1128","audio-keyboard-response","436","911037","0.0-3.0-1.360","../audio/52-6-masc.mp3"," ","","depois","","","",""
"","960","audio-keyboard-response","437","912269","0.0-3.0-1.361","../audio/52-7-masc.mp3"," ","","da","","","",""
"","1880","audio-keyboard-response","438","914413","0.0-3.0-1.362","../audio/52-8-masc.mp3"," ","","janta.","","","",""
"","null","html-keyboard-response","439","915701","0.0-3.0-0.363-0.363","<span style= ""font-size:30px; font-family: monospace"">+</span>","null","fixation","","","","",""
"","1091","audio-keyboard-response","440","917069","0.0-3.0-1.363","../audio/51-1-masc.mp3"," ","","Suco","","","",""
"","939","audio-keyboard-response","441","918285","0.0-3.0-1.364","../audio/51-2-masc.mp3"," ","","de","","","",""
"","1291","audio-keyboard-response","442","919854","0.0-3.0-1.365","../audio/51-3-masc.mp3"," ","","acerola","","","",""
"","941","audio-keyboard-response","443","921069","0.0-3.0-1.366","../audio/51-4-masc.mp3"," ","","é","","","",""
"","1480","audio-keyboard-response","444","922829","0.0-3.0-1.367","../audio/51-5-masc.mp3"," ","","azedo","","","",""
"","1080","audio-keyboard-response","445","924173","0.0-3.0-1.368","../audio/51-6-masc.mp3"," ","","e","","","",""
"","1251","audio-keyboard-response","446","925709","0.0-3.0-1.369","../audio/51-7-masc.mp3"," ","","até","","","",""
"","1989","audio-keyboard-response","447","927965","0.0-3.0-1.370","../audio/51-8-masc.mp3"," ","","barato.","","","",""
"","null","html-keyboard-response","448","929223","0.0-3.0-0.371-0.371","<span style= ""font-size:30px; font-family: monospace"">+</span>","null","fixation","","","","",""
"","1011","audio-keyboard-response","449","930509","0.0-3.0-1.371","../audio/53-1-fem.mp3"," ","","O","","","",""
"","1200","audio-keyboard-response","450","931997","0.0-3.0-1.372","../audio/53-2-fem.mp3"," ","","médico","","","",""
"","1141","audio-keyboard-response","451","933422","0.0-3.0-1.373","../audio/53-3-fem.mp3"," ","","foi","","","",""
"","1440","audio-keyboard-response","452","935133","0.0-3.0-1.374","../audio/53-4-fem.mp3"," ","","bastante","","","",""
"","1291","audio-keyboard-response","453","936702","0.0-3.0-1.375","../audio/53-5-fem.mp3"," ","","preciso","","","",""
"","1291","audio-keyboard-response","454","938269","0.0-3.0-1.376","../audio/53-6-fem.mp3"," ","","durante","","","",""
"","1091","audio-keyboard-response","455","939629","0.0-3.0-1.377","../audio/53-7-fem.mp3"," ","","a","","","",""
"","1811","audio-keyboard-response","456","941710","0.0-3.0-1.378","../audio/53-8-fem.mp3"," ","","cirurgia.","","","",""
"","null","html-keyboard-response","457","942971","0.0-3.0-0.379-0.379","<span style= ""font-size:30px; font-family: monospace"">+</span>","null","fixation","","","","",""
"","709","audio-keyboard-response","458","943965","0.0-3.0-1.379","../audio/55-1-masc.mp3"," ","","O","","","",""
"","1200","audio-keyboard-response","459","945437","0.0-3.0-1.380","../audio/55-2-masc.mp3"," ","","insulto","","","",""
"","1309","audio-keyboard-response","460","947021","0.0-3.0-1.381","../audio/55-3-masc.mp3"," ","","recente","","","",""
"","1069","audio-keyboard-response","461","948365","0.0-3.0-1.382","../audio/55-4-masc.mp3"," ","","causou","","","",""
"","1579","audio-keyboard-response","462","950239","0.0-3.0-1.383","../audio/55-5-masc.mp3"," ","","indignação","","","",""
"","901","audio-keyboard-response","463","951423","0.0-3.0-1.384","../audio/55-6-masc.mp3"," ","","em","","","",""
"","1211","audio-keyboard-response","464","952911","0.0-3.0-1.385","../audio/55-7-masc.mp3"," ","","todos.","","","",""
"","9130","html-keyboard-response","465","962303","0.0-3.0-2.385-0.385","<span style=""font-size:25px; font-family: monospace"">O insulto causou calmaria?</span>","s","","","O insulto causou calmaria?","null","exp-sent","false"
"","null","html-keyboard-response","466","963833","0.0-3.0-0.386-0.386","<span style= ""font-size:30px; font-family: monospace"">+</span>","null","fixation","","","","",""
"","2069","audio-keyboard-response","467","966175","0.0-3.0-1.386","../audio/04-1-fem.mp3"," ","","Duzentos","","","",""
"","1091","audio-keyboard-response","468","967551","0.0-3.0-1.387","../audio/04-2-fem.mp3"," ","","carros","","","",""
"","1240","audio-keyboard-response","469","969071","0.0-3.0-1.388","../audio/04-3-fem.mp3"," ","","passaram","","","",""
"","1048","audio-keyboard-response","470","970399","0.0-3.0-1.389","../audio/04-4-fem.mp3"," ","","pela","","","",""
"","1109","audio-keyboard-response","471","971775","0.0-3.0-1.390","../audio/04-5-fem.mp3"," ","","ponte","","","",""
"","1211","audio-keyboard-response","472","973263","0.0-3.0-1.391","../audio/04-6-fem.mp3"," ","","hoje","","","",""
"","909","audio-keyboard-response","473","974447","0.0-3.0-1.392","../audio/04-7-fem.mp3"," ","","de","","","",""
"","1421","audio-keyboard-response","474","976143","0.0-3.0-1.393","../audio/04-8-fem.mp3"," ","","tarde.","","","",""
"","null","html-keyboard-response","475","977423","0.0-3.0-0.394-0.394","<span style= ""font-size:30px; font-family: monospace"">+</span>","null","fixation","","","","",""
"","699","audio-keyboard-response","476","978399","0.0-3.0-1.394","../audio/02-2-fem.mp3"," ","","Havia","","","",""
"","771","audio-keyboard-response","477","979423","0.0-3.0-1.395","../audio/02-2-fem.mp3"," ","","um","","","",""
"","1200","audio-keyboard-response","478","980911","0.0-3.0-1.396","../audio/02-3-fem.mp3"," ","","cheiro","","","",""
"","1389","audio-keyboard-response","479","982575","0.0-3.0-1.397","../audio/02-4-fem.mp3"," ","","de","","","",""
"","1501","audio-keyboard-response","480","984351","0.0-3.0-1.398","../audio/02-5-fem.mp3"," ","","gasolina","","","",""
"","1040","audio-keyboard-response","481","985663","0.0-3.0-1.399","../audio/02-6-fem.mp3"," ","","na","","","",""
"","1259","audio-keyboard-response","482","987199","0.0-3.0-1.400","../audio/02-7-fem.mp3"," ","","garagem.","","","",""
"","null","html-keyboard-response","483","988473","0.0-3.0-0.401-0.401","<span style= ""font-size:30px; font-family: monospace"">+</span>","null","fixation","","","","",""
"","989","audio-keyboard-response","484","989743","0.0-3.0-1.401","../audio/01-1-fem.mp3"," ","","O","","","",""
"","1160","audio-keyboard-response","485","991183","0.0-3.0-1.402","../audio/01-2-fem.mp3"," ","","menino","","","",""
"","1189","audio-keyboard-response","486","992655","0.0-3.0-1.403","../audio/01-3-fem.mp3"," ","","derrubou","","","",""
"","1080","audio-keyboard-response","487","994015","0.0-3.0-1.404","../audio/01-4-fem.mp3"," ","","a","","","",""
"","1440","audio-keyboard-response","488","995727","0.0-3.0-1.405","../audio/01-5-fem.mp3"," ","","guitarra","","","",""
"","1040","audio-keyboard-response","489","997039","0.0-3.0-1.406","../audio/01-6-fem.mp3"," ","","no","","","",""
"","2811","audio-keyboard-response","490","1000127","0.0-3.0-1.407","../audio/01-7-fem.mp3"," ","","chão.","","","",""
"","null","html-keyboard-response","491","1001394","0.0-3.0-0.408-0.408","<span style= ""font-size:30px; font-family: monospace"">+</span>","null","fixation","","","","",""
"","880","audio-keyboard-response","492","1002559","0.0-3.0-1.408","../audio/03-1-masc.mp3"," ","","O","","","",""
"","1229","audio-keyboard-response","493","1004063","0.0-3.0-1.409","../audio/03-2-masc.mp3"," ","","coelho","","","",""
"","979","audio-keyboard-response","494","1005327","0.0-3.0-1.410","../audio/03-3-masc.mp3"," ","","foi","","","",""
"","1211","audio-keyboard-response","495","1006831","0.0-3.0-1.411","../audio/03-4-masc.mp3"," ","","bastante","","","",""
"","2040","audio-keyboard-response","496","1009135","0.0-3.0-1.412","../audio/03-5-masc.mp3"," ","","dócil","","","",""
"","851","audio-keyboard-response","497","1010269","0.0-3.0-1.413","../audio/03-6-masc.mp3"," ","","com","","","",""
"","1120","audio-keyboard-response","498","1011661","0.0-3.0-1.414","../audio/03-7-masc.mp3"," ","","as","","","",""
"","1408","audio-keyboard-response","499","1013357","0.0-3.0-1.415","../audio/03-8-masc.mp3"," ","","crianças.","","","",""
"","null","html-keyboard-response","500","1014631","0.0-3.0-0.416-0.416","<span style= ""font-size:30px; font-family: monospace"">+</span>","null","fixation","","","","",""
"","1120","audio-keyboard-response","501","1016029","0.0-3.0-1.416","../audio/05-1-fem.mp3"," ","","A","","","",""
"","1400","audio-keyboard-response","502","1017709","0.0-3.0-1.417","../audio/05-2-fem.mp3"," ","","vendedora","","","",""
"","1440","audio-keyboard-response","503","1019421","0.0-3.0-1.418","../audio/05-3-fem.mp3"," ","","ajudou","","","",""
"","901","audio-keyboard-response","504","1020589","0.0-3.0-1.419","../audio/05-4-fem.mp3"," ","","um","","","",""
"","1269","audio-keyboard-response","505","1022141","0.0-3.0-1.420","../audio/05-5-fem.mp3"," ","","turista","","","",""
"","989","audio-keyboard-response","506","1023405","0.0-3.0-1.421","../audio/05-6-fem.mp3"," ","","na","","","",""
"","1741","audio-keyboard-response","507","1025421","0.0-3.0-1.422","../audio/05-7-fem.mp3"," ","","loja.","","","",""
"","18072","html-keyboard-response","508","1043757","0.0-3.0-2.422-0.422","<span style=""font-size:25px; font-family: monospace"">A vendedora ajudou um turista?</span>","s","","","A vendedora ajudou um turista?","null","exp-sent","false"
"","null","html-keyboard-response","509","1045281","0.0-3.0-0.423-0.423","<span style= ""font-size:30px; font-family: monospace"">+</span>","null","fixation","","","","",""
"","1021","audio-keyboard-response","510","1046573","0.0-3.0-1.423","../audio/43-1-masc.mp3"," ","","Eu","","","",""
"","1200","audio-keyboard-response","511","1048045","0.0-3.0-1.424","../audio/43-2-masc.mp3"," ","","achei","","","",""
"","1221","audio-keyboard-response","512","1049549","0.0-3.0-1.425","../audio/43-3-masc.mp3"," ","","um","","","",""
"","1128","audio-keyboard-response","513","1050957","0.0-3.0-1.426","../audio/43-4-masc.mp3"," ","","colchão","","","",""
"","1160","audio-keyboard-response","514","1052397","0.0-3.0-1.427","../audio/43-5-masc.mp3"," ","","velho","","","",""
"","1229","audio-keyboard-response","515","1053885","0.0-3.0-1.428","../audio/43-6-masc.mp3"," ","","e","","","",""
"","1571","audio-keyboard-response","516","1055741","0.0-3.0-1.429","../audio/43-7-masc.mp3"," ","","imundo","","","",""
"","989","audio-keyboard-response","517","1057021","0.0-3.0-1.430","../audio/43-8-masc.mp3"," ","","na","","","",""
"","1029","audio-keyboard-response","518","1058333","0.0-3.0-1.431","../audio/43-9-masc.mp3"," ","","casa.","","","",""
"","null","html-keyboard-response","519","1059611","0.0-3.0-0.432-0.432","<span style= ""font-size:30px; font-family: monospace"">+</span>","null","fixation","","","","",""
"","640","audio-keyboard-response","520","1060525","0.0-3.0-1.432","../audio/42-1-masc.mp3"," ","","Eu","","","",""
"","949","audio-keyboard-response","521","1061741","0.0-3.0-1.433","../audio/42-2-masc.mp3"," ","","fui","","","",""
"","1040","audio-keyboard-response","522","1063053","0.0-3.0-1.434","../audio/42-3-masc.mp3"," ","","a","","","",""
"","971","audio-keyboard-response","523","1064301","0.0-3.0-1.435","../audio/42-4-masc.mp3"," ","","uma","","","",""
"","1299","audio-keyboard-response","524","1065885","0.0-3.0-1.436","../audio/42-5-masc.mp3"," ","","loja","","","",""
"","1061","audio-keyboard-response","525","1067213","0.0-3.0-1.437","../audio/42-6-masc.mp3"," ","","de","","","",""
"","1251","audio-keyboard-response","526","1068733","0.0-3.0-1.438","../audio/42-7-masc.mp3"," ","","móveis","","","",""
"","1061","audio-keyboard-response","527","1070061","0.0-3.0-1.439","../audio/42-8-masc.mp3"," ","","no","","","",""
"","1629","audio-keyboard-response","528","1071973","0.0-3.0-1.440","../audio/42-9-masc.mp3"," ","","bairro.","","","",""
"","null","html-keyboard-response","529","1073249","0.0-3.0-0.441-0.441","<span style= ""font-size:30px; font-family: monospace"">+</span>","null","fixation","","","","",""
"","309","audio-keyboard-response","530","1073829","0.0-3.0-1.441","../audio/44-1-fem.mp3"," ","","Meus","","","",""
"","1659","audio-keyboard-response","531","1075766","0.0-3.0-1.442","../audio/44-2-fem.mp3"," ","","irmãos","","","",""
"","1440","audio-keyboard-response","532","1077477","0.0-3.0-1.443","../audio/44-3-fem.mp3"," ","","brigam","","","",""
"","1509","audio-keyboard-response","533","1079270","0.0-3.0-1.444","../audio/44-4-fem.mp3"," ","","por","","","",""
"","1469","audio-keyboard-response","534","1081029","0.0-3.0-1.445","../audio/44-5-fem.mp3"," ","","bobagem","","","",""
"","1360","audio-keyboard-response","535","1082661","0.0-3.0-1.446","../audio/44-6-fem.mp3"," ","","todos","","","",""
"","1200","audio-keyboard-response","536","1084149","0.0-3.0-1.447","../audio/44-7-fem.mp3"," ","","os","","","",""
"","1360","audio-keyboard-response","537","1085781","0.0-3.0-1.448","../audio/44-8-fem.mp3"," ","","dias.","","","",""
"","null","html-keyboard-response","538","1087059","0.0-3.0-0.449-0.449","<span style= ""font-size:30px; font-family: monospace"">+</span>","null","fixation","","","","",""
"","1021","audio-keyboard-response","539","1088357","0.0-3.0-1.449","../audio/41-1-masc.mp3"," ","","A","","","",""
"","1320","audio-keyboard-response","540","1089957","0.0-3.0-1.450","../audio/41-2-masc.mp3"," ","","novela","","","",""
"","1240","audio-keyboard-response","541","1091461","0.0-3.0-1.451","../audio/41-3-masc.mp3"," ","","falava","","","",""
"","1189","audio-keyboard-response","542","1092933","0.0-3.0-1.452","../audio/41-4-masc.mp3"," ","","de","","","",""
"","1360","audio-keyboard-response","543","1094565","0.0-3.0-1.453","../audio/41-5-masc.mp3"," ","","paixão","","","",""
"","920","audio-keyboard-response","544","1095765","0.0-3.0-1.454","../audio/41-6-masc.mp3"," ","","e","","","",""
"","1168","audio-keyboard-response","545","1097205","0.0-3.0-1.455","../audio/41-7-masc.mp3"," ","","comédia.","","","",""
"","null","html-keyboard-response","546","1098479","0.0-3.0-0.456-0.456","<span style= ""font-size:30px; font-family: monospace"">+</span>","null","fixation","","","","",""
"","880","audio-keyboard-response","547","1099621","0.0-3.0-1.456","../audio/45-1-fem.mp3"," ","","O","","","",""
"","1331","audio-keyboard-response","548","1101221","0.0-3.0-1.457","../audio/45-2-fem.mp3"," ","","homem","","","",""
"","1520","audio-keyboard-response","549","1103029","0.0-3.0-1.458","../audio/45-3-fem.mp3"," ","","pagou","","","",""
"","1000","audio-keyboard-response","550","1104309","0.0-3.0-1.459","../audio/45-4-fem.mp3"," ","","o","","","",""
"","1459","audio-keyboard-response","551","1106053","0.0-3.0-1.460","../audio/45-5-fem.mp3"," ","","aluguel","","","",""
"","1021","audio-keyboard-response","552","1107350","0.0-3.0-1.461","../audio/45-6-fem.mp3"," ","","com","","","",""
"","2000","audio-keyboard-response","553","1109637","0.0-3.0-1.462","../audio/45-7-fem.mp3"," ","","atraso.","","","",""
"","6974","html-keyboard-response","554","1116870","0.0-3.0-2.462-0.462","<span style=""font-size:25px; font-family: monospace"">O homem pagou o aluguel em dia?</span>","n","","","O homem pagou o aluguel em dia?","null","exp-sent","false"
"","null","html-keyboard-response","555","1118381","0.0-3.0-0.463-0.463","<span style= ""font-size:30px; font-family: monospace"">+</span>","null","fixation","","","","",""
"","1371","audio-keyboard-response","556","1120021","0.0-3.0-1.463","../audio/37-1-fem.mp3"," ","","Eu","","","",""
"","1600","audio-keyboard-response","557","1121909","0.0-3.0-1.464","../audio/37-2-fem.mp3"," ","","adoro","","","",""
"","1549","audio-keyboard-response","558","1123733","0.0-3.0-1.465","../audio/37-3-fem.mp3"," ","","suco","","","",""
"","1051","audio-keyboard-response","559","1125061","0.0-3.0-1.466","../audio/37-4-fem.mp3"," ","","de","","","",""
"","1349","audio-keyboard-response","560","1126693","0.0-3.0-1.467","../audio/37-5-fem.mp3"," ","","manga","","","",""
"","931","audio-keyboard-response","561","1127893","0.0-3.0-1.468","../audio/37-6-fem.mp3"," ","","com","","","",""
"","1861","audio-keyboard-response","562","1130021","0.0-3.0-1.469","../audio/37-7-fem.mp3"," ","","hortelã.","","","",""
"","null","html-keyboard-response","563","1131299","0.0-3.0-0.470-0.470","<span style= ""font-size:30px; font-family: monospace"">+</span>","null","fixation","","","","",""
"","781","audio-keyboard-response","564","1132357","0.0-3.0-1.470","../audio/39-1-fem.mp3"," ","","O","","","",""
"","1309","audio-keyboard-response","565","1133941","0.0-3.0-1.471","../audio/39-2-fem.mp3"," ","","conselho","","","",""
"","1219","audio-keyboard-response","566","1135445","0.0-3.0-1.472","../audio/39-3-fem.mp3"," ","","foi","","","",""
"","1320","audio-keyboard-response","567","1137045","0.0-3.0-1.473","../audio/39-4-fem.mp3"," ","","muito","","","",""
"","1189","audio-keyboard-response","568","1138501","0.0-3.0-1.474","../audio/39-5-fem.mp3"," ","","útil","","","",""
"","1341","audio-keyboard-response","569","1140117","0.0-3.0-1.475","../audio/39-6-fem.mp3"," ","","para","","","",""
"","1400","audio-keyboard-response","570","1141797","0.0-3.0-1.476","../audio/39-7-fem.mp3"," ","","minha","","","",""
"","1661","audio-keyboard-response","571","1143749","0.0-3.0-1.477","../audio/39-8-fem.mp3"," ","","tia.","","","",""
"","null","html-keyboard-response","572","1145019","0.0-3.0-0.478-0.478","<span style= ""font-size:30px; font-family: monospace"">+</span>","null","fixation","","","","",""
"","971","audio-keyboard-response","573","1146261","0.0-3.0-1.478","../audio/38-1-masc.mp3"," ","","A","","","",""
"","1291","audio-keyboard-response","574","1147829","0.0-3.0-1.479","../audio/38-2-masc.mp3"," ","","empresa","","","",""
"","1320","audio-keyboard-response","575","1149413","0.0-3.0-1.480","../audio/38-3-masc.mp3"," ","","criou","","","",""
"","1091","audio-keyboard-response","576","1150773","0.0-3.0-1.481","../audio/38-4-masc.mp3"," ","","a","","","",""
"","1421","audio-keyboard-response","577","1152469","0.0-3.0-1.482","../audio/38-5-masc.mp3"," ","","patente","","","",""
"","1211","audio-keyboard-response","578","1153941","0.0-3.0-1.483","../audio/38-6-masc.mp3"," ","","da","","","",""
"","1891","audio-keyboard-response","579","1156117","0.0-3.0-1.484","../audio/38-7-masc.mp3"," ","","frigideira.","","","",""
"","null","html-keyboard-response","580","1157389","0.0-3.0-0.485-0.485","<span style= ""font-size:30px; font-family: monospace"">+</span>","null","fixation","","","","",""
"","899","audio-keyboard-response","581","1158565","0.0-3.0-1.485","../audio/36-1-masc.mp3"," ","","Meu","","","",""
"","1141","audio-keyboard-response","582","1159989","0.0-3.0-1.486","../audio/36-2-masc.mp3"," ","","tio","","","",""
"","1221","audio-keyboard-response","583","1161477","0.0-3.0-1.487","../audio/36-3-masc.mp3"," ","","comprou","","","",""
"","1171","audio-keyboard-response","584","1162917","0.0-3.0-1.488","../audio/36-4-masc.mp3"," ","","um","","","",""
"","1259","audio-keyboard-response","585","1164453","0.0-3.0-1.489","../audio/36-5-masc.mp3"," ","","filtro","","","",""
"","1269","audio-keyboard-response","586","1166005","0.0-3.0-1.490","../audio/36-6-masc.mp3"," ","","de","","","",""
"","1400","audio-keyboard-response","587","1167685","0.0-3.0-1.491","../audio/36-7-masc.mp3"," ","","água","","","",""
"","1181","audio-keyboard-response","588","1169141","0.0-3.0-1.492","../audio/36-8-masc.mp3"," ","","hoje","","","",""
"","2080","audio-keyboard-response","589","1171493","0.0-3.0-1.493","../audio/36-9-masc.mp3"," ","","cedo.","","","",""
"","null","html-keyboard-response","590","1172769","0.0-3.0-0.494-0.494","<span style= ""font-size:30px; font-family: monospace"">+</span>","null","fixation","","","","",""
"","808","audio-keyboard-response","591","1173845","0.0-3.0-1.494","../audio/40-1-masc.mp3"," ","","O","","","",""
"","1088","audio-keyboard-response","592","1175205","0.0-3.0-1.495","../audio/40-2-masc.mp3"," ","","jogo","","","",""
"","1248","audio-keyboard-response","593","1176725","0.0-3.0-1.496","../audio/40-3-masc.mp3"," ","","falava","","","",""
"","920","audio-keyboard-response","594","1177925","0.0-3.0-1.497","../audio/40-4-masc.mp3"," ","","de","","","",""
"","1432","audio-keyboard-response","595","1179637","0.0-3.0-1.498","../audio/40-5-masc.mp3"," ","","fantasia","","","",""
"","1000","audio-keyboard-response","596","1180901","0.0-3.0-1.499","../audio/40-6-masc.mp3"," ","","e","","","",""
"","1000","audio-keyboard-response","597","1182181","0.0-3.0-1.500","../audio/40-7-masc.mp3"," ","","de","","","",""
"","2469","audio-keyboard-response","598","1184933","0.0-3.0-1.501","../audio/40-8-masc.mp3"," ","","aventura.","","","",""
"","5680","html-keyboard-response","599","1190870","0.0-3.0-2.501-0.501","<span style=""font-size:25px; font-family: monospace"">O jogo tinha fantasia e aventura?</span>","s","","","O jogo tinha fantasia e aventura?","null","exp-sent","false"
"","null","html-keyboard-response","600","1192387","0.0-3.0-0.502-0.502","<span style= ""font-size:30px; font-family: monospace"">+</span>","null","fixation","","","","",""
"","1501","audio-keyboard-response","601","1194179","0.0-3.0-1.502","../audio/08-1-fem.mp3"," ","","A","","","",""
"","1531","audio-keyboard-response","602","1195987","0.0-3.0-1.503","../audio/08-2-fem.mp3"," ","","receita","","","",""
"","1640","audio-keyboard-response","603","1197907","0.0-3.0-1.504","../audio/08-3-fem.mp3"," ","","pede","","","",""
"","1051","audio-keyboard-response","604","1199235","0.0-3.0-1.505","../audio/08-4-fem.mp3"," ","","um","","","",""
"","1251","audio-keyboard-response","605","1200755","0.0-3.0-1.506","../audio/08-5-fem.mp3"," ","","litro","","","",""
"","1029","audio-keyboard-response","606","1202067","0.0-3.0-1.507","../audio/08-6-fem.mp3"," ","","de","","","",""
"","1520","audio-keyboard-response","607","1203859","0.0-3.0-1.508","../audio/08-7-fem.mp3"," ","","leite","","","",""
"","1349","audio-keyboard-response","608","1205491","0.0-3.0-1.509","../audio/08-8-fem.mp3"," ","","integral.","","","",""
"","null","html-keyboard-response","609","1206757","0.0-3.0-0.510-0.510","<span style= ""font-size:30px; font-family: monospace"">+</span>","null","fixation","","","","",""
"","1109","audio-keyboard-response","610","1208163","0.0-3.0-1.510","../audio/06-1-masc.mp3"," ","","Ouvimos","","","",""
"","1541","audio-keyboard-response","611","1209987","0.0-3.0-1.511","../audio/06-2-masc.mp3"," ","","a","","","",""
"","1469","audio-keyboard-response","612","1211747","0.0-3.0-1.512","../audio/06-3-masc.mp3"," ","","fala","","","",""
"","1179","audio-keyboard-response","613","1213203","0.0-3.0-1.513","../audio/06-4-masc.mp3"," ","","do","","","",""
"","1352","audio-keyboard-response","614","1214835","0.0-3.0-1.514","../audio/06-5-masc.mp3"," ","","profeta","","","",""
"","1171","audio-keyboard-response","615","1216275","0.0-3.0-1.515","../audio/06-6-masc.mp3"," ","","no","","","",""
"","1509","audio-keyboard-response","616","1218067","0.0-3.0-1.516","../audio/06-7-masc.mp3"," ","","púlpito","","","",""
"","979","audio-keyboard-response","617","1219331","0.0-3.0-1.517","../audio/06-8-masc.mp3"," ","","da","","","",""
"","1472","audio-keyboard-response","618","1221075","0.0-3.0-1.518","../audio/06-9-masc.mp3"," ","","igreja.","","","",""
"","null","html-keyboard-response","619","1222331","0.0-3.0-0.519-0.519","<span style= ""font-size:30px; font-family: monospace"">+</span>","null","fixation","","","","",""
"","680","audio-keyboard-response","620","1223283","0.0-3.0-1.519","../audio/07-1-fem.mp3"," ","","Meu","","","",""
"","960","audio-keyboard-response","621","1224515","0.0-3.0-1.520","../audio/07-2-fem.mp3"," ","","filho","","","",""
"","1080","audio-keyboard-response","622","1225875","0.0-3.0-1.521","../audio/07-3-fem.mp3"," ","","é","","","",""
"","1189","audio-keyboard-response","623","1227347","0.0-3.0-1.522","../audio/07-4-fem.mp3"," ","","muito","","","",""
"","1669","audio-keyboard-response","624","1229299","0.0-3.0-1.523","../audio/07-5-fem.mp3"," ","","responsável","","","",""
"","1251","audio-keyboard-response","625","1230835","0.0-3.0-1.524","../audio/07-6-fem.mp3"," ","","nos","","","",""
"","1749","audio-keyboard-response","626","1232867","0.0-3.0-1.525","../audio/07-7-fem.mp3"," ","","estudos.","","","",""
"","null","html-keyboard-response","627","1234157","0.0-3.0-0.526-0.526","<span style= ""font-size:30px; font-family: monospace"">+</span>","null","fixation","","","","",""
"","608","audio-keyboard-response","628","1235043","0.0-3.0-1.526","../audio/09-1-fem.mp3"," ","","O","","","",""
"","1680","audio-keyboard-response","629","1236995","0.0-3.0-1.527","../audio/09-2-fem.mp3"," ","","rapaz","","","",""
"","1411","audio-keyboard-response","630","1238675","0.0-3.0-1.528","../audio/09-3-fem.mp3"," ","","limpou","","","",""
"","1109","audio-keyboard-response","631","1240051","0.0-3.0-1.529","../audio/09-4-fem.mp3"," ","","o","","","",""
"","1520","audio-keyboard-response","632","1241843","0.0-3.0-1.530","../audio/09-5-fem.mp3"," ","","terreno","","","",""
"","1352","audio-keyboard-response","633","1243475","0.0-3.0-1.531","../audio/09-6-fem.mp3"," ","","com","","","",""
"","1309","audio-keyboard-response","634","1245059","0.0-3.0-1.532","../audio/09-7-fem.mp3"," ","","uma","","","",""
"","1280","audio-keyboard-response","635","1246627","0.0-3.0-1.533","../audio/09-8-fem.mp3"," ","","pá.","","","",""
"","null","html-keyboard-response","636","1247907","0.0-3.0-0.534-0.534","<span style= ""font-size:30px; font-family: monospace"">+</span>","null","fixation","","","","",""
"","251","audio-keyboard-response","637","1248419","0.0-3.0-1.534","../audio/10-1-fem.mp3"," ","","O","","","",""
"","1981","audio-keyboard-response","638","1250675","0.0-3.0-1.535","../audio/10-2-fem.mp3"," ","","pássaro","","","",""
"","1139","audio-keyboard-response","639","1252076","0.0-3.0-1.536","../audio/10-3-fem.mp3"," ","","azul","","","",""
"","1269","audio-keyboard-response","640","1253612","0.0-3.0-1.537","../audio/10-4-fem.mp3"," ","","estava","","","",""
"","1379","audio-keyboard-response","641","1255276","0.0-3.0-1.538","../audio/10-5-fem.mp3"," ","","vivo","","","",""
"","1168","audio-keyboard-response","642","1256716","0.0-3.0-1.539","../audio/10-6-fem.mp3"," ","","e","","","",""
"","1291","audio-keyboard-response","643","1258284","0.0-3.0-1.540","../audio/10-7-fem.mp3"," ","","em","","","",""
"","1811","audio-keyboard-response","644","1260364","0.0-3.0-1.541","../audio/10-8-fem.mp3"," ","","segurança.","","","",""
"","14961","html-keyboard-response","645","1275581","0.0-3.0-2.541-0.541","<span style=""font-size:25px; font-family: monospace"">O pássaro vermelho estava em segurança?</span>","s","","","O pássaro vermelho estava em segurança?","null","exp-sent","false"
"","null","html-keyboard-response","646","1277110","0.0-3.0-0.542-0.542","<span style= ""font-size:30px; font-family: monospace"">+</span>","null","fixation","","","","",""
"","2768","audio-keyboard-response","647","1280156","0.0-3.0-1.542","../audio/62-1-masc.mp3"," ","","As","","","",""
"","2368","audio-keyboard-response","648","1282796","0.0-3.0-1.543","../audio/62-2-masc.mp3"," ","","artesãs","","","",""
"","1691","audio-keyboard-response","649","1284764","0.0-3.0-1.544","../audio/62-3-masc.mp3"," ","","gostam","","","",""
"","1760","audio-keyboard-response","650","1286797","0.0-3.0-1.545","../audio/62-4-masc.mp3"," ","","de","","","",""
"","2501","audio-keyboard-response","651","1289580","0.0-3.0-1.546","../audio/62-5-masc.mp3"," ","","maquiagem","","","",""
"","1160","audio-keyboard-response","652","1291020","0.0-3.0-1.547","../audio/62-6-masc.mp3"," ","","e","","","",""
"","1120","audio-keyboard-response","653","1292428","0.0-3.0-1.548","../audio/62-7-masc.mp3"," ","","de","","","",""
"","1800","audio-keyboard-response","654","1294508","0.0-3.0-1.549","../audio/62-8-masc.mp3"," ","","crochê.","","","",""
"","null","html-keyboard-response","655","1295790","0.0-3.0-0.550-0.550","<span style= ""font-size:30px; font-family: monospace"">+</span>","null","fixation","","","","",""
"","1029","audio-keyboard-response","656","1297100","0.0-3.0-1.550","../audio/63-1-masc.mp3"," ","","A","","","",""
"","1352","audio-keyboard-response","657","1298748","0.0-3.0-1.551","../audio/63-2-masc.mp3"," ","","chuva","","","",""
"","1429","audio-keyboard-response","658","1300460","0.0-3.0-1.552","../audio/63-3-masc.mp3"," ","","entrou","","","",""
"","1509","audio-keyboard-response","659","1302252","0.0-3.0-1.553","../audio/63-4-masc.mp3"," ","","pela","","","",""
"","1741","audio-keyboard-response","660","1304268","0.0-3.0-1.554","../audio/63-5-masc.mp3"," ","","abertura","","","",""
"","1448","audio-keyboard-response","661","1305996","0.0-3.0-1.555","../audio/63-6-masc.mp3"," ","","na","","","",""
"","2221","audio-keyboard-response","662","1308492","0.0-3.0-1.556","../audio/63-7-masc.mp3"," ","","janela.","","","",""
"","null","html-keyboard-response","663","1309752","0.0-3.0-0.557-0.557","<span style= ""font-size:30px; font-family: monospace"">+</span>","null","fixation","","","","",""
"","941","audio-keyboard-response","664","1310972","0.0-3.0-1.557","../audio/64-1-fem.mp3"," ","","O","","","",""
"","1139","audio-keyboard-response","665","1312394","0.0-3.0-1.558","../audio/64-2-fem.mp3"," ","","dia","","","",""
"","1168","audio-keyboard-response","666","1313834","0.0-3.0-1.559","../audio/64-3-fem.mp3"," ","","começou","","","",""
"","1261","audio-keyboard-response","667","1315370","0.0-3.0-1.560","../audio/64-4-fem.mp3"," ","","com","","","",""
"","1411","audio-keyboard-response","668","1317066","0.0-3.0-1.561","../audio/64-5-fem.mp3"," ","","garoa","","","",""
"","1629","audio-keyboard-response","669","1318970","0.0-3.0-1.562","../audio/64-6-fem.mp3"," ","","gelada","","","",""
"","1000","audio-keyboard-response","670","1320250","0.0-3.0-1.563","../audio/64-7-fem.mp3"," ","","e","","","",""
"","1600","audio-keyboard-response","671","1322122","0.0-3.0-1.564","../audio/64-8-fem.mp3"," ","","leve.","","","",""
"","null","html-keyboard-response","672","1323398","0.0-3.0-0.565-0.565","<span style= ""font-size:30px; font-family: monospace"">+</span>","null","fixation","","","","",""
"","1160","audio-keyboard-response","673","1324842","0.0-3.0-1.565","../audio/61-1-fem.mp3"," ","","Aquele","","","",""
"","1181","audio-keyboard-response","674","1326298","0.0-3.0-1.566","../audio/61-2-fem.mp3"," ","","senhor","","","",""
"","1000","audio-keyboard-response","675","1327578","0.0-3.0-1.567","../audio/61-3-fem.mp3"," ","","é","","","",""
"","1240","audio-keyboard-response","676","1329098","0.0-3.0-1.568","../audio/61-4-fem.mp3"," ","","muito","","","",""
"","1541","audio-keyboard-response","677","1330906","0.0-3.0-1.569","../audio/61-5-fem.mp3"," ","","sovina","","","",""
"","1109","audio-keyboard-response","678","1332282","0.0-3.0-1.570","../audio/61-6-fem.mp3"," ","","e","","","",""
"","2432","audio-keyboard-response","679","1334986","0.0-3.0-1.571","../audio/61-7-fem.mp3"," ","","inflexível.","","","",""
"","null","html-keyboard-response","680","1336248","0.0-3.0-0.572-0.572","<span style= ""font-size:30px; font-family: monospace"">+</span>","null","fixation","","","","",""
"","909","audio-keyboard-response","681","1337434","0.0-3.0-1.572","../audio/65-1-fem.mp3"," ","","O","","","",""
"","1429","audio-keyboard-response","682","1339130","0.0-3.0-1.573","../audio/65-2-fem.mp3"," ","","fantasma","","","",""
"","1181","audio-keyboard-response","683","1340586","0.0-3.0-1.574","../audio/65-3-fem.mp3"," ","","veio","","","",""
"","1059","audio-keyboard-response","684","1341914","0.0-3.0-1.575","../audio/65-4-fem.mp3"," ","","da","","","",""
"","1512","audio-keyboard-response","685","1343706","0.0-3.0-1.576","../audio/65-5-fem.mp3"," ","","escuridão","","","",""
"","989","audio-keyboard-response","686","1344970","0.0-3.0-1.577","../audio/65-6-fem.mp3"," ","","do","","","",""
"","1291","audio-keyboard-response","687","1346538","0.0-3.0-1.578","../audio/65-7-fem.mp3"," ","","armário.","","","",""
"","6700","html-keyboard-response","688","1353499","0.0-3.0-2.578-0.578","<span style=""font-size:25px; font-family: monospace"">O fantasma veio da escuridão do armário?</span>","s","","","O fantasma veio da escuridão do armário?","null","exp-sent","false"
"","null","html-keyboard-response","689","1355038","0.0-3.0-0.579-0.579","<span style= ""font-size:30px; font-family: monospace"">+</span>","null","fixation","","","","",""
"","1272","audio-keyboard-response","690","1356586","0.0-3.0-1.579","../audio/74-1-fem.mp3"," ","","Este","","","",""
"","1440","audio-keyboard-response","691","1358298","0.0-3.0-1.580","../audio/74-2-fem.mp3"," ","","emprego","","","",""
"","880","audio-keyboard-response","692","1359466","0.0-3.0-1.581","../audio/74-3-fem.mp3"," ","","é","","","",""
"","1219","audio-keyboard-response","693","1360954","0.0-3.0-1.582","../audio/74-4-fem.mp3"," ","","muito","","","",""
"","1840","audio-keyboard-response","694","1363066","0.0-3.0-1.583","../audio/74-5-fem.mp3"," ","","cansativo","","","",""
"","1011","audio-keyboard-response","695","1364347","0.0-3.0-1.584","../audio/74-6-fem.mp3"," ","","a","","","",""
"","1179","audio-keyboard-response","696","1365802","0.0-3.0-1.585","../audio/74-7-fem.mp3"," ","","longo","","","",""
"","1421","audio-keyboard-response","697","1367498","0.0-3.0-1.586","../audio/74-8-fem.mp3"," ","","prazo.","","","",""
"","null","html-keyboard-response","698","1368768","0.0-3.0-0.587-0.587","<span style= ""font-size:30px; font-family: monospace"">+</span>","null","fixation","","","","",""
"","771","audio-keyboard-response","699","1369819","0.0-3.0-1.587","../audio/72-1-fem.mp3"," ","","A","","","",""
"","1259","audio-keyboard-response","700","1371354","0.0-3.0-1.588","../audio/72-2-fem.mp3"," ","","vencedora","","","",""
"","1501","audio-keyboard-response","701","1373133","0.0-3.0-1.589","../audio/72-3-fem.mp3"," ","","recebeu","","","",""
"","1101","audio-keyboard-response","702","1374510","0.0-3.0-1.590","../audio/72-4-fem.mp3"," ","","um","","","",""
"","1229","audio-keyboard-response","703","1376013","0.0-3.0-1.591","../audio/72-5-fem.mp3"," ","","prêmio","","","",""
"","1131","audio-keyboard-response","704","1377422","0.0-3.0-1.592","../audio/72-6-fem.mp3"," ","","em","","","",""
"","2011","audio-keyboard-response","705","1379709","0.0-3.0-1.593","../audio/72-7-fem.mp3"," ","","dinheiro.","","","",""
"","null","html-keyboard-response","706","1380981","0.0-3.0-0.594-0.594","<span style= ""font-size:30px; font-family: monospace"">+</span>","null","fixation","","","","",""
"","1040","audio-keyboard-response","707","1382301","0.0-3.0-1.594","../audio/71-1-fem.mp3"," ","","Minhas","","","",""
"","1419","audio-keyboard-response","708","1383997","0.0-3.0-1.595","../audio/71-2-fem.mp3"," ","","comidas","","","",""
"","1539","audio-keyboard-response","709","1385805","0.0-3.0-1.596","../audio/71-3-fem.mp3"," ","","favoritas","","","",""
"","1291","audio-keyboard-response","710","1387373","0.0-3.0-1.597","../audio/71-4-fem.mp3"," ","","são","","","",""
"","1651","audio-keyboard-response","711","1389293","0.0-3.0-1.598","../audio/71-5-fem.mp3"," ","","morango","","","",""
"","1069","audio-keyboard-response","712","1390637","0.0-3.0-1.599","../audio/71-6-fem.mp3"," ","","e","","","",""
"","1371","audio-keyboard-response","713","1392285","0.0-3.0-1.600","../audio/71-7-fem.mp3"," ","","uva.","","","",""
"","null","html-keyboard-response","714","1393571","0.0-3.0-0.601-0.601","<span style= ""font-size:30px; font-family: monospace"">+</span>","null","fixation","","","","",""
"","629","audio-keyboard-response","715","1394477","0.0-3.0-1.601","../audio/73-1-fem.mp3"," ","","O","","","",""
"","1200","audio-keyboard-response","716","1395949","0.0-3.0-1.602","../audio/73-2-fem.mp3"," ","","cliente","","","",""
"","1171","audio-keyboard-response","717","1397389","0.0-3.0-1.603","../audio/73-3-fem.mp3"," ","","era","","","",""
"","1080","audio-keyboard-response","718","1398733","0.0-3.0-1.604","../audio/73-4-fem.mp3"," ","","um","","","",""
"","1109","audio-keyboard-response","719","1400125","0.0-3.0-1.605","../audio/73-5-fem.mp3"," ","","homem","","","",""
"","1152","audio-keyboard-response","720","1401549","0.0-3.0-1.606","../audio/73-6-fem.mp3"," ","","muito","","","",""
"","1819","audio-keyboard-response","721","1403645","0.0-3.0-1.607","../audio/73-7-fem.mp3"," ","","educado.","","","",""
"","null","html-keyboard-response","722","1404921","0.0-3.0-0.608-0.608","<span style= ""font-size:30px; font-family: monospace"">+</span>","null","fixation","","","","",""
"","789","audio-keyboard-response","723","1405997","0.0-3.0-1.608","../audio/75-1-masc.mp3"," ","","Só","","","",""
"","981","audio-keyboard-response","724","1407261","0.0-3.0-1.609","../audio/75-2-masc.mp3"," ","","existe","","","",""
"","971","audio-keyboard-response","725","1408509","0.0-3.0-1.610","../audio/75-3-masc.mp3"," ","","uma","","","",""
"","1229","audio-keyboard-response","726","1410013","0.0-3.0-1.611","../audio/75-4-masc.mp3"," ","","pessoa","","","",""
"","1149","audio-keyboard-response","727","1411437","0.0-3.0-1.612","../audio/75-5-masc.mp3"," ","","canhota","","","",""
"","1291","audio-keyboard-response","728","1413005","0.0-3.0-1.613","../audio/75-6-masc.mp3"," ","","nesta","","","",""
"","1731","audio-keyboard-response","729","1415005","0.0-3.0-1.614","../audio/75-7-masc.mp3"," ","","cidade.","","","",""
"","5280","html-keyboard-response","730","1420542","0.0-3.0-2.614-0.614","<span style=""font-size:25px; font-family: monospace"">Só existe uma pessoa canhota na cidade?</span>","s","","","Só existe uma pessoa canhota na cidade?","null","exp-sent","false"
"[{""page_index"":0,""viewing_time"":17418}]","17418","instructions","731","1438470","0.0-4.0","","","","","","","",""
