"view_history","rt","trial_type","trial_index","time_elapsed","internal_node_id","stimulus","response","trial_part","trial","word","question","answer","accuracy"
"[{""page_index"":0,""viewing_time"":48279},{""page_index"":1,""viewing_time"":7072}]","55351","instructions","0","55352","0.0-0.0","","","","","","","",""
"","null","html-keyboard-response","1","56455","0.0-1.0-0.0-0.0","<span style= ""font-size:30px; font-family: monospace"">+</span>","null","fixation","","","","",""
"","4013","html-keyboard-response","2","60719","0.0-1.0-1.0","<span style=""font-size:30px; font-family: monospace"">O</span>"," ","","prac-sent","O","","",""
"","1524","html-keyboard-response","3","62495","0.0-1.0-1.1","<span style=""font-size:30px; font-family: monospace"">dia</span>"," ","","prac-sent","dia","","",""
"","1909","html-keyboard-response","4","64655","0.0-1.0-1.2","<span style=""font-size:30px; font-family: monospace"">estará</span>"," ","","prac-sent","estará","","",""
"","1525","html-keyboard-response","5","66431","0.0-1.0-1.3","<span style=""font-size:30px; font-family: monospace"">cheio</span>"," ","","prac-sent","cheio","","",""
"","1269","html-keyboard-response","6","67951","0.0-1.0-1.4","<span style=""font-size:30px; font-family: monospace"">de</span>"," ","","prac-sent","de","","",""
"","3350","html-keyboard-response","7","71551","0.0-1.0-1.5","<span style=""font-size:30px; font-family: monospace"">nuvens</span>"," ","","prac-sent","nuvens","","",""
"","1365","html-keyboard-response","8","73167","0.0-1.0-1.6","<span style=""font-size:30px; font-family: monospace"">hoje.</span>"," ","","prac-sent","hoje.","","",""
"","null","html-keyboard-response","9","74419","0.0-1.0-0.7-0.7","<span style= ""font-size:30px; font-family: monospace"">+</span>","null","fixation","","","","",""
"","1073","html-keyboard-response","10","75743","0.0-1.0-1.7","<span style=""font-size:30px; font-family: monospace"">A</span>"," ","","prac-sent","A","","",""
"","1701","html-keyboard-response","11","77694","0.0-1.0-1.8","<span style=""font-size:30px; font-family: monospace"">caneca</span>"," ","","prac-sent","caneca","","",""
"","2533","html-keyboard-response","12","80479","0.0-1.0-1.9","<span style=""font-size:30px; font-family: monospace"">colorida</span>"," ","","prac-sent","colorida","","",""
"","2469","html-keyboard-response","13","83199","0.0-1.0-1.10","<span style=""font-size:30px; font-family: monospace"">caiu</span>"," ","","prac-sent","caiu","","",""
"","1157","html-keyboard-response","14","84607","0.0-1.0-1.11","<span style=""font-size:30px; font-family: monospace"">da</span>"," ","","prac-sent","da","","",""
"","1236","html-keyboard-response","15","86094","0.0-1.0-1.12","<span style=""font-size:30px; font-family: monospace"">mesa</span>"," ","","prac-sent","mesa","","",""
"","1526","html-keyboard-response","16","87871","0.0-1.0-1.13","<span style=""font-size:30px; font-family: monospace"">de</span>"," ","","prac-sent","de","","",""
"","3093","html-keyboard-response","17","91215","0.0-1.0-1.14","<span style=""font-size:30px; font-family: monospace"">jantar.</span>"," ","","prac-comp","jantar.","","",""
"","14565","html-keyboard-response","18","106031","0.0-1.0-2.14-0.14","<span style=""font-size:30px; font-family: monospace"">A caneca permaneceu na mesa?</span>","n","","prac-comp","","A caneca permaneceu na mesa?","não","false"
"[{""page_index"":0,""viewing_time"":22650}]","22651","instructions","19","129183","0.0-2.0","","","","","","","",""
"","null","html-keyboard-response","20","130285","0.0-3.0-0.0-0.0","<span style= ""font-size:30px; font-family: monospace"">+</span>","null","fixation","","","","",""
"","3062","html-keyboard-response","21","133599","0.0-3.0-1.0","<span style=""font-size:30px; font-family: monospace"">A</span>"," ","","exp-sent","A","","",""
"","2837","html-keyboard-response","22","136686","0.0-3.0-1.1","<span style=""font-size:30px; font-family: monospace"">senhora</span>"," ","","exp-sent","senhora","","",""
"","2229","html-keyboard-response","23","139167","0.0-3.0-1.2","<span style=""font-size:30px; font-family: monospace"">cumprimentou</span>"," ","","exp-sent","cumprimentou","","",""
"","1525","html-keyboard-response","24","140942","0.0-3.0-1.3","<span style=""font-size:30px; font-family: monospace"">o</span>"," ","","exp-sent","o","","",""
"","4244","html-keyboard-response","25","145438","0.0-3.0-1.4","<span style=""font-size:30px; font-family: monospace"">operador</span>"," ","","exp-sent","operador","","",""
"","1205","html-keyboard-response","26","146894","0.0-3.0-1.5","<span style=""font-size:30px; font-family: monospace"">de</span>"," ","","exp-sent","de","","",""
"","1989","html-keyboard-response","27","149134","0.0-3.0-1.6","<span style=""font-size:30px; font-family: monospace"">caixa.</span>"," ","","exp-sent","caixa.","","",""
"","null","html-keyboard-response","28","150386","0.0-3.0-0.7-0.7","<span style= ""font-size:30px; font-family: monospace"">+</span>","null","fixation","","","","",""
"","1185","html-keyboard-response","29","151822","0.0-3.0-1.7","<span style=""font-size:30px; font-family: monospace"">A</span>"," ","","exp-sent","A","","",""
"","1269","html-keyboard-response","30","153342","0.0-3.0-1.8","<span style=""font-size:30px; font-family: monospace"">gente</span>"," ","","exp-sent","gente","","",""
"","1125","html-keyboard-response","31","154718","0.0-3.0-1.9","<span style=""font-size:30px; font-family: monospace"">viu</span>"," ","","exp-sent","viu","","",""
"","1061","html-keyboard-response","32","156030","0.0-3.0-1.10","<span style=""font-size:30px; font-family: monospace"">o</span>"," ","","exp-sent","o","","",""
"","4533","html-keyboard-response","33","160814","0.0-3.0-1.11","<span style=""font-size:30px; font-family: monospace"">eclipse</span>"," ","","exp-sent","eclipse","","",""
"","1685","html-keyboard-response","34","162750","0.0-3.0-1.12","<span style=""font-size:30px; font-family: monospace"">lunar</span>"," ","","exp-sent","lunar","","",""
"","1492","html-keyboard-response","35","164494","0.0-3.0-1.13","<span style=""font-size:30px; font-family: monospace"">durante</span>"," ","","exp-sent","durante","","",""
"","821","html-keyboard-response","36","165566","0.0-3.0-1.14","<span style=""font-size:30px; font-family: monospace"">o</span>"," ","","exp-sent","o","","",""
"","1573","html-keyboard-response","37","167391","0.0-3.0-1.15","<span style=""font-size:30px; font-family: monospace"">dia.</span>"," ","","exp-sent","dia.","","",""
"","null","html-keyboard-response","38","168642","0.0-3.0-0.16-0.16","<span style= ""font-size:30px; font-family: monospace"">+</span>","null","fixation","","","","",""
"","1078","html-keyboard-response","39","169982","0.0-3.0-1.16","<span style=""font-size:30px; font-family: monospace"">A</span>"," ","","exp-sent","A","","",""
"","2630","html-keyboard-response","40","172862","0.0-3.0-1.17","<span style=""font-size:30px; font-family: monospace"">mordida</span>"," ","","exp-sent","mordida","","",""
"","964","html-keyboard-response","41","174078","0.0-3.0-1.18","<span style=""font-size:30px; font-family: monospace"">do</span>"," ","","exp-sent","do","","",""
"","1669","html-keyboard-response","42","175998","0.0-3.0-1.19","<span style=""font-size:30px; font-family: monospace"">cachorro</span>"," ","","exp-sent","cachorro","","",""
"","2453","html-keyboard-response","43","178702","0.0-3.0-1.20","<span style=""font-size:30px; font-family: monospace"">voraz</span>"," ","","exp-sent","voraz","","",""
"","3140","html-keyboard-response","44","182094","0.0-3.0-1.21","<span style=""font-size:30px; font-family: monospace"">causou</span>"," ","","exp-sent","causou","","",""
"","1269","html-keyboard-response","45","183614","0.0-3.0-1.22","<span style=""font-size:30px; font-family: monospace"">uma</span>"," ","","exp-sent","uma","","",""
"","2693","html-keyboard-response","46","186558","0.0-3.0-1.23","<span style=""font-size:30px; font-family: monospace"">cicatriz.</span>"," ","","exp-sent","cicatriz.","","",""
"","null","html-keyboard-response","47","187810","0.0-3.0-0.24-0.24","<span style= ""font-size:30px; font-family: monospace"">+</span>","null","fixation","","","","",""
"","866","html-keyboard-response","48","188926","0.0-3.0-1.24","<span style=""font-size:30px; font-family: monospace"">Elas</span>"," ","","exp-sent","Elas","","",""
"","901","html-keyboard-response","49","190078","0.0-3.0-1.25","<span style=""font-size:30px; font-family: monospace"">não</span>"," ","","exp-sent","não","","",""
"","1109","html-keyboard-response","50","191438","0.0-3.0-1.26","<span style=""font-size:30px; font-family: monospace"">viram</span>"," ","","exp-sent","viram","","",""
"","2245","html-keyboard-response","51","193934","0.0-3.0-1.27","<span style=""font-size:30px; font-family: monospace"">nenhuma</span>"," ","","exp-sent","nenhuma","","",""
"","2004","html-keyboard-response","52","196190","0.0-3.0-1.28","<span style=""font-size:30px; font-family: monospace"">diferença</span>"," ","","exp-sent","diferença","","",""
"","997","html-keyboard-response","53","197438","0.0-3.0-1.29","<span style=""font-size:30px; font-family: monospace"">entre</span>"," ","","exp-sent","entre","","",""
"","933","html-keyboard-response","54","198622","0.0-3.0-1.30","<span style=""font-size:30px; font-family: monospace"">os</span>"," ","","exp-sent","os","","",""
"","1283","html-keyboard-response","55","200158","0.0-3.0-1.31","<span style=""font-size:30px; font-family: monospace"">textos.</span>"," ","","exp-sent","textos.","","",""
"","null","html-keyboard-response","56","201410","0.0-3.0-0.32-0.32","<span style= ""font-size:30px; font-family: monospace"">+</span>","null","fixation","","","","",""
"","1009","html-keyboard-response","57","202670","0.0-3.0-1.32","<span style=""font-size:30px; font-family: monospace"">Amanhã</span>"," ","","exp-sent","Amanhã","","",""
"","949","html-keyboard-response","58","203870","0.0-3.0-1.33","<span style=""font-size:30px; font-family: monospace"">vai</span>"," ","","exp-sent","vai","","",""
"","997","html-keyboard-response","59","205118","0.0-3.0-1.34","<span style=""font-size:30px; font-family: monospace"">ter</span>"," ","","exp-sent","ter","","",""
"","917","html-keyboard-response","60","206286","0.0-3.0-1.35","<span style=""font-size:30px; font-family: monospace"">um</span>"," ","","exp-sent","um","","",""
"","2085","html-keyboard-response","61","208622","0.0-3.0-1.36","<span style=""font-size:30px; font-family: monospace"">bazar</span>"," ","","exp-sent","bazar","","",""
"","869","html-keyboard-response","62","209742","0.0-3.0-1.37","<span style=""font-size:30px; font-family: monospace"">no</span>"," ","","exp-sent","no","","",""
"","1340","html-keyboard-response","63","211342","0.0-3.0-1.38","<span style=""font-size:30px; font-family: monospace"">bairro.</span>"," ","","comp","bairro.","","",""
"","8181","html-keyboard-response","64","219774","0.0-3.0-2.38-0.38","<span style=""font-size:30px; font-family: monospace"">Amanhã vai acontecer um bazar no bairro?</span>","n","","comp","","Amanhã vai acontecer um bazar no bairro?","sim","false"
"","null","html-keyboard-response","65","221275","0.0-3.0-0.39-0.39","<span style= ""font-size:30px; font-family: monospace"">+</span>","null","fixation","","","","",""
"","2120","html-keyboard-response","66","223646","0.0-3.0-1.39","<span style=""font-size:30px; font-family: monospace"">Minha</span>"," ","","exp-sent","Minha","","",""
"","1365","html-keyboard-response","67","225262","0.0-3.0-1.40","<span style=""font-size:30px; font-family: monospace"">prima</span>"," ","","exp-sent","prima","","",""
"","2644","html-keyboard-response","68","228158","0.0-3.0-1.41","<span style=""font-size:30px; font-family: monospace"">trocou</span>"," ","","exp-sent","trocou","","",""
"","933","html-keyboard-response","69","229342","0.0-3.0-1.42","<span style=""font-size:30px; font-family: monospace"">a</span>"," ","","exp-sent","a","","",""
"","1316","html-keyboard-response","70","230910","0.0-3.0-1.43","<span style=""font-size:30px; font-family: monospace"">tela</span>"," ","","exp-sent","tela","","",""
"","981","html-keyboard-response","71","232142","0.0-3.0-1.44","<span style=""font-size:30px; font-family: monospace"">do</span>"," ","","exp-sent","do","","",""
"","1684","html-keyboard-response","72","234078","0.0-3.0-1.45","<span style=""font-size:30px; font-family: monospace"">celular</span>"," ","","exp-sent","celular","","",""
"","1365","html-keyboard-response","73","235694","0.0-3.0-1.46","<span style=""font-size:30px; font-family: monospace"">duas</span>"," ","","exp-sent","duas","","",""
"","1253","html-keyboard-response","74","237198","0.0-3.0-1.47","<span style=""font-size:30px; font-family: monospace"">vezes.</span>"," ","","exp-sent","vezes.","","",""
"","null","html-keyboard-response","75","238450","0.0-3.0-0.48-0.48","<span style= ""font-size:30px; font-family: monospace"">+</span>","null","fixation","","","","",""
"","1233","html-keyboard-response","76","239934","0.0-3.0-1.48","<span style=""font-size:30px; font-family: monospace"">Agora</span>"," ","","exp-sent","Agora","","",""
"","1109","html-keyboard-response","77","241294","0.0-3.0-1.49","<span style=""font-size:30px; font-family: monospace"">a</span>"," ","","exp-sent","a","","",""
"","997","html-keyboard-response","78","242542","0.0-3.0-1.50","<span style=""font-size:30px; font-family: monospace"">minha</span>"," ","","exp-sent","minha","","",""
"","1877","html-keyboard-response","79","244670","0.0-3.0-1.51","<span style=""font-size:30px; font-family: monospace"">única</span>"," ","","exp-sent","única","","",""
"","1589","html-keyboard-response","80","246510","0.0-3.0-1.52","<span style=""font-size:30px; font-family: monospace"">preocupação</span>"," ","","exp-sent","preocupação","","",""
"","1061","html-keyboard-response","81","247822","0.0-3.0-1.53","<span style=""font-size:30px; font-family: monospace"">é</span>"," ","","exp-sent","é","","",""
"","933","html-keyboard-response","82","249006","0.0-3.0-1.54","<span style=""font-size:30px; font-family: monospace"">um</span>"," ","","exp-sent","um","","",""
"","2326","html-keyboard-response","83","251582","0.0-3.0-1.55","<span style=""font-size:30px; font-family: monospace"">descanso</span>"," ","","exp-sent","descanso","","",""
"","1844","html-keyboard-response","84","253678","0.0-3.0-1.56","<span style=""font-size:30px; font-family: monospace"">tranquilo.</span>"," ","","exp-sent","tranquilo.","","",""
"","null","html-keyboard-response","85","254940","0.0-3.0-0.57-0.57","<span style= ""font-size:30px; font-family: monospace"">+</span>","null","fixation","","","","",""
"","598","html-keyboard-response","86","255790","0.0-3.0-1.57","<span style=""font-size:30px; font-family: monospace"">A</span>"," ","","exp-sent","A","","",""
"","1428","html-keyboard-response","87","257470","0.0-3.0-1.58","<span style=""font-size:30px; font-family: monospace"">criança</span>"," ","","exp-sent","criança","","",""
"","2565","html-keyboard-response","88","260286","0.0-3.0-1.59","<span style=""font-size:30px; font-family: monospace"">ganhou</span>"," ","","exp-sent","ganhou","","",""
"","885","html-keyboard-response","89","261422","0.0-3.0-1.60","<span style=""font-size:30px; font-family: monospace"">um</span>"," ","","exp-sent","um","","",""
"","1621","html-keyboard-response","90","263294","0.0-3.0-1.61","<span style=""font-size:30px; font-family: monospace"">presente</span>"," ","","exp-sent","presente","","",""
"","3397","html-keyboard-response","91","266942","0.0-3.0-1.62","<span style=""font-size:30px; font-family: monospace"">maravilhoso.</span>"," ","","exp-sent","maravilhoso.","","",""
"","null","html-keyboard-response","92","268194","0.0-3.0-0.63-0.63","<span style= ""font-size:30px; font-family: monospace"">+</span>","null","fixation","","","","",""
"","897","html-keyboard-response","93","269342","0.0-3.0-1.63","<span style=""font-size:30px; font-family: monospace"">Os</span>"," ","","exp-sent","Os","","",""
"","2036","html-keyboard-response","94","271630","0.0-3.0-1.64","<span style=""font-size:30px; font-family: monospace"">bichos</span>"," ","","exp-sent","bichos","","",""
"","1157","html-keyboard-response","95","273038","0.0-3.0-1.65","<span style=""font-size:30px; font-family: monospace"">têm</span>"," ","","exp-sent","têm","","",""
"","2038","html-keyboard-response","96","275326","0.0-3.0-1.66","<span style=""font-size:30px; font-family: monospace"">um</span>"," ","","exp-sent","um","","",""
"","1525","html-keyboard-response","97","277102","0.0-3.0-1.67","<span style=""font-size:30px; font-family: monospace"">instinto</span>"," ","","exp-sent","instinto","","",""
"","788","html-keyboard-response","98","278142","0.0-3.0-1.68","<span style=""font-size:30px; font-family: monospace"">de</span>"," ","","exp-sent","de","","",""
"","2724","html-keyboard-response","99","281118","0.0-3.0-1.69","<span style=""font-size:30px; font-family: monospace"">sobrevivência</span>"," ","","exp-sent","sobrevivência","","",""
"","1199","html-keyboard-response","100","282574","0.0-3.0-1.70","<span style=""font-size:30px; font-family: monospace"">forte.</span>"," ","","exp-sent","forte.","","",""
"","null","html-keyboard-response","101","283825","0.0-3.0-0.71-0.71","<span style= ""font-size:30px; font-family: monospace"">+</span>","null","fixation","","","","",""
"","1891","html-keyboard-response","102","285982","0.0-3.0-1.71","<span style=""font-size:30px; font-family: monospace"">Aquele</span>"," ","","exp-sent","Aquele","","",""
"","2756","html-keyboard-response","103","288990","0.0-3.0-1.72","<span style=""font-size:30px; font-family: monospace"">menino</span>"," ","","exp-sent","menino","","",""
"","1429","html-keyboard-response","104","290670","0.0-3.0-1.73","<span style=""font-size:30px; font-family: monospace"">alto</span>"," ","","exp-sent","alto","","",""
"","1174","html-keyboard-response","105","292094","0.0-3.0-1.74","<span style=""font-size:30px; font-family: monospace"">é</span>"," ","","exp-sent","é","","",""
"","2117","html-keyboard-response","106","294462","0.0-3.0-1.75","<span style=""font-size:30px; font-family: monospace"">exibido</span>"," ","","exp-sent","exibido","","",""
"","1253","html-keyboard-response","107","295966","0.0-3.0-1.76","<span style=""font-size:30px; font-family: monospace"">e</span>"," ","","exp-sent","e","","",""
"","2917","html-keyboard-response","108","299134","0.0-3.0-1.77","<span style=""font-size:30px; font-family: monospace"">sovina.</span>"," ","","comp","sovina.","","",""
"","7877","html-keyboard-response","109","307262","0.0-3.0-2.77-0.77","<span style=""font-size:30px; font-family: monospace"">Aquele menino é humilde?</span>","s","","comp","","Aquele menino é humilde?","não","false"
"","null","html-keyboard-response","110","308764","0.0-3.0-0.78-0.78","<span style= ""font-size:30px; font-family: monospace"">+</span>","null","fixation","","","","",""
"","3430","html-keyboard-response","111","312446","0.0-3.0-1.78","<span style=""font-size:30px; font-family: monospace"">Ganhamos</span>"," ","","exp-sent","Ganhamos","","",""
"","2021","html-keyboard-response","112","314718","0.0-3.0-1.79","<span style=""font-size:30px; font-family: monospace"">passagem</span>"," ","","exp-sent","passagem","","",""
"","1669","html-keyboard-response","113","316638","0.0-3.0-1.80","<span style=""font-size:30px; font-family: monospace"">para</span>"," ","","exp-sent","para","","",""
"","1717","html-keyboard-response","114","318606","0.0-3.0-1.81","<span style=""font-size:30px; font-family: monospace"">uma</span>"," ","","exp-sent","uma","","",""
"","1525","html-keyboard-response","115","320382","0.0-3.0-1.82","<span style=""font-size:30px; font-family: monospace"">viagem</span>"," ","","exp-sent","viagem","","",""
"","1012","html-keyboard-response","116","321646","0.0-3.0-1.83","<span style=""font-size:30px; font-family: monospace"">de</span>"," ","","exp-sent","de","","",""
"","2885","html-keyboard-response","117","324782","0.0-3.0-1.84","<span style=""font-size:30px; font-family: monospace"">férias.</span>"," ","","exp-sent","férias.","","",""
"","null","html-keyboard-response","118","326034","0.0-3.0-0.85-0.85","<span style= ""font-size:30px; font-family: monospace"">+</span>","null","fixation","","","","",""
"","1873","html-keyboard-response","119","328158","0.0-3.0-1.85","<span style=""font-size:30px; font-family: monospace"">Caiu</span>"," ","","exp-sent","Caiu","","",""
"","1221","html-keyboard-response","120","329630","0.0-3.0-1.86","<span style=""font-size:30px; font-family: monospace"">algo</span>"," ","","exp-sent","algo","","",""
"","885","html-keyboard-response","121","330766","0.0-3.0-1.87","<span style=""font-size:30px; font-family: monospace"">no</span>"," ","","exp-sent","no","","",""
"","997","html-keyboard-response","122","332014","0.0-3.0-1.88","<span style=""font-size:30px; font-family: monospace"">meu</span>"," ","","exp-sent","meu","","",""
"","1045","html-keyboard-response","123","333310","0.0-3.0-1.89","<span style=""font-size:30px; font-family: monospace"">olho</span>"," ","","exp-sent","olho","","",""
"","2373","html-keyboard-response","124","335934","0.0-3.0-1.90","<span style=""font-size:30px; font-family: monospace"">ontem</span>"," ","","exp-sent","ontem","","",""
"","1078","html-keyboard-response","125","337262","0.0-3.0-1.91","<span style=""font-size:30px; font-family: monospace"">de</span>"," ","","exp-sent","de","","",""
"","2676","html-keyboard-response","126","340190","0.0-3.0-1.92","<span style=""font-size:30px; font-family: monospace"">tarde.</span>"," ","","exp-sent","tarde.","","",""
"","null","html-keyboard-response","127","341442","0.0-3.0-0.93-0.93","<span style= ""font-size:30px; font-family: monospace"">+</span>","null","fixation","","","","",""
"","1329","html-keyboard-response","128","343022","0.0-3.0-1.93","<span style=""font-size:30px; font-family: monospace"">Não</span>"," ","","exp-sent","Não","","",""
"","1492","html-keyboard-response","129","344766","0.0-3.0-1.94","<span style=""font-size:30px; font-family: monospace"">havia</span>"," ","","exp-sent","havia","","",""
"","1173","html-keyboard-response","130","346190","0.0-3.0-1.95","<span style=""font-size:30px; font-family: monospace"">mais</span>"," ","","exp-sent","mais","","",""
"","1814","html-keyboard-response","131","348254","0.0-3.0-1.96","<span style=""font-size:30px; font-family: monospace"">nenhum</span>"," ","","exp-sent","nenhum","","",""
"","1733","html-keyboard-response","132","350238","0.0-3.0-1.97","<span style=""font-size:30px; font-family: monospace"">ingresso</span>"," ","","exp-sent","ingresso","","",""
"","1029","html-keyboard-response","133","351518","0.0-3.0-1.98","<span style=""font-size:30px; font-family: monospace"">para</span>"," ","","exp-sent","para","","",""
"","917","html-keyboard-response","134","352686","0.0-3.0-1.99","<span style=""font-size:30px; font-family: monospace"">o</span>"," ","","exp-sent","o","","",""
"","1717","html-keyboard-response","135","354654","0.0-3.0-1.100","<span style=""font-size:30px; font-family: monospace"">evento.</span>"," ","","exp-sent","evento.","","",""
"","null","html-keyboard-response","136","355905","0.0-3.0-0.101-0.101","<span style= ""font-size:30px; font-family: monospace"">+</span>","null","fixation","","","","",""
"","673","html-keyboard-response","137","356830","0.0-3.0-1.101","<span style=""font-size:30px; font-family: monospace"">A</span>"," ","","exp-sent","A","","",""
"","1182","html-keyboard-response","138","358269","0.0-3.0-1.102","<span style=""font-size:30px; font-family: monospace"">médica</span>"," ","","exp-sent","médica","","",""
"","2821","html-keyboard-response","139","361342","0.0-3.0-1.103","<span style=""font-size:30px; font-family: monospace"">descobriu</span>"," ","","exp-sent","descobriu","","",""
"","1092","html-keyboard-response","140","362686","0.0-3.0-1.104","<span style=""font-size:30px; font-family: monospace"">uma</span>"," ","","exp-sent","uma","","",""
"","2245","html-keyboard-response","141","365182","0.0-3.0-1.105","<span style=""font-size:30px; font-family: monospace"">cura</span>"," ","","exp-sent","cura","","",""
"","1060","html-keyboard-response","142","366494","0.0-3.0-1.106","<span style=""font-size:30px; font-family: monospace"">para</span>"," ","","exp-sent","para","","",""
"","1173","html-keyboard-response","143","367918","0.0-3.0-1.107","<span style=""font-size:30px; font-family: monospace"">a</span>"," ","","exp-sent","a","","",""
"","1823","html-keyboard-response","144","369998","0.0-3.0-1.108","<span style=""font-size:30px; font-family: monospace"">doença.</span>"," ","","exp-sent","doença.","","",""
"","null","html-keyboard-response","145","371249","0.0-3.0-0.109-0.109","<span style= ""font-size:30px; font-family: monospace"">+</span>","null","fixation","","","","",""
"","562","html-keyboard-response","146","372062","0.0-3.0-1.109","<span style=""font-size:30px; font-family: monospace"">O</span>"," ","","exp-sent","O","","",""
"","1605","html-keyboard-response","147","373918","0.0-3.0-1.110","<span style=""font-size:30px; font-family: monospace"">menino</span>"," ","","exp-sent","menino","","",""
"","2533","html-keyboard-response","148","376702","0.0-3.0-1.111","<span style=""font-size:30px; font-family: monospace"">riscou</span>"," ","","exp-sent","riscou","","",""
"","1108","html-keyboard-response","149","378062","0.0-3.0-1.112","<span style=""font-size:30px; font-family: monospace"">o</span>"," ","","exp-sent","o","","",""
"","2005","html-keyboard-response","150","380318","0.0-3.0-1.113","<span style=""font-size:30px; font-family: monospace"">caderno</span>"," ","","exp-sent","caderno","","",""
"","1237","html-keyboard-response","151","381805","0.0-3.0-1.114","<span style=""font-size:30px; font-family: monospace"">com</span>"," ","","exp-sent","com","","",""
"","1605","html-keyboard-response","152","383662","0.0-3.0-1.115","<span style=""font-size:30px; font-family: monospace"">a</span>"," ","","exp-sent","a","","",""
"","2789","html-keyboard-response","153","386702","0.0-3.0-1.116","<span style=""font-size:30px; font-family: monospace"">caneta.</span>"," ","","comp","caneta.","","",""
"","8485","html-keyboard-response","154","395438","0.0-3.0-2.116-0.116","<span style=""font-size:30px; font-family: monospace"">O menino riscou a parede com a caneta?</span>","s","","comp","","O menino riscou a parede com a caneta?","não","false"
"","null","html-keyboard-response","155","396939","0.0-3.0-0.117-0.117","<span style= ""font-size:30px; font-family: monospace"">+</span>","null","fixation","","","","",""
"","1959","html-keyboard-response","156","399150","0.0-3.0-1.117","<span style=""font-size:30px; font-family: monospace"">Ursos</span>"," ","","exp-sent","Ursos","","",""
"","1509","html-keyboard-response","157","400910","0.0-3.0-1.118","<span style=""font-size:30px; font-family: monospace"">têm</span>"," ","","exp-sent","têm","","",""
"","1373","html-keyboard-response","158","402542","0.0-3.0-1.119","<span style=""font-size:30px; font-family: monospace"">uma</span>"," ","","exp-sent","uma","","",""
"","3845","html-keyboard-response","159","406638","0.0-3.0-1.120","<span style=""font-size:30px; font-family: monospace"">patada</span>"," ","","exp-sent","patada","","",""
"","2229","html-keyboard-response","160","409118","0.0-3.0-1.121","<span style=""font-size:30px; font-family: monospace"">brutal</span>"," ","","exp-sent","brutal","","",""
"","1525","html-keyboard-response","161","410894","0.0-3.0-1.122","<span style=""font-size:30px; font-family: monospace"">e</span>"," ","","exp-sent","e","","",""
"","5797","html-keyboard-response","162","416942","0.0-3.0-1.123","<span style=""font-size:30px; font-family: monospace"">poderosa.</span>"," ","","exp-sent","poderosa.","","",""
"","null","html-keyboard-response","163","418194","0.0-3.0-0.124-0.124","<span style= ""font-size:30px; font-family: monospace"">+</span>","null","fixation","","","","",""
"","977","html-keyboard-response","164","419422","0.0-3.0-1.124","<span style=""font-size:30px; font-family: monospace"">Eu</span>"," ","","exp-sent","Eu","","",""
"","1396","html-keyboard-response","165","421070","0.0-3.0-1.125","<span style=""font-size:30px; font-family: monospace"">fiz</span>"," ","","exp-sent","fiz","","",""
"","3317","html-keyboard-response","166","424638","0.0-3.0-1.126","<span style=""font-size:30px; font-family: monospace"">aulas</span>"," ","","exp-sent","aulas","","",""
"","1205","html-keyboard-response","167","426093","0.0-3.0-1.127","<span style=""font-size:30px; font-family: monospace"">de</span>"," ","","exp-sent","de","","",""
"","2454","html-keyboard-response","168","428798","0.0-3.0-1.128","<span style=""font-size:30px; font-family: monospace"">espanhol</span>"," ","","exp-sent","espanhol","","",""
"","1556","html-keyboard-response","169","430606","0.0-3.0-1.129","<span style=""font-size:30px; font-family: monospace"">nesta</span>"," ","","exp-sent","nesta","","",""
"","2116","html-keyboard-response","170","432973","0.0-3.0-1.130","<span style=""font-size:30px; font-family: monospace"">cidade.</span>"," ","","exp-sent","cidade.","","",""
"","null","html-keyboard-response","171","434225","0.0-3.0-0.131-0.131","<span style= ""font-size:30px; font-family: monospace"">+</span>","null","fixation","","","","",""
"","1009","html-keyboard-response","172","435486","0.0-3.0-1.131","<span style=""font-size:30px; font-family: monospace"">Ele</span>"," ","","exp-sent","Ele","","",""
"","1509","html-keyboard-response","173","437246","0.0-3.0-1.132","<span style=""font-size:30px; font-family: monospace"">comprou</span>"," ","","exp-sent","comprou","","",""
"","1269","html-keyboard-response","174","438766","0.0-3.0-1.133","<span style=""font-size:30px; font-family: monospace"">mais</span>"," ","","exp-sent","mais","","",""
"","1221","html-keyboard-response","175","440238","0.0-3.0-1.134","<span style=""font-size:30px; font-family: monospace"">uma</span>"," ","","exp-sent","uma","","",""
"","2789","html-keyboard-response","176","443278","0.0-3.0-1.135","<span style=""font-size:30px; font-family: monospace"">esponja</span>"," ","","exp-sent","esponja","","",""
"","1285","html-keyboard-response","177","444814","0.0-3.0-1.136","<span style=""font-size:30px; font-family: monospace"">para</span>"," ","","exp-sent","para","","",""
"","1029","html-keyboard-response","178","446094","0.0-3.0-1.137","<span style=""font-size:30px; font-family: monospace"">a</span>"," ","","exp-sent","a","","",""
"","1893","html-keyboard-response","179","448238","0.0-3.0-1.138","<span style=""font-size:30px; font-family: monospace"">cozinha.</span>"," ","","exp-sent","cozinha.","","",""
"","null","html-keyboard-response","180","449491","0.0-3.0-0.139-0.139","<span style= ""font-size:30px; font-family: monospace"">+</span>","null","fixation","","","","",""
"","1072","html-keyboard-response","181","450814","0.0-3.0-1.139","<span style=""font-size:30px; font-family: monospace"">Ele</span>"," ","","exp-sent","Ele","","",""
"","1973","html-keyboard-response","182","453038","0.0-3.0-1.140","<span style=""font-size:30px; font-family: monospace"">teve</span>"," ","","exp-sent","teve","","",""
"","933","html-keyboard-response","183","454222","0.0-3.0-1.141","<span style=""font-size:30px; font-family: monospace"">um</span>"," ","","exp-sent","um","","",""
"","2613","html-keyboard-response","184","457086","0.0-3.0-1.142","<span style=""font-size:30px; font-family: monospace"">sono</span>"," ","","exp-sent","sono","","",""
"","2741","html-keyboard-response","185","460078","0.0-3.0-1.143","<span style=""font-size:30px; font-family: monospace"">bizarro</span>"," ","","exp-sent","bizarro","","",""
"","1957","html-keyboard-response","186","462286","0.0-3.0-1.144","<span style=""font-size:30px; font-family: monospace"">sem</span>"," ","","exp-sent","sem","","",""
"","1973","html-keyboard-response","187","464510","0.0-3.0-1.145","<span style=""font-size:30px; font-family: monospace"">nenhum</span>"," ","","exp-sent","nenhum","","",""
"","1668","html-keyboard-response","188","466430","0.0-3.0-1.146","<span style=""font-size:30px; font-family: monospace"">motivo.</span>"," ","","exp-sent","motivo.","","",""
"","null","html-keyboard-response","189","467681","0.0-3.0-0.147-0.147","<span style= ""font-size:30px; font-family: monospace"">+</span>","null","fixation","","","","",""
"","560","html-keyboard-response","190","468493","0.0-3.0-1.147","<span style=""font-size:30px; font-family: monospace"">A</span>"," ","","exp-sent","A","","",""
"","1925","html-keyboard-response","191","470669","0.0-3.0-1.148","<span style=""font-size:30px; font-family: monospace"">moça</span>"," ","","exp-sent","moça","","",""
"","1333","html-keyboard-response","192","472253","0.0-3.0-1.149","<span style=""font-size:30px; font-family: monospace"">comprou</span>"," ","","exp-sent","comprou","","",""
"","1046","html-keyboard-response","193","473550","0.0-3.0-1.150","<span style=""font-size:30px; font-family: monospace"">um</span>"," ","","exp-sent","um","","",""
"","2021","html-keyboard-response","194","475821","0.0-3.0-1.151","<span style=""font-size:30px; font-family: monospace"">diamante</span>"," ","","exp-sent","diamante","","",""
"","1252","html-keyboard-response","195","477325","0.0-3.0-1.152","<span style=""font-size:30px; font-family: monospace"">para</span>"," ","","exp-sent","para","","",""
"","1301","html-keyboard-response","196","478877","0.0-3.0-1.153","<span style=""font-size:30px; font-family: monospace"">sua</span>"," ","","exp-sent","sua","","",""
"","2101","html-keyboard-response","197","481229","0.0-3.0-1.154","<span style=""font-size:30px; font-family: monospace"">prima.</span>"," ","","comp","prima.","","",""
"","10357","html-keyboard-response","198","491838","0.0-3.0-2.154-0.154","<span style=""font-size:30px; font-family: monospace"">A moça comprou um diamante?</span>","s","","comp","","A moça comprou um diamante?","sim","false"
"","null","html-keyboard-response","199","493340","0.0-3.0-0.155-0.155","<span style= ""font-size:30px; font-family: monospace"">+</span>","null","fixation","","","","",""
"","1527","html-keyboard-response","200","495118","0.0-3.0-1.155","<span style=""font-size:30px; font-family: monospace"">A</span>"," ","","exp-sent","A","","",""
"","2052","html-keyboard-response","201","497421","0.0-3.0-1.156","<span style=""font-size:30px; font-family: monospace"">motorista</span>"," ","","exp-sent","motorista","","",""
"","2837","html-keyboard-response","202","500509","0.0-3.0-1.157","<span style=""font-size:30px; font-family: monospace"">fez</span>"," ","","exp-sent","fez","","",""
"","1462","html-keyboard-response","203","502222","0.0-3.0-1.158","<span style=""font-size:30px; font-family: monospace"">o</span>"," ","","exp-sent","o","","",""
"","3748","html-keyboard-response","204","506222","0.0-3.0-1.159","<span style=""font-size:30px; font-family: monospace"">retorno</span>"," ","","exp-sent","retorno","","",""
"","1925","html-keyboard-response","205","508398","0.0-3.0-1.160","<span style=""font-size:30px; font-family: monospace"">com</span>"," ","","exp-sent","com","","",""
"","2581","html-keyboard-response","206","511229","0.0-3.0-1.161","<span style=""font-size:30px; font-family: monospace"">cuidado.</span>"," ","","exp-sent","cuidado.","","",""
"","null","html-keyboard-response","207","512481","0.0-3.0-0.162-0.162","<span style= ""font-size:30px; font-family: monospace"">+</span>","null","fixation","","","","",""
"","3698","html-keyboard-response","208","516430","0.0-3.0-1.162","<span style=""font-size:30px; font-family: monospace"">Contos</span>"," ","","exp-sent","Contos","","",""
"","2180","html-keyboard-response","209","518861","0.0-3.0-1.163","<span style=""font-size:30px; font-family: monospace"">de</span>"," ","","exp-sent","de","","",""
"","2660","html-keyboard-response","210","521773","0.0-3.0-1.164","<span style=""font-size:30px; font-family: monospace"">ação</span>"," ","","exp-sent","ação","","",""
"","1333","html-keyboard-response","211","523357","0.0-3.0-1.165","<span style=""font-size:30px; font-family: monospace"">têm</span>"," ","","exp-sent","têm","","",""
"","2309","html-keyboard-response","212","525917","0.0-3.0-1.166","<span style=""font-size:30px; font-family: monospace"">chantagem</span>"," ","","exp-sent","chantagem","","",""
"","1429","html-keyboard-response","213","527598","0.0-3.0-1.167","<span style=""font-size:30px; font-family: monospace"">e</span>"," ","","exp-sent","e","","",""
"","1652","html-keyboard-response","214","529502","0.0-3.0-1.168","<span style=""font-size:30px; font-family: monospace"">muita</span>"," ","","exp-sent","muita","","",""
"","2181","html-keyboard-response","215","531933","0.0-3.0-1.169","<span style=""font-size:30px; font-family: monospace"">luta.</span>"," ","","exp-sent","luta.","","",""
"","null","html-keyboard-response","216","533185","0.0-3.0-0.170-0.170","<span style= ""font-size:30px; font-family: monospace"">+</span>","null","fixation","","","","",""
"","1393","html-keyboard-response","217","534829","0.0-3.0-1.170","<span style=""font-size:30px; font-family: monospace"">A</span>"," ","","exp-sent","A","","",""
"","2757","html-keyboard-response","218","537837","0.0-3.0-1.171","<span style=""font-size:30px; font-family: monospace"">bisavó</span>"," ","","exp-sent","bisavó","","",""
"","2501","html-keyboard-response","219","540589","0.0-3.0-1.172","<span style=""font-size:30px; font-family: monospace"">recebeu</span>"," ","","exp-sent","recebeu","","",""
"","1445","html-keyboard-response","220","542285","0.0-3.0-1.173","<span style=""font-size:30px; font-family: monospace"">um</span>"," ","","exp-sent","um","","",""
"","1989","html-keyboard-response","221","544525","0.0-3.0-1.174","<span style=""font-size:30px; font-family: monospace"">benefício</span>"," ","","exp-sent","benefício","","",""
"","2341","html-keyboard-response","222","547117","0.0-3.0-1.175","<span style=""font-size:30px; font-family: monospace"">temporário</span>"," ","","exp-sent","temporário","","",""
"","1509","html-keyboard-response","223","548878","0.0-3.0-1.176","<span style=""font-size:30px; font-family: monospace"">do</span>"," ","","exp-sent","do","","",""
"","2933","html-keyboard-response","224","552061","0.0-3.0-1.177","<span style=""font-size:30px; font-family: monospace"">governo.</span>"," ","","exp-sent","governo.","","",""
"","null","html-keyboard-response","225","553313","0.0-3.0-0.178-0.178","<span style= ""font-size:30px; font-family: monospace"">+</span>","null","fixation","","","","",""
"","1249","html-keyboard-response","226","554813","0.0-3.0-1.178","<span style=""font-size:30px; font-family: monospace"">As</span>"," ","","exp-sent","As","","",""
"","2117","html-keyboard-response","227","557181","0.0-3.0-1.179","<span style=""font-size:30px; font-family: monospace"">crianças</span>"," ","","exp-sent","crianças","","",""
"","4453","html-keyboard-response","228","561885","0.0-3.0-1.180","<span style=""font-size:30px; font-family: monospace"">brincaram</span>"," ","","exp-sent","brincaram","","",""
"","1109","html-keyboard-response","229","563245","0.0-3.0-1.181","<span style=""font-size:30px; font-family: monospace"">no</span>"," ","","exp-sent","no","","",""
"","1973","html-keyboard-response","230","565469","0.0-3.0-1.182","<span style=""font-size:30px; font-family: monospace"">balanço</span>"," ","","exp-sent","balanço","","",""
"","1093","html-keyboard-response","231","566813","0.0-3.0-1.183","<span style=""font-size:30px; font-family: monospace"">a</span>"," ","","exp-sent","a","","",""
"","2469","html-keyboard-response","232","569533","0.0-3.0-1.184","<span style=""font-size:30px; font-family: monospace"">tarde</span>"," ","","exp-sent","tarde","","",""
"","1429","html-keyboard-response","233","571213","0.0-3.0-1.185","<span style=""font-size:30px; font-family: monospace"">toda.</span>"," ","","exp-sent","toda.","","",""
"","null","html-keyboard-response","234","572465","0.0-3.0-0.186-0.186","<span style= ""font-size:30px; font-family: monospace"">+</span>","null","fixation","","","","",""
"","1169","html-keyboard-response","235","573886","0.0-3.0-1.186","<span style=""font-size:30px; font-family: monospace"">Ela</span>"," ","","exp-sent","Ela","","",""
"","2437","html-keyboard-response","236","576573","0.0-3.0-1.187","<span style=""font-size:30px; font-family: monospace"">gosta</span>"," ","","exp-sent","gosta","","",""
"","1221","html-keyboard-response","237","578045","0.0-3.0-1.188","<span style=""font-size:30px; font-family: monospace"">de</span>"," ","","exp-sent","de","","",""
"","3877","html-keyboard-response","238","582173","0.0-3.0-1.189","<span style=""font-size:30px; font-family: monospace"">comida</span>"," ","","exp-sent","comida","","",""
"","2453","html-keyboard-response","239","584877","0.0-3.0-1.190","<span style=""font-size:30px; font-family: monospace"">natural</span>"," ","","exp-sent","natural","","",""
"","1269","html-keyboard-response","240","586397","0.0-3.0-1.191","<span style=""font-size:30px; font-family: monospace"">no</span>"," ","","exp-sent","no","","",""
"","2709","html-keyboard-response","241","589357","0.0-3.0-1.192","<span style=""font-size:30px; font-family: monospace"">almoço.</span>"," ","","comp","almoço.","","",""
"","5829","html-keyboard-response","242","595437","0.0-3.0-2.192-0.192","<span style=""font-size:30px; font-family: monospace"">Ela gosta de comida natural no almoço?</span>","s","","comp","","Ela gosta de comida natural no almoço?","sim","false"
"","null","html-keyboard-response","243","596940","0.0-3.0-0.193-0.193","<span style= ""font-size:30px; font-family: monospace"">+</span>","null","fixation","","","","",""
"","1095","html-keyboard-response","244","598285","0.0-3.0-1.193","<span style=""font-size:30px; font-family: monospace"">O</span>"," ","","exp-sent","O","","",""
"","2997","html-keyboard-response","245","601533","0.0-3.0-1.194","<span style=""font-size:30px; font-family: monospace"">travesseiro</span>"," ","","exp-sent","travesseiro","","",""
"","1637","html-keyboard-response","246","603421","0.0-3.0-1.195","<span style=""font-size:30px; font-family: monospace"">era</span>"," ","","exp-sent","era","","",""
"","1493","html-keyboard-response","247","605165","0.0-3.0-1.196","<span style=""font-size:30px; font-family: monospace"">muito</span>"," ","","exp-sent","muito","","",""
"","3877","html-keyboard-response","248","609293","0.0-3.0-1.197","<span style=""font-size:30px; font-family: monospace"">macio</span>"," ","","exp-sent","macio","","",""
"","1189","html-keyboard-response","249","610733","0.0-3.0-1.198","<span style=""font-size:30px; font-family: monospace"">e</span>"," ","","exp-sent","e","","",""
"","3093","html-keyboard-response","250","614077","0.0-3.0-1.199","<span style=""font-size:30px; font-family: monospace"">confortável.</span>"," ","","exp-sent","confortável.","","",""
"","null","html-keyboard-response","251","615329","0.0-3.0-0.200-0.200","<span style= ""font-size:30px; font-family: monospace"">+</span>","null","fixation","","","","",""
"","1233","html-keyboard-response","252","616813","0.0-3.0-1.200","<span style=""font-size:30px; font-family: monospace"">Hoje</span>"," ","","exp-sent","Hoje","","",""
"","1028","html-keyboard-response","253","618093","0.0-3.0-1.201","<span style=""font-size:30px; font-family: monospace"">a</span>"," ","","exp-sent","a","","",""
"","3589","html-keyboard-response","254","621933","0.0-3.0-1.202","<span style=""font-size:30px; font-family: monospace"">atendente</span>"," ","","exp-sent","atendente","","",""
"","1445","html-keyboard-response","255","623629","0.0-3.0-1.203","<span style=""font-size:30px; font-family: monospace"">estava</span>"," ","","exp-sent","estava","","",""
"","1925","html-keyboard-response","256","625805","0.0-3.0-1.204","<span style=""font-size:30px; font-family: monospace"">furiosa</span>"," ","","exp-sent","furiosa","","",""
"","918","html-keyboard-response","257","626973","0.0-3.0-1.205","<span style=""font-size:30px; font-family: monospace"">com</span>"," ","","exp-sent","com","","",""
"","1173","html-keyboard-response","258","628397","0.0-3.0-1.206","<span style=""font-size:30px; font-family: monospace"">o</span>"," ","","exp-sent","o","","",""
"","2021","html-keyboard-response","259","630669","0.0-3.0-1.207","<span style=""font-size:30px; font-family: monospace"">cliente.</span>"," ","","exp-sent","cliente.","","",""
"","null","html-keyboard-response","260","631923","0.0-3.0-0.208-0.208","<span style= ""font-size:30px; font-family: monospace"">+</span>","null","fixation","","","","",""
"","976","html-keyboard-response","261","633149","0.0-3.0-1.208","<span style=""font-size:30px; font-family: monospace"">O</span>"," ","","exp-sent","O","","",""
"","2117","html-keyboard-response","262","635517","0.0-3.0-1.209","<span style=""font-size:30px; font-family: monospace"">vizinho</span>"," ","","exp-sent","vizinho","","",""
"","1269","html-keyboard-response","263","637037","0.0-3.0-1.210","<span style=""font-size:30px; font-family: monospace"">é</span>"," ","","exp-sent","é","","",""
"","1173","html-keyboard-response","264","638461","0.0-3.0-1.211","<span style=""font-size:30px; font-family: monospace"">um</span>"," ","","exp-sent","um","","",""
"","4900","html-keyboard-response","265","643613","0.0-3.0-1.212","<span style=""font-size:30px; font-family: monospace"">arquiteto</span>"," ","","exp-sent","arquiteto","","",""
"","1653","html-keyboard-response","266","645517","0.0-3.0-1.213","<span style=""font-size:30px; font-family: monospace"">muito</span>"," ","","exp-sent","muito","","",""
"","3684","html-keyboard-response","267","649453","0.0-3.0-1.214","<span style=""font-size:30px; font-family: monospace"">excêntrico.</span>"," ","","exp-sent","excêntrico.","","",""
"","null","html-keyboard-response","268","650705","0.0-3.0-0.215-0.215","<span style= ""font-size:30px; font-family: monospace"">+</span>","null","fixation","","","","",""
"","785","html-keyboard-response","269","651741","0.0-3.0-1.215","<span style=""font-size:30px; font-family: monospace"">A</span>"," ","","exp-sent","A","","",""
"","1733","html-keyboard-response","270","653726","0.0-3.0-1.216","<span style=""font-size:30px; font-family: monospace"">nossa</span>"," ","","exp-sent","nossa","","",""
"","3973","html-keyboard-response","271","657949","0.0-3.0-1.217","<span style=""font-size:30px; font-family: monospace"">colega</span>"," ","","exp-sent","colega","","",""
"","1190","html-keyboard-response","272","659389","0.0-3.0-1.218","<span style=""font-size:30px; font-family: monospace"">foi</span>"," ","","exp-sent","foi","","",""
"","2197","html-keyboard-response","273","661837","0.0-3.0-1.219","<span style=""font-size:30px; font-family: monospace"">má</span>"," ","","exp-sent","má","","",""
"","949","html-keyboard-response","274","663037","0.0-3.0-1.220","<span style=""font-size:30px; font-family: monospace"">com</span>"," ","","exp-sent","com","","",""
"","1269","html-keyboard-response","275","664557","0.0-3.0-1.221","<span style=""font-size:30px; font-family: monospace"">as</span>"," ","","exp-sent","as","","",""
"","2581","html-keyboard-response","276","667389","0.0-3.0-1.222","<span style=""font-size:30px; font-family: monospace"">crianças.</span>"," ","","exp-sent","crianças.","","",""
"","null","html-keyboard-response","277","668642","0.0-3.0-0.223-0.223","<span style= ""font-size:30px; font-family: monospace"">+</span>","null","fixation","","","","",""
"","4657","html-keyboard-response","278","673549","0.0-3.0-1.223","<span style=""font-size:30px; font-family: monospace"">Virtudes</span>"," ","","exp-sent","Virtudes","","",""
"","1093","html-keyboard-response","279","674893","0.0-3.0-1.224","<span style=""font-size:30px; font-family: monospace"">não</span>"," ","","exp-sent","não","","",""
"","1349","html-keyboard-response","280","676493","0.0-3.0-1.225","<span style=""font-size:30px; font-family: monospace"">são</span>"," ","","exp-sent","são","","",""
"","3365","html-keyboard-response","281","680109","0.0-3.0-1.226","<span style=""font-size:30px; font-family: monospace"">preguiça,</span>"," ","","exp-sent","preguiça,","","",""
"","1733","html-keyboard-response","282","682093","0.0-3.0-1.227","<span style=""font-size:30px; font-family: monospace"">gula</span>"," ","","exp-sent","gula","","",""
"","2165","html-keyboard-response","283","684509","0.0-3.0-1.228","<span style=""font-size:30px; font-family: monospace"">nem</span>"," ","","exp-sent","nem","","",""
"","3493","html-keyboard-response","284","688253","0.0-3.0-1.229","<span style=""font-size:30px; font-family: monospace"">ganância.</span>"," ","","comp","ganância.","","",""
"","15477","html-keyboard-response","285","703981","0.0-3.0-2.229-0.229","<span style=""font-size:30px; font-family: monospace"">Preguiça é uma virtude?</span>","s","","comp","","Preguiça é uma virtude?","não","false"
"","null","html-keyboard-response","286","705484","0.0-3.0-0.230-0.230","<span style= ""font-size:30px; font-family: monospace"">+</span>","null","fixation","","","","",""
"","1878","html-keyboard-response","287","707613","0.0-3.0-1.230","<span style=""font-size:30px; font-family: monospace"">No</span>"," ","","exp-sent","No","","",""
"","2357","html-keyboard-response","288","710221","0.0-3.0-1.231","<span style=""font-size:30px; font-family: monospace"">passado</span>"," ","","exp-sent","passado","","",""
"","3125","html-keyboard-response","289","713597","0.0-3.0-1.232","<span style=""font-size:30px; font-family: monospace"">houve</span>"," ","","exp-sent","houve","","",""
"","1740","html-keyboard-response","290","715597","0.0-3.0-1.233","<span style=""font-size:30px; font-family: monospace"">uma</span>"," ","","exp-sent","uma","","",""
"","4021","html-keyboard-response","291","719869","0.0-3.0-1.234","<span style=""font-size:30px; font-family: monospace"">rebelião</span>"," ","","exp-sent","rebelião","","",""
"","2101","html-keyboard-response","292","722221","0.0-3.0-1.235","<span style=""font-size:30px; font-family: monospace"">nesta</span>"," ","","exp-sent","nesta","","",""
"","3845","html-keyboard-response","293","726317","0.0-3.0-1.236","<span style=""font-size:30px; font-family: monospace"">cidade.</span>"," ","","exp-sent","cidade.","","",""
"","null","html-keyboard-response","294","727576","0.0-3.0-0.237-0.237","<span style= ""font-size:30px; font-family: monospace"">+</span>","null","fixation","","","","",""
"","1210","html-keyboard-response","295","729037","0.0-3.0-1.237","<span style=""font-size:30px; font-family: monospace"">Ele</span>"," ","","exp-sent","Ele","","",""
"","3526","html-keyboard-response","296","732813","0.0-3.0-1.238","<span style=""font-size:30px; font-family: monospace"">fundou</span>"," ","","exp-sent","fundou","","",""
"","1349","html-keyboard-response","297","734413","0.0-3.0-1.239","<span style=""font-size:30px; font-family: monospace"">uma</span>"," ","","exp-sent","uma","","",""
"","2005","html-keyboard-response","298","736669","0.0-3.0-1.240","<span style=""font-size:30px; font-family: monospace"">empresa</span>"," ","","exp-sent","empresa","","",""
"","1845","html-keyboard-response","299","738765","0.0-3.0-1.241","<span style=""font-size:30px; font-family: monospace"">privada</span>"," ","","exp-sent","privada","","",""
"","1445","html-keyboard-response","300","740461","0.0-3.0-1.242","<span style=""font-size:30px; font-family: monospace"">sem</span>"," ","","exp-sent","sem","","",""
"","1797","html-keyboard-response","301","742509","0.0-3.0-1.243","<span style=""font-size:30px; font-family: monospace"">ajuda.</span>"," ","","exp-sent","ajuda.","","",""
"","null","html-keyboard-response","302","743761","0.0-3.0-0.244-0.244","<span style= ""font-size:30px; font-family: monospace"">+</span>","null","fixation","","","","",""
"","1152","html-keyboard-response","303","745165","0.0-3.0-1.244","<span style=""font-size:30px; font-family: monospace"">As</span>"," ","","exp-sent","As","","",""
"","4406","html-keyboard-response","304","749821","0.0-3.0-1.245","<span style=""font-size:30px; font-family: monospace"">meninas</span>"," ","","exp-sent","meninas","","",""
"","2628","html-keyboard-response","305","752701","0.0-3.0-1.246","<span style=""font-size:30px; font-family: monospace"">encontraram</span>"," ","","exp-sent","encontraram","","",""
"","1524","html-keyboard-response","306","754477","0.0-3.0-1.247","<span style=""font-size:30px; font-family: monospace"">um</span>"," ","","exp-sent","um","","",""
"","1509","html-keyboard-response","307","756237","0.0-3.0-1.248","<span style=""font-size:30px; font-family: monospace"">rato</span>"," ","","exp-sent","rato","","",""
"","1893","html-keyboard-response","308","758381","0.0-3.0-1.249","<span style=""font-size:30px; font-family: monospace"">dentro</span>"," ","","exp-sent","dentro","","",""
"","2869","html-keyboard-response","309","761501","0.0-3.0-1.250","<span style=""font-size:30px; font-family: monospace"">de</span>"," ","","exp-sent","de","","",""
"","2210","html-keyboard-response","310","763965","0.0-3.0-1.251","<span style=""font-size:30px; font-family: monospace"">casa.</span>"," ","","exp-sent","casa.","","",""
"","null","html-keyboard-response","311","765216","0.0-3.0-0.252-0.252","<span style= ""font-size:30px; font-family: monospace"">+</span>","null","fixation","","","","",""
"","1281","html-keyboard-response","312","766749","0.0-3.0-1.252","<span style=""font-size:30px; font-family: monospace"">O</span>"," ","","exp-sent","O","","",""
"","2597","html-keyboard-response","313","769597","0.0-3.0-1.253","<span style=""font-size:30px; font-family: monospace"">texto</span>"," ","","exp-sent","texto","","",""
"","3219","html-keyboard-response","314","773069","0.0-3.0-1.254","<span style=""font-size:30px; font-family: monospace"">tinha</span>"," ","","exp-sent","tinha","","",""
"","2901","html-keyboard-response","315","776221","0.0-3.0-1.255","<span style=""font-size:30px; font-family: monospace"">ideias</span>"," ","","exp-sent","ideias","","",""
"","2485","html-keyboard-response","316","778957","0.0-3.0-1.256","<span style=""font-size:30px; font-family: monospace"">vagas</span>"," ","","exp-sent","vagas","","",""
"","1306","html-keyboard-response","317","780525","0.0-3.0-1.257","<span style=""font-size:30px; font-family: monospace"">e</span>"," ","","exp-sent","e","","",""
"","3461","html-keyboard-response","318","784237","0.0-3.0-1.258","<span style=""font-size:30px; font-family: monospace"">confusas.</span>"," ","","exp-sent","confusas.","","",""
"","null","html-keyboard-response","319","785489","0.0-3.0-0.259-0.259","<span style= ""font-size:30px; font-family: monospace"">+</span>","null","fixation","","","","",""
"","945","html-keyboard-response","320","786685","0.0-3.0-1.259","<span style=""font-size:30px; font-family: monospace"">As</span>"," ","","exp-sent","As","","",""
"","2230","html-keyboard-response","321","789165","0.0-3.0-1.260","<span style=""font-size:30px; font-family: monospace"">crianças</span>"," ","","exp-sent","crianças","","",""
"","1749","html-keyboard-response","322","791165","0.0-3.0-1.261","<span style=""font-size:30px; font-family: monospace"">viram</span>"," ","","exp-sent","viram","","",""
"","2325","html-keyboard-response","323","793741","0.0-3.0-1.262","<span style=""font-size:30px; font-family: monospace"">a</span>"," ","","exp-sent","a","","",""
"","8005","html-keyboard-response","324","801997","0.0-3.0-1.263","<span style=""font-size:30px; font-family: monospace"">acrobata</span>"," ","","exp-sent","acrobata","","",""
"","5205","html-keyboard-response","325","807453","0.0-3.0-1.264","<span style=""font-size:30px; font-family: monospace"">talentosa</span>"," ","","exp-sent","talentosa","","",""
"","997","html-keyboard-response","326","808701","0.0-3.0-1.265","<span style=""font-size:30px; font-family: monospace"">no</span>"," ","","exp-sent","no","","",""
"","3108","html-keyboard-response","327","812061","0.0-3.0-1.266","<span style=""font-size:30px; font-family: monospace"">circo.</span>"," ","","comp","circo.","","",""
"","20133","html-keyboard-response","328","832445","0.0-3.0-2.266-0.266","<span style=""font-size:30px; font-family: monospace"">As crianças viram o palhaço no circo?</span>","s","","comp","","As crianças viram o palhaço no circo?","não","false"
"","null","html-keyboard-response","329","833946","0.0-3.0-0.267-0.267","<span style= ""font-size:30px; font-family: monospace"">+</span>","null","fixation","","","","",""
"","2632","html-keyboard-response","330","836829","0.0-3.0-1.267","<span style=""font-size:30px; font-family: monospace"">Barulho</span>"," ","","exp-sent","Barulho","","",""
"","1461","html-keyboard-response","331","838541","0.0-3.0-1.268","<span style=""font-size:30px; font-family: monospace"">de</span>"," ","","exp-sent","de","","",""
"","2676","html-keyboard-response","332","841469","0.0-3.0-1.269","<span style=""font-size:30px; font-family: monospace"">carros</span>"," ","","exp-sent","carros","","",""
"","1429","html-keyboard-response","333","843149","0.0-3.0-1.270","<span style=""font-size:30px; font-family: monospace"">é</span>"," ","","exp-sent","é","","",""
"","3765","html-keyboard-response","334","847165","0.0-3.0-1.271","<span style=""font-size:30px; font-family: monospace"">irritante</span>"," ","","exp-sent","irritante","","",""
"","2027","html-keyboard-response","335","849453","0.0-3.0-1.272","<span style=""font-size:30px; font-family: monospace"">para</span>"," ","","exp-sent","para","","",""
"","1957","html-keyboard-response","336","851661","0.0-3.0-1.273","<span style=""font-size:30px; font-family: monospace"">a</span>"," ","","exp-sent","a","","",""
"","1973","html-keyboard-response","337","853885","0.0-3.0-1.274","<span style=""font-size:30px; font-family: monospace"">moça.</span>"," ","","exp-sent","moça.","","",""
"","null","html-keyboard-response","338","855137","0.0-3.0-0.275-0.275","<span style= ""font-size:30px; font-family: monospace"">+</span>","null","fixation","","","","",""
"","833","html-keyboard-response","339","856221","0.0-3.0-1.275","<span style=""font-size:30px; font-family: monospace"">A</span>"," ","","exp-sent","A","","",""
"","1780","html-keyboard-response","340","858253","0.0-3.0-1.276","<span style=""font-size:30px; font-family: monospace"">loja</span>"," ","","exp-sent","loja","","",""
"","1877","html-keyboard-response","341","860381","0.0-3.0-1.277","<span style=""font-size:30px; font-family: monospace"">também</span>"," ","","exp-sent","também","","",""
"","1525","html-keyboard-response","342","862157","0.0-3.0-1.278","<span style=""font-size:30px; font-family: monospace"">vende</span>"," ","","exp-sent","vende","","",""
"","2293","html-keyboard-response","343","864701","0.0-3.0-1.279","<span style=""font-size:30px; font-family: monospace"">taça</span>"," ","","exp-sent","taça","","",""
"","1156","html-keyboard-response","344","866109","0.0-3.0-1.280","<span style=""font-size:30px; font-family: monospace"">de</span>"," ","","exp-sent","de","","",""
"","1893","html-keyboard-response","345","868253","0.0-3.0-1.281","<span style=""font-size:30px; font-family: monospace"">vinho</span>"," ","","exp-sent","vinho","","",""
"","1125","html-keyboard-response","346","869629","0.0-3.0-1.282","<span style=""font-size:30px; font-family: monospace"">e</span>"," ","","exp-sent","e","","",""
"","3173","html-keyboard-response","347","873053","0.0-3.0-1.283","<span style=""font-size:30px; font-family: monospace"">espumante.</span>"," ","","exp-sent","espumante.","","",""
"","null","html-keyboard-response","348","874305","0.0-3.0-0.284-0.284","<span style= ""font-size:30px; font-family: monospace"">+</span>","null","fixation","","","","",""
"","689","html-keyboard-response","349","875245","0.0-3.0-1.284","<span style=""font-size:30px; font-family: monospace"">A</span>"," ","","exp-sent","A","","",""
"","2261","html-keyboard-response","350","877757","0.0-3.0-1.285","<span style=""font-size:30px; font-family: monospace"">bruxa</span>"," ","","exp-sent","bruxa","","",""
"","2469","html-keyboard-response","351","880477","0.0-3.0-1.286","<span style=""font-size:30px; font-family: monospace"">tinha</span>"," ","","exp-sent","tinha","","",""
"","1237","html-keyboard-response","352","881965","0.0-3.0-1.287","<span style=""font-size:30px; font-family: monospace"">uma</span>"," ","","exp-sent","uma","","",""
"","2421","html-keyboard-response","353","884637","0.0-3.0-1.288","<span style=""font-size:30px; font-family: monospace"">vassoura</span>"," ","","exp-sent","vassoura","","",""
"","1157","html-keyboard-response","354","886045","0.0-3.0-1.289","<span style=""font-size:30px; font-family: monospace"">e</span>"," ","","exp-sent","e","","",""
"","1093","html-keyboard-response","355","887389","0.0-3.0-1.290","<span style=""font-size:30px; font-family: monospace"">um</span>"," ","","exp-sent","um","","",""
"","1988","html-keyboard-response","356","889629","0.0-3.0-1.291","<span style=""font-size:30px; font-family: monospace"">gato.</span>"," ","","exp-sent","gato.","","",""
"","null","html-keyboard-response","357","890881","0.0-3.0-0.292-0.292","<span style= ""font-size:30px; font-family: monospace"">+</span>","null","fixation","","","","",""
"","753","html-keyboard-response","358","891885","0.0-3.0-1.292","<span style=""font-size:30px; font-family: monospace"">Eu</span>"," ","","exp-sent","Eu","","",""
"","1109","html-keyboard-response","359","893245","0.0-3.0-1.293","<span style=""font-size:30px; font-family: monospace"">me</span>"," ","","exp-sent","me","","",""
"","2117","html-keyboard-response","360","895613","0.0-3.0-1.294","<span style=""font-size:30px; font-family: monospace"">divirto</span>"," ","","exp-sent","divirto","","",""
"","1045","html-keyboard-response","361","896909","0.0-3.0-1.295","<span style=""font-size:30px; font-family: monospace"">em</span>"," ","","exp-sent","em","","",""
"","3317","html-keyboard-response","362","900477","0.0-3.0-1.296","<span style=""font-size:30px; font-family: monospace"">festas</span>"," ","","exp-sent","festas","","",""
"","1157","html-keyboard-response","363","901885","0.0-3.0-1.297","<span style=""font-size:30px; font-family: monospace"">de</span>"," ","","exp-sent","de","","",""
"","1893","html-keyboard-response","364","904029","0.0-3.0-1.298","<span style=""font-size:30px; font-family: monospace"">criança.</span>"," ","","exp-sent","criança.","","",""
"","null","html-keyboard-response","365","905280","0.0-3.0-0.299-0.299","<span style= ""font-size:30px; font-family: monospace"">+</span>","null","fixation","","","","",""
"","1536","html-keyboard-response","366","907069","0.0-3.0-1.299","<span style=""font-size:30px; font-family: monospace"">A</span>"," ","","exp-sent","A","","",""
"","2613","html-keyboard-response","367","909933","0.0-3.0-1.300","<span style=""font-size:30px; font-family: monospace"">janela</span>"," ","","exp-sent","janela","","",""
"","1733","html-keyboard-response","368","911917","0.0-3.0-1.301","<span style=""font-size:30px; font-family: monospace"">alta</span>"," ","","exp-sent","alta","","",""
"","3972","html-keyboard-response","369","916141","0.0-3.0-1.302","<span style=""font-size:30px; font-family: monospace"">estava</span>"," ","","exp-sent","estava","","",""
"","2836","html-keyboard-response","370","919229","0.0-3.0-1.303","<span style=""font-size:30px; font-family: monospace"">quebrada</span>"," ","","exp-sent","quebrada","","",""
"","1781","html-keyboard-response","371","921261","0.0-3.0-1.304","<span style=""font-size:30px; font-family: monospace"">desde</span>"," ","","exp-sent","desde","","",""
"","2966","html-keyboard-response","372","924477","0.0-3.0-1.305","<span style=""font-size:30px; font-family: monospace"">ontem.</span>"," ","","comp","ontem.","","",""
"","8341","html-keyboard-response","373","933069","0.0-3.0-2.305-0.305","<span style=""font-size:30px; font-family: monospace"">A janela alta estava quebrada?</span>","s","","comp","","A janela alta estava quebrada?","sim","false"
"","null","html-keyboard-response","374","934570","0.0-3.0-0.306-0.306","<span style= ""font-size:30px; font-family: monospace"">+</span>","null","fixation","","","","",""
"","888","html-keyboard-response","375","935709","0.0-3.0-1.306","<span style=""font-size:30px; font-family: monospace"">As</span>"," ","","exp-sent","As","","",""
"","1764","html-keyboard-response","376","937725","0.0-3.0-1.307","<span style=""font-size:30px; font-family: monospace"">crianças</span>"," ","","exp-sent","crianças","","",""
"","1652","html-keyboard-response","377","939629","0.0-3.0-1.308","<span style=""font-size:30px; font-family: monospace"">viram</span>"," ","","exp-sent","viram","","",""
"","1397","html-keyboard-response","378","941277","0.0-3.0-1.309","<span style=""font-size:30px; font-family: monospace"">um</span>"," ","","exp-sent","um","","",""
"","4768","html-keyboard-response","379","946301","0.0-3.0-1.310","<span style=""font-size:30px; font-family: monospace"">vaga-lume</span>"," ","","exp-sent","vaga-lume","","",""
"","1045","html-keyboard-response","380","947597","0.0-3.0-1.311","<span style=""font-size:30px; font-family: monospace"">nos</span>"," ","","exp-sent","nos","","",""
"","3301","html-keyboard-response","381","951149","0.0-3.0-1.312","<span style=""font-size:30px; font-family: monospace"">arbustos.</span>"," ","","exp-sent","arbustos.","","",""
"","null","html-keyboard-response","382","952401","0.0-3.0-0.313-0.313","<span style= ""font-size:30px; font-family: monospace"">+</span>","null","fixation","","","","",""
"","3842","html-keyboard-response","383","956509","0.0-3.0-1.313","<span style=""font-size:30px; font-family: monospace"">Ontem</span>"," ","","exp-sent","Ontem","","",""
"","1733","html-keyboard-response","384","958493","0.0-3.0-1.314","<span style=""font-size:30px; font-family: monospace"">o</span>"," ","","exp-sent","o","","",""
"","3253","html-keyboard-response","385","961997","0.0-3.0-1.315","<span style=""font-size:30px; font-family: monospace"">funcionário</span>"," ","","exp-sent","funcionário","","",""
"","2933","html-keyboard-response","386","965181","0.0-3.0-1.316","<span style=""font-size:30px; font-family: monospace"">pediu</span>"," ","","exp-sent","pediu","","",""
"","3781","html-keyboard-response","387","969213","0.0-3.0-1.317","<span style=""font-size:30px; font-family: monospace"">autorização</span>"," ","","exp-sent","autorização","","",""
"","1093","html-keyboard-response","388","970557","0.0-3.0-1.318","<span style=""font-size:30px; font-family: monospace"">para</span>"," ","","exp-sent","para","","",""
"","901","html-keyboard-response","389","971709","0.0-3.0-1.319","<span style=""font-size:30px; font-family: monospace"">a</span>"," ","","exp-sent","a","","",""
"","1669","html-keyboard-response","390","973629","0.0-3.0-1.320","<span style=""font-size:30px; font-family: monospace"">colega.</span>"," ","","exp-sent","colega.","","",""
"","null","html-keyboard-response","391","974881","0.0-3.0-0.321-0.321","<span style= ""font-size:30px; font-family: monospace"">+</span>","null","fixation","","","","",""
"","144","html-keyboard-response","392","975277","0.0-3.0-1.321","<span style=""font-size:30px; font-family: monospace"">Eu</span>"," ","","exp-sent","Eu","","",""
"","949","html-keyboard-response","393","976477","0.0-3.0-1.322","<span style=""font-size:30px; font-family: monospace"">sempre</span>"," ","","exp-sent","sempre","","",""
"","2373","html-keyboard-response","394","979101","0.0-3.0-1.323","<span style=""font-size:30px; font-family: monospace"">fujo</span>"," ","","exp-sent","fujo","","",""
"","660","html-keyboard-response","395","980013","0.0-3.0-1.324","<span style=""font-size:30px; font-family: monospace"">de</span>"," ","","exp-sent","de","","",""
"","2837","html-keyboard-response","396","983101","0.0-3.0-1.325","<span style=""font-size:30px; font-family: monospace"">conflito</span>"," ","","exp-sent","conflito","","",""
"","772","html-keyboard-response","397","984125","0.0-3.0-1.326","<span style=""font-size:30px; font-family: monospace"">com</span>"," ","","exp-sent","com","","",""
"","645","html-keyboard-response","398","985021","0.0-3.0-1.327","<span style=""font-size:30px; font-family: monospace"">as</span>"," ","","exp-sent","as","","",""
"","1908","html-keyboard-response","399","987181","0.0-3.0-1.328","<span style=""font-size:30px; font-family: monospace"">pessoas.</span>"," ","","exp-sent","pessoas.","","",""
"","null","html-keyboard-response","400","988434","0.0-3.0-0.329-0.329","<span style= ""font-size:30px; font-family: monospace"">+</span>","null","fixation","","","","",""
"","1024","html-keyboard-response","401","989709","0.0-3.0-1.329","<span style=""font-size:30px; font-family: monospace"">O</span>"," ","","exp-sent","O","","",""
"","1541","html-keyboard-response","402","991501","0.0-3.0-1.330","<span style=""font-size:30px; font-family: monospace"">bolo</span>"," ","","exp-sent","bolo","","",""
"","1508","html-keyboard-response","403","993261","0.0-3.0-1.331","<span style=""font-size:30px; font-family: monospace"">era</span>"," ","","exp-sent","era","","",""
"","1572","html-keyboard-response","404","995085","0.0-3.0-1.332","<span style=""font-size:30px; font-family: monospace"">de</span>"," ","","exp-sent","de","","",""
"","2341","html-keyboard-response","405","997677","0.0-3.0-1.333","<span style=""font-size:30px; font-family: monospace"">abacaxi</span>"," ","","exp-sent","abacaxi","","",""
"","980","html-keyboard-response","406","998909","0.0-3.0-1.334","<span style=""font-size:30px; font-family: monospace"">e</span>"," ","","exp-sent","e","","",""
"","1845","html-keyboard-response","407","1001005","0.0-3.0-1.335","<span style=""font-size:30px; font-family: monospace"">creme</span>"," ","","exp-sent","creme","","",""
"","1060","html-keyboard-response","408","1002317","0.0-3.0-1.336","<span style=""font-size:30px; font-family: monospace"">de</span>"," ","","exp-sent","de","","",""
"","1733","html-keyboard-response","409","1004301","0.0-3.0-1.337","<span style=""font-size:30px; font-family: monospace"">coco.</span>"," ","","exp-sent","coco.","","",""
"","null","html-keyboard-response","410","1005553","0.0-3.0-0.338-0.338","<span style= ""font-size:30px; font-family: monospace"">+</span>","null","fixation","","","","",""
"","449","html-keyboard-response","411","1006253","0.0-3.0-1.338","<span style=""font-size:30px; font-family: monospace"">As</span>"," ","","exp-sent","As","","",""
"","1002","html-keyboard-response","412","1007517","0.0-3.0-1.339","<span style=""font-size:30px; font-family: monospace"">crianças</span>"," ","","exp-sent","crianças","","",""
"","3989","html-keyboard-response","413","1011757","0.0-3.0-1.340","<span style=""font-size:30px; font-family: monospace"">brincaram</span>"," ","","exp-sent","brincaram","","",""
"","933","html-keyboard-response","414","1012941","0.0-3.0-1.341","<span style=""font-size:30px; font-family: monospace"">com</span>"," ","","exp-sent","com","","",""
"","2997","html-keyboard-response","415","1016188","0.0-3.0-1.342","<span style=""font-size:30px; font-family: monospace"">bolhas</span>"," ","","exp-sent","bolhas","","",""
"","933","html-keyboard-response","416","1017372","0.0-3.0-1.343","<span style=""font-size:30px; font-family: monospace"">no</span>"," ","","exp-sent","no","","",""
"","1349","html-keyboard-response","417","1018973","0.0-3.0-1.344","<span style=""font-size:30px; font-family: monospace"">banho.</span>"," ","","comp","banho.","","",""
"","15957","html-keyboard-response","418","1035181","0.0-3.0-2.344-0.344","<span style=""font-size:30px; font-family: monospace"">As crianças brincaram com bolhas?</span>","s","","comp","","As crianças brincaram com bolhas?","sim","false"
"","null","html-keyboard-response","419","1036684","0.0-3.0-0.345-0.345","<span style= ""font-size:30px; font-family: monospace"">+</span>","null","fixation","","","","",""
"","1653","html-keyboard-response","420","1038589","0.0-3.0-1.345","<span style=""font-size:30px; font-family: monospace"">O</span>"," ","","exp-sent","O","","",""
"","1349","html-keyboard-response","421","1040189","0.0-3.0-1.346","<span style=""font-size:30px; font-family: monospace"">texto</span>"," ","","exp-sent","texto","","",""
"","4469","html-keyboard-response","422","1044909","0.0-3.0-1.347","<span style=""font-size:30px; font-family: monospace"">trazia</span>"," ","","exp-sent","trazia","","",""
"","965","html-keyboard-response","423","1046125","0.0-3.0-1.348","<span style=""font-size:30px; font-family: monospace"">um</span>"," ","","exp-sent","um","","",""
"","4773","html-keyboard-response","424","1051149","0.0-3.0-1.349","<span style=""font-size:30px; font-family: monospace"">argumento</span>"," ","","exp-sent","argumento","","",""
"","3301","html-keyboard-response","425","1054701","0.0-3.0-1.350","<span style=""font-size:30px; font-family: monospace"">central</span>"," ","","exp-sent","central","","",""
"","948","html-keyboard-response","426","1055901","0.0-3.0-1.351","<span style=""font-size:30px; font-family: monospace"">para</span>"," ","","exp-sent","para","","",""
"","853","html-keyboard-response","427","1057005","0.0-3.0-1.352","<span style=""font-size:30px; font-family: monospace"">a</span>"," ","","exp-sent","a","","",""
"","1605","html-keyboard-response","428","1058861","0.0-3.0-1.353","<span style=""font-size:30px; font-family: monospace"">conversa.</span>"," ","","exp-sent","conversa.","","",""
"","null","html-keyboard-response","429","1060113","0.0-3.0-0.354-0.354","<span style= ""font-size:30px; font-family: monospace"">+</span>","null","fixation","","","","",""
"","1056","html-keyboard-response","430","1061421","0.0-3.0-1.354","<span style=""font-size:30px; font-family: monospace"">Ontem</span>"," ","","exp-sent","Ontem","","",""
"","804","html-keyboard-response","431","1062477","0.0-3.0-1.355","<span style=""font-size:30px; font-family: monospace"">a</span>"," ","","exp-sent","a","","",""
"","3285","html-keyboard-response","432","1066013","0.0-3.0-1.356","<span style=""font-size:30px; font-family: monospace"">temperatura</span>"," ","","exp-sent","temperatura","","",""
"","1222","html-keyboard-response","433","1067485","0.0-3.0-1.357","<span style=""font-size:30px; font-family: monospace"">estava</span>"," ","","exp-sent","estava","","",""
"","4021","html-keyboard-response","434","1071756","0.0-3.0-1.358","<span style=""font-size:30px; font-family: monospace"">amena</span>"," ","","exp-sent","amena","","",""
"","1158","html-keyboard-response","435","1073181","0.0-3.0-1.359","<span style=""font-size:30px; font-family: monospace"">durante</span>"," ","","exp-sent","durante","","",""
"","757","html-keyboard-response","436","1074189","0.0-3.0-1.360","<span style=""font-size:30px; font-family: monospace"">o</span>"," ","","exp-sent","o","","",""
"","1045","html-keyboard-response","437","1075485","0.0-3.0-1.361","<span style=""font-size:30px; font-family: monospace"">dia.</span>"," ","","exp-sent","dia.","","",""
"","null","html-keyboard-response","438","1076737","0.0-3.0-0.362-0.362","<span style= ""font-size:30px; font-family: monospace"">+</span>","null","fixation","","","","",""
"","1329","html-keyboard-response","439","1078317","0.0-3.0-1.362","<span style=""font-size:30px; font-family: monospace"">Havia</span>"," ","","exp-sent","Havia","","",""
"","949","html-keyboard-response","440","1079517","0.0-3.0-1.363","<span style=""font-size:30px; font-family: monospace"">um</span>"," ","","exp-sent","um","","",""
"","3973","html-keyboard-response","441","1083741","0.0-3.0-1.364","<span style=""font-size:30px; font-family: monospace"">machucado</span>"," ","","exp-sent","machucado","","",""
"","1381","html-keyboard-response","442","1085373","0.0-3.0-1.365","<span style=""font-size:30px; font-family: monospace"">no</span>"," ","","exp-sent","no","","",""
"","1925","html-keyboard-response","443","1087549","0.0-3.0-1.366","<span style=""font-size:30px; font-family: monospace"">dedo</span>"," ","","exp-sent","dedo","","",""
"","725","html-keyboard-response","444","1088525","0.0-3.0-1.367","<span style=""font-size:30px; font-family: monospace"">da</span>"," ","","exp-sent","da","","",""
"","1476","html-keyboard-response","445","1090253","0.0-3.0-1.368","<span style=""font-size:30px; font-family: monospace"">criança.</span>"," ","","exp-sent","criança.","","",""
"","null","html-keyboard-response","446","1091505","0.0-3.0-0.369-0.369","<span style= ""font-size:30px; font-family: monospace"">+</span>","null","fixation","","","","",""
"","497","html-keyboard-response","447","1092253","0.0-3.0-1.369","<span style=""font-size:30px; font-family: monospace"">A</span>"," ","","exp-sent","A","","",""
"","7573","html-keyboard-response","448","1100077","0.0-3.0-1.370","<span style=""font-size:30px; font-family: monospace"">borboleta</span>"," ","","exp-sent","borboleta","","",""
"","1428","html-keyboard-response","449","1101757","0.0-3.0-1.371","<span style=""font-size:30px; font-family: monospace"">pousou</span>"," ","","exp-sent","pousou","","",""
"","772","html-keyboard-response","450","1102781","0.0-3.0-1.372","<span style=""font-size:30px; font-family: monospace"">no</span>"," ","","exp-sent","no","","",""
"","2404","html-keyboard-response","451","1105437","0.0-3.0-1.373","<span style=""font-size:30px; font-family: monospace"">ombro</span>"," ","","exp-sent","ombro","","",""
"","3780","html-keyboard-response","452","1109469","0.0-3.0-1.374","<span style=""font-size:30px; font-family: monospace"">daquela</span>"," ","","exp-sent","daquela","","",""
"","1973","html-keyboard-response","453","1111693","0.0-3.0-1.375","<span style=""font-size:30px; font-family: monospace"">moça.</span>"," ","","exp-sent","moça.","","",""
"","null","html-keyboard-response","454","1112945","0.0-3.0-0.376-0.376","<span style= ""font-size:30px; font-family: monospace"">+</span>","null","fixation","","","","",""
"","336","html-keyboard-response","455","1113533","0.0-3.0-1.376","<span style=""font-size:30px; font-family: monospace"">Eu</span>"," ","","exp-sent","Eu","","",""
"","1029","html-keyboard-response","456","1114813","0.0-3.0-1.377","<span style=""font-size:30px; font-family: monospace"">quero</span>"," ","","exp-sent","quero","","",""
"","757","html-keyboard-response","457","1115821","0.0-3.0-1.378","<span style=""font-size:30px; font-family: monospace"">um</span>"," ","","exp-sent","um","","",""
"","1878","html-keyboard-response","458","1117949","0.0-3.0-1.379","<span style=""font-size:30px; font-family: monospace"">namorado</span>"," ","","exp-sent","namorado","","",""
"","2597","html-keyboard-response","459","1120797","0.0-3.0-1.380","<span style=""font-size:30px; font-family: monospace"">honesto</span>"," ","","exp-sent","honesto","","",""
"","965","html-keyboard-response","460","1122013","0.0-3.0-1.381","<span style=""font-size:30px; font-family: monospace"">e</span>"," ","","exp-sent","e","","",""
"","2773","html-keyboard-response","461","1125037","0.0-3.0-1.382","<span style=""font-size:30px; font-family: monospace"">compreensivo.</span>"," ","","comp","compreensivo.","","",""
"","6453","html-keyboard-response","462","1131741","0.0-3.0-2.382-0.382","<span style=""font-size:30px; font-family: monospace"">Eu quero um namorado honesto?</span>","s","","comp","","Eu quero um namorado honesto?","sim","false"
"","null","html-keyboard-response","463","1133243","0.0-3.0-0.383-0.383","<span style= ""font-size:30px; font-family: monospace"">+</span>","null","fixation","","","","",""
"","839","html-keyboard-response","464","1134333","0.0-3.0-1.383","<span style=""font-size:30px; font-family: monospace"">Eu</span>"," ","","exp-sent","Eu","","",""
"","1386","html-keyboard-response","465","1135981","0.0-3.0-1.384","<span style=""font-size:30px; font-family: monospace"">gosto</span>"," ","","exp-sent","gosto","","",""
"","1141","html-keyboard-response","466","1137373","0.0-3.0-1.385","<span style=""font-size:30px; font-family: monospace"">de</span>"," ","","exp-sent","de","","",""
"","4069","html-keyboard-response","467","1141693","0.0-3.0-1.386","<span style=""font-size:30px; font-family: monospace"">molho</span>"," ","","exp-sent","molho","","",""
"","7403","html-keyboard-response","468","1149357","0.0-3.0-1.387","<span style=""font-size:30px; font-family: monospace"">picante</span>"," ","","exp-sent","picante","","",""
"","1014","html-keyboard-response","469","1150621","0.0-3.0-1.388","<span style=""font-size:30px; font-family: monospace"">nas</span>"," ","","exp-sent","nas","","",""
"","2196","html-keyboard-response","470","1153068","0.0-3.0-1.389","<span style=""font-size:30px; font-family: monospace"">batatas.</span>"," ","","exp-sent","batatas.","","",""
"","null","html-keyboard-response","471","1154320","0.0-3.0-0.390-0.390","<span style= ""font-size:30px; font-family: monospace"">+</span>","null","fixation","","","","",""
"","1218","html-keyboard-response","472","1155805","0.0-3.0-1.390","<span style=""font-size:30px; font-family: monospace"">As</span>"," ","","exp-sent","As","","",""
"","2069","html-keyboard-response","473","1158125","0.0-3.0-1.391","<span style=""font-size:30px; font-family: monospace"">pessoas</span>"," ","","exp-sent","pessoas","","",""
"","1028","html-keyboard-response","474","1159405","0.0-3.0-1.392","<span style=""font-size:30px; font-family: monospace"">têm</span>"," ","","exp-sent","têm","","",""
"","3845","html-keyboard-response","475","1163501","0.0-3.0-1.393","<span style=""font-size:30px; font-family: monospace"">sua</span>"," ","","exp-sent","sua","","",""
"","2581","html-keyboard-response","476","1166333","0.0-3.0-1.394","<span style=""font-size:30px; font-family: monospace"">liberdade</span>"," ","","exp-sent","liberdade","","",""
"","1589","html-keyboard-response","477","1168173","0.0-3.0-1.395","<span style=""font-size:30px; font-family: monospace"">até</span>"," ","","exp-sent","até","","",""
"","1686","html-keyboard-response","478","1170109","0.0-3.0-1.396","<span style=""font-size:30px; font-family: monospace"">certo</span>"," ","","exp-sent","certo","","",""
"","2932","html-keyboard-response","479","1173293","0.0-3.0-1.397","<span style=""font-size:30px; font-family: monospace"">ponto.</span>"," ","","exp-sent","ponto.","","",""
"","null","html-keyboard-response","480","1174544","0.0-3.0-0.398-0.398","<span style= ""font-size:30px; font-family: monospace"">+</span>","null","fixation","","","","",""
"","1234","html-keyboard-response","481","1176029","0.0-3.0-1.398","<span style=""font-size:30px; font-family: monospace"">A</span>"," ","","exp-sent","A","","",""
"","1492","html-keyboard-response","482","1177773","0.0-3.0-1.399","<span style=""font-size:30px; font-family: monospace"">empresa</span>"," ","","exp-sent","empresa","","",""
"","1797","html-keyboard-response","483","1179821","0.0-3.0-1.400","<span style=""font-size:30px; font-family: monospace"">enviou</span>"," ","","exp-sent","enviou","","",""
"","1893","html-keyboard-response","484","1181965","0.0-3.0-1.401","<span style=""font-size:30px; font-family: monospace"">o</span>"," ","","exp-sent","o","","",""
"","1413","html-keyboard-response","485","1183629","0.0-3.0-1.402","<span style=""font-size:30px; font-family: monospace"">aviso</span>"," ","","exp-sent","aviso","","",""
"","1461","html-keyboard-response","486","1185340","0.0-3.0-1.403","<span style=""font-size:30px; font-family: monospace"">hoje</span>"," ","","exp-sent","hoje","","",""
"","981","html-keyboard-response","487","1186573","0.0-3.0-1.404","<span style=""font-size:30px; font-family: monospace"">de</span>"," ","","exp-sent","de","","",""
"","3317","html-keyboard-response","488","1190141","0.0-3.0-1.405","<span style=""font-size:30px; font-family: monospace"">tarde.</span>"," ","","exp-sent","tarde.","","",""
"","null","html-keyboard-response","489","1191393","0.0-3.0-0.406-0.406","<span style= ""font-size:30px; font-family: monospace"">+</span>","null","fixation","","","","",""
"","3905","html-keyboard-response","490","1195549","0.0-3.0-1.406","<span style=""font-size:30px; font-family: monospace"">A</span>"," ","","exp-sent","A","","",""
"","2037","html-keyboard-response","491","1197836","0.0-3.0-1.407","<span style=""font-size:30px; font-family: monospace"">loja</span>"," ","","exp-sent","loja","","",""
"","1621","html-keyboard-response","492","1199709","0.0-3.0-1.408","<span style=""font-size:30px; font-family: monospace"">vende</span>"," ","","exp-sent","vende","","",""
"","1461","html-keyboard-response","493","1201421","0.0-3.0-1.409","<span style=""font-size:30px; font-family: monospace"">tanto</span>"," ","","exp-sent","tanto","","",""
"","2629","html-keyboard-response","494","1204301","0.0-3.0-1.410","<span style=""font-size:30px; font-family: monospace"">frituras</span>"," ","","exp-sent","frituras","","",""
"","1301","html-keyboard-response","495","1205853","0.0-3.0-1.411","<span style=""font-size:30px; font-family: monospace"">quanto</span>"," ","","exp-sent","quanto","","",""
"","2245","html-keyboard-response","496","1208349","0.0-3.0-1.412","<span style=""font-size:30px; font-family: monospace"">comidas</span>"," ","","exp-sent","comidas","","",""
"","2661","html-keyboard-response","497","1211261","0.0-3.0-1.413","<span style=""font-size:30px; font-family: monospace"">leves.</span>"," ","","exp-sent","leves.","","",""
"","null","html-keyboard-response","498","1212513","0.0-3.0-0.414-0.414","<span style= ""font-size:30px; font-family: monospace"">+</span>","null","fixation","","","","",""
"","625","html-keyboard-response","499","1213389","0.0-3.0-1.414","<span style=""font-size:30px; font-family: monospace"">As</span>"," ","","exp-sent","As","","",""
"","2885","html-keyboard-response","500","1216525","0.0-3.0-1.415","<span style=""font-size:30px; font-family: monospace"">cadeiras</span>"," ","","exp-sent","cadeiras","","",""
"","3765","html-keyboard-response","501","1220541","0.0-3.0-1.416","<span style=""font-size:30px; font-family: monospace"">azuis</span>"," ","","exp-sent","azuis","","",""
"","709","html-keyboard-response","502","1221501","0.0-3.0-1.417","<span style=""font-size:30px; font-family: monospace"">da</span>"," ","","exp-sent","da","","",""
"","917","html-keyboard-response","503","1222669","0.0-3.0-1.418","<span style=""font-size:30px; font-family: monospace"">sala</span>"," ","","exp-sent","sala","","",""
"","1253","html-keyboard-response","504","1224173","0.0-3.0-1.419","<span style=""font-size:30px; font-family: monospace"">eram</span>"," ","","exp-sent","eram","","",""
"","772","html-keyboard-response","505","1225197","0.0-3.0-1.420","<span style=""font-size:30px; font-family: monospace"">da</span>"," ","","exp-sent","da","","",""
"","1061","html-keyboard-response","506","1226509","0.0-3.0-1.421","<span style=""font-size:30px; font-family: monospace"">minha</span>"," ","","exp-sent","minha","","",""
"","1477","html-keyboard-response","507","1228237","0.0-3.0-1.422","<span style=""font-size:30px; font-family: monospace"">vó.</span>"," ","","comp","vó.","","",""
"","9604","html-keyboard-response","508","1238093","0.0-3.0-2.422-0.422","<span style=""font-size:30px; font-family: monospace"">As cadeiras eram da avó?</span>","n","","comp","","As cadeiras eram da avó?","sim","false"
"","null","html-keyboard-response","509","1239595","0.0-3.0-0.423-0.423","<span style= ""font-size:30px; font-family: monospace"">+</span>","null","fixation","","","","",""
"","1654","html-keyboard-response","510","1241501","0.0-3.0-1.423","<span style=""font-size:30px; font-family: monospace"">A</span>"," ","","exp-sent","A","","",""
"","2164","html-keyboard-response","511","1243917","0.0-3.0-1.424","<span style=""font-size:30px; font-family: monospace"">força</span>"," ","","exp-sent","força","","",""
"","1925","html-keyboard-response","512","1246093","0.0-3.0-1.425","<span style=""font-size:30px; font-family: monospace"">d'água</span>"," ","","exp-sent","d'água","","",""
"","1381","html-keyboard-response","513","1247725","0.0-3.0-1.426","<span style=""font-size:30px; font-family: monospace"">estava</span>"," ","","exp-sent","estava","","",""
"","1732","html-keyboard-response","514","1249709","0.0-3.0-1.427","<span style=""font-size:30px; font-family: monospace"">normal</span>"," ","","exp-sent","normal","","",""
"","1637","html-keyboard-response","515","1251597","0.0-3.0-1.428","<span style=""font-size:30px; font-family: monospace"">naquele</span>"," ","","exp-sent","naquele","","",""
"","1285","html-keyboard-response","516","1253133","0.0-3.0-1.429","<span style=""font-size:30px; font-family: monospace"">dia.</span>"," ","","exp-sent","dia.","","",""
"","null","html-keyboard-response","517","1254384","0.0-3.0-0.430-0.430","<span style= ""font-size:30px; font-family: monospace"">+</span>","null","fixation","","","","",""
"","626","html-keyboard-response","518","1255260","0.0-3.0-1.430","<span style=""font-size:30px; font-family: monospace"">A</span>"," ","","exp-sent","A","","",""
"","2118","html-keyboard-response","519","1257629","0.0-3.0-1.431","<span style=""font-size:30px; font-family: monospace"">médica</span>"," ","","exp-sent","médica","","",""
"","2597","html-keyboard-response","520","1260477","0.0-3.0-1.432","<span style=""font-size:30px; font-family: monospace"">ofereceu</span>"," ","","exp-sent","ofereceu","","",""
"","805","html-keyboard-response","521","1261533","0.0-3.0-1.433","<span style=""font-size:30px; font-family: monospace"">a</span>"," ","","exp-sent","a","","",""
"","2628","html-keyboard-response","522","1264413","0.0-3.0-1.434","<span style=""font-size:30px; font-family: monospace"">pomada</span>"," ","","exp-sent","pomada","","",""
"","949","html-keyboard-response","523","1265613","0.0-3.0-1.435","<span style=""font-size:30px; font-family: monospace"">para</span>"," ","","exp-sent","para","","",""
"","741","html-keyboard-response","524","1266605","0.0-3.0-1.436","<span style=""font-size:30px; font-family: monospace"">o</span>"," ","","exp-sent","o","","",""
"","3205","html-keyboard-response","525","1270061","0.0-3.0-1.437","<span style=""font-size:30px; font-family: monospace"">avô.</span>"," ","","exp-sent","avô.","","",""
"","null","html-keyboard-response","526","1271313","0.0-3.0-0.438-0.438","<span style= ""font-size:30px; font-family: monospace"">+</span>","null","fixation","","","","",""
"","945","html-keyboard-response","527","1272509","0.0-3.0-1.438","<span style=""font-size:30px; font-family: monospace"">Ele</span>"," ","","exp-sent","Ele","","",""
"","2341","html-keyboard-response","528","1275101","0.0-3.0-1.439","<span style=""font-size:30px; font-family: monospace"">conversou</span>"," ","","exp-sent","conversou","","",""
"","900","html-keyboard-response","529","1276253","0.0-3.0-1.440","<span style=""font-size:30px; font-family: monospace"">com</span>"," ","","exp-sent","com","","",""
"","1141","html-keyboard-response","530","1277645","0.0-3.0-1.441","<span style=""font-size:30px; font-family: monospace"">o</span>"," ","","exp-sent","o","","",""
"","2869","html-keyboard-response","531","1280765","0.0-3.0-1.442","<span style=""font-size:30px; font-family: monospace"">patrão</span>"," ","","exp-sent","patrão","","",""
"","2293","html-keyboard-response","532","1283309","0.0-3.0-1.443","<span style=""font-size:30px; font-family: monospace"">durante</span>"," ","","exp-sent","durante","","",""
"","1173","html-keyboard-response","533","1284733","0.0-3.0-1.444","<span style=""font-size:30px; font-family: monospace"">a</span>"," ","","exp-sent","a","","",""
"","2229","html-keyboard-response","534","1287213","0.0-3.0-1.445","<span style=""font-size:30px; font-family: monospace"">tarde.</span>"," ","","exp-sent","tarde.","","",""
"","null","html-keyboard-response","535","1288465","0.0-3.0-0.446-0.446","<span style= ""font-size:30px; font-family: monospace"">+</span>","null","fixation","","","","",""
"","4145","html-keyboard-response","536","1292861","0.0-3.0-1.446","<span style=""font-size:30px; font-family: monospace"">Algumas</span>"," ","","exp-sent","Algumas","","",""
"","1684","html-keyboard-response","537","1294797","0.0-3.0-1.447","<span style=""font-size:30px; font-family: monospace"">pessoas</span>"," ","","exp-sent","pessoas","","",""
"","2341","html-keyboard-response","538","1297389","0.0-3.0-1.448","<span style=""font-size:30px; font-family: monospace"">acreditam</span>"," ","","exp-sent","acreditam","","",""
"","1189","html-keyboard-response","539","1298829","0.0-3.0-1.449","<span style=""font-size:30px; font-family: monospace"">em</span>"," ","","exp-sent","em","","",""
"","2709","html-keyboard-response","540","1301789","0.0-3.0-1.450","<span style=""font-size:30px; font-family: monospace"">espíritos</span>"," ","","exp-sent","espíritos","","",""
"","741","html-keyboard-response","541","1302781","0.0-3.0-1.451","<span style=""font-size:30px; font-family: monospace"">e</span>"," ","","exp-sent","e","","",""
"","996","html-keyboard-response","542","1304029","0.0-3.0-1.452","<span style=""font-size:30px; font-family: monospace"">em</span>"," ","","exp-sent","em","","",""
"","1237","html-keyboard-response","543","1305517","0.0-3.0-1.453","<span style=""font-size:30px; font-family: monospace"">outras</span>"," ","","exp-sent","outras","","",""
"","1221","html-keyboard-response","544","1306989","0.0-3.0-1.454","<span style=""font-size:30px; font-family: monospace"">vidas.</span>"," ","","exp-sent","vidas.","","",""
"","null","html-keyboard-response","545","1308240","0.0-3.0-0.455-0.455","<span style= ""font-size:30px; font-family: monospace"">+</span>","null","fixation","","","","",""
"","854","html-keyboard-response","546","1309357","0.0-3.0-1.455","<span style=""font-size:30px; font-family: monospace"">Ela</span>"," ","","exp-sent","Ela","","",""
"","1492","html-keyboard-response","547","1311101","0.0-3.0-1.456","<span style=""font-size:30px; font-family: monospace"">gosta</span>"," ","","exp-sent","gosta","","",""
"","885","html-keyboard-response","548","1312237","0.0-3.0-1.457","<span style=""font-size:30px; font-family: monospace"">de</span>"," ","","exp-sent","de","","",""
"","1573","html-keyboard-response","549","1314061","0.0-3.0-1.458","<span style=""font-size:30px; font-family: monospace"">estudar</span>"," ","","exp-sent","estudar","","",""
"","3716","html-keyboard-response","550","1318029","0.0-3.0-1.459","<span style=""font-size:30px; font-family: monospace"">matemática</span>"," ","","exp-sent","matemática","","",""
"","949","html-keyboard-response","551","1319229","0.0-3.0-1.460","<span style=""font-size:30px; font-family: monospace"">com</span>"," ","","exp-sent","com","","",""
"","2213","html-keyboard-response","552","1321693","0.0-3.0-1.461","<span style=""font-size:30px; font-family: monospace"">colegas.</span>"," ","","comp","colegas.","","",""
"","6196","html-keyboard-response","553","1328141","0.0-3.0-2.461-0.461","<span style=""font-size:30px; font-family: monospace"">Ela gosta de estudar física?</span>","n","","comp","","Ela gosta de estudar física?","não","false"
"","null","html-keyboard-response","554","1329643","0.0-3.0-0.462-0.462","<span style= ""font-size:30px; font-family: monospace"">+</span>","null","fixation","","","","",""
"","1767","html-keyboard-response","555","1331661","0.0-3.0-1.462","<span style=""font-size:30px; font-family: monospace"">Preciso</span>"," ","","exp-sent","Preciso","","",""
"","1060","html-keyboard-response","556","1332973","0.0-3.0-1.463","<span style=""font-size:30px; font-family: monospace"">de</span>"," ","","exp-sent","de","","",""
"","981","html-keyboard-response","557","1334205","0.0-3.0-1.464","<span style=""font-size:30px; font-family: monospace"">um</span>"," ","","exp-sent","um","","",""
"","4036","html-keyboard-response","558","1338493","0.0-3.0-1.465","<span style=""font-size:30px; font-family: monospace"">relatório</span>"," ","","exp-sent","relatório","","",""
"","1717","html-keyboard-response","559","1340461","0.0-3.0-1.466","<span style=""font-size:30px; font-family: monospace"">oficial</span>"," ","","exp-sent","oficial","","",""
"","1092","html-keyboard-response","560","1341805","0.0-3.0-1.467","<span style=""font-size:30px; font-family: monospace"">para</span>"," ","","exp-sent","para","","",""
"","1798","html-keyboard-response","561","1343853","0.0-3.0-1.468","<span style=""font-size:30px; font-family: monospace"">amanhã.</span>"," ","","exp-sent","amanhã.","","",""
"","null","html-keyboard-response","562","1345105","0.0-3.0-0.469-0.469","<span style= ""font-size:30px; font-family: monospace"">+</span>","null","fixation","","","","",""
"","721","html-keyboard-response","563","1346077","0.0-3.0-1.469","<span style=""font-size:30px; font-family: monospace"">Ele</span>"," ","","exp-sent","Ele","","",""
"","1109","html-keyboard-response","564","1347437","0.0-3.0-1.470","<span style=""font-size:30px; font-family: monospace"">viu</span>"," ","","exp-sent","viu","","",""
"","1028","html-keyboard-response","565","1348717","0.0-3.0-1.471","<span style=""font-size:30px; font-family: monospace"">um</span>"," ","","exp-sent","um","","",""
"","2197","html-keyboard-response","566","1351165","0.0-3.0-1.472","<span style=""font-size:30px; font-family: monospace"">inseto</span>"," ","","exp-sent","inseto","","",""
"","2773","html-keyboard-response","567","1354189","0.0-3.0-1.473","<span style=""font-size:30px; font-family: monospace"">marrom</span>"," ","","exp-sent","marrom","","",""
"","1045","html-keyboard-response","568","1355484","0.0-3.0-1.474","<span style=""font-size:30px; font-family: monospace"">na</span>"," ","","exp-sent","na","","",""
"","5269","html-keyboard-response","569","1361005","0.0-3.0-1.475","<span style=""font-size:30px; font-family: monospace"">parede.</span>"," ","","exp-sent","parede.","","",""
"","null","html-keyboard-response","570","1362257","0.0-3.0-0.476-0.476","<span style= ""font-size:30px; font-family: monospace"">+</span>","null","fixation","","","","",""
"","656","html-keyboard-response","571","1363165","0.0-3.0-1.476","<span style=""font-size:30px; font-family: monospace"">O</span>"," ","","exp-sent","O","","",""
"","1909","html-keyboard-response","572","1365325","0.0-3.0-1.477","<span style=""font-size:30px; font-family: monospace"">avô</span>"," ","","exp-sent","avô","","",""
"","1269","html-keyboard-response","573","1366845","0.0-3.0-1.478","<span style=""font-size:30px; font-family: monospace"">fez</span>"," ","","exp-sent","fez","","",""
"","1141","html-keyboard-response","574","1368237","0.0-3.0-1.479","<span style=""font-size:30px; font-family: monospace"">uma</span>"," ","","exp-sent","uma","","",""
"","1477","html-keyboard-response","575","1369963","0.0-3.0-1.480","<span style=""font-size:30px; font-family: monospace"">lista</span>"," ","","exp-sent","lista","","",""
"","949","html-keyboard-response","576","1371163","0.0-3.0-1.481","<span style=""font-size:30px; font-family: monospace"">de</span>"," ","","exp-sent","de","","",""
"","1829","html-keyboard-response","577","1373243","0.0-3.0-1.482","<span style=""font-size:30px; font-family: monospace"">compras</span>"," ","","exp-sent","compras","","",""
"","1300","html-keyboard-response","578","1374795","0.0-3.0-1.483","<span style=""font-size:30px; font-family: monospace"">do</span>"," ","","exp-sent","do","","",""
"","2437","html-keyboard-response","579","1377483","0.0-3.0-1.484","<span style=""font-size:30px; font-family: monospace"">mercado.</span>"," ","","exp-sent","mercado.","","",""
"","null","html-keyboard-response","580","1378734","0.0-3.0-0.485-0.485","<span style= ""font-size:30px; font-family: monospace"">+</span>","null","fixation","","","","",""
"","754","html-keyboard-response","581","1379739","0.0-3.0-1.485","<span style=""font-size:30px; font-family: monospace"">As</span>"," ","","exp-sent","As","","",""
