"view_history","rt","trial_type","trial_index","time_elapsed","internal_node_id","stimulus","response","portuguese","kreyol"
"[{""page_index"":0,""viewing_time"":45484}]","45485","instructions","0","45486","0.0-0.0","","","",""
"","null","html-keyboard-response","1","46101","0.0-1.0-0.0","+","null","",""
"","5960","audio-keyboard-response","2","52341","0.0-1.0-1.0","../audio/teste-vocab--48.mp3","s","joia","bijou"
"","null","html-keyboard-response","3","52851","0.0-1.0-0.1","+","null","",""
"","2920","audio-keyboard-response","4","55797","0.0-1.0-1.1","../audio/teste-vocab--55.mp3","s","bosque","forè"
"","null","html-keyboard-response","5","56300","0.0-1.0-0.2","+","null","",""
"","31389","audio-keyboard-response","6","87717","0.0-1.0-1.2","../audio/teste-vocab--114.mp3","s","fragmentar","dechire"
"","null","html-keyboard-response","7","88231","0.0-1.0-0.3","+","null","",""
"","5272","audio-keyboard-response","8","93524","0.0-1.0-1.3","../audio/teste-vocab--74.mp3","s","desilusão","dezilizyon"
"","null","html-keyboard-response","9","94025","0.0-1.0-0.4","+","null","",""
"","3928","audio-keyboard-response","10","97972","0.0-1.0-1.4","../audio/teste-vocab--33.mp3","n","uniforme","inifòm"
"","null","html-keyboard-response","11","98482","0.0-1.0-0.5","+","null","",""
"","2149","audio-keyboard-response","12","100660","0.0-1.0-1.5","../audio/teste-vocab--07.mp3","s","abajur","lanp"
"","null","html-keyboard-response","13","101180","0.0-1.0-0.6","+","null","",""
"","2699","audio-keyboard-response","14","103908","0.0-1.0-1.6","../audio/teste-vocab--124.mp3","n","obelisco","obelisk"
"","null","html-keyboard-response","15","104421","0.0-1.0-0.7","+","null","",""
"","2899","audio-keyboard-response","16","107348","0.0-1.0-1.7","../audio/teste-vocab--92.mp3","s","esférico","won"
"","null","html-keyboard-response","17","107860","0.0-1.0-0.8","+","null","",""
"","3080","audio-keyboard-response","18","110964","0.0-1.0-1.8","../audio/teste-vocab--40.mp3","s","bebida","bwason"
"","null","html-keyboard-response","19","111470","0.0-1.0-0.9","+","null","",""
"","3621","audio-keyboard-response","20","115124","0.0-1.0-1.9","../audio/teste-vocab--24.mp3","s","acidente","aksidan"
"","null","html-keyboard-response","21","115640","0.0-1.0-0.10","+","null","",""
"","4181","audio-keyboard-response","22","119844","0.0-1.0-1.10","../audio/teste-vocab--98.mp3","s","instruir","enstwi"
"","null","html-keyboard-response","23","120348","0.0-1.0-0.11","+","null","",""
"","2840","audio-keyboard-response","24","123220","0.0-1.0-1.11","../audio/teste-vocab--04.mp3","s","roda","wonn"
"","null","html-keyboard-response","25","123730","0.0-1.0-0.12","+","null","",""
"","4341","audio-keyboard-response","26","128084","0.0-1.0-1.12","../audio/teste-vocab--76.mp3","n","arquivar","achive"
"","null","html-keyboard-response","27","128590","0.0-1.0-0.13","+","null","",""
"","2811","audio-keyboard-response","28","131428","0.0-1.0-1.13","../audio/teste-vocab--81.mp3","s","judicial","jidisyè"
"","null","html-keyboard-response","29","131940","0.0-1.0-0.14","+","null","",""
"","4528","audio-keyboard-response","30","136500","0.0-1.0-1.14","../audio/teste-vocab--51.mp3","s","recolher","kolekte"
"","null","html-keyboard-response","31","137002","0.0-1.0-0.15","+","null","",""
"","2501","audio-keyboard-response","32","139524","0.0-1.0-1.15","../audio/teste-vocab--121.mp3","s","atônito","sezi"
"","null","html-keyboard-response","33","140032","0.0-1.0-0.16","+","null","",""
"","2651","audio-keyboard-response","34","142708","0.0-1.0-1.16","../audio/teste-vocab--42.mp3","s","isolamento","izòlman"
"","null","html-keyboard-response","35","143219","0.0-1.0-0.17","+","null","",""
"","2768","audio-keyboard-response","36","146020","0.0-1.0-1.17","../audio/teste-vocab--105.mp3","n","cítrico","sitrik"
"","null","html-keyboard-response","37","146530","0.0-1.0-0.18","+","null","",""
"","2469","audio-keyboard-response","38","149028","0.0-1.0-1.18","../audio/teste-vocab--104.mp3","s","ira","pwal"
"","null","html-keyboard-response","39","149535","0.0-1.0-0.19","+","null","",""
"","3168","audio-keyboard-response","40","152739","0.0-1.0-1.19","../audio/teste-vocab--128.mp3","s","incisivo","ensisiv"
"","null","html-keyboard-response","41","153245","0.0-1.0-0.20","+","null","",""
"","2429","audio-keyboard-response","42","155699","0.0-1.0-1.20","../audio/teste-vocab--21.mp3","s","baleia","balèn"
"","null","html-keyboard-response","43","156209","0.0-1.0-0.21","+","null","",""
"","2261","audio-keyboard-response","44","158483","0.0-1.0-1.21","../audio/teste-vocab--102.mp3","s","arrogante","arogan"
"","null","html-keyboard-response","45","158984","0.0-1.0-0.22","+","null","",""
"","2168","audio-keyboard-response","46","161170","0.0-1.0-1.22","../audio/teste-vocab--23.mp3","s","acariciar","karese"
"","null","html-keyboard-response","47","161679","0.0-1.0-0.23","+","null","",""
"","2619","audio-keyboard-response","48","164339","0.0-1.0-1.23","../audio/teste-vocab--66.mp3","s","cooperação","koperasyon"
"","null","html-keyboard-response","49","164840","0.0-1.0-0.24","+","null","",""
"","2189","audio-keyboard-response","50","167059","0.0-1.0-1.24","../audio/teste-vocab--87.mp3","s","ave","zwazo"
"","null","html-keyboard-response","51","167576","0.0-1.0-0.25","+","null","",""
"","3099","audio-keyboard-response","52","170690","0.0-1.0-1.25","../audio/teste-vocab--70.mp3","s","funil","antónwa"
"","null","html-keyboard-response","53","171205","0.0-1.0-0.26","+","null","",""
"","2400","audio-keyboard-response","54","173635","0.0-1.0-1.26","../audio/teste-vocab--44.mp3","s","premiar","rekonpanse"
"","null","html-keyboard-response","55","174149","0.0-1.0-0.27","+","null","",""
"","2349","audio-keyboard-response","56","176515","0.0-1.0-1.27","../audio/teste-vocab--58.mp3","s","nutritivo","nourisan"
"","null","html-keyboard-response","57","177030","0.0-1.0-0.28","+","null","",""
"","2072","audio-keyboard-response","58","179123","0.0-1.0-1.28","../audio/teste-vocab--97.mp3","s","frágil","frajil"
"","null","html-keyboard-response","59","179639","0.0-1.0-0.29","+","null","",""
"","2389","audio-keyboard-response","60","182050","0.0-1.0-1.29","../audio/teste-vocab--27.mp3","s","rio","rivyè"
"","null","html-keyboard-response","61","182568","0.0-1.0-0.30","+","null","",""
"","1939","audio-keyboard-response","62","184530","0.0-1.0-1.30","../audio/teste-vocab--29.mp3","s","rasgar","chire"
"","null","html-keyboard-response","63","185033","0.0-1.0-0.31","+","null","",""
"","2139","audio-keyboard-response","64","187219","0.0-1.0-1.31","../audio/teste-vocab--37.mp3","s","músico","mizisyen"
"","null","html-keyboard-response","65","187728","0.0-1.0-0.32","+","null","",""
"","2411","audio-keyboard-response","66","190162","0.0-1.0-1.32","../audio/teste-vocab--107.mp3","n","elo","emay"
"","null","html-keyboard-response","67","190679","0.0-1.0-0.33","+","null","",""
"","2341","audio-keyboard-response","68","193043","0.0-1.0-1.33","../audio/teste-vocab--69.mp3","s","pingar","degoute"
"","null","html-keyboard-response","69","193558","0.0-1.0-0.34","+","null","",""
"","2269","audio-keyboard-response","70","195859","0.0-1.0-1.34","../audio/teste-vocab--09.mp3","s","vela","bouji"
"","null","html-keyboard-response","71","196368","0.0-1.0-0.35","+","null","",""
"","1891","audio-keyboard-response","72","198275","0.0-1.0-1.35","../audio/teste-vocab--49.mp3","s","humano","moun"
"","null","html-keyboard-response","73","198781","0.0-1.0-0.36","+","null","",""
"","4888","audio-keyboard-response","74","203699","0.0-1.0-1.36","../audio/teste-vocab--123.mp3","s","emissão","emisyon"
"","null","html-keyboard-response","75","204202","0.0-1.0-0.37","+","null","",""
"","2648","audio-keyboard-response","76","206899","0.0-1.0-1.37","../audio/teste-vocab--126.mp3","s","ambulante","promennen"
"","null","html-keyboard-response","77","207419","0.0-1.0-0.38","+","null","",""
"","1931","audio-keyboard-response","78","209363","0.0-1.0-1.38","../audio/teste-vocab--14.mp3","s","ler","li"
"","null","html-keyboard-response","79","209874","0.0-1.0-0.39","+","null","",""
"","2461","audio-keyboard-response","80","212354","0.0-1.0-1.39","../audio/teste-vocab--93.mp3","s","felino","leopa"
"","null","html-keyboard-response","81","212869","0.0-1.0-0.40","+","null","",""
"","1891","audio-keyboard-response","82","214787","0.0-1.0-1.40","../audio/teste-vocab--22.mp3","s","quebrado","kraze"
"","null","html-keyboard-response","83","215298","0.0-1.0-0.41","+","null","",""
"","1968","audio-keyboard-response","84","217299","0.0-1.0-1.41","../audio/teste-vocab--78.mp3","s","quarteto","qwatèt"
"","null","html-keyboard-response","85","217814","0.0-1.0-0.42","+","null","",""
"","2091","audio-keyboard-response","86","219923","0.0-1.0-1.42","../audio/teste-vocab--50.mp3","s","artista","atis"
"","null","html-keyboard-response","87","220439","0.0-1.0-0.43","+","null","",""
"","1760","audio-keyboard-response","88","222227","0.0-1.0-1.43","../audio/teste-vocab--15.mp3","s","flecha","flèch"
"","null","html-keyboard-response","89","222728","0.0-1.0-0.44","+","null","",""
"","1981","audio-keyboard-response","90","224723","0.0-1.0-1.44","../audio/teste-vocab--11.mp3","s","joelho","jenou"
"","null","html-keyboard-response","91","225235","0.0-1.0-0.45","+","null","",""
"","1872","audio-keyboard-response","92","227122","0.0-1.0-1.45","../audio/teste-vocab--39.mp3","s","cobra","koulèv"
"","null","html-keyboard-response","93","227638","0.0-1.0-0.46","+","null","",""
"","1851","audio-keyboard-response","94","229506","0.0-1.0-1.46","../audio/teste-vocab--116.mp3","s","vestuário","vestyè"
"","null","html-keyboard-response","95","230014","0.0-1.0-0.47","+","null","",""
"","5499","audio-keyboard-response","96","235539","0.0-1.0-1.47","../audio/teste-vocab--13.mp3","s","ambulância","anbilans"
"","null","html-keyboard-response","97","236059","0.0-1.0-0.48","+","null","",""
"","2880","audio-keyboard-response","98","238963","0.0-1.0-1.48","../audio/teste-vocab--43.mp3","s","mecânico","mekanisyen"
"","null","html-keyboard-response","99","239468","0.0-1.0-0.49","+","null","",""
"","2229","audio-keyboard-response","100","241715","0.0-1.0-1.49","../audio/teste-vocab--71.mp3","s","caule","tij"
"","null","html-keyboard-response","101","242225","0.0-1.0-0.50","+","null","",""
"","2291","audio-keyboard-response","102","244547","0.0-1.0-1.50","../audio/teste-vocab--120.mp3","s","induzir","pwovoke"
"","null","html-keyboard-response","103","245055","0.0-1.0-0.51","+","null","",""
"","2291","audio-keyboard-response","104","247362","0.0-1.0-1.51","../audio/teste-vocab--12.mp3","n","jaula","kaj"
"","null","html-keyboard-response","105","247869","0.0-1.0-0.52","+","null","",""
"","2221","audio-keyboard-response","106","250115","0.0-1.0-1.52","../audio/teste-vocab--18.mp3","s","abelha","myèl"
"","null","html-keyboard-response","107","250619","0.0-1.0-0.53","+","null","",""
"","2811","audio-keyboard-response","108","253443","0.0-1.0-1.53","../audio/teste-vocab--130.mp3","s","gentil","dou"
"","null","html-keyboard-response","109","253959","0.0-1.0-0.54","+","null","",""
"","3051","audio-keyboard-response","110","257026","0.0-1.0-1.54","../audio/teste-vocab--05.mp3","s","limpar","netwaye"
"","null","html-keyboard-response","111","257539","0.0-1.0-0.55","+","null","",""
"","2189","audio-keyboard-response","112","259826","0.0-1.0-1.55","../audio/teste-vocab--129.mp3","n","elipse","elips"
"","null","html-keyboard-response","113","260339","0.0-1.0-0.56","+","null","",""
"","2179","audio-keyboard-response","114","262546","0.0-1.0-1.56","../audio/teste-vocab--57.mp3","s","raiz","rasin"
"","null","html-keyboard-response","115","263048","0.0-1.0-0.57","+","null","",""
"","2701","audio-keyboard-response","116","265763","0.0-1.0-1.57","../audio/teste-vocab--94.mp3","s","paralelo","paralèl"
"","null","html-keyboard-response","117","266279","0.0-1.0-0.58","+","null","",""
"","2261","audio-keyboard-response","118","268563","0.0-1.0-1.58","../audio/teste-vocab--88.mp3","s","portátil","pòtab"
"","null","html-keyboard-response","119","269068","0.0-1.0-0.59","+","null","",""
"","2461","audio-keyboard-response","120","271554","0.0-1.0-1.59","../audio/teste-vocab--72.mp3","s","ilha","zile"
"","null","html-keyboard-response","121","272058","0.0-1.0-0.60","+","null","",""
"","1869","audio-keyboard-response","122","273948","0.0-1.0-1.60","../audio/teste-vocab--64.mp3","s","colher","kiyè"
"","null","html-keyboard-response","123","274452","0.0-1.0-0.61","+","null","",""
"","2219","audio-keyboard-response","124","276700","0.0-1.0-1.61","../audio/teste-vocab--56.mp3","s","agricultura","agrikilti"
"","null","html-keyboard-response","125","277212","0.0-1.0-0.62","+","null","",""
"","2040","audio-keyboard-response","126","279276","0.0-1.0-1.62","../audio/teste-vocab--35.mp3","s","líquido","likid"
"","null","html-keyboard-response","127","279792","0.0-1.0-0.63","+","null","",""
"","2509","audio-keyboard-response","128","282332","0.0-1.0-1.63","../audio/teste-vocab--115.mp3","n","perpendicular","pèpandikilè"
"","null","html-keyboard-response","129","282852","0.0-1.0-0.64","+","null","",""
"","1979","audio-keyboard-response","130","284844","0.0-1.0-1.64","../audio/teste-vocab--113.mp3","s","ascender","limen"
"","null","html-keyboard-response","131","285362","0.0-1.0-0.65","+","null","",""
"","2109","audio-keyboard-response","132","287500","0.0-1.0-1.65","../audio/teste-vocab--82.mp3","n","roer","ronje"
"","null","html-keyboard-response","133","288012","0.0-1.0-0.66","+","null","",""
"","1909","audio-keyboard-response","134","289948","0.0-1.0-1.66","../audio/teste-vocab--125.mp3","s","lamaçal","labou"
"","null","html-keyboard-response","135","290462","0.0-1.0-0.67","+","null","",""
"","1848","audio-keyboard-response","136","292332","0.0-1.0-1.67","../audio/teste-vocab--45.mp3","s","dentista","dantis"
"","null","html-keyboard-response","137","292842","0.0-1.0-0.68","+","null","",""
"","1771","audio-keyboard-response","138","294636","0.0-1.0-1.68","../audio/teste-vocab--03.mp3","s","balançar","balanse"
"","null","html-keyboard-response","139","295152","0.0-1.0-0.69","+","null","",""
"","2101","audio-keyboard-response","140","297276","0.0-1.0-1.69","../audio/teste-vocab--52.mp3","s","construção","konstriksyon"
"","null","html-keyboard-response","141","297792","0.0-1.0-0.70","+","null","",""
"","1861","audio-keyboard-response","142","299676","0.0-1.0-1.70","../audio/teste-vocab--36.mp3","s","grupo","gwoup"
"","null","html-keyboard-response","143","300182","0.0-1.0-0.71","+","null","",""
"","1800","audio-keyboard-response","144","301996","0.0-1.0-1.71","../audio/teste-vocab--26.mp3","s","cotovelo","koud"
"","null","html-keyboard-response","145","302512","0.0-1.0-0.72","+","null","",""
"","2400","audio-keyboard-response","146","304940","0.0-1.0-1.72","../audio/teste-vocab--100.mp3","s","consumir","konsome"
"","null","html-keyboard-response","147","305452","0.0-1.0-0.73","+","null","",""
"","1979","audio-keyboard-response","148","307452","0.0-1.0-1.73","../audio/teste-vocab--119.mp3","s","numeroso","anpil"
"","null","html-keyboard-response","149","307965","0.0-1.0-0.74","+","null","",""
"","1829","audio-keyboard-response","150","309820","0.0-1.0-1.74","../audio/teste-vocab--20.mp3","s","medir","mezire"
"","null","html-keyboard-response","151","310321","0.0-1.0-0.75","+","null","",""
"","1739","audio-keyboard-response","152","312092","0.0-1.0-1.75","../audio/teste-vocab--54.mp3","s","arbusto","raje"
"","null","html-keyboard-response","153","312612","0.0-1.0-0.76","+","null","",""
"","1789","audio-keyboard-response","154","314428","0.0-1.0-1.76","../audio/teste-vocab--34.mp3","s","tronco","twon"
"","null","html-keyboard-response","155","314941","0.0-1.0-0.77","+","null","",""
"","1840","audio-keyboard-response","156","316796","0.0-1.0-1.77","../audio/teste-vocab--02.mp3","s","homem","gason"
"","null","html-keyboard-response","157","317302","0.0-1.0-0.78","+","null","",""
"","2120","audio-keyboard-response","158","319452","0.0-1.0-1.78","../audio/teste-vocab--46.mp3","s","ombro","zepòl"
"","null","html-keyboard-response","159","319962","0.0-1.0-0.79","+","null","",""
"","2000","audio-keyboard-response","160","321980","0.0-1.0-1.79","../audio/teste-vocab--06.mp3","s","barco","bato"
"","null","html-keyboard-response","161","322482","0.0-1.0-0.80","+","null","",""
"","2061","audio-keyboard-response","162","324556","0.0-1.0-1.80","../audio/teste-vocab--17.mp3","s","móvel","mobil"
"","null","html-keyboard-response","163","325072","0.0-1.0-0.81","+","null","",""
"","2608","audio-keyboard-response","164","327724","0.0-1.0-1.81","../audio/teste-vocab--101.mp3","n","incandescente","enkandesan"
"","null","html-keyboard-response","165","328232","0.0-1.0-0.82","+","null","",""
"","3400","audio-keyboard-response","166","331660","0.0-1.0-1.82","../audio/teste-vocab--118.mp3","n","paralelogramo","paralelogram"
"","null","html-keyboard-response","167","332172","0.0-1.0-0.83","+","null","",""
"","2368","audio-keyboard-response","168","334577","0.0-1.0-1.83","../audio/teste-vocab--99.mp3","n","arqueólogo","akeyológ"
"","null","html-keyboard-response","169","335087","0.0-1.0-0.84","+","null","",""
"","1440","audio-keyboard-response","170","336545","0.0-1.0-1.84","../audio/teste-vocab--59.mp3","s","par","pè"
"","null","html-keyboard-response","171","337048","0.0-1.0-0.85","+","null","",""
"","2309","audio-keyboard-response","172","339378","0.0-1.0-1.85","../audio/teste-vocab--61.mp3","s","iluminação","iliminasyon"
"","null","html-keyboard-response","173","339897","0.0-1.0-0.86","+","null","",""
"","1888","audio-keyboard-response","174","341809","0.0-1.0-1.86","../audio/teste-vocab--85.mp3","s","trio","trio"
"","null","html-keyboard-response","175","342327","0.0-1.0-0.87","+","null","",""
"","1971","audio-keyboard-response","176","344321","0.0-1.0-1.87","../audio/teste-vocab--96.mp3","s","árido","sechrès"
"","null","html-keyboard-response","177","344827","0.0-1.0-0.88","+","null","",""
"","2739","audio-keyboard-response","178","347585","0.0-1.0-1.88","../audio/teste-vocab--127.mp3","s","côncavo","konkav"
"","null","html-keyboard-response","179","348097","0.0-1.0-0.89","+","null","",""
"","2088","audio-keyboard-response","180","350209","0.0-1.0-1.89","../audio/teste-vocab--67.mp3","s","corrimão","ranp"
"","null","html-keyboard-response","181","350718","0.0-1.0-0.90","+","null","",""
"","1821","audio-keyboard-response","182","352561","0.0-1.0-1.90","../audio/teste-vocab--01.mp3","s","boneca","pope"
"","null","html-keyboard-response","183","353077","0.0-1.0-0.91","+","null","",""
"","1949","audio-keyboard-response","184","355057","0.0-1.0-1.91","../audio/teste-vocab--106.mp3","s","lubrificar","grese"
"","null","html-keyboard-response","185","355568","0.0-1.0-0.92","+","null","",""
"","2299","audio-keyboard-response","186","357889","0.0-1.0-1.92","../audio/teste-vocab--65.mp3","s","discussão","diskisyon"
"","null","html-keyboard-response","187","358402","0.0-1.0-0.93","+","null","",""
"","2029","audio-keyboard-response","188","360449","0.0-1.0-1.93","../audio/teste-vocab--32.mp3","s","descascar","dekale"
"","null","html-keyboard-response","189","360955","0.0-1.0-0.94","+","null","",""
"","2021","audio-keyboard-response","190","362993","0.0-1.0-1.94","../audio/teste-vocab--60.mp3","s","secretaria","sekretè"
"","null","html-keyboard-response","191","363508","0.0-1.0-0.95","+","null","",""
"","2291","audio-keyboard-response","192","365825","0.0-1.0-1.95","../audio/teste-vocab--122.mp3","s","transeunte","pasajè"
"","null","html-keyboard-response","193","366340","0.0-1.0-0.96","+","null","",""
"","1589","audio-keyboard-response","194","367953","0.0-1.0-1.96","../audio/teste-vocab--16.mp3","s","pescoço","kou"
"","null","html-keyboard-response","195","368467","0.0-1.0-0.97","+","null","",""
"","2080","audio-keyboard-response","196","370577","0.0-1.0-1.97","../audio/teste-vocab--80.mp3","s","binóculo","longvi"
"","null","html-keyboard-response","197","371087","0.0-1.0-0.98","+","null","",""
"","2549","audio-keyboard-response","198","373665","0.0-1.0-1.98","../audio/teste-vocab--83.mp3","s","morsa","mòs"
"","null","html-keyboard-response","199","374173","0.0-1.0-0.99","+","null","",""
"","2659","audio-keyboard-response","200","376849","0.0-1.0-1.99","../audio/teste-vocab--25.mp3","n","canguru","kanguwou"
"","null","html-keyboard-response","201","377353","0.0-1.0-0.100","+","null","",""
"","1752","audio-keyboard-response","202","379121","0.0-1.0-1.100","../audio/teste-vocab--41.mp3","s","médico","doktè,"
"","null","html-keyboard-response","203","379627","0.0-1.0-0.101","+","null","",""
"","2832","audio-keyboard-response","204","382481","0.0-1.0-1.101","../audio/teste-vocab--109.mp3","n","anfíbio","anfibyen"
"","null","html-keyboard-response","205","382997","0.0-1.0-0.102","+","null","",""
"","1789","audio-keyboard-response","206","384817","0.0-1.0-1.102","../audio/teste-vocab--95.mp3","s","submergir","plonje"
"","null","html-keyboard-response","207","385327","0.0-1.0-0.103","+","null","",""
"","2011","audio-keyboard-response","208","387361","0.0-1.0-1.103","../audio/teste-vocab--110.mp3","s","prodígio","pwodij"
"","null","html-keyboard-response","209","387867","0.0-1.0-0.104","+","null","",""
"","1821","audio-keyboard-response","210","389713","0.0-1.0-1.104","../audio/teste-vocab--28.mp3","s","águia","èg"
"","null","html-keyboard-response","211","390228","0.0-1.0-0.105","+","null","",""
"","1419","audio-keyboard-response","212","391665","0.0-1.0-1.105","../audio/teste-vocab--10.mp3","s","corneta","kòn"
"","null","html-keyboard-response","213","392177","0.0-1.0-0.106","+","null","",""
"","2248","audio-keyboard-response","214","394449","0.0-1.0-1.106","../audio/teste-vocab--75.mp3","s","carpinteiro","chapantye"
"","null","html-keyboard-response","215","394968","0.0-1.0-0.107","+","null","",""
"","2429","audio-keyboard-response","216","397425","0.0-1.0-1.107","../audio/teste-vocab--79.mp3","n","moldura"," chanbranl"
"","null","html-keyboard-response","217","397928","0.0-1.0-0.108","+","null","",""
"","1819","audio-keyboard-response","218","399778","0.0-1.0-1.108","../audio/teste-vocab--77.mp3","s","comércio","komès"
"","null","html-keyboard-response","219","400298","0.0-1.0-0.109","+","null","",""
"","2288","audio-keyboard-response","220","402609","0.0-1.0-1.109","../audio/teste-vocab--19.mp3","s","hora","è"
"","null","html-keyboard-response","221","403118","0.0-1.0-0.110","+","null","",""
"","1960","audio-keyboard-response","222","405089","0.0-1.0-1.110","../audio/teste-vocab--117.mp3","s","córnea","kòn"
"","null","html-keyboard-response","223","405607","0.0-1.0-0.111","+","null","",""
"","2680","audio-keyboard-response","224","408305","0.0-1.0-1.111","../audio/teste-vocab--90.mp3","s","carniça","kanivò"
"","null","html-keyboard-response","225","408818","0.0-1.0-0.112","+","null","",""
"","2280","audio-keyboard-response","226","411121","0.0-1.0-1.112","../audio/teste-vocab--30.mp3","s","pintor","pent"
"","null","html-keyboard-response","227","411637","0.0-1.0-0.113","+","null","",""
"","1501","audio-keyboard-response","228","413153","0.0-1.0-1.113","../audio/teste-vocab--108.mp3","s","moradia","kay"
"","null","html-keyboard-response","229","413667","0.0-1.0-0.114","+","null","",""
"","2328","audio-keyboard-response","230","416017","0.0-1.0-1.114","../audio/teste-vocab--111.mp3","s","jubilosa","rejwisans"
"","null","html-keyboard-response","231","416528","0.0-1.0-0.115","+","null","",""
"","1880","audio-keyboard-response","232","418433","0.0-1.0-1.115","../audio/teste-vocab--47.mp3","s","envelope","anvlope"
"","null","html-keyboard-response","233","418938","0.0-1.0-0.116","+","null","",""
"","2480","audio-keyboard-response","234","421442","0.0-1.0-1.116","../audio/teste-vocab--112.mp3","s","aparição","aparisyon"
"","null","html-keyboard-response","235","421947","0.0-1.0-0.117","+","null","",""
"","1981","audio-keyboard-response","236","423953","0.0-1.0-1.117","../audio/teste-vocab--38.mp3","s","cerimônia","seremoni"
"","null","html-keyboard-response","237","424467","0.0-1.0-0.118","+","null","",""
"","2008","audio-keyboard-response","238","426497","0.0-1.0-1.118","../audio/teste-vocab--31.mp3","s","vazio","vid"
"","null","html-keyboard-response","239","427018","0.0-1.0-0.119","+","null","",""
"","2040","audio-keyboard-response","240","429089","0.0-1.0-1.119","../audio/teste-vocab--86.mp3","s","pensar","panse"
"","null","html-keyboard-response","241","429597","0.0-1.0-0.120","+","null","",""
"","1941","audio-keyboard-response","242","431554","0.0-1.0-1.120","../audio/teste-vocab--84.mp3","s","confiar","konfye"
"","null","html-keyboard-response","243","432057","0.0-1.0-0.121","+","null","",""
"","1869","audio-keyboard-response","244","433953","0.0-1.0-1.121","../audio/teste-vocab--53.mp3","s","orientar","oryante"
"","null","html-keyboard-response","245","434467","0.0-1.0-0.122","+","null","",""
"","1979","audio-keyboard-response","246","436465","0.0-1.0-1.122","../audio/teste-vocab--73.mp3","s","ângulo","ang"
"","null","html-keyboard-response","247","436967","0.0-1.0-0.123","+","null","",""
"","2139","audio-keyboard-response","248","439137","0.0-1.0-1.123","../audio/teste-vocab--63.mp3","s","transparente","transparan"
"","null","html-keyboard-response","249","439657","0.0-1.0-0.124","+","null","",""
"","2179","audio-keyboard-response","250","441857","0.0-1.0-1.124","../audio/teste-vocab--89.mp3","s","classificar","klasifika"
"","null","html-keyboard-response","251","442367","0.0-1.0-0.125","+","null","",""
"","1779","audio-keyboard-response","252","444177","0.0-1.0-1.125","../audio/teste-vocab--68.mp3","s","surpreendido","sezi"
"","null","html-keyboard-response","253","444679","0.0-1.0-0.126","+","null","",""
"","2371","audio-keyboard-response","254","447073","0.0-1.0-1.126","../audio/teste-vocab--103.mp3","s","utensílio","istansil"
"","null","html-keyboard-response","255","447587","0.0-1.0-0.127","+","null","",""
"","1861","audio-keyboard-response","256","449473","0.0-1.0-1.127","../audio/teste-vocab--08.mp3","s","vaca","vach"
"","null","html-keyboard-response","257","449986","0.0-1.0-0.128","+","null","",""
"","2088","audio-keyboard-response","258","452097","0.0-1.0-1.128","../audio/teste-vocab--91.mp3","s","bússola","bousòl"
"","null","html-keyboard-response","259","452603","0.0-1.0-0.129","+","null","",""
"","1971","audio-keyboard-response","260","454593","0.0-1.0-1.129","../audio/teste-vocab--62.mp3","s","carretel","bobin"
