"view_history","rt","trial_type","trial_index","time_elapsed","internal_node_id","stimulus","response","class","status","answer","correct","trial","letters"
"[{""page_index"":0,""viewing_time"":2290}]","2291","instructions","0","2292","0.0-0.0","","","","","","","",""
"","null","html-keyboard-response","1","2919","0.0-1.0-0.0","+","null","","","","","",""
"","56588","html-keyboard-response","2","59508","0.0-1.0-1.0","plibar","s","null","noncog","pseudo","N","prac","null"
"","null","html-keyboard-response","3","60009","0.0-1.0-0.1","+","null","","","","","",""
"","12649","html-keyboard-response","4","72659","0.0-1.0-1.1","chassi","s","null","cog","word","S","prac","null"
"","null","html-keyboard-response","5","73160","0.0-1.0-0.2","+","null","","","","","",""
"","6074","html-keyboard-response","6","79235","0.0-1.0-1.2","oliva","s","null","cog","word","S","prac","null"
"","null","html-keyboard-response","7","79736","0.0-1.0-0.3","+","null","","","","","",""
"","7898","html-keyboard-response","8","87635","0.0-1.0-1.3","crante","s","null","noncog","pseudo","N","prac","null"
"","null","html-keyboard-response","9","88136","0.0-1.0-0.4","+","null","","","","","",""
"","2682","html-keyboard-response","10","90819","0.0-1.0-1.4","daja","s","null","noncog","pseudo","N","prac","null"
"","null","html-keyboard-response","11","91320","0.0-1.0-0.5","+","null","","","","","",""
"","3850","html-keyboard-response","12","95171","0.0-1.0-1.5","órgão","s","null","noncog","word","S","prac","null"
"","null","html-keyboard-response","13","95672","0.0-1.0-0.6","+","null","","","","","",""
"","5850","html-keyboard-response","14","101523","0.0-1.0-1.6","calmaria","s","null","noncog","word","S","prac","null"
"[{""page_index"":0,""viewing_time"":25711}]","25711","instructions","15","127234","0.0-2.0","","","","","","","",""
"","null","html-keyboard-response","16","127836","0.0-3.0-0.0","+","null","","","","","",""
"","4294","html-keyboard-response","17","132130","0.0-3.0-1.0","cascata","s","n","noncog","word","S","exp","7"
"","null","html-keyboard-response","18","132631","0.0-3.0-0.1","+","null","","","","","",""
"","3754","html-keyboard-response","19","136386","0.0-3.0-1.1","alfabeto","s","n","cog","word","S","exp","8"
"","null","html-keyboard-response","20","136887","0.0-3.0-0.2","+","null","","","","","",""
"","2106","html-keyboard-response","21","138994","0.0-3.0-1.2","verdade","s","n","cog","word","S","exp","7"
"","null","html-keyboard-response","22","139495","0.0-3.0-0.3","+","null","","","","","",""
"","1690","html-keyboard-response","23","141186","0.0-3.0-1.3","anjo","s","n","cog","word","S","exp","4"
"","null","html-keyboard-response","24","141687","0.0-3.0-0.4","+","null","","","","","",""
"","4027","html-keyboard-response","25","145714","0.0-3.0-1.4","boreta","s","null","noncog","pseudo","N","exp","null"
"","null","html-keyboard-response","26","146216","0.0-3.0-0.5","+","null","","","","","",""
"","3658","html-keyboard-response","27","149874","0.0-3.0-1.5","nacional","s","a","cog","word","S","exp","8"
"","null","html-keyboard-response","28","150376","0.0-3.0-0.6","+","null","","","","","",""
"","2666","html-keyboard-response","29","153042","0.0-3.0-1.6","uçar","s","null","noncog","pseudo","N","exp","null"
"","null","html-keyboard-response","30","153543","0.0-3.0-0.7","+","null","","","","","",""
"","4043","html-keyboard-response","31","157586","0.0-3.0-1.7","lapestra","n","null","noncog","pseudo","N","exp","null"
"","null","html-keyboard-response","32","158094","0.0-3.0-0.8","+","null","","","","","",""
"","2068","html-keyboard-response","33","160162","0.0-3.0-1.8","taberia","s","null","noncog","pseudo","N","exp","null"
"","null","html-keyboard-response","34","160663","0.0-3.0-0.9","+","null","","","","","",""
"","6618","html-keyboard-response","35","167282","0.0-3.0-1.9","dilheira","n","null","noncog","pseudo","N","exp","null"
"","null","html-keyboard-response","36","167783","0.0-3.0-0.10","+","null","","","","","",""
"","5291","html-keyboard-response","37","173074","0.0-3.0-1.10","ocinto","s","null","noncog","pseudo","N","exp","null"
"","null","html-keyboard-response","38","173575","0.0-3.0-0.11","+","null","","","","","",""
"","4202","html-keyboard-response","39","177778","0.0-3.0-1.11","filosofia","n","n","cog","word","S","exp","9"
"","null","html-keyboard-response","40","178279","0.0-3.0-0.12","+","null","","","","","",""
"","7834","html-keyboard-response","41","186114","0.0-3.0-1.12","adoçar","s","v","noncog","word","S","exp","6"
"","null","html-keyboard-response","42","186615","0.0-3.0-0.13","+","null","","","","","",""
"","3594","html-keyboard-response","43","190210","0.0-3.0-1.13","orupas","n","null","noncog","pseudo","N","exp","null"
"","null","html-keyboard-response","44","190713","0.0-3.0-0.14","+","null","","","","","",""
"","4536","html-keyboard-response","45","195250","0.0-3.0-1.14","trenos","s","null","noncog","pseudo","N","exp","null"
"","null","html-keyboard-response","46","195751","0.0-3.0-0.15","+","null","","","","","",""
"","3722","html-keyboard-response","47","199474","0.0-3.0-1.15","açúcar","s","n","noncog","word","S","exp","6"
"","null","html-keyboard-response","48","199975","0.0-3.0-0.16","+","null","","","","","",""
"","1738","html-keyboard-response","49","201714","0.0-3.0-1.16","civil","s","a","cog","word","S","exp","5"
"","null","html-keyboard-response","50","202215","0.0-3.0-0.17","+","null","","","","","",""
"","2154","html-keyboard-response","51","204370","0.0-3.0-1.17","macras","s","null","noncog","pseudo","N","exp","null"
"","null","html-keyboard-response","52","204871","0.0-3.0-0.18","+","null","","","","","",""
"","2090","html-keyboard-response","53","206962","0.0-3.0-1.18","matinal","s","a","cog","word","S","exp","7"
"","null","html-keyboard-response","54","207463","0.0-3.0-0.19","+","null","","","","","",""
"","3594","html-keyboard-response","55","211058","0.0-3.0-1.19","ilhure","s","null","noncog","pseudo","N","exp","null"
"","null","html-keyboard-response","56","211559","0.0-3.0-0.20","+","null","","","","","",""
"","3258","html-keyboard-response","57","214818","0.0-3.0-1.20","enxerido","s","a","noncog","word","S","exp","8"
"","null","html-keyboard-response","58","215319","0.0-3.0-0.21","+","null","","","","","",""
"","3242","html-keyboard-response","59","218562","0.0-3.0-1.21","crolatário","s","null","noncog","pseudo","N","exp","null"
"","null","html-keyboard-response","60","219063","0.0-3.0-0.22","+","null","","","","","",""
"","4027","html-keyboard-response","61","223090","0.0-3.0-1.22","detative","n","null","noncog","pseudo","N","exp","null"
"","null","html-keyboard-response","62","223591","0.0-3.0-0.23","+","null","","","","","",""
"","4874","html-keyboard-response","63","228466","0.0-3.0-1.23","candifência","s","null","noncog","pseudo","N","exp","null"
"","null","html-keyboard-response","64","228967","0.0-3.0-0.24","+","null","","","","","",""
"","4026","html-keyboard-response","65","232994","0.0-3.0-1.24","fasdas","n","null","noncog","pseudo","N","exp","null"
"","null","html-keyboard-response","66","233494","0.0-3.0-0.25","+","null","","","","","",""
"","2379","html-keyboard-response","67","235874","0.0-3.0-1.25","bandido","s","n","cog","word","S","exp","7"
"","null","html-keyboard-response","68","236375","0.0-3.0-0.26","+","null","","","","","",""
"","4506","html-keyboard-response","69","240881","0.0-3.0-1.26","cirado","s","null","noncog","pseudo","N","exp","null"
"","null","html-keyboard-response","70","241383","0.0-3.0-0.27","+","null","","","","","",""
"","2138","html-keyboard-response","71","243521","0.0-3.0-1.27","chorão","s","a","noncog","word","S","exp","6"
"","null","html-keyboard-response","72","244024","0.0-3.0-0.28","+","null","","","","","",""
"","2217","html-keyboard-response","73","246241","0.0-3.0-1.28","raspar","s","v","noncog","word","S","exp","6"
"","null","html-keyboard-response","74","246743","0.0-3.0-0.29","+","null","","","","","",""
"","4138","html-keyboard-response","75","250881","0.0-3.0-1.29","atrasar","s","v","noncog","word","S","exp","7"
"","null","html-keyboard-response","76","251383","0.0-3.0-0.30","+","null","","","","","",""
"","2490","html-keyboard-response","77","253873","0.0-3.0-1.30","gilha","s","null","noncog","pseudo","N","exp","null"
"","null","html-keyboard-response","78","254375","0.0-3.0-0.31","+","null","","","","","",""
"","2186","html-keyboard-response","79","256562","0.0-3.0-1.31","atitro","s","null","noncog","pseudo","N","exp","null"
"","null","html-keyboard-response","80","257063","0.0-3.0-0.32","+","null","","","","","",""
"","3690","html-keyboard-response","81","260753","0.0-3.0-1.32","esprotiar","s","null","noncog","pseudo","N","exp","null"
"","null","html-keyboard-response","82","261257","0.0-3.0-0.33","+","null","","","","","",""
"","2376","html-keyboard-response","83","263633","0.0-3.0-1.33","grave","s","a","cog","word","S","exp","5"
"","null","html-keyboard-response","84","264135","0.0-3.0-0.34","+","null","","","","","",""
"","2474","html-keyboard-response","85","266610","0.0-3.0-1.34","parceter","s","null","noncog","pseudo","N","exp","null"
"","null","html-keyboard-response","86","267110","0.0-3.0-0.35","+","null","","","","","",""
"","2939","html-keyboard-response","87","270050","0.0-3.0-1.35","ofreta","n","null","noncog","pseudo","N","exp","null"
"","null","html-keyboard-response","88","270555","0.0-3.0-0.36","+","null","","","","","",""
"","3782","html-keyboard-response","89","274337","0.0-3.0-1.36","bibarconato","s","null","noncog","pseudo","N","exp","null"
"","null","html-keyboard-response","90","274839","0.0-3.0-0.37","+","null","","","","","",""
"","3626","html-keyboard-response","91","278466","0.0-3.0-1.37","salpicado","s","a","noncog","word","S","exp","9"
"","null","html-keyboard-response","92","278967","0.0-3.0-0.38","+","null","","","","","",""
"","2826","html-keyboard-response","93","281793","0.0-3.0-1.38","jantar","s","v","noncog","word","S","exp","6"
"","null","html-keyboard-response","94","282295","0.0-3.0-0.39","+","null","","","","","",""
"","2650","html-keyboard-response","95","284945","0.0-3.0-1.39","temperar","s","v","noncog","word","S","exp","8"
"","null","html-keyboard-response","96","285451","0.0-3.0-0.40","+","null","","","","","",""
"","2806","html-keyboard-response","97","288257","0.0-3.0-1.40","garastia","s","null","noncog","pseudo","N","exp","null"
"","null","html-keyboard-response","98","288759","0.0-3.0-0.41","+","null","","","","","",""
"","2426","html-keyboard-response","99","291186","0.0-3.0-1.41","fino","s","a","cog","word","S","exp","4"
"","null","html-keyboard-response","100","291687","0.0-3.0-0.42","+","null","","","","","",""
"","4058","html-keyboard-response","101","295745","0.0-3.0-1.42","independente","s","a","noncog","word","S","exp","12"
"","null","html-keyboard-response","102","296246","0.0-3.0-0.43","+","null","","","","","",""
"","5371","html-keyboard-response","103","301617","0.0-3.0-1.43","undivídio","s","null","noncog","pseudo","N","exp","null"
"","null","html-keyboard-response","104","302118","0.0-3.0-0.44","+","null","","","","","",""
"","2378","html-keyboard-response","105","304497","0.0-3.0-1.44","mania","s","n","cog","word","S","exp","5"
"","null","html-keyboard-response","106","304999","0.0-3.0-0.45","+","null","","","","","",""
"","1450","html-keyboard-response","107","306449","0.0-3.0-1.45","azul","s","n","noncog","word","S","exp","4"
"","null","html-keyboard-response","108","306955","0.0-3.0-0.46","+","null","","","","","",""
"","2598","html-keyboard-response","109","309553","0.0-3.0-1.46","multiplicar","s","v","cog","word","S","exp","11"
"","null","html-keyboard-response","110","310054","0.0-3.0-0.47","+","null","","","","","",""
"","2923","html-keyboard-response","111","312977","0.0-3.0-1.47","protas","s","null","noncog","pseudo","N","exp","null"
"","null","html-keyboard-response","112","313479","0.0-3.0-0.48","+","null","","","","","",""
"","2778","html-keyboard-response","113","316257","0.0-3.0-1.48","agravar","s","v","cog","word","S","exp","7"
"","null","html-keyboard-response","114","316759","0.0-3.0-0.49","+","null","","","","","",""
"","2970","html-keyboard-response","115","319729","0.0-3.0-1.49","oecano","s","null","noncog","pseudo","N","exp","null"
"","null","html-keyboard-response","116","320244","0.0-3.0-0.50","+","null","","","","","",""
"","4956","html-keyboard-response","117","325201","0.0-3.0-1.50","vervas","s","null","noncog","pseudo","N","exp","null"
"","null","html-keyboard-response","118","325702","0.0-3.0-0.51","+","null","","","","","",""
"","4170","html-keyboard-response","119","329873","0.0-3.0-1.51","conjerto","n","null","noncog","pseudo","N","exp","null"
"","null","html-keyboard-response","120","330373","0.0-3.0-0.52","+","null","","","","","",""
"","3291","html-keyboard-response","121","333665","0.0-3.0-1.52","enxarto","s","null","noncog","pseudo","N","exp","null"
"","null","html-keyboard-response","122","334179","0.0-3.0-0.53","+","null","","","","","",""
"","2302","html-keyboard-response","123","336481","0.0-3.0-1.53","filme","s","n","cog","word","S","exp","5"
"","null","html-keyboard-response","124","336987","0.0-3.0-0.54","+","null","","","","","",""
"","3590","html-keyboard-response","125","340577","0.0-3.0-1.54","dacada","s","null","noncog","pseudo","N","exp","null"
"","null","html-keyboard-response","126","341079","0.0-3.0-0.55","+","null","","","","","",""
"","2426","html-keyboard-response","127","343505","0.0-3.0-1.55","melão","s","n","cog","word","S","exp","5"
"","null","html-keyboard-response","128","344007","0.0-3.0-0.56","+","null","","","","","",""
"","3162","html-keyboard-response","129","347169","0.0-3.0-1.56","uchães","s","null","noncog","pseudo","N","exp","null"
"","null","html-keyboard-response","130","347680","0.0-3.0-0.57","+","null","","","","","",""
"","2768","html-keyboard-response","131","350449","0.0-3.0-1.57","âgnulo","s","null","noncog","pseudo","N","exp","null"
"","null","html-keyboard-response","132","350951","0.0-3.0-0.58","+","null","","","","","",""
"","2986","html-keyboard-response","133","353937","0.0-3.0-1.58","plinta","s","null","noncog","pseudo","N","exp","null"
"","null","html-keyboard-response","134","354439","0.0-3.0-0.59","+","null","","","","","",""
"","5482","html-keyboard-response","135","359921","0.0-3.0-1.59","senareta","s","null","noncog","pseudo","N","exp","null"
"","null","html-keyboard-response","136","360422","0.0-3.0-0.60","+","null","","","","","",""
"","3002","html-keyboard-response","137","363425","0.0-3.0-1.60","areia","s","n","noncog","word","S","exp","5"
"","null","html-keyboard-response","138","363930","0.0-3.0-0.61","+","null","","","","","",""
"","2663","html-keyboard-response","139","366593","0.0-3.0-1.61","tímido","s","a","cog","word","S","exp","6"
"","null","html-keyboard-response","140","367094","0.0-3.0-0.62","+","null","","","","","",""
"","2682","html-keyboard-response","141","369777","0.0-3.0-1.62","lorfaz","s","null","noncog","pseudo","N","exp","null"
"","null","html-keyboard-response","142","370278","0.0-3.0-0.63","+","null","","","","","",""
"","4874","html-keyboard-response","143","375153","0.0-3.0-1.63","animado","s","a","noncog","word","S","exp","7"
"","null","html-keyboard-response","144","375654","0.0-3.0-0.64","+","null","","","","","",""
"","6730","html-keyboard-response","145","382385","0.0-3.0-1.64","grátis","s","a","cog","word","S","exp","6"
"","null","html-keyboard-response","146","382887","0.0-3.0-0.65","+","null","","","","","",""
"","3578","html-keyboard-response","147","386465","0.0-3.0-1.65","manfa","n","null","noncog","pseudo","N","exp","null"
"","null","html-keyboard-response","148","386967","0.0-3.0-0.66","+","null","","","","","",""
"","2570","html-keyboard-response","149","389537","0.0-3.0-1.66","drama","s","n","cog","word","S","exp","5"
"","null","html-keyboard-response","150","390045","0.0-3.0-0.67","+","null","","","","","",""
"","2196","html-keyboard-response","151","392241","0.0-3.0-1.67","esperar","s","v","cog","word","S","exp","7"
"","null","html-keyboard-response","152","392742","0.0-3.0-0.68","+","null","","","","","",""
"","3339","html-keyboard-response","153","396081","0.0-3.0-1.68","ejerro","s","null","noncog","pseudo","N","exp","null"
"","null","html-keyboard-response","154","396583","0.0-3.0-0.69","+","null","","","","","",""
"","3050","html-keyboard-response","155","399633","0.0-3.0-1.69","instruído","s","a","noncog","word","S","exp","9"
"","null","html-keyboard-response","156","400134","0.0-3.0-0.70","+","null","","","","","",""
"","3483","html-keyboard-response","157","403617","0.0-3.0-1.70","sintonizar","s","v","noncog","word","S","exp","10"
"","null","html-keyboard-response","158","404118","0.0-3.0-0.71","+","null","","","","","",""
"","3562","html-keyboard-response","159","407681","0.0-3.0-1.71","tartos","s","null","noncog","pseudo","N","exp","null"
"","null","html-keyboard-response","160","408183","0.0-3.0-0.72","+","null","","","","","",""
"","3210","html-keyboard-response","161","411393","0.0-3.0-1.72","cerca","s","n","noncog","word","S","exp","5"
"","null","html-keyboard-response","162","411894","0.0-3.0-0.73","+","null","","","","","",""
"","3370","html-keyboard-response","163","415265","0.0-3.0-1.73","destino","s","n","cog","word","S","exp","7"
"","null","html-keyboard-response","164","415767","0.0-3.0-0.74","+","null","","","","","",""
"","3658","html-keyboard-response","165","419425","0.0-3.0-1.74","montanha","s","n","cog","word","S","exp","8"
"","null","html-keyboard-response","166","419926","0.0-3.0-0.75","+","null","","","","","",""
"","3578","html-keyboard-response","167","423505","0.0-3.0-1.75","rédesa","s","null","noncog","pseudo","N","exp","null"
"","null","html-keyboard-response","168","424005","0.0-3.0-0.76","+","null","","","","","",""
"","3755","html-keyboard-response","169","427761","0.0-3.0-1.76","apontar","s","v","noncog","word","S","exp","7"
"","null","html-keyboard-response","170","428261","0.0-3.0-0.77","+","null","","","","","",""
"","4299","html-keyboard-response","171","432561","0.0-3.0-1.77","pedaço","s","n","noncog","word","S","exp","6"
"","null","html-keyboard-response","172","433062","0.0-3.0-0.78","+","null","","","","","",""
"","5402","html-keyboard-response","173","438465","0.0-3.0-1.78","nevela","s","null","noncog","pseudo","N","exp","null"
"","null","html-keyboard-response","174","438965","0.0-3.0-0.79","+","null","","","","","",""
"","3099","html-keyboard-response","175","442065","0.0-3.0-1.79","terdia","s","null","noncog","pseudo","N","exp","null"
"","null","html-keyboard-response","176","442566","0.0-3.0-0.80","+","null","","","","","",""
"","2858","html-keyboard-response","177","445425","0.0-3.0-1.80","risbos","n","null","noncog","pseudo","N","exp","null"
"","null","html-keyboard-response","178","445926","0.0-3.0-0.81","+","null","","","","","",""
"","2538","html-keyboard-response","179","448465","0.0-3.0-1.81","convidado","s","n","noncog","word","S","exp","9"
"","null","html-keyboard-response","180","448971","0.0-3.0-0.82","+","null","","","","","",""
"","4038","html-keyboard-response","181","453009","0.0-3.0-1.82","lagras","s","null","noncog","pseudo","N","exp","null"
"","null","html-keyboard-response","182","453510","0.0-3.0-0.83","+","null","","","","","",""
"","2458","html-keyboard-response","183","455969","0.0-3.0-1.83","pitada","n","n","noncog","word","S","exp","6"
"","null","html-keyboard-response","184","456475","0.0-3.0-0.84","+","null","","","","","",""
"","1749","html-keyboard-response","185","458225","0.0-3.0-1.84","verde","s","a","noncog","word","S","exp","5"
"","null","html-keyboard-response","186","458725","0.0-3.0-0.85","+","null","","","","","",""
"","2827","html-keyboard-response","187","461553","0.0-3.0-1.85","mabras","s","null","noncog","pseudo","N","exp","null"
"","null","html-keyboard-response","188","462054","0.0-3.0-0.86","+","null","","","","","",""
"","3546","html-keyboard-response","189","465601","0.0-3.0-1.86","prantal","s","null","noncog","pseudo","N","exp","null"
"","null","html-keyboard-response","190","466102","0.0-3.0-0.87","+","null","","","","","",""
"","4378","html-keyboard-response","191","470481","0.0-3.0-1.87","perbas","n","null","noncog","pseudo","N","exp","null"
"","null","html-keyboard-response","192","470982","0.0-3.0-0.88","+","null","","","","","",""
"","3306","html-keyboard-response","193","474289","0.0-3.0-1.88","gordo","s","a","noncog","word","S","exp","5"
"","null","html-keyboard-response","194","474804","0.0-3.0-0.89","+","null","","","","","",""
"","5613","html-keyboard-response","195","480417","0.0-3.0-1.89","dencosto","s","null","noncog","pseudo","N","exp","null"
"","null","html-keyboard-response","196","480918","0.0-3.0-0.90","+","null","","","","","",""
"","5386","html-keyboard-response","197","486304","0.0-3.0-1.90","arranjar","n","v","cog","word","S","exp","8"
"","null","html-keyboard-response","198","486805","0.0-3.0-0.91","+","null","","","","","",""
"","3995","html-keyboard-response","199","490801","0.0-3.0-1.91","atapdar","n","null","noncog","pseudo","N","exp","null"
"","null","html-keyboard-response","200","491302","0.0-3.0-0.92","+","null","","","","","",""
"","3018","html-keyboard-response","201","494320","0.0-3.0-1.92","comércio","s","n","noncog","word","S","exp","8"
"","null","html-keyboard-response","202","494822","0.0-3.0-0.93","+","null","","","","","",""
"","4346","html-keyboard-response","203","499168","0.0-3.0-1.93","hedoru","s","null","noncog","pseudo","N","exp","null"
"","null","html-keyboard-response","204","499670","0.0-3.0-0.94","+","null","","","","","",""
"","2922","html-keyboard-response","205","502593","0.0-3.0-1.94","grótis","s","null","noncog","pseudo","N","exp","null"
"","null","html-keyboard-response","206","503094","0.0-3.0-0.95","+","null","","","","","",""
"","3946","html-keyboard-response","207","507040","0.0-3.0-1.95","aperor","s","null","noncog","pseudo","N","exp","null"
"","null","html-keyboard-response","208","507541","0.0-3.0-0.96","+","null","","","","","",""
"","4123","html-keyboard-response","209","511664","0.0-3.0-1.96","telefone","s","n","cog","word","S","exp","8"
"","null","html-keyboard-response","210","512166","0.0-3.0-0.97","+","null","","","","","",""
"","3418","html-keyboard-response","211","515585","0.0-3.0-1.97","aivões","s","null","noncog","pseudo","N","exp","null"
"","null","html-keyboard-response","212","516086","0.0-3.0-0.98","+","null","","","","","",""
"","3722","html-keyboard-response","213","519809","0.0-3.0-1.98","frotes","s","null","noncog","pseudo","N","exp","null"
"","null","html-keyboard-response","214","520318","0.0-3.0-0.99","+","null","","","","","",""
"","3314","html-keyboard-response","215","523632","0.0-3.0-1.99","gertas","s","null","noncog","pseudo","N","exp","null"
"","null","html-keyboard-response","216","524134","0.0-3.0-0.100","+","null","","","","","",""
"","4651","html-keyboard-response","217","528785","0.0-3.0-1.100","escumo","s","null","noncog","pseudo","N","exp","null"
"","null","html-keyboard-response","218","529287","0.0-3.0-0.101","+","null","","","","","",""
"","3338","html-keyboard-response","219","532625","0.0-3.0-1.101","jastor","s","null","noncog","pseudo","N","exp","null"
"","null","html-keyboard-response","220","533126","0.0-3.0-0.102","+","null","","","","","",""
"","3434","html-keyboard-response","221","536560","0.0-3.0-1.102","morno","s","a","noncog","word","S","exp","5"
"","null","html-keyboard-response","222","537061","0.0-3.0-0.103","+","null","","","","","",""
"","1739","html-keyboard-response","223","538800","0.0-3.0-1.103","chato","s","n","noncog","word","S","exp","5"
"","null","html-keyboard-response","224","539302","0.0-3.0-0.104","+","null","","","","","",""
"","3050","html-keyboard-response","225","542352","0.0-3.0-1.104","gruja","s","null","noncog","pseudo","N","exp","null"
"","null","html-keyboard-response","226","542854","0.0-3.0-0.105","+","null","","","","","",""
"","3738","html-keyboard-response","227","546592","0.0-3.0-1.105","ronronar","s","v","cog","word","S","exp","8"
"","null","html-keyboard-response","228","547093","0.0-3.0-0.106","+","null","","","","","",""
"","2234","html-keyboard-response","229","549328","0.0-3.0-1.106","lagoa","s","n","cog","word","S","exp","5"
"","null","html-keyboard-response","230","549829","0.0-3.0-0.107","+","null","","","","","",""
"","2714","html-keyboard-response","231","552544","0.0-3.0-1.107","dipata","n","null","noncog","pseudo","N","exp","null"
"","null","html-keyboard-response","232","553045","0.0-3.0-0.108","+","null","","","","","",""
"","12891","html-keyboard-response","233","565937","0.0-3.0-1.108","irratinte","s","null","noncog","pseudo","N","exp","null"
"","null","html-keyboard-response","234","566438","0.0-3.0-0.109","+","null","","","","","",""
"","3706","html-keyboard-response","235","570144","0.0-3.0-1.109","abieso","s","null","noncog","pseudo","N","exp","null"
"","null","html-keyboard-response","236","570646","0.0-3.0-0.110","+","null","","","","","",""
"","5562","html-keyboard-response","237","576208","0.0-3.0-1.110","delomir","n","null","noncog","pseudo","N","exp","null"
"","null","html-keyboard-response","238","576709","0.0-3.0-0.111","+","null","","","","","",""
"","2491","html-keyboard-response","239","579200","0.0-3.0-1.111","promessa","s","n","noncog","word","S","exp","8"
"","null","html-keyboard-response","240","579701","0.0-3.0-0.112","+","null","","","","","",""
"","6251","html-keyboard-response","241","585952","0.0-3.0-1.112","morija","n","null","noncog","pseudo","N","exp","null"
"","null","html-keyboard-response","242","586454","0.0-3.0-0.113","+","null","","","","","",""
"","3530","html-keyboard-response","243","589984","0.0-3.0-1.113","motros","s","null","noncog","pseudo","N","exp","null"
"","null","html-keyboard-response","244","590486","0.0-3.0-0.114","+","null","","","","","",""
"","6618","html-keyboard-response","245","597104","0.0-3.0-1.114","pangos","n","null","noncog","pseudo","N","exp","null"
"","null","html-keyboard-response","246","597605","0.0-3.0-0.115","+","null","","","","","",""
"","4219","html-keyboard-response","247","601824","0.0-3.0-1.115","motre","n","null","noncog","pseudo","N","exp","null"
"","null","html-keyboard-response","248","602325","0.0-3.0-0.116","+","null","","","","","",""
"","1883","html-keyboard-response","249","604208","0.0-3.0-1.116","crutas","s","null","noncog","pseudo","N","exp","null"
"","null","html-keyboard-response","250","604710","0.0-3.0-0.117","+","null","","","","","",""
"","2842","html-keyboard-response","251","607552","0.0-3.0-1.117","sustentar","s","v","noncog","word","S","exp","9"
"","null","html-keyboard-response","252","608054","0.0-3.0-0.118","+","null","","","","","",""
"","4026","html-keyboard-response","253","612080","0.0-3.0-1.118","incomodar","s","v","noncog","word","S","exp","9"
"","null","html-keyboard-response","254","612581","0.0-3.0-0.119","+","null","","","","","",""
"","6538","html-keyboard-response","255","619120","0.0-3.0-1.119","telafonir","s","null","noncog","pseudo","N","exp","null"
"","null","html-keyboard-response","256","619622","0.0-3.0-0.120","+","null","","","","","",""
"","2202","html-keyboard-response","257","621824","0.0-3.0-1.120","papai","s","n","cog","word","S","exp","5"
"","null","html-keyboard-response","258","622326","0.0-3.0-0.121","+","null","","","","","",""
"","5818","html-keyboard-response","259","628144","0.0-3.0-1.121","carona","s","n","noncog","word","S","exp","6"
"","null","html-keyboard-response","260","628645","0.0-3.0-0.122","+","null","","","","","",""
"","6522","html-keyboard-response","261","635168","0.0-3.0-1.122","revear","s","null","noncog","pseudo","N","exp","null"
"","null","html-keyboard-response","262","635669","0.0-3.0-0.123","+","null","","","","","",""
"","9306","html-keyboard-response","263","644976","0.0-3.0-1.123","quenzina","n","null","noncog","pseudo","N","exp","null"
"","null","html-keyboard-response","264","645478","0.0-3.0-0.124","+","null","","","","","",""
"","2618","html-keyboard-response","265","648096","0.0-3.0-1.124","tela","s","n","noncog","word","S","exp","4"
"","null","html-keyboard-response","266","648597","0.0-3.0-0.125","+","null","","","","","",""
"","2139","html-keyboard-response","267","650736","0.0-3.0-1.125","tinta","s","n","cog","word","S","exp","5"
"","null","html-keyboard-response","268","651238","0.0-3.0-0.126","+","null","","","","","",""
"","3818","html-keyboard-response","269","655056","0.0-3.0-1.126","espionar","s","v","cog","word","S","exp","8"
"","null","html-keyboard-response","270","655557","0.0-3.0-0.127","+","null","","","","","",""
"","2378","html-keyboard-response","271","657936","0.0-3.0-1.127","árovre","s","null","noncog","pseudo","N","exp","null"
"","null","html-keyboard-response","272","658438","0.0-3.0-0.128","+","null","","","","","",""
"","2442","html-keyboard-response","273","660880","0.0-3.0-1.128","usfiga","s","null","noncog","pseudo","N","exp","null"
"","null","html-keyboard-response","274","661382","0.0-3.0-0.129","+","null","","","","","",""
"","4475","html-keyboard-response","275","665857","0.0-3.0-1.129","aletiê","s","null","noncog","pseudo","N","exp","null"
"","null","html-keyboard-response","276","666357","0.0-3.0-0.130","+","null","","","","","",""
"","2682","html-keyboard-response","277","669040","0.0-3.0-1.130","liberal","s","a","cog","word","S","exp","7"
"","null","html-keyboard-response","278","669541","0.0-3.0-0.131","+","null","","","","","",""
"","4427","html-keyboard-response","279","673968","0.0-3.0-1.131","pimada","s","null","noncog","pseudo","N","exp","null"
"","null","html-keyboard-response","280","674474","0.0-3.0-0.132","+","null","","","","","",""
"","2838","html-keyboard-response","281","677312","0.0-3.0-1.132","reduzir","s","v","cog","word","S","exp","7"
"","null","html-keyboard-response","282","677813","0.0-3.0-0.133","+","null","","","","","",""
"","2010","html-keyboard-response","283","679824","0.0-3.0-1.133","prenas","s","null","noncog","pseudo","N","exp","null"
"","null","html-keyboard-response","284","680326","0.0-3.0-0.134","+","null","","","","","",""
"","1322","html-keyboard-response","285","681648","0.0-3.0-1.134","mal","s","a","cog","word","S","exp","3"
"","null","html-keyboard-response","286","682149","0.0-3.0-0.135","+","null","","","","","",""
"","2331","html-keyboard-response","287","684480","0.0-3.0-1.135","avenas","s","null","noncog","pseudo","N","exp","null"
"","null","html-keyboard-response","288","684982","0.0-3.0-0.136","+","null","","","","","",""
"","2186","html-keyboard-response","289","687168","0.0-3.0-1.136","vitrive","s","null","noncog","pseudo","N","exp","null"
"","null","html-keyboard-response","290","687669","0.0-3.0-0.137","+","null","","","","","",""
"","2667","html-keyboard-response","291","690336","0.0-3.0-1.137","cápsula","s","n","noncog","word","S","exp","7"
"","null","html-keyboard-response","292","690838","0.0-3.0-0.138","+","null","","","","","",""
"","1498","html-keyboard-response","293","692336","0.0-3.0-1.138","tênis","s","n","cog","word","S","exp","5"
"","null","html-keyboard-response","294","692838","0.0-3.0-0.139","+","null","","","","","",""
"","1978","html-keyboard-response","295","694816","0.0-3.0-1.139","perdão","s","n","noncog","word","S","exp","6"
"","null","html-keyboard-response","296","695317","0.0-3.0-0.140","+","null","","","","","",""
"","2218","html-keyboard-response","297","697536","0.0-3.0-1.140","suipestar","s","null","noncog","pseudo","N","exp","null"
"","null","html-keyboard-response","298","698037","0.0-3.0-0.141","+","null","","","","","",""
"","1579","html-keyboard-response","299","699616","0.0-3.0-1.141","hébies","s","null","noncog","pseudo","N","exp","null"
"","null","html-keyboard-response","300","700118","0.0-3.0-0.142","+","null","","","","","",""
"","3642","html-keyboard-response","301","703760","0.0-3.0-1.142","pantufa","s","n","cog","word","S","exp","7"
"","null","html-keyboard-response","302","704261","0.0-3.0-0.143","+","null","","","","","",""
"","2779","html-keyboard-response","303","707040","0.0-3.0-1.143","tatear","s","v","cog","word","S","exp","6"
"","null","html-keyboard-response","304","707541","0.0-3.0-0.144","+","null","","","","","",""
"","2459","html-keyboard-response","305","710000","0.0-3.0-1.144","bachir","s","null","noncog","pseudo","N","exp","null"
"","null","html-keyboard-response","306","710501","0.0-3.0-0.145","+","null","","","","","",""
"","1978","html-keyboard-response","307","712480","0.0-3.0-1.145","aparme","s","null","noncog","pseudo","N","exp","null"
"","null","html-keyboard-response","308","712981","0.0-3.0-0.146","+","null","","","","","",""
"","2523","html-keyboard-response","309","715504","0.0-3.0-1.146","afual","s","null","noncog","pseudo","N","exp","null"
"","null","html-keyboard-response","310","716006","0.0-3.0-0.147","+","null","","","","","",""
"","2026","html-keyboard-response","311","718032","0.0-3.0-1.147","delirar","s","v","noncog","word","S","exp","7"
"","null","html-keyboard-response","312","718533","0.0-3.0-0.148","+","null","","","","","",""
"","1899","html-keyboard-response","313","720432","0.0-3.0-1.148","euorpa","s","null","noncog","pseudo","N","exp","null"
"","null","html-keyboard-response","314","720933","0.0-3.0-0.149","+","null","","","","","",""
"","1995","html-keyboard-response","315","722928","0.0-3.0-1.149","pulmão","s","n","noncog","word","S","exp","6"
"","null","html-keyboard-response","316","723438","0.0-3.0-0.150","+","null","","","","","",""
"","1506","html-keyboard-response","317","724944","0.0-3.0-1.150","cravo","s","n","noncog","word","S","exp","5"
"","null","html-keyboard-response","318","725445","0.0-3.0-0.151","+","null","","","","","",""
"","2506","html-keyboard-response","319","727952","0.0-3.0-1.151","manais","s","null","noncog","pseudo","N","exp","null"
"","null","html-keyboard-response","320","728453","0.0-3.0-0.152","+","null","","","","","",""
"","3242","html-keyboard-response","321","731696","0.0-3.0-1.152","esfoce","n","null","noncog","pseudo","N","exp","null"
"","null","html-keyboard-response","322","732196","0.0-3.0-0.153","+","null","","","","","",""
"","2299","html-keyboard-response","323","734496","0.0-3.0-1.153","liso","s","n","noncog","word","S","exp","4"
"","null","html-keyboard-response","324","734997","0.0-3.0-0.154","+","null","","","","","",""
"","2314","html-keyboard-response","325","737312","0.0-3.0-1.154","espinho","s","n","noncog","word","S","exp","7"
"","null","html-keyboard-response","326","737813","0.0-3.0-0.155","+","null","","","","","",""
"","2075","html-keyboard-response","327","739888","0.0-3.0-1.155","mua","s","null","noncog","pseudo","N","exp","null"
"","null","html-keyboard-response","328","740395","0.0-3.0-0.156","+","null","","","","","",""
"","3205","html-keyboard-response","329","743600","0.0-3.0-1.156","pneucania","s","null","noncog","pseudo","N","exp","null"
"","null","html-keyboard-response","330","744101","0.0-3.0-0.157","+","null","","","","","",""
"","3386","html-keyboard-response","331","747488","0.0-3.0-1.157","enedro","n","null","noncog","pseudo","N","exp","null"
"","null","html-keyboard-response","332","747989","0.0-3.0-0.158","+","null","","","","","",""
"","2218","html-keyboard-response","333","750208","0.0-3.0-1.158","nervoso","s","a","noncog","word","S","exp","7"
"","null","html-keyboard-response","334","750709","0.0-3.0-0.159","+","null","","","","","",""
"","2506","html-keyboard-response","335","753216","0.0-3.0-1.159","distraído","s","a","cog","word","S","exp","9"
"","null","html-keyboard-response","336","753717","0.0-3.0-0.160","+","null","","","","","",""
"","2378","html-keyboard-response","337","756096","0.0-3.0-1.160","nivelado","s","a","cog","word","S","exp","8"
"","null","html-keyboard-response","338","756597","0.0-3.0-0.161","+","null","","","","","",""
"","3098","html-keyboard-response","339","759696","0.0-3.0-1.161","bracos","n","null","noncog","pseudo","N","exp","null"
"","null","html-keyboard-response","340","760197","0.0-3.0-0.162","+","null","","","","","",""
"","2795","html-keyboard-response","341","762992","0.0-3.0-1.162","planalto","s","n","cog","word","S","exp","8"
"","null","html-keyboard-response","342","763493","0.0-3.0-0.163","+","null","","","","","",""
"","4186","html-keyboard-response","343","767680","0.0-3.0-1.163","dobradiça","s","n","noncog","word","S","exp","9"
"","null","html-keyboard-response","344","768181","0.0-3.0-0.164","+","null","","","","","",""
"","2811","html-keyboard-response","345","770992","0.0-3.0-1.164","berquesa","s","null","noncog","pseudo","N","exp","null"
"","null","html-keyboard-response","346","771493","0.0-3.0-0.165","+","null","","","","","",""
"","1338","html-keyboard-response","347","772832","0.0-3.0-1.165","dia","s","n","noncog","word","S","exp","3"
"","null","html-keyboard-response","348","773333","0.0-3.0-0.166","+","null","","","","","",""
"","1914","html-keyboard-response","349","775248","0.0-3.0-1.166","tronca","s","null","noncog","pseudo","N","exp","null"
"","null","html-keyboard-response","350","775749","0.0-3.0-0.167","+","null","","","","","",""
"","1850","html-keyboard-response","351","777600","0.0-3.0-1.167","especial","s","a","cog","word","S","exp","8"
"","null","html-keyboard-response","352","778100","0.0-3.0-0.168","+","null","","","","","",""
"","2939","html-keyboard-response","353","781040","0.0-3.0-1.168","fusbão","s","null","noncog","pseudo","N","exp","null"
"","null","html-keyboard-response","354","781543","0.0-3.0-0.169","+","null","","","","","",""
"","2889","html-keyboard-response","355","784432","0.0-3.0-1.169","oper","n","null","noncog","pseudo","N","exp","null"
"","null","html-keyboard-response","356","784933","0.0-3.0-0.170","+","null","","","","","",""
"","2859","html-keyboard-response","357","787792","0.0-3.0-1.170","selir","s","null","noncog","pseudo","N","exp","null"
"","null","html-keyboard-response","358","788293","0.0-3.0-0.171","+","null","","","","","",""
"","1786","html-keyboard-response","359","790080","0.0-3.0-1.171","aitrou","s","null","noncog","pseudo","N","exp","null"
"","null","html-keyboard-response","360","790581","0.0-3.0-0.172","+","null","","","","","",""
"","5130","html-keyboard-response","361","795712","0.0-3.0-1.172","fogão","s","n","noncog","word","S","exp","5"
"","null","html-keyboard-response","362","796214","0.0-3.0-0.173","+","null","","","","","",""
"","2442","html-keyboard-response","363","798656","0.0-3.0-1.173","socorro","s","n","noncog","word","S","exp","7"
"","null","html-keyboard-response","364","799156","0.0-3.0-0.174","+","null","","","","","",""
"","2779","html-keyboard-response","365","801936","0.0-3.0-1.174","deselegante","s","a","noncog","word","S","exp","11"
"","null","html-keyboard-response","366","802437","0.0-3.0-0.175","+","null","","","","","",""
"","3594","html-keyboard-response","367","806032","0.0-3.0-1.175","franda","n","null","noncog","pseudo","N","exp","null"
"","null","html-keyboard-response","368","806533","0.0-3.0-0.176","+","null","","","","","",""
"","1322","html-keyboard-response","369","807856","0.0-3.0-1.176","prever","s","v","cog","word","S","exp","6"
"","null","html-keyboard-response","370","808357","0.0-3.0-0.177","+","null","","","","","",""
"","2027","html-keyboard-response","371","810384","0.0-3.0-1.177","bagunceira","s","a","noncog","word","S","exp","10"
"","null","html-keyboard-response","372","810885","0.0-3.0-0.178","+","null","","","","","",""
"","2634","html-keyboard-response","373","813520","0.0-3.0-1.178","ideisa","s","null","noncog","pseudo","N","exp","null"
"","null","html-keyboard-response","374","814021","0.0-3.0-0.179","+","null","","","","","",""
"","1898","html-keyboard-response","375","815920","0.0-3.0-1.179","ensuas","s","null","noncog","pseudo","N","exp","null"
"","null","html-keyboard-response","376","816420","0.0-3.0-0.180","+","null","","","","","",""
"","3723","html-keyboard-response","377","820144","0.0-3.0-1.180","farcas","s","null","noncog","pseudo","N","exp","null"
"","null","html-keyboard-response","378","820645","0.0-3.0-0.181","+","null","","","","","",""
"","2283","html-keyboard-response","379","822928","0.0-3.0-1.181","fratos","s","null","noncog","pseudo","N","exp","null"
"","null","html-keyboard-response","380","823429","0.0-3.0-0.182","+","null","","","","","",""
"","4122","html-keyboard-response","381","827552","0.0-3.0-1.182","extravagante","s","a","cog","word","S","exp","12"
"","null","html-keyboard-response","382","828063","0.0-3.0-0.183","+","null","","","","","",""
"","2128","html-keyboard-response","383","830192","0.0-3.0-1.183","hipócrita","s","a","noncog","word","S","exp","9"
"","null","html-keyboard-response","384","830693","0.0-3.0-0.184","+","null","","","","","",""
"","2074","html-keyboard-response","385","832768","0.0-3.0-1.184","aemaça","s","null","noncog","pseudo","N","exp","null"
"","null","html-keyboard-response","386","833272","0.0-3.0-0.185","+","null","","","","","",""
"","3175","html-keyboard-response","387","836448","0.0-3.0-1.185","bambu","s","n","cog","word","S","exp","5"
"","null","html-keyboard-response","388","836955","0.0-3.0-0.186","+","null","","","","","",""
"","3541","html-keyboard-response","389","840496","0.0-3.0-1.186","afonher","s","null","noncog","pseudo","N","exp","null"
"","null","html-keyboard-response","390","840997","0.0-3.0-0.187","+","null","","","","","",""
"","1914","html-keyboard-response","391","842912","0.0-3.0-1.187","imitar","s","v","cog","word","S","exp","6"
"","null","html-keyboard-response","392","843416","0.0-3.0-0.188","+","null","","","","","",""
"","1559","html-keyboard-response","393","844976","0.0-3.0-1.188","ótimo","s","a","noncog","word","S","exp","5"
"","null","html-keyboard-response","394","845477","0.0-3.0-0.189","+","null","","","","","",""
"","1898","html-keyboard-response","395","847376","0.0-3.0-1.189","sábio","s","n","noncog","word","S","exp","5"
"","null","html-keyboard-response","396","847877","0.0-3.0-0.190","+","null","","","","","",""
"","2779","html-keyboard-response","397","850656","0.0-3.0-1.190","espaço","s","n","cog","word","S","exp","6"
"","null","html-keyboard-response","398","851156","0.0-3.0-0.191","+","null","","","","","",""
"","1547","html-keyboard-response","399","852704","0.0-3.0-1.191","cinema","s","n","cog","word","S","exp","6"
"","null","html-keyboard-response","400","853204","0.0-3.0-0.192","+","null","","","","","",""
"","2651","html-keyboard-response","401","855856","0.0-3.0-1.192","fofo","s","a","noncog","word","S","exp","4"
"","null","html-keyboard-response","402","856357","0.0-3.0-0.193","+","null","","","","","",""
"","2170","html-keyboard-response","403","858528","0.0-3.0-1.193","medalha","s","n","cog","word","S","exp","7"
"","null","html-keyboard-response","404","859029","0.0-3.0-0.194","+","null","","","","","",""
"","1818","html-keyboard-response","405","860848","0.0-3.0-1.194","barco","s","n","cog","word","S","exp","5"
"","null","html-keyboard-response","406","861349","0.0-3.0-0.195","+","null","","","","","",""
"","2282","html-keyboard-response","407","863632","0.0-3.0-1.195","costra","s","null","noncog","pseudo","N","exp","null"
"","null","html-keyboard-response","408","864133","0.0-3.0-0.196","+","null","","","","","",""
"","3498","html-keyboard-response","409","867632","0.0-3.0-1.196","beima","n","null","noncog","pseudo","N","exp","null"
"","null","html-keyboard-response","410","868133","0.0-3.0-0.197","+","null","","","","","",""
"","3514","html-keyboard-response","411","871648","0.0-3.0-1.197","refletir","s","v","cog","word","S","exp","8"
"","null","html-keyboard-response","412","872150","0.0-3.0-0.198","+","null","","","","","",""
"","2842","html-keyboard-response","413","874992","0.0-3.0-1.198","rovaz","s","null","noncog","pseudo","N","exp","null"
"","null","html-keyboard-response","414","875493","0.0-3.0-0.199","+","null","","","","","",""
"","1386","html-keyboard-response","415","876880","0.0-3.0-1.199","tio","s","n","noncog","word","S","exp","3"
"","null","html-keyboard-response","416","877381","0.0-3.0-0.200","+","null","","","","","",""
"","2026","html-keyboard-response","417","879408","0.0-3.0-1.200","memória","s","n","cog","word","S","exp","7"
"","null","html-keyboard-response","418","879912","0.0-3.0-0.201","+","null","","","","","",""
"","1447","html-keyboard-response","419","881360","0.0-3.0-1.201","livro","s","n","cog","word","S","exp","5"
"","null","html-keyboard-response","420","881861","0.0-3.0-0.202","+","null","","","","","",""
"","2650","html-keyboard-response","421","884512","0.0-3.0-1.202","oricia","n","null","noncog","pseudo","N","exp","null"
"","null","html-keyboard-response","422","885013","0.0-3.0-0.203","+","null","","","","","",""
"","1914","html-keyboard-response","423","886928","0.0-3.0-1.203","trabalhar","s","v","noncog","word","S","exp","9"
"","null","html-keyboard-response","424","887429","0.0-3.0-0.204","+","null","","","","","",""
"","2314","html-keyboard-response","425","889744","0.0-3.0-1.204","traduzir","s","v","cog","word","S","exp","8"
"","null","html-keyboard-response","426","890245","0.0-3.0-0.205","+","null","","","","","",""
"","1658","html-keyboard-response","427","891904","0.0-3.0-1.205","glória","s","n","cog","word","S","exp","6"
"","null","html-keyboard-response","428","892405","0.0-3.0-0.206","+","null","","","","","",""
"","5595","html-keyboard-response","429","898000","0.0-3.0-1.206","francês","n","a","cog","word","S","exp","7"
"","null","html-keyboard-response","430","898501","0.0-3.0-0.207","+","null","","","","","",""
"","3114","html-keyboard-response","431","901616","0.0-3.0-1.207","carregar","s","v","noncog","word","S","exp","8"
"","null","html-keyboard-response","432","902117","0.0-3.0-0.208","+","null","","","","","",""
"","2426","html-keyboard-response","433","904544","0.0-3.0-1.208","preferir","s","v","cog","word","S","exp","8"
"","null","html-keyboard-response","434","905045","0.0-3.0-0.209","+","null","","","","","",""
"","3194","html-keyboard-response","435","908240","0.0-3.0-1.209","loaco","n","null","noncog","pseudo","N","exp","null"
"","null","html-keyboard-response","436","908741","0.0-3.0-0.210","+","null","","","","","",""
"","1130","html-keyboard-response","437","909872","0.0-3.0-1.210","carro","s","n","noncog","word","S","exp","5"
"","null","html-keyboard-response","438","910372","0.0-3.0-0.211","+","null","","","","","",""
"","2139","html-keyboard-response","439","912512","0.0-3.0-1.211","cenada","s","null","noncog","pseudo","N","exp","null"
"","null","html-keyboard-response","440","913026","0.0-3.0-0.212","+","null","","","","","",""
"","2221","html-keyboard-response","441","915248","0.0-3.0-1.212","nome","s","n","cog","word","S","exp","4"
"","null","html-keyboard-response","442","915749","0.0-3.0-0.213","+","null","","","","","",""
"","2362","html-keyboard-response","443","918112","0.0-3.0-1.213","alpica","s","null","noncog","pseudo","N","exp","null"
"","null","html-keyboard-response","444","918613","0.0-3.0-0.214","+","null","","","","","",""
"","1834","html-keyboard-response","445","920448","0.0-3.0-1.214","agressivo","s","a","cog","word","S","exp","9"
"","null","html-keyboard-response","446","920949","0.0-3.0-0.215","+","null","","","","","",""
"","3194","html-keyboard-response","447","924144","0.0-3.0-1.215","faínas","s","null","noncog","pseudo","N","exp","null"
"","null","html-keyboard-response","448","924645","0.0-3.0-0.216","+","null","","","","","",""
"","3418","html-keyboard-response","449","928064","0.0-3.0-1.216","braras","s","null","noncog","pseudo","N","exp","null"
"","null","html-keyboard-response","450","928565","0.0-3.0-0.217","+","null","","","","","",""
"","2938","html-keyboard-response","451","931504","0.0-3.0-1.217","bancada","s","n","noncog","word","S","exp","7"
"","null","html-keyboard-response","452","932005","0.0-3.0-0.218","+","null","","","","","",""
"","2154","html-keyboard-response","453","934159","0.0-3.0-1.218","ênclio","s","null","noncog","pseudo","N","exp","null"
"","null","html-keyboard-response","454","934661","0.0-3.0-0.219","+","null","","","","","",""
"","2250","html-keyboard-response","455","936911","0.0-3.0-1.219","mudança","s","n","noncog","word","S","exp","7"
"","null","html-keyboard-response","456","937412","0.0-3.0-0.220","+","null","","","","","",""
"","1707","html-keyboard-response","457","939119","0.0-3.0-1.220","viver","s","v","cog","word","S","exp","5"
"","null","html-keyboard-response","458","939620","0.0-3.0-0.221","+","null","","","","","",""
"","2475","html-keyboard-response","459","942096","0.0-3.0-1.221","resmungar","s","v","noncog","word","S","exp","9"
"","null","html-keyboard-response","460","942597","0.0-3.0-0.222","+","null","","","","","",""
"","4746","html-keyboard-response","461","947344","0.0-3.0-1.222","disbrituir","s","null","noncog","pseudo","N","exp","null"
"","null","html-keyboard-response","462","947845","0.0-3.0-0.223","+","null","","","","","",""
"","4635","html-keyboard-response","463","952480","0.0-3.0-1.223","pega-pega","s","n","noncog","word","S","exp","8"
"","null","html-keyboard-response","464","952995","0.0-3.0-0.224","+","null","","","","","",""
"","2540","html-keyboard-response","465","955536","0.0-3.0-1.224","burtos","s","null","noncog","pseudo","N","exp","null"
"","null","html-keyboard-response","466","956036","0.0-3.0-0.225","+","null","","","","","",""
"","3035","html-keyboard-response","467","959072","0.0-3.0-1.225","usnado","n","null","noncog","pseudo","N","exp","null"
"","null","html-keyboard-response","468","959572","0.0-3.0-0.226","+","null","","","","","",""
"","4155","html-keyboard-response","469","963728","0.0-3.0-1.226","podilo","n","null","noncog","pseudo","N","exp","null"
"","null","html-keyboard-response","470","964229","0.0-3.0-0.227","+","null","","","","","",""
"","1706","html-keyboard-response","471","965936","0.0-3.0-1.227","morar","s","v","noncog","word","S","exp","5"
"","null","html-keyboard-response","472","966437","0.0-3.0-0.228","+","null","","","","","",""
"","3338","html-keyboard-response","473","969775","0.0-3.0-1.228","propaganda","s","n","cog","word","S","exp","10"
"","null","html-keyboard-response","474","970278","0.0-3.0-0.229","+","null","","","","","",""
"","1801","html-keyboard-response","475","972079","0.0-3.0-1.229","cristal","s","n","cog","word","S","exp","7"
"","null","html-keyboard-response","476","972581","0.0-3.0-0.230","+","null","","","","","",""
"","1434","html-keyboard-response","477","974016","0.0-3.0-1.230","país","s","n","noncog","word","S","exp","4"
"","null","html-keyboard-response","478","974517","0.0-3.0-0.231","+","null","","","","","",""
"","3114","html-keyboard-response","479","977631","0.0-3.0-1.231","verceja","s","null","noncog","pseudo","N","exp","null"
"","null","html-keyboard-response","480","978133","0.0-3.0-0.232","+","null","","","","","",""
"","1642","html-keyboard-response","481","979776","0.0-3.0-1.232","promeção","s","null","noncog","pseudo","N","exp","null"
"","null","html-keyboard-response","482","980277","0.0-3.0-0.233","+","null","","","","","",""
"","2507","html-keyboard-response","483","982784","0.0-3.0-1.233","casuas","s","null","noncog","pseudo","N","exp","null"
"","null","html-keyboard-response","484","983284","0.0-3.0-0.234","+","null","","","","","",""
"","2075","html-keyboard-response","485","985359","0.0-3.0-1.234","trair","s","v","cog","word","S","exp","5"
"","null","html-keyboard-response","486","985860","0.0-3.0-0.235","+","null","","","","","",""
"","2603","html-keyboard-response","487","988463","0.0-3.0-1.235","sanque","s","null","noncog","pseudo","N","exp","null"
"","null","html-keyboard-response","488","988965","0.0-3.0-0.236","+","null","","","","","",""
"","2250","html-keyboard-response","489","991215","0.0-3.0-1.236","brincar","s","v","noncog","word","S","exp","7"
"","null","html-keyboard-response","490","991717","0.0-3.0-0.237","+","null","","","","","",""
"","2234","html-keyboard-response","491","993951","0.0-3.0-1.237","revista","s","n","cog","word","S","exp","7"
"","null","html-keyboard-response","492","994453","0.0-3.0-0.238","+","null","","","","","",""
"","2587","html-keyboard-response","493","997040","0.0-3.0-1.238","encelhor","s","null","noncog","pseudo","N","exp","null"
"","null","html-keyboard-response","494","997541","0.0-3.0-0.239","+","null","","","","","",""
"","2890","html-keyboard-response","495","1000432","0.0-3.0-1.239","pritas","s","null","noncog","pseudo","N","exp","null"
