[
	{
		"view_history": [
			{
				"page_index": 0,
				"viewing_time": 4387
			}
		],
		"rt": 4387,
		"trial_type": "instructions",
		"trial_index": 0,
		"time_elapsed": 4388,
		"internal_node_id": "0.0-0.0"
	},
	{
		"rt": 125912,
		"response": {
			"reading_habits_printed_magazines": "Uma vez por semana",
			"reading_habits_printed_newspapers": "Uma vez por semana",
			"reading_habits_books": "Uma vez por semana",
			"reading_habits_printed_socialmedias": "Alguns dias da semana"
		},
		"question_order": [
			0,
			1,
			2,
			3
		],
		"trial_type": "survey-multi-choice",
		"trial_index": 1,
		"time_elapsed": 130412,
		"internal_node_id": "0.0-1.0"
	},
	{
		"rt": 41209,
		"response": {
			"reading_habits_virtual_magazines": "Alguns dias da semana",
			"reading_habits_virtual_newspapers": "Uma vez por semana",
			"reading_habits_books": "Uma vez por semana",
			"reading_habits_virtual_socialmedias": "Todos os dias"
		},
		"question_order": [
			0,
			1,
			2,
			3
		],
		"trial_type": "survey-multi-choice",
		"trial_index": 2,
		"time_elapsed": 171724,
		"internal_node_id": "0.0-2.0"
	},
	{
		"rt": 45665,
		"response": {
			"reading_habits_other_which": "",
			"reading_habits_other_frequency": ""
		},
		"trial_type": "survey-text",
		"trial_index": 3,
		"time_elapsed": 217492,
		"internal_node_id": "0.0-3.0"
	}
]