[
	{
		"view_history": [
			{
				"page_index": 0,
				"viewing_time": 73671
			},
			{
				"page_index": 1,
				"viewing_time": 17272
			}
		],
		"rt": 90943,
		"trial_type": "instructions",
		"trial_index": 0,
		"time_elapsed": 90944,
		"internal_node_id": "0.0-0.0"
	},
	{
		"rt": null,
		"stimulus": "<span style= \"font-size:30px; font-family: monospace\">+</span>",
		"response": null,
		"trial_part": "fixation",
		"trial_type": "html-keyboard-response",
		"trial_index": 1,
		"time_elapsed": 92057,
		"internal_node_id": "0.0-1.0-0.0-0.0"
	},
	{
		"rt": 3112,
		"stimulus": "../audio/prac-question-1-1.mp3",
		"response": " ",
		"word": "O",
		"trial_type": "audio-keyboard-response",
		"trial_index": 2,
		"time_elapsed": 95480,
		"internal_node_id": "0.0-1.0-1.0"
	},
	{
		"rt": 1760,
		"stimulus": "../audio/prac-question-1-2.mp3",
		"response": " ",
		"word": "dia",
		"trial_type": "audio-keyboard-response",
		"trial_index": 3,
		"time_elapsed": 97511,
		"internal_node_id": "0.0-1.0-1.1"
	},
	{
		"rt": 1800,
		"stimulus": "../audio/prac-question-1-3.mp3",
		"response": " ",
		"word": "estará",
		"trial_type": "audio-keyboard-response",
		"trial_index": 4,
		"time_elapsed": 99591,
		"internal_node_id": "0.0-1.0-1.2"
	},
	{
		"rt": 1640,
		"stimulus": "../audio/prac-question-1-4.mp3",
		"response": " ",
		"word": "cheio",
		"trial_type": "audio-keyboard-response",
		"trial_index": 5,
		"time_elapsed": 101511,
		"internal_node_id": "0.0-1.0-1.3"
	},
	{
		"rt": 1440,
		"stimulus": "../audio/prac-question-1-5.mp3",
		"response": " ",
		"word": "de",
		"trial_type": "audio-keyboard-response",
		"trial_index": 6,
		"time_elapsed": 103223,
		"internal_node_id": "0.0-1.0-1.4"
	},
	{
		"rt": 1800,
		"stimulus": "../audio/prac-question-1-6.mp3",
		"response": " ",
		"word": "nuvens",
		"trial_type": "audio-keyboard-response",
		"trial_index": 7,
		"time_elapsed": 105287,
		"internal_node_id": "0.0-1.0-1.5"
	},
	{
		"rt": 1709,
		"stimulus": "../audio/prac-question-1-7.mp3",
		"response": " ",
		"word": "hoje.",
		"trial_type": "audio-keyboard-response",
		"trial_index": 8,
		"time_elapsed": 107271,
		"internal_node_id": "0.0-1.0-1.6"
	},
	{
		"rt": null,
		"stimulus": "<span style= \"font-size:30px; font-family: monospace\">+</span>",
		"response": null,
		"trial_part": "fixation",
		"trial_type": "html-keyboard-response",
		"trial_index": 9,
		"time_elapsed": 108544,
		"internal_node_id": "0.0-1.0-0.7-0.7"
	},
	{
		"rt": 2501,
		"stimulus": "../audio/prac-question-2-1.mp3",
		"response": " ",
		"word": "A",
		"trial_type": "audio-keyboard-response",
		"trial_index": 10,
		"time_elapsed": 111319,
		"internal_node_id": "0.0-1.0-1.7"
	},
	{
		"rt": 2309,
		"stimulus": "../audio/prac-question-2-2.mp3",
		"response": " ",
		"word": "caneca",
		"trial_type": "audio-keyboard-response",
		"trial_index": 11,
		"time_elapsed": 113911,
		"internal_node_id": "0.0-1.0-1.8"
	},
	{
		"rt": 1861,
		"stimulus": "../audio/prac-question-2-3.mp3",
		"response": " ",
		"word": "colorida",
		"trial_type": "audio-keyboard-response",
		"trial_index": 12,
		"time_elapsed": 116039,
		"internal_node_id": "0.0-1.0-1.9"
	},
	{
		"rt": 1909,
		"stimulus": "../audio/prac-question-2-4.mp3",
		"response": " ",
		"word": "caiu",
		"trial_type": "audio-keyboard-response",
		"trial_index": 13,
		"time_elapsed": 118215,
		"internal_node_id": "0.0-1.0-1.10"
	},
	{
		"rt": 1472,
		"stimulus": "../audio/prac-question-2-5.mp3",
		"response": " ",
		"word": "da",
		"trial_type": "audio-keyboard-response",
		"trial_index": 14,
		"time_elapsed": 119959,
		"internal_node_id": "0.0-1.0-1.11"
	},
	{
		"rt": 1589,
		"stimulus": "../audio/prac-question-2-6.mp3",
		"response": " ",
		"word": "mesa",
		"trial_type": "audio-keyboard-response",
		"trial_index": 15,
		"time_elapsed": 121831,
		"internal_node_id": "0.0-1.0-1.12"
	},
	{
		"rt": 1461,
		"stimulus": "../audio/prac-question-2-7.mp3",
		"response": " ",
		"word": "de",
		"trial_type": "audio-keyboard-response",
		"trial_index": 16,
		"time_elapsed": 123559,
		"internal_node_id": "0.0-1.0-1.13"
	},
	{
		"rt": 2579,
		"stimulus": "../audio/prac-question-2-8.mp3",
		"response": " ",
		"word": "jantar.",
		"trial_type": "audio-keyboard-response",
		"trial_index": 17,
		"time_elapsed": 126407,
		"internal_node_id": "0.0-1.0-1.14"
	},
	{
		"rt": 64309,
		"stimulus": "<span style=\"font-size:25px; font-family: monospace\">A caneca era colorida?</span>",
		"response": "s",
		"question": "A caneca era colorida?",
		"answer": "null",
		"trial": "prac-sent",
		"trial_type": "html-keyboard-response",
		"trial_index": 18,
		"time_elapsed": 190981,
		"internal_node_id": "0.0-1.0-2.14-0.14",
		"accuracy": false
	},
	{
		"view_history": [
			{
				"page_index": 0,
				"viewing_time": 19467
			}
		],
		"rt": 19467,
		"trial_type": "instructions",
		"trial_index": 19,
		"time_elapsed": 210949,
		"internal_node_id": "0.0-2.0"
	},
	{
		"rt": null,
		"stimulus": "<span style= \"font-size:30px; font-family: monospace\">+</span>",
		"response": null,
		"trial_part": "fixation",
		"trial_type": "html-keyboard-response",
		"trial_index": 20,
		"time_elapsed": 212051,
		"internal_node_id": "0.0-3.0-0.0-0.0"
	},
	{
		"rt": 2251,
		"stimulus": "../audio/31-1-fem.mp3",
		"response": " ",
		"word": "O",
		"trial_type": "audio-keyboard-response",
		"trial_index": 21,
		"time_elapsed": 214613,
		"internal_node_id": "0.0-3.0-1.0"
	},
	{
		"rt": 1632,
		"stimulus": "../audio/31-2-fem.mp3",
		"response": " ",
		"word": "padeiro",
		"trial_type": "audio-keyboard-response",
		"trial_index": 22,
		"time_elapsed": 216518,
		"internal_node_id": "0.0-3.0-1.1"
	},
	{
		"rt": 1419,
		"stimulus": "../audio/31-3-fem.mp3",
		"response": " ",
		"word": "usou",
		"trial_type": "audio-keyboard-response",
		"trial_index": 23,
		"time_elapsed": 218214,
		"internal_node_id": "0.0-3.0-1.2"
	},
	{
		"rt": 1320,
		"stimulus": "../audio/31-4-fem.mp3",
		"response": " ",
		"word": "a",
		"trial_type": "audio-keyboard-response",
		"trial_index": 24,
		"time_elapsed": 219814,
		"internal_node_id": "0.0-3.0-1.3"
	},
	{
		"rt": 1640,
		"stimulus": "../audio/31-5-fem.mp3",
		"response": " ",
		"word": "balança",
		"trial_type": "audio-keyboard-response",
		"trial_index": 25,
		"time_elapsed": 221734,
		"internal_node_id": "0.0-3.0-1.4"
	},
	{
		"rt": 1552,
		"stimulus": "../audio/31-6-fem.mp3",
		"response": " ",
		"word": "o",
		"trial_type": "audio-keyboard-response",
		"trial_index": 26,
		"time_elapsed": 223558,
		"internal_node_id": "0.0-3.0-1.5"
	},
	{
		"rt": 1528,
		"stimulus": "../audio/31-7-fem.mp3",
		"response": " ",
		"word": "dia",
		"trial_type": "audio-keyboard-response",
		"trial_index": 27,
		"time_elapsed": 225366,
		"internal_node_id": "0.0-3.0-1.6"
	},
	{
		"rt": 2152,
		"stimulus": "../audio/31-8-fem.mp3",
		"response": " ",
		"word": "inteiro.",
		"trial_type": "audio-keyboard-response",
		"trial_index": 28,
		"time_elapsed": 227798,
		"internal_node_id": "0.0-3.0-1.7"
	},
	{
		"rt": null,
		"stimulus": "<span style= \"font-size:30px; font-family: monospace\">+</span>",
		"response": null,
		"trial_part": "fixation",
		"trial_type": "html-keyboard-response",
		"trial_index": 29,
		"time_elapsed": 229064,
		"internal_node_id": "0.0-3.0-0.8-0.8"
	},
	{
		"rt": 1571,
		"stimulus": "../audio/34-1-fem.mp3",
		"response": " ",
		"word": "Cobrança",
		"trial_type": "audio-keyboard-response",
		"trial_index": 30,
		"time_elapsed": 230902,
		"internal_node_id": "0.0-3.0-1.8"
	},
	{
		"rt": 1629,
		"stimulus": "../audio/34-2-fem.mp3",
		"response": " ",
		"word": "excessiva",
		"trial_type": "audio-keyboard-response",
		"trial_index": 31,
		"time_elapsed": 232806,
		"internal_node_id": "0.0-3.0-1.9"
	},
	{
		"rt": 1088,
		"stimulus": "../audio/34-3-fem.mp3",
		"response": " ",
		"word": "é",
		"trial_type": "audio-keyboard-response",
		"trial_index": 32,
		"time_elapsed": 234166,
		"internal_node_id": "0.0-3.0-1.10"
	},
	{
		"rt": 1101,
		"stimulus": "../audio/34-4-fem.mp3",
		"response": " ",
		"word": "um",
		"trial_type": "audio-keyboard-response",
		"trial_index": 33,
		"time_elapsed": 235542,
		"internal_node_id": "0.0-3.0-1.11"
	},
	{
		"rt": 1251,
		"stimulus": "../audio/34-5-fem.mp3",
		"response": " ",
		"word": "fardo",
		"trial_type": "audio-keyboard-response",
		"trial_index": 34,
		"time_elapsed": 237078,
		"internal_node_id": "0.0-3.0-1.12"
	},
	{
		"rt": 1179,
		"stimulus": "../audio/34-6-fem.mp3",
		"response": " ",
		"word": "para",
		"trial_type": "audio-keyboard-response",
		"trial_index": 35,
		"time_elapsed": 238534,
		"internal_node_id": "0.0-3.0-1.13"
	},
	{
		"rt": 1301,
		"stimulus": "../audio/34-7-fem.mp3",
		"response": " ",
		"word": "a",
		"trial_type": "audio-keyboard-response",
		"trial_index": 36,
		"time_elapsed": 240118,
		"internal_node_id": "0.0-3.0-1.14"
	},
	{
		"rt": 2920,
		"stimulus": "../audio/34-8-fem.mp3",
		"response": " ",
		"word": "cabeça.",
		"trial_type": "audio-keyboard-response",
		"trial_index": 37,
		"time_elapsed": 243318,
		"internal_node_id": "0.0-3.0-1.15"
	},
	{
		"rt": null,
		"stimulus": "<span style= \"font-size:30px; font-family: monospace\">+</span>",
		"response": null,
		"trial_part": "fixation",
		"trial_type": "html-keyboard-response",
		"trial_index": 38,
		"time_elapsed": 244581,
		"internal_node_id": "0.0-3.0-0.16-0.16"
	},
	{
		"rt": 1411,
		"stimulus": "../audio/32-1-masc.mp3",
		"response": " ",
		"word": "A",
		"trial_type": "audio-keyboard-response",
		"trial_index": 39,
		"time_elapsed": 246278,
		"internal_node_id": "0.0-3.0-1.16"
	},
	{
		"rt": 1109,
		"stimulus": "../audio/32-2-masc.mp3",
		"response": " ",
		"word": "tia",
		"trial_type": "audio-keyboard-response",
		"trial_index": 40,
		"time_elapsed": 247654,
		"internal_node_id": "0.0-3.0-1.17"
	},
	{
		"rt": 1211,
		"stimulus": "../audio/32-3-masc.mp3",
		"response": " ",
		"word": "comprou",
		"trial_type": "audio-keyboard-response",
		"trial_index": 41,
		"time_elapsed": 249142,
		"internal_node_id": "0.0-3.0-1.18"
	},
	{
		"rt": 1029,
		"stimulus": "../audio/32-4-masc.mp3",
		"response": " ",
		"word": "um",
		"trial_type": "audio-keyboard-response",
		"trial_index": 42,
		"time_elapsed": 250454,
		"internal_node_id": "0.0-3.0-1.19"
	},
	{
		"rt": 1091,
		"stimulus": "../audio/32-5-masc.mp3",
		"response": " ",
		"word": "pilão",
		"trial_type": "audio-keyboard-response",
		"trial_index": 43,
		"time_elapsed": 251814,
		"internal_node_id": "0.0-3.0-1.20"
	},
	{
		"rt": 1341,
		"stimulus": "../audio/32-6-masc.mp3",
		"response": " ",
		"word": "para",
		"trial_type": "audio-keyboard-response",
		"trial_index": 44,
		"time_elapsed": 253430,
		"internal_node_id": "0.0-3.0-1.21"
	},
	{
		"rt": 939,
		"stimulus": "../audio/32-7-masc.mp3",
		"response": " ",
		"word": "a",
		"trial_type": "audio-keyboard-response",
		"trial_index": 45,
		"time_elapsed": 254646,
		"internal_node_id": "0.0-3.0-1.22"
	},
	{
		"rt": 2400,
		"stimulus": "../audio/32-8-masc.mp3",
		"response": " ",
		"word": "cozinha.",
		"trial_type": "audio-keyboard-response",
		"trial_index": 46,
		"time_elapsed": 257318,
		"internal_node_id": "0.0-3.0-1.23"
	},
	{
		"rt": null,
		"stimulus": "<span style= \"font-size:30px; font-family: monospace\">+</span>",
		"response": null,
		"trial_part": "fixation",
		"trial_type": "html-keyboard-response",
		"trial_index": 47,
		"time_elapsed": 258582,
		"internal_node_id": "0.0-3.0-0.24-0.24"
	},
	{
		"rt": 1331,
		"stimulus": "../audio/33-1-fem.mp3",
		"response": " ",
		"word": "Eles",
		"trial_type": "audio-keyboard-response",
		"trial_index": 48,
		"time_elapsed": 260182,
		"internal_node_id": "0.0-3.0-1.24"
	},
	{
		"rt": 1288,
		"stimulus": "../audio/33-2-fem.mp3",
		"response": " ",
		"word": "sabem",
		"trial_type": "audio-keyboard-response",
		"trial_index": 49,
		"time_elapsed": 261766,
		"internal_node_id": "0.0-3.0-1.25"
	},
	{
		"rt": 1408,
		"stimulus": "../audio/33-3-fem.mp3",
		"response": " ",
		"word": "do",
		"trial_type": "audio-keyboard-response",
		"trial_index": 50,
		"time_elapsed": 263446,
		"internal_node_id": "0.0-3.0-1.26"
	},
	{
		"rt": 1192,
		"stimulus": "../audio/33-4-fem.mp3",
		"response": " ",
		"word": "seu",
		"trial_type": "audio-keyboard-response",
		"trial_index": 51,
		"time_elapsed": 264918,
		"internal_node_id": "0.0-3.0-1.27"
	},
	{
		"rt": 2120,
		"stimulus": "../audio/33-5-fem.mp3",
		"response": " ",
		"word": "privilégio",
		"trial_type": "audio-keyboard-response",
		"trial_index": 52,
		"time_elapsed": 267318,
		"internal_node_id": "0.0-3.0-1.28"
	},
	{
		"rt": 1240,
		"stimulus": "../audio/33-6-fem.mp3",
		"response": " ",
		"word": "nessa",
		"trial_type": "audio-keyboard-response",
		"trial_index": 53,
		"time_elapsed": 268822,
		"internal_node_id": "0.0-3.0-1.29"
	},
	{
		"rt": 2560,
		"stimulus": "../audio/33-7-fem.mp3",
		"response": " ",
		"word": "confusão.",
		"trial_type": "audio-keyboard-response",
		"trial_index": 54,
		"time_elapsed": 271670,
		"internal_node_id": "0.0-3.0-1.30"
	},
	{
		"rt": null,
		"stimulus": "<span style= \"font-size:30px; font-family: monospace\">+</span>",
		"response": null,
		"trial_part": "fixation",
		"trial_type": "html-keyboard-response",
		"trial_index": 55,
		"time_elapsed": 272940,
		"internal_node_id": "0.0-3.0-0.31-0.31"
	},
	{
		"rt": 1131,
		"stimulus": "../audio/35-1-masc.mp3",
		"response": " ",
		"word": "A",
		"trial_type": "audio-keyboard-response",
		"trial_index": 56,
		"time_elapsed": 274342,
		"internal_node_id": "0.0-3.0-1.31"
	},
	{
		"rt": 1200,
		"stimulus": "../audio/35-2-masc.mp3",
		"response": " ",
		"word": "receita",
		"trial_type": "audio-keyboard-response",
		"trial_index": 57,
		"time_elapsed": 275810,
		"internal_node_id": "0.0-3.0-1.32"
	},
	{
		"rt": 1280,
		"stimulus": "../audio/35-3-masc.mp3",
		"response": " ",
		"word": "para",
		"trial_type": "audio-keyboard-response",
		"trial_index": 58,
		"time_elapsed": 277362,
		"internal_node_id": "0.0-3.0-1.33"
	},
	{
		"rt": 1160,
		"stimulus": "../audio/35-4-masc.mp3",
		"response": " ",
		"word": "a",
		"trial_type": "audio-keyboard-response",
		"trial_index": 59,
		"time_elapsed": 278802,
		"internal_node_id": "0.0-3.0-1.34"
	},
	{
		"rt": 1451,
		"stimulus": "../audio/35-5-masc.mp3",
		"response": " ",
		"word": "preparação",
		"trial_type": "audio-keyboard-response",
		"trial_index": 60,
		"time_elapsed": 280530,
		"internal_node_id": "0.0-3.0-1.35"
	},
	{
		"rt": 1301,
		"stimulus": "../audio/35-6-masc.mp3",
		"response": " ",
		"word": "do",
		"trial_type": "audio-keyboard-response",
		"trial_index": 61,
		"time_elapsed": 282114,
		"internal_node_id": "0.0-3.0-1.36"
	},
	{
		"rt": 1229,
		"stimulus": "../audio/35-7-masc.mp3",
		"response": " ",
		"word": "bolo",
		"trial_type": "audio-keyboard-response",
		"trial_index": 62,
		"time_elapsed": 283618,
		"internal_node_id": "0.0-3.0-1.37"
	},
	{
		"rt": 1011,
		"stimulus": "../audio/35-8-masc.mp3",
		"response": " ",
		"word": "é",
		"trial_type": "audio-keyboard-response",
		"trial_index": 63,
		"time_elapsed": 284898,
		"internal_node_id": "0.0-3.0-1.38"
	},
	{
		"rt": 3021,
		"stimulus": "../audio/35-9-masc.mp3",
		"response": " ",
		"word": "leve.",
		"trial_type": "audio-keyboard-response",
		"trial_index": 64,
		"time_elapsed": 288194,
		"internal_node_id": "0.0-3.0-1.39"
	},
	{
		"rt": 9850,
		"stimulus": "<span style=\"font-size:25px; font-family: monospace\">A receita do bolo é pesada?</span>",
		"response": "s",
		"question": "A receita do bolo é pesada?",
		"answer": "null",
		"trial": "exp-sent",
		"trial_type": "html-keyboard-response",
		"trial_index": 65,
		"time_elapsed": 298306,
		"internal_node_id": "0.0-3.0-2.39-0.39",
		"accuracy": false
	},
	{
		"rt": null,
		"stimulus": "<span style= \"font-size:30px; font-family: monospace\">+</span>",
		"response": null,
		"trial_part": "fixation",
		"trial_type": "html-keyboard-response",
		"trial_index": 66,
		"time_elapsed": 299836,
		"internal_node_id": "0.0-3.0-0.40-0.40"
	},
	{
		"rt": 1941,
		"stimulus": "../audio/68-1-masc.mp3",
		"response": " ",
		"word": "Meu",
		"trial_type": "audio-keyboard-response",
		"trial_index": 67,
		"time_elapsed": 302066,
		"internal_node_id": "0.0-3.0-1.40"
	},
	{
		"rt": 1229,
		"stimulus": "../audio/68-2-masc.mp3",
		"response": " ",
		"word": "irmão",
		"trial_type": "audio-keyboard-response",
		"trial_index": 68,
		"time_elapsed": 303570,
		"internal_node_id": "0.0-3.0-1.41"
	},
	{
		"rt": 1181,
		"stimulus": "../audio/68-3-masc.mp3",
		"response": " ",
		"word": "teve",
		"trial_type": "audio-keyboard-response",
		"trial_index": 69,
		"time_elapsed": 305026,
		"internal_node_id": "0.0-3.0-1.42"
	},
	{
		"rt": 1029,
		"stimulus": "../audio/68-4-masc.mp3",
		"response": " ",
		"word": "um",
		"trial_type": "audio-keyboard-response",
		"trial_index": 70,
		"time_elapsed": 306338,
		"internal_node_id": "0.0-3.0-1.43"
	},
	{
		"rt": 1651,
		"stimulus": "../audio/68-5-masc.mp3",
		"response": " ",
		"word": "noivado",
		"trial_type": "audio-keyboard-response",
		"trial_index": 71,
		"time_elapsed": 308258,
		"internal_node_id": "0.0-3.0-1.44"
	},
	{
		"rt": 1211,
		"stimulus": "../audio/68-6-masc.mp3",
		"response": " ",
		"word": "longo",
		"trial_type": "audio-keyboard-response",
		"trial_index": 72,
		"time_elapsed": 309746,
		"internal_node_id": "0.0-3.0-1.45"
	},
	{
		"rt": 1000,
		"stimulus": "../audio/68-7-masc.mp3",
		"response": " ",
		"word": "e",
		"trial_type": "audio-keyboard-response",
		"trial_index": 73,
		"time_elapsed": 311010,
		"internal_node_id": "0.0-3.0-1.46"
	},
	{
		"rt": 1872,
		"stimulus": "../audio/68-8-masc.mp3",
		"response": " ",
		"word": "maravilhoso.",
		"trial_type": "audio-keyboard-response",
		"trial_index": 74,
		"time_elapsed": 313154,
		"internal_node_id": "0.0-3.0-1.47"
	},
	{
		"rt": null,
		"stimulus": "<span style= \"font-size:30px; font-family: monospace\">+</span>",
		"response": null,
		"trial_part": "fixation",
		"trial_type": "html-keyboard-response",
		"trial_index": 75,
		"time_elapsed": 314416,
		"internal_node_id": "0.0-3.0-0.48-0.48"
	},
	{
		"rt": 1320,
		"stimulus": "../audio/67-1-fem.mp3",
		"response": " ",
		"word": "Minha",
		"trial_type": "audio-keyboard-response",
		"trial_index": 76,
		"time_elapsed": 316018,
		"internal_node_id": "0.0-3.0-1.48"
	},
	{
		"rt": 1109,
		"stimulus": "../audio/67-2-fem.mp3",
		"response": " ",
		"word": "tia",
		"trial_type": "audio-keyboard-response",
		"trial_index": 77,
		"time_elapsed": 317410,
		"internal_node_id": "0.0-3.0-1.49"
	},
	{
		"rt": 1152,
		"stimulus": "../audio/67-3-fem.mp3",
		"response": " ",
		"word": "comprou",
		"trial_type": "audio-keyboard-response",
		"trial_index": 78,
		"time_elapsed": 318834,
		"internal_node_id": "0.0-3.0-1.50"
	},
	{
		"rt": 1000,
		"stimulus": "../audio/67-4-fem.mp3",
		"response": " ",
		"word": "um",
		"trial_type": "audio-keyboard-response",
		"trial_index": 79,
		"time_elapsed": 320098,
		"internal_node_id": "0.0-3.0-1.51"
	},
	{
		"rt": 1200,
		"stimulus": "../audio/67-5-fem.mp3",
		"response": " ",
		"word": "cordão",
		"trial_type": "audio-keyboard-response",
		"trial_index": 80,
		"time_elapsed": 321586,
		"internal_node_id": "0.0-3.0-1.52"
	},
	{
		"rt": 1000,
		"stimulus": "../audio/67-6-fem.mp3",
		"response": " ",
		"word": "para",
		"trial_type": "audio-keyboard-response",
		"trial_index": 81,
		"time_elapsed": 322850,
		"internal_node_id": "0.0-3.0-1.53"
	},
	{
		"rt": 1152,
		"stimulus": "../audio/67-7-fem.mp3",
		"response": " ",
		"word": "o",
		"trial_type": "audio-keyboard-response",
		"trial_index": 82,
		"time_elapsed": 324274,
		"internal_node_id": "0.0-3.0-1.54"
	},
	{
		"rt": 1528,
		"stimulus": "../audio/67-8-fem.mp3",
		"response": " ",
		"word": "varal.",
		"trial_type": "audio-keyboard-response",
		"trial_index": 83,
		"time_elapsed": 326082,
		"internal_node_id": "0.0-3.0-1.55"
	},
	{
		"rt": null,
		"stimulus": "<span style= \"font-size:30px; font-family: monospace\">+</span>",
		"response": null,
		"trial_part": "fixation",
		"trial_type": "html-keyboard-response",
		"trial_index": 84,
		"time_elapsed": 327356,
		"internal_node_id": "0.0-3.0-0.56-0.56"
	},
	{
		"rt": 571,
		"stimulus": "../audio/69-1-fem.mp3",
		"response": " ",
		"word": "A",
		"trial_type": "audio-keyboard-response",
		"trial_index": 85,
		"time_elapsed": 328194,
		"internal_node_id": "0.0-3.0-1.56"
	},
	{
		"rt": 1120,
		"stimulus": "../audio/69-2-fem.mp3",
		"response": " ",
		"word": "loja",
		"trial_type": "audio-keyboard-response",
		"trial_index": 86,
		"time_elapsed": 329586,
		"internal_node_id": "0.0-3.0-1.57"
	},
	{
		"rt": 1080,
		"stimulus": "../audio/69-3-fem.mp3",
		"response": " ",
		"word": "recebeu",
		"trial_type": "audio-keyboard-response",
		"trial_index": 87,
		"time_elapsed": 330946,
		"internal_node_id": "0.0-3.0-1.58"
	},
	{
		"rt": 901,
		"stimulus": "../audio/69-4-fem.mp3",
		"response": " ",
		"word": "uma",
		"trial_type": "audio-keyboard-response",
		"trial_index": 88,
		"time_elapsed": 332114,
		"internal_node_id": "0.0-3.0-1.59"
	},
	{
		"rt": 1171,
		"stimulus": "../audio/69-5-fem.mp3",
		"response": " ",
		"word": "poltrona",
		"trial_type": "audio-keyboard-response",
		"trial_index": 89,
		"time_elapsed": 333554,
		"internal_node_id": "0.0-3.0-1.60"
	},
	{
		"rt": 1240,
		"stimulus": "../audio/69-6-fem.mp3",
		"response": " ",
		"word": "de",
		"trial_type": "audio-keyboard-response",
		"trial_index": 90,
		"time_elapsed": 335074,
		"internal_node_id": "0.0-3.0-1.61"
	},
	{
		"rt": 1040,
		"stimulus": "../audio/69-7-fem.mp3",
		"response": " ",
		"word": "couro",
		"trial_type": "audio-keyboard-response",
		"trial_index": 91,
		"time_elapsed": 336390,
		"internal_node_id": "0.0-3.0-1.62"
	},
	{
		"rt": 1371,
		"stimulus": "../audio/69-8-fem.mp3",
		"response": " ",
		"word": "preto.",
		"trial_type": "audio-keyboard-response",
		"trial_index": 92,
		"time_elapsed": 338037,
		"internal_node_id": "0.0-3.0-1.63"
	},
	{
		"rt": null,
		"stimulus": "<span style= \"font-size:30px; font-family: monospace\">+</span>",
		"response": null,
		"trial_part": "fixation",
		"trial_type": "html-keyboard-response",
		"trial_index": 93,
		"time_elapsed": 339291,
		"internal_node_id": "0.0-3.0-0.64-0.64"
	},
	{
		"rt": 1040,
		"stimulus": "../audio/66-1-fem.mp3",
		"response": " ",
		"word": "Não",
		"trial_type": "audio-keyboard-response",
		"trial_index": 94,
		"time_elapsed": 340613,
		"internal_node_id": "0.0-3.0-1.64"
	},
	{
		"rt": 1261,
		"stimulus": "../audio/66-2-fem.mp3",
		"response": " ",
		"word": "gosto",
		"trial_type": "audio-keyboard-response",
		"trial_index": 95,
		"time_elapsed": 342150,
		"internal_node_id": "0.0-3.0-1.65"
	},
	{
		"rt": 848,
		"stimulus": "../audio/66-3-fem.mp3",
		"response": " ",
		"word": "de",
		"trial_type": "audio-keyboard-response",
		"trial_index": 96,
		"time_elapsed": 343285,
		"internal_node_id": "0.0-3.0-1.66"
	},
	{
		"rt": 1168,
		"stimulus": "../audio/66-4-fem.mp3",
		"response": " ",
		"word": "gente",
		"trial_type": "audio-keyboard-response",
		"trial_index": 97,
		"time_elapsed": 344725,
		"internal_node_id": "0.0-3.0-1.67"
	},
	{
		"rt": 1752,
		"stimulus": "../audio/66-5-fem.mp3",
		"response": " ",
		"word": "egoísta",
		"trial_type": "audio-keyboard-response",
		"trial_index": 98,
		"time_elapsed": 346757,
		"internal_node_id": "0.0-3.0-1.68"
	},
	{
		"rt": 1099,
		"stimulus": "../audio/66-6-fem.mp3",
		"response": " ",
		"word": "nem",
		"trial_type": "audio-keyboard-response",
		"trial_index": 99,
		"time_elapsed": 348133,
		"internal_node_id": "0.0-3.0-1.69"
	},
	{
		"rt": 1571,
		"stimulus": "../audio/66-7-fem.mp3",
		"response": " ",
		"word": "chata.",
		"trial_type": "audio-keyboard-response",
		"trial_index": 100,
		"time_elapsed": 349989,
		"internal_node_id": "0.0-3.0-1.70"
	},
	{
		"rt": null,
		"stimulus": "<span style= \"font-size:30px; font-family: monospace\">+</span>",
		"response": null,
		"trial_part": "fixation",
		"trial_type": "html-keyboard-response",
		"trial_index": 101,
		"time_elapsed": 351249,
		"internal_node_id": "0.0-3.0-0.71-0.71"
	},
	{
		"rt": 880,
		"stimulus": "../audio/70-1-masc.mp3",
		"response": " ",
		"word": "O",
		"trial_type": "audio-keyboard-response",
		"trial_index": 102,
		"time_elapsed": 352406,
		"internal_node_id": "0.0-3.0-1.71"
	},
	{
		"rt": 1141,
		"stimulus": "../audio/70-2-masc.mp3",
		"response": " ",
		"word": "meu",
		"trial_type": "audio-keyboard-response",
		"trial_index": 103,
		"time_elapsed": 353829,
		"internal_node_id": "0.0-3.0-1.72"
	},
	{
		"rt": 1029,
		"stimulus": "../audio/70-3-masc.mp3",
		"response": " ",
		"word": "filho",
		"trial_type": "audio-keyboard-response",
		"trial_index": 104,
		"time_elapsed": 355125,
		"internal_node_id": "0.0-3.0-1.73"
	},
	{
		"rt": 880,
		"stimulus": "../audio/70-4-masc.mp3",
		"response": " ",
		"word": "tem",
		"trial_type": "audio-keyboard-response",
		"trial_index": 105,
		"time_elapsed": 356277,
		"internal_node_id": "0.0-3.0-1.74"
	},
	{
		"rt": 1379,
		"stimulus": "../audio/70-5-masc.mp3",
		"response": " ",
		"word": "medo",
		"trial_type": "audio-keyboard-response",
		"trial_index": 106,
		"time_elapsed": 357925,
		"internal_node_id": "0.0-3.0-1.75"
	},
	{
		"rt": 1040,
		"stimulus": "../audio/70-6-masc.mp3",
		"response": " ",
		"word": "de",
		"trial_type": "audio-keyboard-response",
		"trial_index": 107,
		"time_elapsed": 359237,
		"internal_node_id": "0.0-3.0-1.76"
	},
	{
		"rt": 1440,
		"stimulus": "../audio/70-7-masc.mp3",
		"response": " ",
		"word": "enguia",
		"trial_type": "audio-keyboard-response",
		"trial_index": 108,
		"time_elapsed": 360949,
		"internal_node_id": "0.0-3.0-1.77"
	},
	{
		"rt": 1339,
		"stimulus": "../audio/70-8-masc.mp3",
		"response": " ",
		"word": "e",
		"trial_type": "audio-keyboard-response",
		"trial_index": 109,
		"time_elapsed": 362566,
		"internal_node_id": "0.0-3.0-1.78"
	},
	{
		"rt": 1661,
		"stimulus": "../audio/70-9-masc.mp3",
		"response": " ",
		"word": "beija-flor.",
		"trial_type": "audio-keyboard-response",
		"trial_index": 110,
		"time_elapsed": 364501,
		"internal_node_id": "0.0-3.0-1.79"
	},
	{
		"rt": 8990,
		"stimulus": "<span style=\"font-size:25px; font-family: monospace\">O filho tem medo de tigre?</span>",
		"response": "n",
		"question": "O filho tem medo de tigre?",
		"answer": "null",
		"trial": "exp-sent",
		"trial_type": "html-keyboard-response",
		"trial_index": 111,
		"time_elapsed": 373750,
		"internal_node_id": "0.0-3.0-2.79-0.79",
		"accuracy": false
	},
	{
		"rt": null,
		"stimulus": "<span style= \"font-size:30px; font-family: monospace\">+</span>",
		"response": null,
		"trial_part": "fixation",
		"trial_type": "html-keyboard-response",
		"trial_index": 112,
		"time_elapsed": 375259,
		"internal_node_id": "0.0-3.0-0.80-0.80"
	},
	{
		"rt": 1171,
		"stimulus": "../audio/76-1-fem.mp3",
		"response": " ",
		"word": "O",
		"trial_type": "audio-keyboard-response",
		"trial_index": 113,
		"time_elapsed": 376709,
		"internal_node_id": "0.0-3.0-1.80"
	},
	{
		"rt": 1611,
		"stimulus": "../audio/76-2-fem.mp3",
		"response": " ",
		"word": "bisavô",
		"trial_type": "audio-keyboard-response",
		"trial_index": 114,
		"time_elapsed": 378597,
		"internal_node_id": "0.0-3.0-1.81"
	},
	{
		"rt": 1251,
		"stimulus": "../audio/76-3-fem.mp3",
		"response": " ",
		"word": "comprou",
		"trial_type": "audio-keyboard-response",
		"trial_index": 115,
		"time_elapsed": 380117,
		"internal_node_id": "0.0-3.0-1.82"
	},
	{
		"rt": 1179,
		"stimulus": "../audio/76-4-fem.mp3",
		"response": " ",
		"word": "um",
		"trial_type": "audio-keyboard-response",
		"trial_index": 116,
		"time_elapsed": 381573,
		"internal_node_id": "0.0-3.0-1.83"
	},
	{
		"rt": 1509,
		"stimulus": "../audio/76-5-fem.mp3",
		"response": " ",
		"word": "ralador",
		"trial_type": "audio-keyboard-response",
		"trial_index": 117,
		"time_elapsed": 383365,
		"internal_node_id": "0.0-3.0-1.84"
	},
	{
		"rt": 989,
		"stimulus": "../audio/76-6-fem.mp3",
		"response": " ",
		"word": "de",
		"trial_type": "audio-keyboard-response",
		"trial_index": 118,
		"time_elapsed": 384630,
		"internal_node_id": "0.0-3.0-1.85"
	},
	{
		"rt": 1499,
		"stimulus": "../audio/76-7-fem.mp3",
		"response": " ",
		"word": "queijo.",
		"trial_type": "audio-keyboard-response",
		"trial_index": 119,
		"time_elapsed": 386405,
		"internal_node_id": "0.0-3.0-1.86"
	},
	{
		"rt": null,
		"stimulus": "<span style= \"font-size:30px; font-family: monospace\">+</span>",
		"response": null,
		"trial_part": "fixation",
		"trial_type": "html-keyboard-response",
		"trial_index": 120,
		"time_elapsed": 387689,
		"internal_node_id": "0.0-3.0-0.87-0.87"
	},
	{
		"rt": 952,
		"stimulus": "../audio/79-1-fem.mp3",
		"response": " ",
		"word": "A",
		"trial_type": "audio-keyboard-response",
		"trial_index": 121,
		"time_elapsed": 388917,
		"internal_node_id": "0.0-3.0-1.87"
	},
	{
		"rt": 1269,
		"stimulus": "../audio/79-2-fem.mp3",
		"response": " ",
		"word": "médica",
		"trial_type": "audio-keyboard-response",
		"trial_index": 122,
		"time_elapsed": 390469,
		"internal_node_id": "0.0-3.0-1.88"
	},
	{
		"rt": 1291,
		"stimulus": "../audio/79-3-fem.mp3",
		"response": " ",
		"word": "verificou",
		"trial_type": "audio-keyboard-response",
		"trial_index": 123,
		"time_elapsed": 392037,
		"internal_node_id": "0.0-3.0-1.89"
	},
	{
		"rt": 899,
		"stimulus": "../audio/79-4-fem.mp3",
		"response": " ",
		"word": "a",
		"trial_type": "audio-keyboard-response",
		"trial_index": 124,
		"time_elapsed": 393205,
		"internal_node_id": "0.0-3.0-1.90"
	},
	{
		"rt": 1451,
		"stimulus": "../audio/79-5-fem.mp3",
		"response": " ",
		"word": "gengiva",
		"trial_type": "audio-keyboard-response",
		"trial_index": 125,
		"time_elapsed": 394933,
		"internal_node_id": "0.0-3.0-1.91"
	},
	{
		"rt": 1120,
		"stimulus": "../audio/79-6-fem.mp3",
		"response": " ",
		"word": "por",
		"trial_type": "audio-keyboard-response",
		"trial_index": 126,
		"time_elapsed": 396325,
		"internal_node_id": "0.0-3.0-1.92"
	},
	{
		"rt": 1400,
		"stimulus": "../audio/79-7-fem.mp3",
		"response": " ",
		"word": "último.",
		"trial_type": "audio-keyboard-response",
		"trial_index": 127,
		"time_elapsed": 398006,
		"internal_node_id": "0.0-3.0-1.93"
	},
	{
		"rt": null,
		"stimulus": "<span style= \"font-size:30px; font-family: monospace\">+</span>",
		"response": null,
		"trial_part": "fixation",
		"trial_type": "html-keyboard-response",
		"trial_index": 128,
		"time_elapsed": 399270,
		"internal_node_id": "0.0-3.0-0.94-0.94"
	},
	{
		"rt": 1120,
		"stimulus": "../audio/78-1-masc.mp3",
		"response": " ",
		"word": "Eles",
		"trial_type": "audio-keyboard-response",
		"trial_index": 129,
		"time_elapsed": 400678,
		"internal_node_id": "0.0-3.0-1.94"
	},
	{
		"rt": 1309,
		"stimulus": "../audio/78-2-masc.mp3",
		"response": " ",
		"word": "trazem",
		"trial_type": "audio-keyboard-response",
		"trial_index": 130,
		"time_elapsed": 402262,
		"internal_node_id": "0.0-3.0-1.95"
	},
	{
		"rt": 1021,
		"stimulus": "../audio/78-3-masc.mp3",
		"response": " ",
		"word": "um",
		"trial_type": "audio-keyboard-response",
		"trial_index": 131,
		"time_elapsed": 403558,
		"internal_node_id": "0.0-3.0-1.96"
	},
	{
		"rt": 1139,
		"stimulus": "../audio/78-4-masc.mp3",
		"response": " ",
		"word": "fato",
		"trial_type": "audio-keyboard-response",
		"trial_index": 132,
		"time_elapsed": 404966,
		"internal_node_id": "0.0-3.0-1.97"
	},
	{
		"rt": 1272,
		"stimulus": "../audio/78-5-masc.mp3",
		"response": " ",
		"word": "urgente",
		"trial_type": "audio-keyboard-response",
		"trial_index": 133,
		"time_elapsed": 406518,
		"internal_node_id": "0.0-3.0-1.98"
	},
	{
		"rt": 1069,
		"stimulus": "../audio/78-6-masc.mp3",
		"response": " ",
		"word": "todos",
		"trial_type": "audio-keyboard-response",
		"trial_index": 134,
		"time_elapsed": 407862,
		"internal_node_id": "0.0-3.0-1.99"
	},
	{
		"rt": 971,
		"stimulus": "../audio/78-7-masc.mp3",
		"response": " ",
		"word": "os",
		"trial_type": "audio-keyboard-response",
		"trial_index": 135,
		"time_elapsed": 409110,
		"internal_node_id": "0.0-3.0-1.100"
	},
	{
		"rt": 1349,
		"stimulus": "../audio/78-8-masc.mp3",
		"response": " ",
		"word": "dias.",
		"trial_type": "audio-keyboard-response",
		"trial_index": 136,
		"time_elapsed": 410742,
		"internal_node_id": "0.0-3.0-1.101"
	},
	{
		"rt": null,
		"stimulus": "<span style= \"font-size:30px; font-family: monospace\">+</span>",
		"response": null,
		"trial_part": "fixation",
		"trial_type": "html-keyboard-response",
		"trial_index": 137,
		"time_elapsed": 412030,
		"internal_node_id": "0.0-3.0-0.102-0.102"
	},
	{
		"rt": 680,
		"stimulus": "../audio/77-1-masc.mp3",
		"response": " ",
		"word": "A",
		"trial_type": "audio-keyboard-response",
		"trial_index": 138,
		"time_elapsed": 412982,
		"internal_node_id": "0.0-3.0-1.102"
	},
	{
		"rt": 1091,
		"stimulus": "../audio/77-2-masc.mp3",
		"response": " ",
		"word": "criança",
		"trial_type": "audio-keyboard-response",
		"trial_index": 139,
		"time_elapsed": 414342,
		"internal_node_id": "0.0-3.0-1.103"
	},
	{
		"rt": 1331,
		"stimulus": "../audio/77-3-masc.mp3",
		"response": " ",
		"word": "ficou",
		"trial_type": "audio-keyboard-response",
		"trial_index": 140,
		"time_elapsed": 415958,
		"internal_node_id": "0.0-3.0-1.104"
	},
	{
		"rt": 1320,
		"stimulus": "../audio/77-4-masc.mp3",
		"response": " ",
		"word": "muito",
		"trial_type": "audio-keyboard-response",
		"trial_index": 141,
		"time_elapsed": 417558,
		"internal_node_id": "0.0-3.0-1.105"
	},
	{
		"rt": 1549,
		"stimulus": "../audio/77-5-masc.mp3",
		"response": " ",
		"word": "feliz",
		"trial_type": "audio-keyboard-response",
		"trial_index": 142,
		"time_elapsed": 419382,
		"internal_node_id": "0.0-3.0-1.106"
	},
	{
		"rt": 1000,
		"stimulus": "../audio/77-6-masc.mp3",
		"response": " ",
		"word": "com",
		"trial_type": "audio-keyboard-response",
		"trial_index": 143,
		"time_elapsed": 420662,
		"internal_node_id": "0.0-3.0-1.107"
	},
	{
		"rt": 1131,
		"stimulus": "../audio/77-7-masc.mp3",
		"response": " ",
		"word": "o",
		"trial_type": "audio-keyboard-response",
		"trial_index": 144,
		"time_elapsed": 422070,
		"internal_node_id": "0.0-3.0-1.108"
	},
	{
		"rt": 2669,
		"stimulus": "../audio/77-8-masc.mp3",
		"response": " ",
		"word": "brinquedo.",
		"trial_type": "audio-keyboard-response",
		"trial_index": 145,
		"time_elapsed": 425014,
		"internal_node_id": "0.0-3.0-1.109"
	},
	{
		"rt": null,
		"stimulus": "<span style= \"font-size:30px; font-family: monospace\">+</span>",
		"response": null,
		"trial_part": "fixation",
		"trial_type": "html-keyboard-response",
		"trial_index": 146,
		"time_elapsed": 426278,
		"internal_node_id": "0.0-3.0-0.110-0.110"
	},
	{
		"rt": 1240,
		"stimulus": "../audio/80-1-masc.mp3",
		"response": " ",
		"word": "Meu",
		"trial_type": "audio-keyboard-response",
		"trial_index": 147,
		"time_elapsed": 427782,
		"internal_node_id": "0.0-3.0-1.110"
	},
	{
		"rt": 1211,
		"stimulus": "../audio/80-2-masc.mp3",
		"response": " ",
		"word": "primo",
		"trial_type": "audio-keyboard-response",
		"trial_index": 148,
		"time_elapsed": 429270,
		"internal_node_id": "0.0-3.0-1.111"
	},
	{
		"rt": 1349,
		"stimulus": "../audio/80-3-masc.mp3",
		"response": " ",
		"word": "conheceu",
		"trial_type": "audio-keyboard-response",
		"trial_index": 149,
		"time_elapsed": 430902,
		"internal_node_id": "0.0-3.0-1.112"
	},
	{
		"rt": 1261,
		"stimulus": "../audio/80-4-masc.mp3",
		"response": " ",
		"word": "um",
		"trial_type": "audio-keyboard-response",
		"trial_index": 150,
		"time_elapsed": 432438,
		"internal_node_id": "0.0-3.0-1.113"
	},
	{
		"rt": 1139,
		"stimulus": "../audio/80-5-masc.mp3",
		"response": " ",
		"word": "jovem",
		"trial_type": "audio-keyboard-response",
		"trial_index": 151,
		"time_elapsed": 433846,
		"internal_node_id": "0.0-3.0-1.114"
	},
	{
		"rt": 1379,
		"stimulus": "../audio/80-6-masc.mp3",
		"response": " ",
		"word": "amável",
		"trial_type": "audio-keyboard-response",
		"trial_index": 152,
		"time_elapsed": 435494,
		"internal_node_id": "0.0-3.0-1.115"
	},
	{
		"rt": 1072,
		"stimulus": "../audio/80-7-masc.mp3",
		"response": " ",
		"word": "e",
		"trial_type": "audio-keyboard-response",
		"trial_index": 153,
		"time_elapsed": 436838,
		"internal_node_id": "0.0-3.0-1.116"
	},
	{
		"rt": 2120,
		"stimulus": "../audio/80-8-masc.mp3",
		"response": " ",
		"word": "confiante.",
		"trial_type": "audio-keyboard-response",
		"trial_index": 154,
		"time_elapsed": 439238,
		"internal_node_id": "0.0-3.0-1.117"
	},
	{
		"rt": 8378,
		"stimulus": "<span style=\"font-size:25px; font-family: monospace\">O primo conheceu um jovem irritante?</span>",
		"response": "n",
		"question": "O primo conheceu um jovem irritante?",
		"answer": "null",
		"trial": "exp-sent",
		"trial_type": "html-keyboard-response",
		"trial_index": 155,
		"time_elapsed": 447878,
		"internal_node_id": "0.0-3.0-2.117-0.117",
		"accuracy": false
	},
	{
		"rt": null,
		"stimulus": "<span style= \"font-size:30px; font-family: monospace\">+</span>",
		"response": null,
		"trial_part": "fixation",
		"trial_type": "html-keyboard-response",
		"trial_index": 156,
		"time_elapsed": 449410,
		"internal_node_id": "0.0-3.0-0.118-0.118"
	},
	{
		"rt": 1021,
		"stimulus": "../audio/11-1-fem.mp3",
		"response": " ",
		"word": "Elas",
		"trial_type": "audio-keyboard-response",
		"trial_index": 157,
		"time_elapsed": 450710,
		"internal_node_id": "0.0-3.0-1.118"
	},
	{
		"rt": 1179,
		"stimulus": "../audio/11-2-fem.mp3",
		"response": " ",
		"word": "gostam",
		"trial_type": "audio-keyboard-response",
		"trial_index": 158,
		"time_elapsed": 452166,
		"internal_node_id": "0.0-3.0-1.119"
	},
	{
		"rt": 1189,
		"stimulus": "../audio/11-3-fem.mp3",
		"response": " ",
		"word": "muito",
		"trial_type": "audio-keyboard-response",
		"trial_index": 159,
		"time_elapsed": 453622,
		"internal_node_id": "0.0-3.0-1.120"
	},
	{
		"rt": 1360,
		"stimulus": "../audio/11-4-fem.mp3",
		"response": " ",
		"word": "de",
		"trial_type": "audio-keyboard-response",
		"trial_index": 160,
		"time_elapsed": 455254,
		"internal_node_id": "0.0-3.0-1.121"
	},
	{
		"rt": 2171,
		"stimulus": "../audio/11-5-fem.mp3",
		"response": " ",
		"word": "aritmética",
		"trial_type": "audio-keyboard-response",
		"trial_index": 161,
		"time_elapsed": 457710,
		"internal_node_id": "0.0-3.0-1.122"
	},
	{
		"rt": 1309,
		"stimulus": "../audio/11-6-fem.mp3",
		"response": " ",
		"word": "e",
		"trial_type": "audio-keyboard-response",
		"trial_index": 162,
		"time_elapsed": 459294,
		"internal_node_id": "0.0-3.0-1.123"
	},
	{
		"rt": 1381,
		"stimulus": "../audio/11-7-fem.mp3",
		"response": " ",
		"word": "de",
		"trial_type": "audio-keyboard-response",
		"trial_index": 163,
		"time_elapsed": 460942,
		"internal_node_id": "0.0-3.0-1.124"
	},
	{
		"rt": 1699,
		"stimulus": "../audio/11-8-fem.mp3",
		"response": " ",
		"word": "leitura.",
		"trial_type": "audio-keyboard-response",
		"trial_index": 164,
		"time_elapsed": 462926,
		"internal_node_id": "0.0-3.0-1.125"
	},
	{
		"rt": null,
		"stimulus": "<span style= \"font-size:30px; font-family: monospace\">+</span>",
		"response": null,
		"trial_part": "fixation",
		"trial_type": "html-keyboard-response",
		"trial_index": 165,
		"time_elapsed": 464212,
		"internal_node_id": "0.0-3.0-0.126-0.126"
	},
	{
		"rt": 1080,
		"stimulus": "../audio/14-1-masc.mp3",
		"response": " ",
		"word": "O",
		"trial_type": "audio-keyboard-response",
		"trial_index": 166,
		"time_elapsed": 465566,
		"internal_node_id": "0.0-3.0-1.126"
	},
	{
		"rt": 1232,
		"stimulus": "../audio/14-2-masc.mp3",
		"response": " ",
		"word": "cachorro",
		"trial_type": "audio-keyboard-response",
		"trial_index": 167,
		"time_elapsed": 467070,
		"internal_node_id": "0.0-3.0-1.127"
	},
	{
		"rt": 1189,
		"stimulus": "../audio/14-3-masc.mp3",
		"response": " ",
		"word": "é",
		"trial_type": "audio-keyboard-response",
		"trial_index": 168,
		"time_elapsed": 468542,
		"internal_node_id": "0.0-3.0-1.128"
	},
	{
		"rt": 1091,
		"stimulus": "../audio/14-4-masc.mp3",
		"response": " ",
		"word": "muito",
		"trial_type": "audio-keyboard-response",
		"trial_index": 169,
		"time_elapsed": 469902,
		"internal_node_id": "0.0-3.0-1.129"
	},
	{
		"rt": 1371,
		"stimulus": "../audio/14-5-masc.mp3",
		"response": " ",
		"word": "fiel",
		"trial_type": "audio-keyboard-response",
		"trial_index": 170,
		"time_elapsed": 471550,
		"internal_node_id": "0.0-3.0-1.130"
	},
	{
		"rt": 979,
		"stimulus": "../audio/14-6-masc.mp3",
		"response": " ",
		"word": "a",
		"trial_type": "audio-keyboard-response",
		"trial_index": 171,
		"time_elapsed": 472798,
		"internal_node_id": "0.0-3.0-1.131"
	},
	{
		"rt": 960,
		"stimulus": "../audio/14-7-masc.mp3",
		"response": " ",
		"word": "seus",
		"trial_type": "audio-keyboard-response",
		"trial_index": 172,
		"time_elapsed": 474030,
		"internal_node_id": "0.0-3.0-1.132"
	},
	{
		"rt": 1269,
		"stimulus": "../audio/14-8-masc.mp3",
		"response": " ",
		"word": "donos.",
		"trial_type": "audio-keyboard-response",
		"trial_index": 173,
		"time_elapsed": 475566,
		"internal_node_id": "0.0-3.0-1.133"
	},
	{
		"rt": null,
		"stimulus": "<span style= \"font-size:30px; font-family: monospace\">+</span>",
		"response": null,
		"trial_part": "fixation",
		"trial_type": "html-keyboard-response",
		"trial_index": 174,
		"time_elapsed": 476842,
		"internal_node_id": "0.0-3.0-0.134-0.134"
	},
	{
		"rt": 760,
		"stimulus": "../audio/12-1-fem.mp3",
		"response": " ",
		"word": "O",
		"trial_type": "audio-keyboard-response",
		"trial_index": 175,
		"time_elapsed": 477886,
		"internal_node_id": "0.0-3.0-1.134"
	},
	{
		"rt": 1091,
		"stimulus": "../audio/12-2-fem.mp3",
		"response": " ",
		"word": "dia",
		"trial_type": "audio-keyboard-response",
		"trial_index": 176,
		"time_elapsed": 479246,
		"internal_node_id": "0.0-3.0-1.135"
	},
	{
		"rt": 1011,
		"stimulus": "../audio/12-3-fem.mp3",
		"response": " ",
		"word": "estava",
		"trial_type": "audio-keyboard-response",
		"trial_index": 177,
		"time_elapsed": 480542,
		"internal_node_id": "0.0-3.0-1.136"
	},
	{
		"rt": 1859,
		"stimulus": "../audio/12-4-fem.mp3",
		"response": " ",
		"word": "quente,",
		"trial_type": "audio-keyboard-response",
		"trial_index": 178,
		"time_elapsed": 482686,
		"internal_node_id": "0.0-3.0-1.137"
	},
	{
		"rt": 1320,
		"stimulus": "../audio/12-5-fem.mp3",
		"response": " ",
		"word": "tranquilo",
		"trial_type": "audio-keyboard-response",
		"trial_index": 179,
		"time_elapsed": 484302,
		"internal_node_id": "0.0-3.0-1.138"
	},
	{
		"rt": 1051,
		"stimulus": "../audio/12-6-fem.mp3",
		"response": " ",
		"word": "e",
		"trial_type": "audio-keyboard-response",
		"trial_index": 180,
		"time_elapsed": 485630,
		"internal_node_id": "0.0-3.0-1.139"
	},
	{
		"rt": 2600,
		"stimulus": "../audio/12-7-fem.mp3",
		"response": " ",
		"word": "ensolarado.",
		"trial_type": "audio-keyboard-response",
		"trial_index": 181,
		"time_elapsed": 488494,
		"internal_node_id": "0.0-3.0-1.140"
	},
	{
		"rt": null,
		"stimulus": "<span style= \"font-size:30px; font-family: monospace\">+</span>",
		"response": null,
		"trial_part": "fixation",
		"trial_type": "html-keyboard-response",
		"trial_index": 182,
		"time_elapsed": 489764,
		"internal_node_id": "0.0-3.0-0.141-0.141"
	},
	{
		"rt": 840,
		"stimulus": "../audio/13-1-masc.mp3",
		"response": " ",
		"word": "Para",
		"trial_type": "audio-keyboard-response",
		"trial_index": 183,
		"time_elapsed": 490878,
		"internal_node_id": "0.0-3.0-1.141"
	},
	{
		"rt": 901,
		"stimulus": "../audio/13-2-masc.mp3",
		"response": " ",
		"word": "mim",
		"trial_type": "audio-keyboard-response",
		"trial_index": 184,
		"time_elapsed": 492062,
		"internal_node_id": "0.0-3.0-1.142"
	},
	{
		"rt": 891,
		"stimulus": "../audio/13-3-masc.mp3",
		"response": " ",
		"word": "é",
		"trial_type": "audio-keyboard-response",
		"trial_index": 185,
		"time_elapsed": 493230,
		"internal_node_id": "0.0-3.0-1.143"
	},
	{
		"rt": 1059,
		"stimulus": "../audio/13-4-masc.mp3",
		"response": " ",
		"word": "muito",
		"trial_type": "audio-keyboard-response",
		"trial_index": 186,
		"time_elapsed": 494558,
		"internal_node_id": "0.0-3.0-1.144"
	},
	{
		"rt": 1131,
		"stimulus": "../audio/13-5-masc.mp3",
		"response": " ",
		"word": "difícil",
		"trial_type": "audio-keyboard-response",
		"trial_index": 187,
		"time_elapsed": 495966,
		"internal_node_id": "0.0-3.0-1.145"
	},
	{
		"rt": 1171,
		"stimulus": "../audio/13-6-masc.mp3",
		"response": " ",
		"word": "acordar",
		"trial_type": "audio-keyboard-response",
		"trial_index": 188,
		"time_elapsed": 497406,
		"internal_node_id": "0.0-3.0-1.146"
	},
	{
		"rt": 1891,
		"stimulus": "../audio/13-7-masc.mp3",
		"response": " ",
		"word": "cedo.",
		"trial_type": "audio-keyboard-response",
		"trial_index": 189,
		"time_elapsed": 499566,
		"internal_node_id": "0.0-3.0-1.147"
	},
	{
		"rt": null,
		"stimulus": "<span style= \"font-size:30px; font-family: monospace\">+</span>",
		"response": null,
		"trial_part": "fixation",
		"trial_type": "html-keyboard-response",
		"trial_index": 190,
		"time_elapsed": 500830,
		"internal_node_id": "0.0-3.0-0.148-0.148"
	},
	{
		"rt": 939,
		"stimulus": "../audio/15-1-masc.mp3",
		"response": " ",
		"word": "Meu",
		"trial_type": "audio-keyboard-response",
		"trial_index": 191,
		"time_elapsed": 502046,
		"internal_node_id": "0.0-3.0-1.148"
	},
	{
		"rt": 1000,
		"stimulus": "../audio/15-2-masc.mp3",
		"response": " ",
		"word": "primo",
		"trial_type": "audio-keyboard-response",
		"trial_index": 192,
		"time_elapsed": 503326,
		"internal_node_id": "0.0-3.0-1.149"
	},
	{
		"rt": 1101,
		"stimulus": "../audio/15-3-masc.mp3",
		"response": " ",
		"word": "é",
		"trial_type": "audio-keyboard-response",
		"trial_index": 193,
		"time_elapsed": 504702,
		"internal_node_id": "0.0-3.0-1.150"
	},
	{
		"rt": 979,
		"stimulus": "../audio/15-4-masc.mp3",
		"response": " ",
		"word": "um",
		"trial_type": "audio-keyboard-response",
		"trial_index": 194,
		"time_elapsed": 505966,
		"internal_node_id": "0.0-3.0-1.151"
	},
	{
		"rt": 1141,
		"stimulus": "../audio/15-5-masc.mp3",
		"response": " ",
		"word": "grande",
		"trial_type": "audio-keyboard-response",
		"trial_index": 195,
		"time_elapsed": 507390,
		"internal_node_id": "0.0-3.0-1.152"
	},
	{
		"rt": 1331,
		"stimulus": "../audio/15-6-masc.mp3",
		"response": " ",
		"word": "vendedor",
		"trial_type": "audio-keyboard-response",
		"trial_index": 196,
		"time_elapsed": 508990,
		"internal_node_id": "0.0-3.0-1.153"
	},
	{
		"rt": 1080,
		"stimulus": "../audio/15-7-masc.mp3",
		"response": " ",
		"word": "de",
		"trial_type": "audio-keyboard-response",
		"trial_index": 197,
		"time_elapsed": 510350,
		"internal_node_id": "0.0-3.0-1.154"
	},
	{
		"rt": 2168,
		"stimulus": "../audio/15-8-masc.mp3",
		"response": " ",
		"word": "carros.",
		"trial_type": "audio-keyboard-response",
		"trial_index": 198,
		"time_elapsed": 512798,
		"internal_node_id": "0.0-3.0-1.155"
	},
	{
		"rt": 5586,
		"stimulus": "<span style=\"font-size:25px; font-family: monospace\">O primo é um vendedor de carros?</span>",
		"response": "s",
		"question": "O primo é um vendedor de carros?",
		"answer": "null",
		"trial": "exp-sent",
		"trial_type": "html-keyboard-response",
		"trial_index": 199,
		"time_elapsed": 518640,
		"internal_node_id": "0.0-3.0-2.155-0.155",
		"accuracy": false
	},
	{
		"rt": null,
		"stimulus": "<span style= \"font-size:30px; font-family: monospace\">+</span>",
		"response": null,
		"trial_part": "fixation",
		"trial_type": "html-keyboard-response",
		"trial_index": 200,
		"time_elapsed": 520164,
		"internal_node_id": "0.0-3.0-0.156-0.156"
	},
	{
		"rt": 1931,
		"stimulus": "../audio/22-1-fem.mp3",
		"response": " ",
		"word": "Eu",
		"trial_type": "audio-keyboard-response",
		"trial_index": 201,
		"time_elapsed": 522368,
		"internal_node_id": "0.0-3.0-1.156"
	},
	{
		"rt": 1331,
		"stimulus": "../audio/22-2-fem.mp3",
		"response": " ",
		"word": "detesto",
		"trial_type": "audio-keyboard-response",
		"trial_index": 202,
		"time_elapsed": 523967,
		"internal_node_id": "0.0-3.0-1.157"
	},
	{
		"rt": 1251,
		"stimulus": "../audio/22-3-fem.mp3",
		"response": " ",
		"word": "fumaça",
		"trial_type": "audio-keyboard-response",
		"trial_index": 203,
		"time_elapsed": 525488,
		"internal_node_id": "0.0-3.0-1.158"
	},
	{
		"rt": 981,
		"stimulus": "../audio/22-4-fem.mp3",
		"response": " ",
		"word": "de",
		"trial_type": "audio-keyboard-response",
		"trial_index": 204,
		"time_elapsed": 526752,
		"internal_node_id": "0.0-3.0-1.159"
	},
	{
		"rt": 1640,
		"stimulus": "../audio/22-5-fem.mp3",
		"response": " ",
		"word": "cachimbo",
		"trial_type": "audio-keyboard-response",
		"trial_index": 205,
		"time_elapsed": 528656,
		"internal_node_id": "0.0-3.0-1.160"
	},
	{
		"rt": 1189,
		"stimulus": "../audio/22-6-fem.mp3",
		"response": " ",
		"word": "e",
		"trial_type": "audio-keyboard-response",
		"trial_index": 206,
		"time_elapsed": 530128,
		"internal_node_id": "0.0-3.0-1.161"
	},
	{
		"rt": 971,
		"stimulus": "../audio/22-7-fem.mp3",
		"response": " ",
		"word": "de",
		"trial_type": "audio-keyboard-response",
		"trial_index": 207,
		"time_elapsed": 531375,
		"internal_node_id": "0.0-3.0-1.162"
	},
	{
		"rt": 1651,
		"stimulus": "../audio/22-8-fem.mp3",
		"response": " ",
		"word": "cigarro.",
		"trial_type": "audio-keyboard-response",
		"trial_index": 208,
		"time_elapsed": 533312,
		"internal_node_id": "0.0-3.0-1.163"
	},
	{
		"rt": null,
		"stimulus": "<span style= \"font-size:30px; font-family: monospace\">+</span>",
		"response": null,
		"trial_part": "fixation",
		"trial_type": "html-keyboard-response",
		"trial_index": 209,
		"time_elapsed": 534593,
		"internal_node_id": "0.0-3.0-0.164-0.164"
	},
	{
		"rt": 1109,
		"stimulus": "../audio/24-1-masc.mp3",
		"response": " ",
		"word": "As",
		"trial_type": "audio-keyboard-response",
		"trial_index": 210,
		"time_elapsed": 535984,
		"internal_node_id": "0.0-3.0-1.164"
	},
	{
		"rt": 1200,
		"stimulus": "../audio/24-2-masc.mp3",
		"response": " ",
		"word": "crianças",
		"trial_type": "audio-keyboard-response",
		"trial_index": 211,
		"time_elapsed": 537472,
		"internal_node_id": "0.0-3.0-1.165"
	},
	{
		"rt": 1080,
		"stimulus": "../audio/24-3-masc.mp3",
		"response": " ",
		"word": "vão",
		"trial_type": "audio-keyboard-response",
		"trial_index": 212,
		"time_elapsed": 538816,
		"internal_node_id": "0.0-3.0-1.166"
	},
	{
		"rt": 1091,
		"stimulus": "../audio/24-4-masc.mp3",
		"response": " ",
		"word": "ao",
		"trial_type": "audio-keyboard-response",
		"trial_index": 213,
		"time_elapsed": 540192,
		"internal_node_id": "0.0-3.0-1.167"
	},
	{
		"rt": 1309,
		"stimulus": "../audio/24-5-masc.mp3",
		"response": " ",
		"word": "cinema",
		"trial_type": "audio-keyboard-response",
		"trial_index": 214,
		"time_elapsed": 541775,
		"internal_node_id": "0.0-3.0-1.168"
	},
	{
		"rt": 1181,
		"stimulus": "../audio/24-6-masc.mp3",
		"response": " ",
		"word": "mais",
		"trial_type": "audio-keyboard-response",
		"trial_index": 215,
		"time_elapsed": 543232,
		"internal_node_id": "0.0-3.0-1.169"
	},
	{
		"rt": 1640,
		"stimulus": "../audio/24-7-masc.mp3",
		"response": " ",
		"word": "tarde.",
		"trial_type": "audio-keyboard-response",
		"trial_index": 216,
		"time_elapsed": 545135,
		"internal_node_id": "0.0-3.0-1.170"
	},
	{
		"rt": null,
		"stimulus": "<span style= \"font-size:30px; font-family: monospace\">+</span>",
		"response": null,
		"trial_part": "fixation",
		"trial_type": "html-keyboard-response",
		"trial_index": 217,
		"time_elapsed": 546403,
		"internal_node_id": "0.0-3.0-0.171-0.171"
	},
	{
		"rt": 1061,
		"stimulus": "../audio/21-1-masc.mp3",
		"response": " ",
		"word": "Precisamos",
		"trial_type": "audio-keyboard-response",
		"trial_index": 218,
		"time_elapsed": 547744,
		"internal_node_id": "0.0-3.0-1.171"
	},
	{
		"rt": 1200,
		"stimulus": "../audio/21-2-masc.mp3",
		"response": " ",
		"word": "de",
		"trial_type": "audio-keyboard-response",
		"trial_index": 219,
		"time_elapsed": 549215,
		"internal_node_id": "0.0-3.0-1.172"
	},
	{
		"rt": 1341,
		"stimulus": "../audio/21-3-masc.mp3",
		"response": " ",
		"word": "paciência",
		"trial_type": "audio-keyboard-response",
		"trial_index": 220,
		"time_elapsed": 550832,
		"internal_node_id": "0.0-3.0-1.173"
	},
	{
		"rt": 1109,
		"stimulus": "../audio/21-4-masc.mp3",
		"response": " ",
		"word": "e",
		"trial_type": "audio-keyboard-response",
		"trial_index": 221,
		"time_elapsed": 552224,
		"internal_node_id": "0.0-3.0-1.174"
	},
	{
		"rt": 1328,
		"stimulus": "../audio/21-5-masc.mp3",
		"response": " ",
		"word": "bondade",
		"trial_type": "audio-keyboard-response",
		"trial_index": 222,
		"time_elapsed": 553840,
		"internal_node_id": "0.0-3.0-1.175"
	},
	{
		"rt": 1008,
		"stimulus": "../audio/21-6-masc.mp3",
		"response": " ",
		"word": "para",
		"trial_type": "audio-keyboard-response",
		"trial_index": 223,
		"time_elapsed": 555119,
		"internal_node_id": "0.0-3.0-1.176"
	},
	{
		"rt": 949,
		"stimulus": "../audio/21-7-masc.mp3",
		"response": " ",
		"word": "um",
		"trial_type": "audio-keyboard-response",
		"trial_index": 224,
		"time_elapsed": 556335,
		"internal_node_id": "0.0-3.0-1.177"
	},
	{
		"rt": 1200,
		"stimulus": "../audio/21-8-masc.mp3",
		"response": " ",
		"word": "mundo",
		"trial_type": "audio-keyboard-response",
		"trial_index": 225,
		"time_elapsed": 557823,
		"internal_node_id": "0.0-3.0-1.178"
	},
	{
		"rt": 1709,
		"stimulus": "../audio/21-9-masc.mp3",
		"response": " ",
		"word": "melhor.",
		"trial_type": "audio-keyboard-response",
		"trial_index": 226,
		"time_elapsed": 559824,
		"internal_node_id": "0.0-3.0-1.179"
	},
	{
		"rt": null,
		"stimulus": "<span style= \"font-size:30px; font-family: monospace\">+</span>",
		"response": null,
		"trial_part": "fixation",
		"trial_type": "html-keyboard-response",
		"trial_index": 227,
		"time_elapsed": 561103,
		"internal_node_id": "0.0-3.0-0.180-0.180"
	},
	{
		"rt": 829,
		"stimulus": "../audio/23-1-masc.mp3",
		"response": " ",
		"word": "Português",
		"trial_type": "audio-keyboard-response",
		"trial_index": 228,
		"time_elapsed": 562208,
		"internal_node_id": "0.0-3.0-1.180"
	},
	{
		"rt": 971,
		"stimulus": "../audio/23-2-masc.mp3",
		"response": " ",
		"word": "é",
		"trial_type": "audio-keyboard-response",
		"trial_index": 229,
		"time_elapsed": 563455,
		"internal_node_id": "0.0-3.0-1.181"
	},
	{
		"rt": 1299,
		"stimulus": "../audio/23-3-masc.mp3",
		"response": " ",
		"word": "um",
		"trial_type": "audio-keyboard-response",
		"trial_index": 230,
		"time_elapsed": 565040,
		"internal_node_id": "0.0-3.0-1.182"
	},
	{
		"rt": 1360,
		"stimulus": "../audio/23-4-masc.mp3",
		"response": " ",
		"word": "assunto",
		"trial_type": "audio-keyboard-response",
		"trial_index": 231,
		"time_elapsed": 566672,
		"internal_node_id": "0.0-3.0-1.183"
	},
	{
		"rt": 1509,
		"stimulus": "../audio/23-5-masc.mp3",
		"response": " ",
		"word": "elementar",
		"trial_type": "audio-keyboard-response",
		"trial_index": 232,
		"time_elapsed": 568464,
		"internal_node_id": "0.0-3.0-1.184"
	},
	{
		"rt": 1069,
		"stimulus": "../audio/23-6-masc.mp3",
		"response": " ",
		"word": "para",
		"trial_type": "audio-keyboard-response",
		"trial_index": 233,
		"time_elapsed": 569824,
		"internal_node_id": "0.0-3.0-1.185"
	},
	{
		"rt": 1149,
		"stimulus": "../audio/23-7-masc.mp3",
		"response": " ",
		"word": "os",
		"trial_type": "audio-keyboard-response",
		"trial_index": 234,
		"time_elapsed": 571247,
		"internal_node_id": "0.0-3.0-1.186"
	},
	{
		"rt": 1520,
		"stimulus": "../audio/23-8-masc.mp3",
		"response": " ",
		"word": "alunos.",
		"trial_type": "audio-keyboard-response",
		"trial_index": 235,
		"time_elapsed": 573040,
		"internal_node_id": "0.0-3.0-1.187"
	},
	{
		"rt": null,
		"stimulus": "<span style= \"font-size:30px; font-family: monospace\">+</span>",
		"response": null,
		"trial_part": "fixation",
		"trial_type": "html-keyboard-response",
		"trial_index": 236,
		"time_elapsed": 574323,
		"internal_node_id": "0.0-3.0-0.188-0.188"
	},
	{
		"rt": 829,
		"stimulus": "../audio/25-1-masc.mp3",
		"response": " ",
		"word": "Ela",
		"trial_type": "audio-keyboard-response",
		"trial_index": 237,
		"time_elapsed": 575424,
		"internal_node_id": "0.0-3.0-1.188"
	},
	{
		"rt": 949,
		"stimulus": "../audio/25-2-masc.mp3",
		"response": " ",
		"word": "faz",
		"trial_type": "audio-keyboard-response",
		"trial_index": 238,
		"time_elapsed": 576655,
		"internal_node_id": "0.0-3.0-1.189"
	},
	{
		"rt": 979,
		"stimulus": "../audio/25-3-masc.mp3",
		"response": " ",
		"word": "tanto",
		"trial_type": "audio-keyboard-response",
		"trial_index": 239,
		"time_elapsed": 577920,
		"internal_node_id": "0.0-3.0-1.190"
	},
	{
		"rt": 1219,
		"stimulus": "../audio/25-4-masc.mp3",
		"response": " ",
		"word": "cabelo",
		"trial_type": "audio-keyboard-response",
		"trial_index": 240,
		"time_elapsed": 579414,
		"internal_node_id": "0.0-3.0-1.191"
	},
	{
		"rt": 1232,
		"stimulus": "../audio/25-5-masc.mp3",
		"response": " ",
		"word": "liso",
		"trial_type": "audio-keyboard-response",
		"trial_index": 241,
		"time_elapsed": 580918,
		"internal_node_id": "0.0-3.0-1.192"
	},
	{
		"rt": 1080,
		"stimulus": "../audio/25-6-masc.mp3",
		"response": " ",
		"word": "quanto",
		"trial_type": "audio-keyboard-response",
		"trial_index": 242,
		"time_elapsed": 582262,
		"internal_node_id": "0.0-3.0-1.193"
	},
	{
		"rt": 1491,
		"stimulus": "../audio/25-7-masc.mp3",
		"response": " ",
		"word": "cacheado.",
		"trial_type": "audio-keyboard-response",
		"trial_index": 243,
		"time_elapsed": 584022,
		"internal_node_id": "0.0-3.0-1.194"
	},
	{
		"rt": 5982,
		"stimulus": "<span style=\"font-size:25px; font-family: monospace\">Ela só faz cabelo cacheado?</span>",
		"response": "s",
		"question": "Ela só faz cabelo cacheado?",
		"answer": "null",
		"trial": "exp-sent",
		"trial_type": "html-keyboard-response",
		"trial_index": 244,
		"time_elapsed": 590261,
		"internal_node_id": "0.0-3.0-2.194-0.194",
		"accuracy": false
	},
	{
		"rt": null,
		"stimulus": "<span style= \"font-size:30px; font-family: monospace\">+</span>",
		"response": null,
		"trial_part": "fixation",
		"trial_type": "html-keyboard-response",
		"trial_index": 245,
		"time_elapsed": 591780,
		"internal_node_id": "0.0-3.0-0.195-0.195"
	},
	{
		"rt": 709,
		"stimulus": "../audio/56-1-fem.mp3",
		"response": " ",
		"word": "A",
		"trial_type": "audio-keyboard-response",
		"trial_index": 246,
		"time_elapsed": 592774,
		"internal_node_id": "0.0-3.0-1.195"
	},
	{
		"rt": 1029,
		"stimulus": "../audio/56-2-fem.mp3",
		"response": " ",
		"word": "moça",
		"trial_type": "audio-keyboard-response",
		"trial_index": 247,
		"time_elapsed": 594086,
		"internal_node_id": "0.0-3.0-1.196"
	},
	{
		"rt": 1088,
		"stimulus": "../audio/56-3-fem.mp3",
		"response": " ",
		"word": "foi",
		"trial_type": "audio-keyboard-response",
		"trial_index": 248,
		"time_elapsed": 595446,
		"internal_node_id": "0.0-3.0-1.197"
	},
	{
		"rt": 1059,
		"stimulus": "../audio/56-4-fem.mp3",
		"response": " ",
		"word": "à",
		"trial_type": "audio-keyboard-response",
		"trial_index": 249,
		"time_elapsed": 596774,
		"internal_node_id": "0.0-3.0-1.198"
	},
	{
		"rt": 1520,
		"stimulus": "../audio/56-5-fem.mp3",
		"response": " ",
		"word": "agência",
		"trial_type": "audio-keyboard-response",
		"trial_index": 250,
		"time_elapsed": 598566,
		"internal_node_id": "0.0-3.0-1.199"
	},
	{
		"rt": 1429,
		"stimulus": "../audio/56-6-fem.mp3",
		"response": " ",
		"word": "bancária",
		"trial_type": "audio-keyboard-response",
		"trial_index": 251,
		"time_elapsed": 600262,
		"internal_node_id": "0.0-3.0-1.200"
	},
	{
		"rt": 1149,
		"stimulus": "../audio/56-7-fem.mp3",
		"response": " ",
		"word": "ontem",
		"trial_type": "audio-keyboard-response",
		"trial_index": 252,
		"time_elapsed": 601686,
		"internal_node_id": "0.0-3.0-1.201"
	},
	{
		"rt": 1139,
		"stimulus": "../audio/56-8-fem.mp3",
		"response": " ",
		"word": "de",
		"trial_type": "audio-keyboard-response",
		"trial_index": 253,
		"time_elapsed": 603094,
		"internal_node_id": "0.0-3.0-1.202"
	},
	{
		"rt": 1411,
		"stimulus": "../audio/56-9-fem.mp3",
		"response": " ",
		"word": "tarde.",
		"trial_type": "audio-keyboard-response",
		"trial_index": 254,
		"time_elapsed": 604790,
		"internal_node_id": "0.0-3.0-1.203"
	},
	{
		"rt": null,
		"stimulus": "<span style= \"font-size:30px; font-family: monospace\">+</span>",
		"response": null,
		"trial_part": "fixation",
		"trial_type": "html-keyboard-response",
		"trial_index": 255,
		"time_elapsed": 606050,
		"internal_node_id": "0.0-3.0-0.204-0.204"
	},
	{
		"rt": 1181,
		"stimulus": "../audio/57-1-masc.mp3",
		"response": " ",
		"word": "O",
		"trial_type": "audio-keyboard-response",
		"trial_index": 256,
		"time_elapsed": 607510,
		"internal_node_id": "0.0-3.0-1.204"
	},
	{
		"rt": 1280,
		"stimulus": "../audio/57-2-masc.mp3",
		"response": " ",
		"word": "capitão",
		"trial_type": "audio-keyboard-response",
		"trial_index": 257,
		"time_elapsed": 609062,
		"internal_node_id": "0.0-3.0-1.205"
	},
	{
		"rt": 1091,
		"stimulus": "../audio/57-3-masc.mp3",
		"response": " ",
		"word": "deu",
		"trial_type": "audio-keyboard-response",
		"trial_index": 258,
		"time_elapsed": 610438,
		"internal_node_id": "0.0-3.0-1.206"
	},
	{
		"rt": 1208,
		"stimulus": "../audio/57-4-masc.mp3",
		"response": " ",
		"word": "uma",
		"trial_type": "audio-keyboard-response",
		"trial_index": 259,
		"time_elapsed": 611926,
		"internal_node_id": "0.0-3.0-1.207"
	},
	{
		"rt": 1709,
		"stimulus": "../audio/57-5-masc.mp3",
		"response": " ",
		"word": "instrução",
		"trial_type": "audio-keyboard-response",
		"trial_index": 260,
		"time_elapsed": 613910,
		"internal_node_id": "0.0-3.0-1.208"
	},
	{
		"rt": 1149,
		"stimulus": "../audio/57-6-masc.mp3",
		"response": " ",
		"word": "para",
		"trial_type": "audio-keyboard-response",
		"trial_index": 261,
		"time_elapsed": 615334,
		"internal_node_id": "0.0-3.0-1.209"
	},
	{
		"rt": 1040,
		"stimulus": "../audio/57-7-masc.mp3",
		"response": " ",
		"word": "as",
		"trial_type": "audio-keyboard-response",
		"trial_index": 262,
		"time_elapsed": 616646,
		"internal_node_id": "0.0-3.0-1.210"
	},
	{
		"rt": 1760,
		"stimulus": "../audio/57-8-masc.mp3",
		"response": " ",
		"word": "pessoas.",
		"trial_type": "audio-keyboard-response",
		"trial_index": 263,
		"time_elapsed": 618678,
		"internal_node_id": "0.0-3.0-1.211"
	},
	{
		"rt": null,
		"stimulus": "<span style= \"font-size:30px; font-family: monospace\">+</span>",
		"response": null,
		"trial_part": "fixation",
		"trial_type": "html-keyboard-response",
		"trial_index": 264,
		"time_elapsed": 619939,
		"internal_node_id": "0.0-3.0-0.212-0.212"
	},
	{
		"rt": 720,
		"stimulus": "../audio/59-1-masc.mp3",
		"response": " ",
		"word": "O",
		"trial_type": "audio-keyboard-response",
		"trial_index": 265,
		"time_elapsed": 620950,
		"internal_node_id": "0.0-3.0-1.212"
	},
	{
		"rt": 1179,
		"stimulus": "../audio/59-2-masc.mp3",
		"response": " ",
		"word": "carteiro",
		"trial_type": "audio-keyboard-response",
		"trial_index": 266,
		"time_elapsed": 622406,
		"internal_node_id": "0.0-3.0-1.213"
	},
	{
		"rt": 1000,
		"stimulus": "../audio/59-3-masc.mp3",
		"response": " ",
		"word": "fez",
		"trial_type": "audio-keyboard-response",
		"trial_index": 267,
		"time_elapsed": 623686,
		"internal_node_id": "0.0-3.0-1.214"
	},
	{
		"rt": 1291,
		"stimulus": "../audio/59-4-masc.mp3",
		"response": " ",
		"word": "uma",
		"trial_type": "audio-keyboard-response",
		"trial_index": 268,
		"time_elapsed": 625254,
		"internal_node_id": "0.0-3.0-1.215"
	},
	{
		"rt": 1480,
		"stimulus": "../audio/59-5-masc.mp3",
		"response": " ",
		"word": "tentativa",
		"trial_type": "audio-keyboard-response",
		"trial_index": 269,
		"time_elapsed": 627014,
		"internal_node_id": "0.0-3.0-1.216"
	},
	{
		"rt": 949,
		"stimulus": "../audio/59-6-masc.mp3",
		"response": " ",
		"word": "de",
		"trial_type": "audio-keyboard-response",
		"trial_index": 270,
		"time_elapsed": 628246,
		"internal_node_id": "0.0-3.0-1.217"
	},
	{
		"rt": 1749,
		"stimulus": "../audio/59-7-masc.mp3",
		"response": " ",
		"word": "entrega.",
		"trial_type": "audio-keyboard-response",
		"trial_index": 271,
		"time_elapsed": 630261,
		"internal_node_id": "0.0-3.0-1.218"
	},
	{
		"rt": null,
		"stimulus": "<span style= \"font-size:30px; font-family: monospace\">+</span>",
		"response": null,
		"trial_part": "fixation",
		"trial_type": "html-keyboard-response",
		"trial_index": 272,
		"time_elapsed": 631549,
		"internal_node_id": "0.0-3.0-0.219-0.219"
	},
	{
		"rt": 1171,
		"stimulus": "../audio/58-1-masc.mp3",
		"response": " ",
		"word": "Havia",
		"trial_type": "audio-keyboard-response",
		"trial_index": 273,
		"time_elapsed": 632998,
		"internal_node_id": "0.0-3.0-1.219"
	},
	{
		"rt": 1251,
		"stimulus": "../audio/58-2-masc.mp3",
		"response": " ",
		"word": "apenas",
		"trial_type": "audio-keyboard-response",
		"trial_index": 274,
		"time_elapsed": 634518,
		"internal_node_id": "0.0-3.0-1.220"
	},
	{
		"rt": 1029,
		"stimulus": "../audio/58-3-masc.mp3",
		"response": " ",
		"word": "um",
		"trial_type": "audio-keyboard-response",
		"trial_index": 275,
		"time_elapsed": 635814,
		"internal_node_id": "0.0-3.0-1.221"
	},
	{
		"rt": 1280,
		"stimulus": "../audio/58-4-masc.mp3",
		"response": " ",
		"word": "último",
		"trial_type": "audio-keyboard-response",
		"trial_index": 276,
		"time_elapsed": 637366,
		"internal_node_id": "0.0-3.0-1.222"
	},
	{
		"rt": 1200,
		"stimulus": "../audio/58-5-masc.mp3",
		"response": " ",
		"word": "herdeiro",
		"trial_type": "audio-keyboard-response",
		"trial_index": 277,
		"time_elapsed": 638838,
		"internal_node_id": "0.0-3.0-1.223"
	},
	{
		"rt": 869,
		"stimulus": "../audio/58-6-masc.mp3",
		"response": " ",
		"word": "do",
		"trial_type": "audio-keyboard-response",
		"trial_index": 278,
		"time_elapsed": 639990,
		"internal_node_id": "0.0-3.0-1.224"
	},
	{
		"rt": 3389,
		"stimulus": "../audio/58-7-masc.mp3",
		"response": " ",
		"word": "dinheiro.",
		"trial_type": "audio-keyboard-response",
		"trial_index": 279,
		"time_elapsed": 643670,
		"internal_node_id": "0.0-3.0-1.225"
	},
	{
		"rt": null,
		"stimulus": "<span style= \"font-size:30px; font-family: monospace\">+</span>",
		"response": null,
		"trial_part": "fixation",
		"trial_type": "html-keyboard-response",
		"trial_index": 280,
		"time_elapsed": 644949,
		"internal_node_id": "0.0-3.0-0.226-0.226"
	},
	{
		"rt": 1179,
		"stimulus": "../audio/60-1-fem.mp3",
		"response": " ",
		"word": "Ondas",
		"trial_type": "audio-keyboard-response",
		"trial_index": 281,
		"time_elapsed": 646406,
		"internal_node_id": "0.0-3.0-1.226"
	},
	{
		"rt": 1219,
		"stimulus": "../audio/60-2-fem.mp3",
		"response": " ",
		"word": "têm",
		"trial_type": "audio-keyboard-response",
		"trial_index": 282,
		"time_elapsed": 647894,
		"internal_node_id": "0.0-3.0-1.227"
	},
	{
		"rt": 869,
		"stimulus": "../audio/60-3-fem.mp3",
		"response": " ",
		"word": "um",
		"trial_type": "audio-keyboard-response",
		"trial_index": 283,
		"time_elapsed": 649046,
		"internal_node_id": "0.0-3.0-1.228"
	},
	{
		"rt": 1371,
		"stimulus": "../audio/60-4-fem.mp3",
		"response": " ",
		"word": "impacto",
		"trial_type": "audio-keyboard-response",
		"trial_index": 284,
		"time_elapsed": 650694,
		"internal_node_id": "0.0-3.0-1.229"
	},
	{
		"rt": 1061,
		"stimulus": "../audio/60-5-fem.mp3",
		"response": " ",
		"word": "destrutivo",
		"trial_type": "audio-keyboard-response",
		"trial_index": 285,
		"time_elapsed": 652038,
		"internal_node_id": "0.0-3.0-1.230"
	},
	{
		"rt": 1251,
		"stimulus": "../audio/60-6-fem.mp3",
		"response": " ",
		"word": "no",
		"trial_type": "audio-keyboard-response",
		"trial_index": 286,
		"time_elapsed": 653557,
		"internal_node_id": "0.0-3.0-1.231"
	},
	{
		"rt": 1419,
		"stimulus": "../audio/60-7-fem.mp3",
		"response": " ",
		"word": "litoral.",
		"trial_type": "audio-keyboard-response",
		"trial_index": 287,
		"time_elapsed": 655254,
		"internal_node_id": "0.0-3.0-1.232"
	},
	{
		"rt": 6976,
		"stimulus": "<span style=\"font-size:25px; font-family: monospace\">Ondas têm um impacto destrutivo?</span>",
		"response": "s",
		"question": "Ondas têm um impacto destrutivo?",
		"answer": "null",
		"trial": "exp-sent",
		"trial_type": "html-keyboard-response",
		"trial_index": 288,
		"time_elapsed": 662486,
		"internal_node_id": "0.0-3.0-2.232-0.232",
		"accuracy": false
	},
	{
		"rt": null,
		"stimulus": "<span style= \"font-size:30px; font-family: monospace\">+</span>",
		"response": null,
		"trial_part": "fixation",
		"trial_type": "html-keyboard-response",
		"trial_index": 289,
		"time_elapsed": 664010,
		"internal_node_id": "0.0-3.0-0.233-0.233"
	},
	{
		"rt": 1131,
		"stimulus": "../audio/18-1-fem.mp3",
		"response": " ",
		"word": "O",
		"trial_type": "audio-keyboard-response",
		"trial_index": 290,
		"time_elapsed": 665414,
		"internal_node_id": "0.0-3.0-1.233"
	},
	{
		"rt": 1491,
		"stimulus": "../audio/18-2-fem.mp3",
		"response": " ",
		"word": "enredo",
		"trial_type": "audio-keyboard-response",
		"trial_index": 291,
		"time_elapsed": 667190,
		"internal_node_id": "0.0-3.0-1.234"
	},
	{
		"rt": 1459,
		"stimulus": "../audio/18-3-fem.mp3",
		"response": " ",
		"word": "traz",
		"trial_type": "audio-keyboard-response",
		"trial_index": 292,
		"time_elapsed": 668934,
		"internal_node_id": "0.0-3.0-1.235"
	},
	{
		"rt": 1760,
		"stimulus": "../audio/18-4-fem.mp3",
		"response": " ",
		"word": "um",
		"trial_type": "audio-keyboard-response",
		"trial_index": 293,
		"time_elapsed": 670966,
		"internal_node_id": "0.0-3.0-1.236"
	},
	{
		"rt": 1581,
		"stimulus": "../audio/18-5-fem.mp3",
		"response": " ",
		"word": "dragão",
		"trial_type": "audio-keyboard-response",
		"trial_index": 294,
		"time_elapsed": 672838,
		"internal_node_id": "0.0-3.0-1.237"
	},
	{
		"rt": 1320,
		"stimulus": "../audio/18-6-fem.mp3",
		"response": " ",
		"word": "forte",
		"trial_type": "audio-keyboard-response",
		"trial_index": 295,
		"time_elapsed": 674422,
		"internal_node_id": "0.0-3.0-1.238"
	},
	{
		"rt": 1131,
		"stimulus": "../audio/18-7-fem.mp3",
		"response": " ",
		"word": "e",
		"trial_type": "audio-keyboard-response",
		"trial_index": 296,
		"time_elapsed": 675829,
		"internal_node_id": "0.0-3.0-1.239"
	},
	{
		"rt": 1469,
		"stimulus": "../audio/18-8-fem.mp3",
		"response": " ",
		"word": "solitário.",
		"trial_type": "audio-keyboard-response",
		"trial_index": 297,
		"time_elapsed": 677590,
		"internal_node_id": "0.0-3.0-1.240"
	},
	{
		"rt": null,
		"stimulus": "<span style= \"font-size:30px; font-family: monospace\">+</span>",
		"response": null,
		"trial_part": "fixation",
		"trial_type": "html-keyboard-response",
		"trial_index": 298,
		"time_elapsed": 678850,
		"internal_node_id": "0.0-3.0-0.241-0.241"
	},
	{
		"rt": 781,
		"stimulus": "../audio/16-1-masc.mp3",
		"response": " ",
		"word": "Eu",
		"trial_type": "audio-keyboard-response",
		"trial_index": 299,
		"time_elapsed": 679910,
		"internal_node_id": "0.0-3.0-1.241"
	},
	{
		"rt": 1371,
		"stimulus": "../audio/16-2-masc.mp3",
		"response": " ",
		"word": "nunca",
		"trial_type": "audio-keyboard-response",
		"trial_index": 300,
		"time_elapsed": 681558,
		"internal_node_id": "0.0-3.0-1.242"
	},
	{
		"rt": 1189,
		"stimulus": "../audio/16-3-masc.mp3",
		"response": " ",
		"word": "conheci",
		"trial_type": "audio-keyboard-response",
		"trial_index": 301,
		"time_elapsed": 683014,
		"internal_node_id": "0.0-3.0-1.243"
	},
	{
		"rt": 1040,
		"stimulus": "../audio/16-4-masc.mp3",
		"response": " ",
		"word": "um",
		"trial_type": "audio-keyboard-response",
		"trial_index": 302,
		"time_elapsed": 684326,
		"internal_node_id": "0.0-3.0-1.244"
	},
	{
		"rt": 1272,
		"stimulus": "../audio/16-5-masc.mp3",
		"response": " ",
		"word": "general",
		"trial_type": "audio-keyboard-response",
		"trial_index": 303,
		"time_elapsed": 685878,
		"internal_node_id": "0.0-3.0-1.245"
	},
	{
		"rt": 1059,
		"stimulus": "../audio/16-6-masc.mp3",
		"response": " ",
		"word": "do",
		"trial_type": "audio-keyboard-response",
		"trial_index": 304,
		"time_elapsed": 687206,
		"internal_node_id": "0.0-3.0-1.246"
	},
	{
		"rt": 1931,
		"stimulus": "../audio/16-7-masc.mp3",
		"response": " ",
		"word": "exército.",
		"trial_type": "audio-keyboard-response",
		"trial_index": 305,
		"time_elapsed": 689413,
		"internal_node_id": "0.0-3.0-1.247"
	},
	{
		"rt": null,
		"stimulus": "<span style= \"font-size:30px; font-family: monospace\">+</span>",
		"response": null,
		"trial_part": "fixation",
		"trial_type": "html-keyboard-response",
		"trial_index": 306,
		"time_elapsed": 690679,
		"internal_node_id": "0.0-3.0-0.248-0.248"
	},
	{
		"rt": 1101,
		"stimulus": "../audio/17-1-fem.mp3",
		"response": " ",
		"word": "Falaram",
		"trial_type": "audio-keyboard-response",
		"trial_index": 307,
		"time_elapsed": 692070,
		"internal_node_id": "0.0-3.0-1.248"
	},
	{
		"rt": 989,
		"stimulus": "../audio/17-2-fem.mp3",
		"response": " ",
		"word": "da",
		"trial_type": "audio-keyboard-response",
		"trial_index": 308,
		"time_elapsed": 693350,
		"internal_node_id": "0.0-3.0-1.249"
	},
	{
		"rt": 1160,
		"stimulus": "../audio/17-3-fem.mp3",
		"response": " ",
		"word": "lei",
		"trial_type": "audio-keyboard-response",
		"trial_index": 309,
		"time_elapsed": 694774,
		"internal_node_id": "0.0-3.0-1.250"
	},
	{
		"rt": 1072,
		"stimulus": "../audio/17-4-fem.mp3",
		"response": " ",
		"word": "no",
		"trial_type": "audio-keyboard-response",
		"trial_index": 310,
		"time_elapsed": 696117,
		"internal_node_id": "0.0-3.0-1.251"
	},
	{
		"rt": 1560,
		"stimulus": "../audio/17-5-fem.mp3",
		"response": " ",
		"word": "ministério",
		"trial_type": "audio-keyboard-response",
		"trial_index": 311,
		"time_elapsed": 697941,
		"internal_node_id": "0.0-3.0-1.252"
	},
	{
		"rt": 1261,
		"stimulus": "../audio/17-6-fem.mp3",
		"response": " ",
		"word": "diversas",
		"trial_type": "audio-keyboard-response",
		"trial_index": 312,
		"time_elapsed": 699478,
		"internal_node_id": "0.0-3.0-1.253"
	},
	{
		"rt": 1509,
		"stimulus": "../audio/17-7-fem.mp3",
		"response": " ",
		"word": "vezes.",
		"trial_type": "audio-keyboard-response",
		"trial_index": 313,
		"time_elapsed": 701269,
		"internal_node_id": "0.0-3.0-1.254"
	},
	{
		"rt": null,
		"stimulus": "<span style= \"font-size:30px; font-family: monospace\">+</span>",
		"response": null,
		"trial_part": "fixation",
		"trial_type": "html-keyboard-response",
		"trial_index": 314,
		"time_elapsed": 702539,
		"internal_node_id": "0.0-3.0-0.255-0.255"
	},
	{
		"rt": 880,
		"stimulus": "../audio/19-1-masc.mp3",
		"response": " ",
		"word": "O",
		"trial_type": "audio-keyboard-response",
		"trial_index": 315,
		"time_elapsed": 703701,
		"internal_node_id": "0.0-3.0-1.255"
	},
	{
		"rt": 1120,
		"stimulus": "../audio/19-2-masc.mp3",
		"response": " ",
		"word": "menino",
		"trial_type": "audio-keyboard-response",
		"trial_index": 316,
		"time_elapsed": 705093,
		"internal_node_id": "0.0-3.0-1.256"
	},
	{
		"rt": 1251,
		"stimulus": "../audio/19-3-masc.mp3",
		"response": " ",
		"word": "ganhou",
		"trial_type": "audio-keyboard-response",
		"trial_index": 317,
		"time_elapsed": 706613,
		"internal_node_id": "0.0-3.0-1.257"
	},
	{
		"rt": 1171,
		"stimulus": "../audio/19-4-masc.mp3",
		"response": " ",
		"word": "uma",
		"trial_type": "audio-keyboard-response",
		"trial_index": 318,
		"time_elapsed": 708053,
		"internal_node_id": "0.0-3.0-1.258"
	},
	{
		"rt": 1240,
		"stimulus": "../audio/19-5-masc.mp3",
		"response": " ",
		"word": "bala",
		"trial_type": "audio-keyboard-response",
		"trial_index": 319,
		"time_elapsed": 709573,
		"internal_node_id": "0.0-3.0-1.259"
	},
	{
		"rt": 1371,
		"stimulus": "../audio/19-6-masc.mp3",
		"response": " ",
		"word": "depois",
		"trial_type": "audio-keyboard-response",
		"trial_index": 320,
		"time_elapsed": 711221,
		"internal_node_id": "0.0-3.0-1.260"
	},
	{
		"rt": 1011,
		"stimulus": "../audio/19-7-masc.mp3",
		"response": " ",
		"word": "do",
		"trial_type": "audio-keyboard-response",
		"trial_index": 321,
		"time_elapsed": 712517,
		"internal_node_id": "0.0-3.0-1.261"
	},
	{
		"rt": 2051,
		"stimulus": "../audio/19-8-masc.mp3",
		"response": " ",
		"word": "almoço.",
		"trial_type": "audio-keyboard-response",
		"trial_index": 322,
		"time_elapsed": 714837,
		"internal_node_id": "0.0-3.0-1.262"
	},
	{
		"rt": null,
		"stimulus": "<span style= \"font-size:30px; font-family: monospace\">+</span>",
		"response": null,
		"trial_part": "fixation",
		"trial_type": "html-keyboard-response",
		"trial_index": 323,
		"time_elapsed": 716100,
		"internal_node_id": "0.0-3.0-0.263-0.263"
	},
	{
		"rt": 1069,
		"stimulus": "../audio/20-1-fem.mp3",
		"response": " ",
		"word": "O",
		"trial_type": "audio-keyboard-response",
		"trial_index": 324,
		"time_elapsed": 717445,
		"internal_node_id": "0.0-3.0-1.263"
	},
	{
		"rt": 1211,
		"stimulus": "../audio/20-2-fem.mp3",
		"response": " ",
		"word": "colega",
		"trial_type": "audio-keyboard-response",
		"trial_index": 325,
		"time_elapsed": 718933,
		"internal_node_id": "0.0-3.0-1.264"
	},
	{
		"rt": 1411,
		"stimulus": "../audio/20-3-fem.mp3",
		"response": " ",
		"word": "parecia",
		"trial_type": "audio-keyboard-response",
		"trial_index": 326,
		"time_elapsed": 720629,
		"internal_node_id": "0.0-3.0-1.265"
	},
	{
		"rt": 1211,
		"stimulus": "../audio/20-4-fem.mp3",
		"response": " ",
		"word": "muito",
		"trial_type": "audio-keyboard-response",
		"trial_index": 327,
		"time_elapsed": 722117,
		"internal_node_id": "0.0-3.0-1.266"
	},
	{
		"rt": 1520,
		"stimulus": "../audio/20-5-fem.mp3",
		"response": " ",
		"word": "gripado",
		"trial_type": "audio-keyboard-response",
		"trial_index": 328,
		"time_elapsed": 723910,
		"internal_node_id": "0.0-3.0-1.267"
	},
	{
		"rt": 1000,
		"stimulus": "../audio/20-6-fem.mp3",
		"response": " ",
		"word": "no",
		"trial_type": "audio-keyboard-response",
		"trial_index": 329,
		"time_elapsed": 725189,
		"internal_node_id": "0.0-3.0-1.268"
	},
	{
		"rt": 949,
		"stimulus": "../audio/20-7-fem.mp3",
		"response": " ",
		"word": "dia",
		"trial_type": "audio-keyboard-response",
		"trial_index": 330,
		"time_elapsed": 726421,
		"internal_node_id": "0.0-3.0-1.269"
	},
	{
		"rt": 2301,
		"stimulus": "../audio/20-8-fem.mp3",
		"response": " ",
		"word": "anterior.",
		"trial_type": "audio-keyboard-response",
		"trial_index": 331,
		"time_elapsed": 728981,
		"internal_node_id": "0.0-3.0-1.270"
	},
	{
		"rt": 5316,
		"stimulus": "<span style=\"font-size:25px; font-family: monospace\">O colega parecia muito gripado?</span>",
		"response": "s",
		"question": "O colega parecia muito gripado?",
		"answer": "null",
		"trial": "exp-sent",
		"trial_type": "html-keyboard-response",
		"trial_index": 332,
		"time_elapsed": 734565,
		"internal_node_id": "0.0-3.0-2.270-0.270",
		"accuracy": false
	},
	{
		"rt": null,
		"stimulus": "<span style= \"font-size:30px; font-family: monospace\">+</span>",
		"response": null,
		"trial_part": "fixation",
		"trial_type": "html-keyboard-response",
		"trial_index": 333,
		"time_elapsed": 736099,
		"internal_node_id": "0.0-3.0-0.271-0.271"
	},
	{
		"rt": 1120,
		"stimulus": "../audio/29-1-masc.mp3",
		"response": " ",
		"word": "Hoje",
		"trial_type": "audio-keyboard-response",
		"trial_index": 334,
		"time_elapsed": 737509,
		"internal_node_id": "0.0-3.0-1.271"
	},
	{
		"rt": 1339,
		"stimulus": "../audio/29-2-masc.mp3",
		"response": " ",
		"word": "vamos",
		"trial_type": "audio-keyboard-response",
		"trial_index": 335,
		"time_elapsed": 739125,
		"internal_node_id": "0.0-3.0-1.272"
	},
	{
		"rt": 1352,
		"stimulus": "../audio/29-3-masc.mp3",
		"response": " ",
		"word": "fazer",
		"trial_type": "audio-keyboard-response",
		"trial_index": 336,
		"time_elapsed": 740757,
		"internal_node_id": "0.0-3.0-1.273"
	},
	{
		"rt": 1349,
		"stimulus": "../audio/29-4-masc.mp3",
		"response": " ",
		"word": "uma",
		"trial_type": "audio-keyboard-response",
		"trial_index": 337,
		"time_elapsed": 742389,
		"internal_node_id": "0.0-3.0-1.274"
	},
	{
		"rt": 1760,
		"stimulus": "../audio/29-5-masc.mp3",
		"response": " ",
		"word": "atividade",
		"trial_type": "audio-keyboard-response",
		"trial_index": 338,
		"time_elapsed": 744437,
		"internal_node_id": "0.0-3.0-1.275"
	},
	{
		"rt": 1400,
		"stimulus": "../audio/29-6-masc.mp3",
		"response": " ",
		"word": "sobre",
		"trial_type": "audio-keyboard-response",
		"trial_index": 339,
		"time_elapsed": 746117,
		"internal_node_id": "0.0-3.0-1.276"
	},
	{
		"rt": 1331,
		"stimulus": "../audio/29-7-masc.mp3",
		"response": " ",
		"word": "fauna",
		"trial_type": "audio-keyboard-response",
		"trial_index": 340,
		"time_elapsed": 747717,
		"internal_node_id": "0.0-3.0-1.277"
	},
	{
		"rt": 1669,
		"stimulus": "../audio/29-8-masc.mp3",
		"response": " ",
		"word": "marinha.",
		"trial_type": "audio-keyboard-response",
		"trial_index": 341,
		"time_elapsed": 749669,
		"internal_node_id": "0.0-3.0-1.278"
	},
	{
		"rt": null,
		"stimulus": "<span style= \"font-size:30px; font-family: monospace\">+</span>",
		"response": null,
		"trial_part": "fixation",
		"trial_type": "html-keyboard-response",
		"trial_index": 342,
		"time_elapsed": 750929,
		"internal_node_id": "0.0-3.0-0.279-0.279"
	},
	{
		"rt": 779,
		"stimulus": "../audio/28-1-fem.mp3",
		"response": " ",
		"word": "O",
		"trial_type": "audio-keyboard-response",
		"trial_index": 343,
		"time_elapsed": 752005,
		"internal_node_id": "0.0-3.0-1.279"
	},
	{
		"rt": 1088,
		"stimulus": "../audio/28-2-fem.mp3",
		"response": " ",
		"word": "time",
		"trial_type": "audio-keyboard-response",
		"trial_index": 344,
		"time_elapsed": 753365,
		"internal_node_id": "0.0-3.0-1.280"
	},
	{
		"rt": 1069,
		"stimulus": "../audio/28-3-fem.mp3",
		"response": " ",
		"word": "quer",
		"trial_type": "audio-keyboard-response",
		"trial_index": 345,
		"time_elapsed": 754709,
		"internal_node_id": "0.0-3.0-1.281"
	},
	{
		"rt": 920,
		"stimulus": "../audio/28-4-fem.mp3",
		"response": " ",
		"word": "a",
		"trial_type": "audio-keyboard-response",
		"trial_index": 346,
		"time_elapsed": 755909,
		"internal_node_id": "0.0-3.0-1.282"
	},
	{
		"rt": 1440,
		"stimulus": "../audio/28-5-fem.mp3",
		"response": " ",
		"word": "vitória",
		"trial_type": "audio-keyboard-response",
		"trial_index": 347,
		"time_elapsed": 757637,
		"internal_node_id": "0.0-3.0-1.283"
	},
	{
		"rt": 1091,
		"stimulus": "../audio/28-6-fem.mp3",
		"response": " ",
		"word": "no",
		"trial_type": "audio-keyboard-response",
		"trial_index": 348,
		"time_elapsed": 758997,
		"internal_node_id": "0.0-3.0-1.284"
	},
	{
		"rt": 1299,
		"stimulus": "../audio/28-7-fem.mp3",
		"response": " ",
		"word": "jogo",
		"trial_type": "audio-keyboard-response",
		"trial_index": 349,
		"time_elapsed": 760565,
		"internal_node_id": "0.0-3.0-1.285"
	},
	{
		"rt": 1181,
		"stimulus": "../audio/28-8-fem.mp3",
		"response": " ",
		"word": "de",
		"trial_type": "audio-keyboard-response",
		"trial_index": 350,
		"time_elapsed": 762020,
		"internal_node_id": "0.0-3.0-1.286"
	},
	{
		"rt": 1661,
		"stimulus": "../audio/28-9-fem.mp3",
		"response": " ",
		"word": "vôlei.",
		"trial_type": "audio-keyboard-response",
		"trial_index": 351,
		"time_elapsed": 763956,
		"internal_node_id": "0.0-3.0-1.287"
	},
	{
		"rt": null,
		"stimulus": "<span style= \"font-size:30px; font-family: monospace\">+</span>",
		"response": null,
		"trial_part": "fixation",
		"trial_type": "html-keyboard-response",
		"trial_index": 352,
		"time_elapsed": 765218,
		"internal_node_id": "0.0-3.0-0.288-0.288"
	},
	{
		"rt": 811,
		"stimulus": "../audio/27-1-fem.mp3",
		"response": " ",
		"word": "O",
		"trial_type": "audio-keyboard-response",
		"trial_index": 353,
		"time_elapsed": 766308,
		"internal_node_id": "0.0-3.0-1.288"
	},
	{
		"rt": 1339,
		"stimulus": "../audio/27-2-fem.mp3",
		"response": " ",
		"word": "dinheiro",
		"trial_type": "audio-keyboard-response",
		"trial_index": 354,
		"time_elapsed": 767924,
		"internal_node_id": "0.0-3.0-1.289"
	},
	{
		"rt": 1211,
		"stimulus": "../audio/27-3-fem.mp3",
		"response": " ",
		"word": "chegou",
		"trial_type": "audio-keyboard-response",
		"trial_index": 355,
		"time_elapsed": 769412,
		"internal_node_id": "0.0-3.0-1.290"
	},
	{
		"rt": 1120,
		"stimulus": "../audio/27-4-fem.mp3",
		"response": " ",
		"word": "à",
		"trial_type": "audio-keyboard-response",
		"trial_index": 356,
		"time_elapsed": 770804,
		"internal_node_id": "0.0-3.0-1.291"
	},
	{
		"rt": 1459,
		"stimulus": "../audio/27-5-fem.mp3",
		"response": " ",
		"word": "elite",
		"trial_type": "audio-keyboard-response",
		"trial_index": 357,
		"time_elapsed": 772532,
		"internal_node_id": "0.0-3.0-1.292"
	},
	{
		"rt": 1360,
		"stimulus": "../audio/27-6-fem.mp3",
		"response": " ",
		"word": "deste",
		"trial_type": "audio-keyboard-response",
		"trial_index": 358,
		"time_elapsed": 774164,
		"internal_node_id": "0.0-3.0-1.293"
	},
	{
		"rt": 2472,
		"stimulus": "../audio/27-7-fem.mp3",
		"response": " ",
		"word": "país.",
		"trial_type": "audio-keyboard-response",
		"trial_index": 359,
		"time_elapsed": 776916,
		"internal_node_id": "0.0-3.0-1.294"
	},
	{
		"rt": null,
		"stimulus": "<span style= \"font-size:30px; font-family: monospace\">+</span>",
		"response": null,
		"trial_part": "fixation",
		"trial_type": "html-keyboard-response",
		"trial_index": 360,
		"time_elapsed": 778178,
		"internal_node_id": "0.0-3.0-0.295-0.295"
	},
	{
		"rt": 1251,
		"stimulus": "../audio/26-1-fem.mp3",
		"response": " ",
		"word": "Amanhã",
		"trial_type": "audio-keyboard-response",
		"trial_index": 361,
		"time_elapsed": 779716,
		"internal_node_id": "0.0-3.0-1.295"
	},
	{
		"rt": 1069,
		"stimulus": "../audio/26-2-fem.mp3",
		"response": " ",
		"word": "temos",
		"trial_type": "audio-keyboard-response",
		"trial_index": 362,
		"time_elapsed": 781060,
		"internal_node_id": "0.0-3.0-1.296"
	},
	{
		"rt": 1309,
		"stimulus": "../audio/26-3-fem.mp3",
		"response": " ",
		"word": "festa",
		"trial_type": "audio-keyboard-response",
		"trial_index": 363,
		"time_elapsed": 782644,
		"internal_node_id": "0.0-3.0-1.297"
	},
	{
		"rt": 1309,
		"stimulus": "../audio/26-4-fem.mp3",
		"response": " ",
		"word": "na",
		"trial_type": "audio-keyboard-response",
		"trial_index": 364,
		"time_elapsed": 784228,
		"internal_node_id": "0.0-3.0-1.298"
	},
	{
		"rt": 1880,
		"stimulus": "../audio/26-5-fem.mp3",
		"response": " ",
		"word": "piscina",
		"trial_type": "audio-keyboard-response",
		"trial_index": 365,
		"time_elapsed": 786372,
		"internal_node_id": "0.0-3.0-1.299"
	},
	{
		"rt": 1072,
		"stimulus": "../audio/26-6-fem.mp3",
		"response": " ",
		"word": "o",
		"trial_type": "audio-keyboard-response",
		"trial_index": 366,
		"time_elapsed": 787716,
		"internal_node_id": "0.0-3.0-1.300"
	},
	{
		"rt": 1360,
		"stimulus": "../audio/26-7-fem.mp3",
		"response": " ",
		"word": "dia",
		"trial_type": "audio-keyboard-response",
		"trial_index": 367,
		"time_elapsed": 789348,
		"internal_node_id": "0.0-3.0-1.301"
	},
	{
		"rt": 1549,
		"stimulus": "../audio/26-8-fem.mp3",
		"response": " ",
		"word": "todo.",
		"trial_type": "audio-keyboard-response",
		"trial_index": 368,
		"time_elapsed": 791172,
		"internal_node_id": "0.0-3.0-1.302"
	},
	{
		"rt": null,
		"stimulus": "<span style= \"font-size:30px; font-family: monospace\">+</span>",
		"response": null,
		"trial_part": "fixation",
		"trial_type": "html-keyboard-response",
		"trial_index": 369,
		"time_elapsed": 792440,
		"internal_node_id": "0.0-3.0-0.303-0.303"
	},
	{
		"rt": 981,
		"stimulus": "../audio/30-1-masc.mp3",
		"response": " ",
		"word": "O",
		"trial_type": "audio-keyboard-response",
		"trial_index": 370,
		"time_elapsed": 793716,
		"internal_node_id": "0.0-3.0-1.303"
	},
	{
		"rt": 1320,
		"stimulus": "../audio/30-2-masc.mp3",
		"response": " ",
		"word": "funcionário",
		"trial_type": "audio-keyboard-response",
		"trial_index": 371,
		"time_elapsed": 795316,
		"internal_node_id": "0.0-3.0-1.304"
	},
	{
		"rt": 1200,
		"stimulus": "../audio/30-3-masc.mp3",
		"response": " ",
		"word": "entregou",
		"trial_type": "audio-keyboard-response",
		"trial_index": 372,
		"time_elapsed": 796788,
		"internal_node_id": "0.0-3.0-1.305"
	},
	{
		"rt": 989,
		"stimulus": "../audio/30-4-masc.mp3",
		"response": " ",
		"word": "o",
		"trial_type": "audio-keyboard-response",
		"trial_index": 373,
		"time_elapsed": 798052,
		"internal_node_id": "0.0-3.0-1.306"
	},
	{
		"rt": 1341,
		"stimulus": "../audio/30-5-masc.mp3",
		"response": " ",
		"word": "restante",
		"trial_type": "audio-keyboard-response",
		"trial_index": 374,
		"time_elapsed": 799668,
		"internal_node_id": "0.0-3.0-1.307"
	},
	{
		"rt": 901,
		"stimulus": "../audio/30-6-masc.mp3",
		"response": " ",
		"word": "do",
		"trial_type": "audio-keyboard-response",
		"trial_index": 375,
		"time_elapsed": 800836,
		"internal_node_id": "0.0-3.0-1.308"
	},
	{
		"rt": 1269,
		"stimulus": "../audio/30-7-masc.mp3",
		"response": " ",
		"word": "dinheiro.",
		"trial_type": "audio-keyboard-response",
		"trial_index": 376,
		"time_elapsed": 802388,
		"internal_node_id": "0.0-3.0-1.309"
	},
	{
		"rt": 17330,
		"stimulus": "<span style=\"font-size:25px; font-family: monospace\">O funcionário entregou o contrato?</span>",
		"response": "n",
		"question": "O funcionário entregou o contrato?",
		"answer": "null",
		"trial": "exp-sent",
		"trial_type": "html-keyboard-response",
		"trial_index": 377,
		"time_elapsed": 819988,
		"internal_node_id": "0.0-3.0-2.309-0.309",
		"accuracy": false
	},
	{
		"rt": null,
		"stimulus": "<span style= \"font-size:30px; font-family: monospace\">+</span>",
		"response": null,
		"trial_part": "fixation",
		"trial_type": "html-keyboard-response",
		"trial_index": 378,
		"time_elapsed": 821508,
		"internal_node_id": "0.0-3.0-0.310-0.310"
	},
	{
		"rt": 1211,
		"stimulus": "../audio/48-1-masc.mp3",
		"response": " ",
		"word": "Ela",
		"trial_type": "audio-keyboard-response",
		"trial_index": 379,
		"time_elapsed": 822989,
		"internal_node_id": "0.0-3.0-1.310"
	},
	{
		"rt": 1019,
		"stimulus": "../audio/48-2-masc.mp3",
		"response": " ",
		"word": "come",
		"trial_type": "audio-keyboard-response",
		"trial_index": 380,
		"time_elapsed": 824285,
		"internal_node_id": "0.0-3.0-1.311"
	},
	{
		"rt": 1891,
		"stimulus": "../audio/48-3-masc.mp3",
		"response": " ",
		"word": "feijão",
		"trial_type": "audio-keyboard-response",
		"trial_index": 381,
		"time_elapsed": 826461,
		"internal_node_id": "0.0-3.0-1.312"
	},
	{
		"rt": 1120,
		"stimulus": "../audio/48-4-masc.mp3",
		"response": " ",
		"word": "com",
		"trial_type": "audio-keyboard-response",
		"trial_index": 382,
		"time_elapsed": 827869,
		"internal_node_id": "0.0-3.0-1.313"
	},
	{
		"rt": 1688,
		"stimulus": "../audio/48-5-masc.mp3",
		"response": " ",
		"word": "arroz",
		"trial_type": "audio-keyboard-response",
		"trial_index": 383,
		"time_elapsed": 829837,
		"internal_node_id": "0.0-3.0-1.314"
	},
	{
		"rt": 1360,
		"stimulus": "../audio/48-6-masc.mp3",
		"response": " ",
		"word": "todos",
		"trial_type": "audio-keyboard-response",
		"trial_index": 384,
		"time_elapsed": 831469,
		"internal_node_id": "0.0-3.0-1.315"
	},
	{
		"rt": 1400,
		"stimulus": "../audio/48-7-masc.mp3",
		"response": " ",
		"word": "os",
		"trial_type": "audio-keyboard-response",
		"trial_index": 385,
		"time_elapsed": 833133,
		"internal_node_id": "0.0-3.0-1.316"
	},
	{
		"rt": 1619,
		"stimulus": "../audio/48-8-masc.mp3",
		"response": " ",
		"word": "dias.",
		"trial_type": "audio-keyboard-response",
		"trial_index": 386,
		"time_elapsed": 835037,
		"internal_node_id": "0.0-3.0-1.317"
	},
	{
		"rt": null,
		"stimulus": "<span style= \"font-size:30px; font-family: monospace\">+</span>",
		"response": null,
		"trial_part": "fixation",
		"trial_type": "html-keyboard-response",
		"trial_index": 387,
		"time_elapsed": 836321,
		"internal_node_id": "0.0-3.0-0.318-0.318"
	},
	{
		"rt": 891,
		"stimulus": "../audio/49-1-masc.mp3",
		"response": " ",
		"word": "Eu",
		"trial_type": "audio-keyboard-response",
		"trial_index": 388,
		"time_elapsed": 837501,
		"internal_node_id": "0.0-3.0-1.318"
	},
	{
		"rt": 1389,
		"stimulus": "../audio/49-2-masc.mp3",
		"response": " ",
		"word": "quero",
		"trial_type": "audio-keyboard-response",
		"trial_index": 389,
		"time_elapsed": 839181,
		"internal_node_id": "0.0-3.0-1.319"
	},
	{
		"rt": 1379,
		"stimulus": "../audio/49-3-masc.mp3",
		"response": " ",
		"word": "um",
		"trial_type": "audio-keyboard-response",
		"trial_index": 390,
		"time_elapsed": 840845,
		"internal_node_id": "0.0-3.0-1.320"
	},
	{
		"rt": 1440,
		"stimulus": "../audio/49-4-masc.mp3",
		"response": " ",
		"word": "lanche",
		"trial_type": "audio-keyboard-response",
		"trial_index": 391,
		"time_elapsed": 842557,
		"internal_node_id": "0.0-3.0-1.321"
	},
	{
		"rt": 1480,
		"stimulus": "../audio/49-5-masc.mp3",
		"response": " ",
		"word": "duplo",
		"trial_type": "audio-keyboard-response",
		"trial_index": 392,
		"time_elapsed": 844317,
		"internal_node_id": "0.0-3.0-1.322"
	},
	{
		"rt": 1192,
		"stimulus": "../audio/49-6-masc.mp3",
		"response": " ",
		"word": "e",
		"trial_type": "audio-keyboard-response",
		"trial_index": 393,
		"time_elapsed": 845789,
		"internal_node_id": "0.0-3.0-1.323"
	},
	{
		"rt": 1480,
		"stimulus": "../audio/49-7-masc.mp3",
		"response": " ",
		"word": "um",
		"trial_type": "audio-keyboard-response",
		"trial_index": 394,
		"time_elapsed": 847533,
		"internal_node_id": "0.0-3.0-1.324"
	},
	{
		"rt": 1741,
		"stimulus": "../audio/49-8-masc.mp3",
		"response": " ",
		"word": "suco.",
		"trial_type": "audio-keyboard-response",
		"trial_index": 395,
		"time_elapsed": 849549,
		"internal_node_id": "0.0-3.0-1.325"
	},
	{
		"rt": null,
		"stimulus": "<span style= \"font-size:30px; font-family: monospace\">+</span>",
		"response": null,
		"trial_part": "fixation",
		"trial_type": "html-keyboard-response",
		"trial_index": 396,
		"time_elapsed": 850807,
		"internal_node_id": "0.0-3.0-0.326-0.326"
	},
	{
		"rt": 872,
		"stimulus": "../audio/47-1-masc.mp3",
		"response": " ",
		"word": "O",
		"trial_type": "audio-keyboard-response",
		"trial_index": 397,
		"time_elapsed": 851949,
		"internal_node_id": "0.0-3.0-1.326"
	},
	{
		"rt": 920,
		"stimulus": "../audio/47-2-masc.mp3",
		"response": " ",
		"word": "tio",
		"trial_type": "audio-keyboard-response",
		"trial_index": 398,
		"time_elapsed": 853133,
		"internal_node_id": "0.0-3.0-1.327"
	},
	{
		"rt": 1139,
		"stimulus": "../audio/47-3-masc.mp3",
		"response": " ",
		"word": "recusou",
		"trial_type": "audio-keyboard-response",
		"trial_index": 399,
		"time_elapsed": 854557,
		"internal_node_id": "0.0-3.0-1.328"
	},
	{
		"rt": 920,
		"stimulus": "../audio/47-4-masc.mp3",
		"response": " ",
		"word": "a",
		"trial_type": "audio-keyboard-response",
		"trial_index": 400,
		"time_elapsed": 855757,
		"internal_node_id": "0.0-3.0-1.329"
	},
	{
		"rt": 1291,
		"stimulus": "../audio/47-5-masc.mp3",
		"response": " ",
		"word": "sobremesa",
		"trial_type": "audio-keyboard-response",
		"trial_index": 401,
		"time_elapsed": 857325,
		"internal_node_id": "0.0-3.0-1.330"
	},
	{
		"rt": 931,
		"stimulus": "../audio/47-6-masc.mp3",
		"response": " ",
		"word": "no",
		"trial_type": "audio-keyboard-response",
		"trial_index": 402,
		"time_elapsed": 858525,
		"internal_node_id": "0.0-3.0-1.331"
	},
	{
		"rt": 1931,
		"stimulus": "../audio/47-7-masc.mp3",
		"response": " ",
		"word": "almoço.",
		"trial_type": "audio-keyboard-response",
		"trial_index": 403,
		"time_elapsed": 860733,
		"internal_node_id": "0.0-3.0-1.332"
	},
	{
		"rt": null,
		"stimulus": "<span style= \"font-size:30px; font-family: monospace\">+</span>",
		"response": null,
		"trial_part": "fixation",
		"trial_type": "html-keyboard-response",
		"trial_index": 404,
		"time_elapsed": 862021,
		"internal_node_id": "0.0-3.0-0.333-0.333"
	},
	{
		"rt": 669,
		"stimulus": "../audio/46-1-masc.mp3",
		"response": " ",
		"word": "Meu",
		"trial_type": "audio-keyboard-response",
		"trial_index": 405,
		"time_elapsed": 862973,
		"internal_node_id": "0.0-3.0-1.333"
	},
	{
		"rt": 800,
		"stimulus": "../audio/46-2-masc.mp3",
		"response": " ",
		"word": "primo",
		"trial_type": "audio-keyboard-response",
		"trial_index": 406,
		"time_elapsed": 864061,
		"internal_node_id": "0.0-3.0-1.334"
	},
	{
		"rt": 1069,
		"stimulus": "../audio/46-3-masc.mp3",
		"response": " ",
		"word": "estava",
		"trial_type": "audio-keyboard-response",
		"trial_index": 407,
		"time_elapsed": 865405,
		"internal_node_id": "0.0-3.0-1.335"
	},
	{
		"rt": 1029,
		"stimulus": "../audio/46-4-masc.mp3",
		"response": " ",
		"word": "muito",
		"trial_type": "audio-keyboard-response",
		"trial_index": 408,
		"time_elapsed": 866717,
		"internal_node_id": "0.0-3.0-1.336"
	},
	{
		"rt": 1469,
		"stimulus": "../audio/46-5-masc.mp3",
		"response": " ",
		"word": "deprimido",
		"trial_type": "audio-keyboard-response",
		"trial_index": 409,
		"time_elapsed": 868461,
		"internal_node_id": "0.0-3.0-1.337"
	},
	{
		"rt": 909,
		"stimulus": "../audio/46-6-masc.mp3",
		"response": " ",
		"word": "no",
		"trial_type": "audio-keyboard-response",
		"trial_index": 410,
		"time_elapsed": 869645,
		"internal_node_id": "0.0-3.0-1.338"
	},
	{
		"rt": 1581,
		"stimulus": "../audio/46-7-masc.mp3",
		"response": " ",
		"word": "inverno.",
		"trial_type": "audio-keyboard-response",
		"trial_index": 411,
		"time_elapsed": 871501,
		"internal_node_id": "0.0-3.0-1.339"
	},
	{
		"rt": null,
		"stimulus": "<span style= \"font-size:30px; font-family: monospace\">+</span>",
		"response": null,
		"trial_part": "fixation",
		"trial_type": "html-keyboard-response",
		"trial_index": 412,
		"time_elapsed": 872771,
		"internal_node_id": "0.0-3.0-0.340-0.340"
	},
	{
		"rt": 640,
		"stimulus": "../audio/50-1-masc.mp3",
		"response": " ",
		"word": "O",
		"trial_type": "audio-keyboard-response",
		"trial_index": 413,
		"time_elapsed": 873693,
		"internal_node_id": "0.0-3.0-1.340"
	},
	{
		"rt": 1051,
		"stimulus": "../audio/50-2-masc.mp3",
		"response": " ",
		"word": "pássaro",
		"trial_type": "audio-keyboard-response",
		"trial_index": 414,
		"time_elapsed": 875021,
		"internal_node_id": "0.0-3.0-1.341"
	},
	{
		"rt": 989,
		"stimulus": "../audio/50-3-masc.mp3",
		"response": " ",
		"word": "fugiu",
		"trial_type": "audio-keyboard-response",
		"trial_index": 415,
		"time_elapsed": 876285,
		"internal_node_id": "0.0-3.0-1.342"
	},
	{
		"rt": 1091,
		"stimulus": "../audio/50-4-masc.mp3",
		"response": " ",
		"word": "da",
		"trial_type": "audio-keyboard-response",
		"trial_index": 416,
		"time_elapsed": 877661,
		"internal_node_id": "0.0-3.0-1.343"
	},
	{
		"rt": 1168,
		"stimulus": "../audio/50-5-masc.mp3",
		"response": " ",
		"word": "gaiola",
		"trial_type": "audio-keyboard-response",
		"trial_index": 417,
		"time_elapsed": 879117,
		"internal_node_id": "0.0-3.0-1.344"
	},
	{
		"rt": 989,
		"stimulus": "../audio/50-6-masc.mp3",
		"response": " ",
		"word": "pela",
		"trial_type": "audio-keyboard-response",
		"trial_index": 418,
		"time_elapsed": 880381,
		"internal_node_id": "0.0-3.0-1.345"
	},
	{
		"rt": 1429,
		"stimulus": "../audio/50-7-masc.mp3",
		"response": " ",
		"word": "portinhola.",
		"trial_type": "audio-keyboard-response",
		"trial_index": 419,
		"time_elapsed": 882093,
		"internal_node_id": "0.0-3.0-1.346"
	},
	{
		"rt": 6318,
		"stimulus": "<span style=\"font-size:25px; font-family: monospace\">O pássaro fugiu da gaiola?</span>",
		"response": "s",
		"question": "O pássaro fugiu da gaiola?",
		"answer": "null",
		"trial": "exp-sent",
		"trial_type": "html-keyboard-response",
		"trial_index": 420,
		"time_elapsed": 888670,
		"internal_node_id": "0.0-3.0-2.346-0.346",
		"accuracy": false
	},
	{
		"rt": null,
		"stimulus": "<span style= \"font-size:30px; font-family: monospace\">+</span>",
		"response": null,
		"trial_part": "fixation",
