"view_history","rt","trial_type","trial_index","time_elapsed","internal_node_id","stimulus","response","portuguese","kreyol"
"[{""page_index"":0,""viewing_time"":11409}]","11410","instructions","0","11414","0.0-0.0","","","",""
"","null","html-keyboard-response","1","12031","0.0-1.0-0.0","+","null","",""
"","3651","audio-keyboard-response","2","16655","0.0-1.0-1.0","../audio/teste-vocab--37.mp3","s","músico","mizisyen"
"","null","html-keyboard-response","3","17161","0.0-1.0-0.1","+","null","",""
"","3471","audio-keyboard-response","4","20822","0.0-1.0-1.1","../audio/teste-vocab--89.mp3","s","classificar","klasifika"
"","null","html-keyboard-response","5","21326","0.0-1.0-0.2","+","null","",""
"","2548","audio-keyboard-response","6","24068","0.0-1.0-1.2","../audio/teste-vocab--05.mp3","s","limpar","netwaye"
"","null","html-keyboard-response","7","24575","0.0-1.0-0.3","+","null","",""
"","3030","audio-keyboard-response","8","27779","0.0-1.0-1.3","../audio/teste-vocab--16.mp3","s","pescoço","kou"
"","null","html-keyboard-response","9","28291","0.0-1.0-0.4","+","null","",""
"","2432","audio-keyboard-response","10","30901","0.0-1.0-1.4","../audio/teste-vocab--77.mp3","s","comércio","komès"
"","null","html-keyboard-response","11","31408","0.0-1.0-0.5","+","null","",""
"","2580","audio-keyboard-response","12","34168","0.0-1.0-1.5","../audio/teste-vocab--60.mp3","s","secretaria","sekretè"
"","null","html-keyboard-response","13","34677","0.0-1.0-0.6","+","null","",""
"","2319","audio-keyboard-response","14","37182","0.0-1.0-1.6","../audio/teste-vocab--92.mp3","s","esférico","won"
"","null","html-keyboard-response","15","37692","0.0-1.0-0.7","+","null","",""
"","2752","audio-keyboard-response","16","40628","0.0-1.0-1.7","../audio/teste-vocab--32.mp3","s","descascar","dekale"
"","null","html-keyboard-response","17","41135","0.0-1.0-0.8","+","null","",""
"","2911","audio-keyboard-response","18","44225","0.0-1.0-1.8","../audio/teste-vocab--62.mp3","s","carretel","bobin"
"","null","html-keyboard-response","19","44743","0.0-1.0-0.9","+","null","",""
"","2380","audio-keyboard-response","20","47304","0.0-1.0-1.9","../audio/teste-vocab--121.mp3","s","atônito","sezi"
"","null","html-keyboard-response","21","47816","0.0-1.0-0.10","+","null","",""
"","2319","audio-keyboard-response","22","50309","0.0-1.0-1.10","../audio/teste-vocab--98.mp3","s","instruir","enstwi"
"","null","html-keyboard-response","23","50822","0.0-1.0-0.11","+","null","",""
"","2412","audio-keyboard-response","24","53491","0.0-1.0-1.11","../audio/teste-vocab--120.mp3","s","induzir","pwovoke"
"","null","html-keyboard-response","25","54008","0.0-1.0-0.12","+","null","",""
"","2577","audio-keyboard-response","26","56807","0.0-1.0-1.12","../audio/teste-vocab--80.mp3","s","binóculo","longvi"
"","null","html-keyboard-response","27","57310","0.0-1.0-0.13","+","null","",""
"","2508","audio-keyboard-response","28","60001","0.0-1.0-1.13","../audio/teste-vocab--91.mp3","s","bússola","bousòl"
"","null","html-keyboard-response","29","60506","0.0-1.0-0.14","+","null","",""
"","2360","audio-keyboard-response","30","63046","0.0-1.0-1.14","../audio/teste-vocab--84.mp3","s","confiar","konfye"
"","null","html-keyboard-response","31","63562","0.0-1.0-0.15","+","null","",""
"","2360","audio-keyboard-response","32","66123","0.0-1.0-1.15","../audio/teste-vocab--102.mp3","s","arrogante","arogan"
"","null","html-keyboard-response","33","66629","0.0-1.0-0.16","+","null","",""
"","2508","audio-keyboard-response","34","69321","0.0-1.0-1.16","../audio/teste-vocab--51.mp3","s","recolher","kolekte"
"","null","html-keyboard-response","35","69833","0.0-1.0-0.17","+","null","",""
"","4270","audio-keyboard-response","36","74266","0.0-1.0-1.17","../audio/teste-vocab--19.mp3","s","hora","è"
"","null","html-keyboard-response","37","74769","0.0-1.0-0.18","+","null","",""
"","3448","audio-keyboard-response","38","78411","0.0-1.0-1.18","../audio/teste-vocab--65.mp3","s","discussão","diskisyon"
"","null","html-keyboard-response","39","78921","0.0-1.0-0.19","+","null","",""
"","2630","audio-keyboard-response","40","81726","0.0-1.0-1.19","../audio/teste-vocab--17.mp3","s","móvel","mobil"
"","null","html-keyboard-response","41","82239","0.0-1.0-0.20","+","null","",""
"","4331","audio-keyboard-response","42","86745","0.0-1.0-1.20","../audio/teste-vocab--129.mp3","s","elipse","elips"
"","null","html-keyboard-response","43","87259","0.0-1.0-0.21","+","null","",""
"","2409","audio-keyboard-response","44","89857","0.0-1.0-1.21","../audio/teste-vocab--111.mp3","s","jubilosa","rejwisans"
"","null","html-keyboard-response","45","90367","0.0-1.0-0.22","+","null","",""
"","2261","audio-keyboard-response","46","92824","0.0-1.0-1.22","../audio/teste-vocab--96.mp3","s","árido","sechrès"
"","null","html-keyboard-response","47","93339","0.0-1.0-0.23","+","null","",""
"","2281","audio-keyboard-response","48","95803","0.0-1.0-1.23","../audio/teste-vocab--76.mp3","s","arquivar","achive"
"","null","html-keyboard-response","49","96309","0.0-1.0-0.24","+","null","",""
"","2940","audio-keyboard-response","50","99439","0.0-1.0-1.24","../audio/teste-vocab--47.mp3","s","envelope","anvlope"
"","null","html-keyboard-response","51","99946","0.0-1.0-0.25","+","null","",""
"","2389","audio-keyboard-response","52","102521","0.0-1.0-1.25","../audio/teste-vocab--107.mp3","s","elo","emay"
"","null","html-keyboard-response","53","103030","0.0-1.0-0.26","+","null","",""
"","2470","audio-keyboard-response","54","105690","0.0-1.0-1.26","../audio/teste-vocab--69.mp3","s","pingar","degoute"
"","null","html-keyboard-response","55","106196","0.0-1.0-0.27","+","null","",""
"","4450","audio-keyboard-response","56","110777","0.0-1.0-1.27","../audio/teste-vocab--25.mp3","n","canguru","kanguwou"
"","null","html-keyboard-response","57","111288","0.0-1.0-0.28","+","null","",""
"","2479","audio-keyboard-response","58","113964","0.0-1.0-1.28","../audio/teste-vocab--11.mp3","s","joelho","jenou"
"","null","html-keyboard-response","59","114471","0.0-1.0-0.29","+","null","",""
"","1950","audio-keyboard-response","60","116603","0.0-1.0-1.29","../audio/teste-vocab--59.mp3","s","par","pè"
"","null","html-keyboard-response","61","117117","0.0-1.0-0.30","+","null","",""
"","3260","audio-keyboard-response","62","120559","0.0-1.0-1.30","../audio/teste-vocab--78.mp3","n","quarteto","qwatèt"
"","null","html-keyboard-response","63","121066","0.0-1.0-0.31","+","null","",""
"","4232","audio-keyboard-response","64","125489","0.0-1.0-1.31","../audio/teste-vocab--109.mp3","n","anfíbio","anfibyen"
"","null","html-keyboard-response","65","126004","0.0-1.0-0.32","+","null","",""
"","2110","audio-keyboard-response","66","128291","0.0-1.0-1.32","../audio/teste-vocab--36.mp3","s","grupo","gwoup"
"","null","html-keyboard-response","67","128796","0.0-1.0-0.33","+","null","",""
"","2339","audio-keyboard-response","68","131313","0.0-1.0-1.33","../audio/teste-vocab--73.mp3","s","ângulo","ang"
"","null","html-keyboard-response","69","131828","0.0-1.0-0.34","+","null","",""
"","3001","audio-keyboard-response","70","135041","0.0-1.0-1.34","../audio/teste-vocab--103.mp3","s","utensílio","istansil"
"","null","html-keyboard-response","71","135548","0.0-1.0-0.35","+","null","",""
"","2511","audio-keyboard-response","72","138241","0.0-1.0-1.35","../audio/teste-vocab--71.mp3","s","caule","tij"
"","null","html-keyboard-response","73","138742","0.0-1.0-0.36","+","null","",""
"","2940","audio-keyboard-response","74","141872","0.0-1.0-1.36","../audio/teste-vocab--95.mp3","s","submergir","plonje"
"","null","html-keyboard-response","75","142383","0.0-1.0-0.37","+","null","",""
"","2331","audio-keyboard-response","76","144886","0.0-1.0-1.37","../audio/teste-vocab--88.mp3","s","portátil","pòtab"
"","null","html-keyboard-response","77","145391","0.0-1.0-0.38","+","null","",""
"","3199","audio-keyboard-response","78","148794","0.0-1.0-1.38","../audio/teste-vocab--74.mp3","s","desilusão","dezilizyon"
"","null","html-keyboard-response","79","149296","0.0-1.0-0.39","+","null","",""
"","2670","audio-keyboard-response","80","152148","0.0-1.0-1.39","../audio/teste-vocab--93.mp3","s","felino","leopa"
"","null","html-keyboard-response","81","152655","0.0-1.0-0.40","+","null","",""
"","2879","audio-keyboard-response","82","155767","0.0-1.0-1.40","../audio/teste-vocab--43.mp3","s","mecânico","mekanisyen"
"","null","html-keyboard-response","83","156281","0.0-1.0-0.41","+","null","",""
"","2601","audio-keyboard-response","84","159074","0.0-1.0-1.41","../audio/teste-vocab--70.mp3","s","funil","antónwa"
"","null","html-keyboard-response","85","159578","0.0-1.0-0.42","+","null","",""
"","2241","audio-keyboard-response","86","161996","0.0-1.0-1.42","../audio/teste-vocab--68.mp3","s","surpreendido","sezi"
"","null","html-keyboard-response","87","162506","0.0-1.0-0.43","+","null","",""
"","2319","audio-keyboard-response","88","164977","0.0-1.0-1.43","../audio/teste-vocab--85.mp3","s","trio","trio"
"","null","html-keyboard-response","89","165491","0.0-1.0-0.44","+","null","",""
"","2000","audio-keyboard-response","90","167630","0.0-1.0-1.44","../audio/teste-vocab--14.mp3","s","ler","li"
"","null","html-keyboard-response","91","168131","0.0-1.0-0.45","+","null","",""
"","2302","audio-keyboard-response","92","170578","0.0-1.0-1.45","../audio/teste-vocab--38.mp3","s","cerimônia","seremoni"
"","null","html-keyboard-response","93","171091","0.0-1.0-0.46","+","null","",""
"","2003","audio-keyboard-response","94","173266","0.0-1.0-1.46","../audio/teste-vocab--55.mp3","s","bosque","forè"
"","null","html-keyboard-response","95","173767","0.0-1.0-0.47","+","null","",""
"","1831","audio-keyboard-response","96","175766","0.0-1.0-1.47","../audio/teste-vocab--64.mp3","s","colher","kiyè"
"","null","html-keyboard-response","97","176271","0.0-1.0-0.48","+","null","",""
"","1852","audio-keyboard-response","98","178368","0.0-1.0-1.48","../audio/teste-vocab--15.mp3","s","flecha","flèch"
"","null","html-keyboard-response","99","178872","0.0-1.0-0.49","+","null","",""
"","2159","audio-keyboard-response","100","181178","0.0-1.0-1.49","../audio/teste-vocab--31.mp3","s","vazio","vid"
"","null","html-keyboard-response","101","181690","0.0-1.0-0.50","+","null","",""
"","2450","audio-keyboard-response","102","184297","0.0-1.0-1.50","../audio/teste-vocab--75.mp3","s","carpinteiro","chapantye"
"","null","html-keyboard-response","103","184804","0.0-1.0-0.51","+","null","",""
"","1910","audio-keyboard-response","104","186894","0.0-1.0-1.51","../audio/teste-vocab--10.mp3","s","corneta","kòn"
"","null","html-keyboard-response","105","187407","0.0-1.0-0.52","+","null","",""
"","2020","audio-keyboard-response","106","189588","0.0-1.0-1.52","../audio/teste-vocab--117.mp3","s","córnea","kòn"
"","null","html-keyboard-response","107","190102","0.0-1.0-0.53","+","null","",""
"","2441","audio-keyboard-response","108","192723","0.0-1.0-1.53","../audio/teste-vocab--58.mp3","s","nutritivo","nourisan"
"","null","html-keyboard-response","109","193232","0.0-1.0-0.54","+","null","",""
"","1991","audio-keyboard-response","110","195369","0.0-1.0-1.54","../audio/teste-vocab--27.mp3","s","rio","rivyè"
"","null","html-keyboard-response","111","195870","0.0-1.0-0.55","+","null","",""
"","2400","audio-keyboard-response","112","198449","0.0-1.0-1.55","../audio/teste-vocab--122.mp3","s","transeunte","pasajè"
"","null","html-keyboard-response","113","198958","0.0-1.0-0.56","+","null","",""
"","2168","audio-keyboard-response","114","201270","0.0-1.0-1.56","../audio/teste-vocab--97.mp3","s","frágil","frajil"
"","null","html-keyboard-response","115","201778","0.0-1.0-0.57","+","null","",""
"","3692","audio-keyboard-response","116","205606","0.0-1.0-1.57","../audio/teste-vocab--83.mp3","n","morsa","mòs"
"","null","html-keyboard-response","117","206121","0.0-1.0-0.58","+","null","",""
"","2122","audio-keyboard-response","118","208424","0.0-1.0-1.58","../audio/teste-vocab--28.mp3","s","águia","èg"
"","null","html-keyboard-response","119","208926","0.0-1.0-0.59","+","null","",""
"","2519","audio-keyboard-response","120","211625","0.0-1.0-1.59","../audio/teste-vocab--100.mp3","s","consumir","konsome"
"","null","html-keyboard-response","121","212139","0.0-1.0-0.60","+","null","",""
"","2130","audio-keyboard-response","122","214451","0.0-1.0-1.60","../audio/teste-vocab--29.mp3","s","rasgar","chire"
"","null","html-keyboard-response","123","214962","0.0-1.0-0.61","+","null","",""
"","2273","audio-keyboard-response","124","217419","0.0-1.0-1.61","../audio/teste-vocab--50.mp3","s","artista","atis"
"","null","html-keyboard-response","125","217931","0.0-1.0-0.62","+","null","",""
"","2569","audio-keyboard-response","126","220688","0.0-1.0-1.62","../audio/teste-vocab--110.mp3","s","prodígio","pwodij"
"","null","html-keyboard-response","127","221193","0.0-1.0-0.63","+","null","",""
"","2261","audio-keyboard-response","128","223639","0.0-1.0-1.63","../audio/teste-vocab--90.mp3","s","carniça","kanivò"
"","null","html-keyboard-response","129","224147","0.0-1.0-0.64","+","null","",""
"","2130","audio-keyboard-response","130","226447","0.0-1.0-1.64","../audio/teste-vocab--48.mp3","s","joia","bijou"
"","null","html-keyboard-response","131","226960","0.0-1.0-0.65","+","null","",""
"","2339","audio-keyboard-response","132","229487","0.0-1.0-1.65","../audio/teste-vocab--09.mp3","s","vela","bouji"
"","null","html-keyboard-response","133","230002","0.0-1.0-0.66","+","null","",""
"","2760","audio-keyboard-response","134","232952","0.0-1.0-1.66","../audio/teste-vocab--125.mp3","s","lamaçal","labou"
"","null","html-keyboard-response","135","233453","0.0-1.0-0.67","+","null","",""
"","2261","audio-keyboard-response","136","235904","0.0-1.0-1.67","../audio/teste-vocab--106.mp3","s","lubrificar","grese"
"","null","html-keyboard-response","137","236419","0.0-1.0-0.68","+","null","",""
"","2641","audio-keyboard-response","138","239250","0.0-1.0-1.68","../audio/teste-vocab--81.mp3","s","judicial","jidisyè"
"","null","html-keyboard-response","139","239751","0.0-1.0-0.69","+","null","",""
"","3471","audio-keyboard-response","140","243428","0.0-1.0-1.69","../audio/teste-vocab--124.mp3","n","obelisco","obelisk"
"","null","html-keyboard-response","141","243929","0.0-1.0-0.70","+","null","",""
"","2363","audio-keyboard-response","142","246501","0.0-1.0-1.70","../audio/teste-vocab--123.mp3","s","emissão","emisyon"
"","null","html-keyboard-response","143","247003","0.0-1.0-0.71","+","null","",""
"","2188","audio-keyboard-response","144","249367","0.0-1.0-1.71","../audio/teste-vocab--18.mp3","s","abelha","myèl"
"","null","html-keyboard-response","145","249880","0.0-1.0-0.72","+","null","",""
"","2458","audio-keyboard-response","146","252526","0.0-1.0-1.72","../audio/teste-vocab--52.mp3","s","construção","konstriksyon"
"","null","html-keyboard-response","147","253039","0.0-1.0-0.73","+","null","",""
"","3390","audio-keyboard-response","148","256608","0.0-1.0-1.73","../audio/teste-vocab--127.mp3","n","côncavo","konkav"
"","null","html-keyboard-response","149","257123","0.0-1.0-0.74","+","null","",""
"","2241","audio-keyboard-response","150","259555","0.0-1.0-1.74","../audio/teste-vocab--86.mp3","s","pensar","panse"
"","null","html-keyboard-response","151","260062","0.0-1.0-0.75","+","null","",""
"","2151","audio-keyboard-response","152","262394","0.0-1.0-1.75","../audio/teste-vocab--21.mp3","s","baleia","balèn"
"","null","html-keyboard-response","153","262904","0.0-1.0-0.76","+","null","",""
"","2560","audio-keyboard-response","154","265646","0.0-1.0-1.76","../audio/teste-vocab--72.mp3","s","ilha","zile"
"","null","html-keyboard-response","155","266153","0.0-1.0-0.77","+","null","",""
"","2310","audio-keyboard-response","156","268645","0.0-1.0-1.77","../audio/teste-vocab--20.mp3","s","medir","mezire"
"","null","html-keyboard-response","157","269148","0.0-1.0-0.78","+","null","",""
"","3051","audio-keyboard-response","158","272404","0.0-1.0-1.78","../audio/teste-vocab--61.mp3","s","iluminação","iliminasyon"
"","null","html-keyboard-response","159","272907","0.0-1.0-0.79","+","null","",""
"","2450","audio-keyboard-response","160","275539","0.0-1.0-1.79","../audio/teste-vocab--82.mp3","s","roer","ronje"
"","null","html-keyboard-response","161","276042","0.0-1.0-0.80","+","null","",""
"","2183","audio-keyboard-response","162","278495","0.0-1.0-1.80","../audio/teste-vocab--06.mp3","s","barco","bato"
"","null","html-keyboard-response","163","279000","0.0-1.0-0.81","+","null","",""
"","2650","audio-keyboard-response","164","281881","0.0-1.0-1.81","../audio/teste-vocab--94.mp3","s","paralelo","paralèl"
"","null","html-keyboard-response","165","282397","0.0-1.0-0.82","+","null","",""
"","2409","audio-keyboard-response","166","284998","0.0-1.0-1.82","../audio/teste-vocab--42.mp3","s","isolamento","izòlman"
"","null","html-keyboard-response","167","285506","0.0-1.0-0.83","+","null","",""
"","2888","audio-keyboard-response","168","288601","0.0-1.0-1.83","../audio/teste-vocab--66.mp3","s","cooperação","koperasyon"
"","null","html-keyboard-response","169","289110","0.0-1.0-0.84","+","null","",""
"","3439","audio-keyboard-response","170","292733","0.0-1.0-1.84","../audio/teste-vocab--12.mp3","s","jaula","kaj"
"","null","html-keyboard-response","171","293238","0.0-1.0-0.85","+","null","",""
"","2249","audio-keyboard-response","172","295606","0.0-1.0-1.85","../audio/teste-vocab--22.mp3","s","quebrado","kraze"
"","null","html-keyboard-response","173","296120","0.0-1.0-0.86","+","null","",""
"","2281","audio-keyboard-response","174","298574","0.0-1.0-1.86","../audio/teste-vocab--113.mp3","s","ascender","limen"
"","null","html-keyboard-response","175","299088","0.0-1.0-0.87","+","null","",""
"","2299","audio-keyboard-response","176","301575","0.0-1.0-1.87","../audio/teste-vocab--53.mp3","s","orientar","oryante"
"","null","html-keyboard-response","177","302077","0.0-1.0-0.88","+","null","",""
"","2032","audio-keyboard-response","178","304332","0.0-1.0-1.88","../audio/teste-vocab--45.mp3","s","dentista","dantis"
"","null","html-keyboard-response","179","304846","0.0-1.0-0.89","+","null","",""
"","2348","audio-keyboard-response","180","307399","0.0-1.0-1.89","../audio/teste-vocab--04.mp3","s","roda","wonn"
"","null","html-keyboard-response","181","307913","0.0-1.0-0.90","+","null","",""
"","1890","audio-keyboard-response","182","309992","0.0-1.0-1.90","../audio/teste-vocab--108.mp3","s","moradia","kay"
"","null","html-keyboard-response","183","310509","0.0-1.0-0.91","+","null","",""
"","2171","audio-keyboard-response","184","312859","0.0-1.0-1.91","../audio/teste-vocab--24.mp3","s","acidente","aksidan"
"","null","html-keyboard-response","185","313360","0.0-1.0-0.92","+","null","",""
"","2249","audio-keyboard-response","186","315811","0.0-1.0-1.92","../audio/teste-vocab--130.mp3","s","gentil","dou"
"","null","html-keyboard-response","187","316328","0.0-1.0-0.93","+","null","",""
"","2229","audio-keyboard-response","188","318869","0.0-1.0-1.93","../audio/teste-vocab--03.mp3","s","balançar","balanse"
"","null","html-keyboard-response","189","319371","0.0-1.0-0.94","+","null","",""
"","2200","audio-keyboard-response","190","321763","0.0-1.0-1.94","../audio/teste-vocab--44.mp3","s","premiar","rekonpanse"
"","null","html-keyboard-response","191","322280","0.0-1.0-0.95","+","null","",""
"","2078","audio-keyboard-response","192","324548","0.0-1.0-1.95","../audio/teste-vocab--08.mp3","s","vaca","vach"
"","null","html-keyboard-response","193","325055","0.0-1.0-0.96","+","null","",""
"","2731","audio-keyboard-response","194","327976","0.0-1.0-1.96","../audio/teste-vocab--101.mp3","s","incandescente","enkandesan"
"","null","html-keyboard-response","195","328479","0.0-1.0-0.97","+","null","",""
"","2310","audio-keyboard-response","196","330973","0.0-1.0-1.97","../audio/teste-vocab--46.mp3","s","ombro","zepòl"
"","null","html-keyboard-response","197","331475","0.0-1.0-0.98","+","null","",""
"","2011","audio-keyboard-response","198","333766","0.0-1.0-1.98","../audio/teste-vocab--07.mp3","s","abajur","lanp"
"","null","html-keyboard-response","199","334277","0.0-1.0-0.99","+","null","",""
"","2090","audio-keyboard-response","200","336549","0.0-1.0-1.99","../audio/teste-vocab--126.mp3","s","ambulante","promennen"
"","null","html-keyboard-response","201","337052","0.0-1.0-0.100","+","null","",""
"","2249","audio-keyboard-response","202","339505","0.0-1.0-1.100","../audio/teste-vocab--57.mp3","s","raiz","rasin"
"","null","html-keyboard-response","203","340012","0.0-1.0-0.101","+","null","",""
"","2049","audio-keyboard-response","204","342238","0.0-1.0-1.101","../audio/teste-vocab--41.mp3","s","médico","doktè,"
"","null","html-keyboard-response","205","342744","0.0-1.0-0.102","+","null","",""
"","2679","audio-keyboard-response","206","345605","0.0-1.0-1.102","../audio/teste-vocab--105.mp3","n","cítrico","sitrik"
"","null","html-keyboard-response","207","346109","0.0-1.0-0.103","+","null","",""
"","3779","audio-keyboard-response","208","350077","0.0-1.0-1.103","../audio/teste-vocab--116.mp3","n","vestuário","vestyè"
"","null","html-keyboard-response","209","350585","0.0-1.0-0.104","+","null","",""
"","2249","audio-keyboard-response","210","353034","0.0-1.0-1.104","../audio/teste-vocab--40.mp3","s","bebida","bwason"
"","null","html-keyboard-response","211","353549","0.0-1.0-0.105","+","null","",""
"","2099","audio-keyboard-response","212","355825","0.0-1.0-1.105","../audio/teste-vocab--39.mp3","s","cobra","koulèv"
"","null","html-keyboard-response","213","356331","0.0-1.0-0.106","+","null","",""
"","2720","audio-keyboard-response","214","359240","0.0-1.0-1.106","../audio/teste-vocab--99.mp3","n","arqueólogo","akeyológ"
"","null","html-keyboard-response","215","359747","0.0-1.0-0.107","+","null","",""
"","3219","audio-keyboard-response","216","363167","0.0-1.0-1.107","../audio/teste-vocab--112.mp3","s","aparição","aparisyon"
"","null","html-keyboard-response","217","363681","0.0-1.0-0.108","+","null","",""
"","2380","audio-keyboard-response","218","366272","0.0-1.0-1.108","../audio/teste-vocab--119.mp3","s","numeroso","anpil"
"","null","html-keyboard-response","219","366782","0.0-1.0-0.109","+","null","",""
"","2818","audio-keyboard-response","220","369816","0.0-1.0-1.109","../audio/teste-vocab--34.mp3","n","tronco","twon"
"","null","html-keyboard-response","221","370331","0.0-1.0-0.110","+","null","",""
"","2502","audio-keyboard-response","222","373016","0.0-1.0-1.110","../audio/teste-vocab--56.mp3","s","agricultura","agrikilti"
"","null","html-keyboard-response","223","373521","0.0-1.0-0.111","+","null","",""
"","2319","audio-keyboard-response","224","376018","0.0-1.0-1.111","../audio/teste-vocab--01.mp3","s","boneca","pope"
"","null","html-keyboard-response","225","376524","0.0-1.0-0.112","+","null","",""
"","2110","audio-keyboard-response","226","378825","0.0-1.0-1.112","../audio/teste-vocab--54.mp3","s","arbusto","raje"
"","null","html-keyboard-response","227","379329","0.0-1.0-0.113","+","null","",""
"","3059","audio-keyboard-response","228","382583","0.0-1.0-1.113","../audio/teste-vocab--128.mp3","s","incisivo","ensisiv"
"","null","html-keyboard-response","229","383100","0.0-1.0-0.114","+","null","",""
"","2017","audio-keyboard-response","230","385295","0.0-1.0-1.114","../audio/teste-vocab--02.mp3","s","homem","gason"
"","null","html-keyboard-response","231","385797","0.0-1.0-0.115","+","null","",""
"","1988","audio-keyboard-response","232","387967","0.0-1.0-1.115","../audio/teste-vocab--87.mp3","s","ave","zwazo"
"","null","html-keyboard-response","233","388479","0.0-1.0-0.116","+","null","",""
"","2191","audio-keyboard-response","234","390851","0.0-1.0-1.116","../audio/teste-vocab--13.mp3","s","ambulância","anbilans"
"","null","html-keyboard-response","235","391354","0.0-1.0-0.117","+","null","",""
"","1840","audio-keyboard-response","236","393501","0.0-1.0-1.117","../audio/teste-vocab--26.mp3","s","cotovelo","koud"
"","null","html-keyboard-response","237","394006","0.0-1.0-0.118","+","null","",""
"","3451","audio-keyboard-response","238","397627","0.0-1.0-1.118","../audio/teste-vocab--30.mp3","s","pintor","pent"
"","null","html-keyboard-response","239","398140","0.0-1.0-0.119","+","null","",""
"","2009","audio-keyboard-response","240","400344","0.0-1.0-1.119","../audio/teste-vocab--23.mp3","s","acariciar","karese"
"","null","html-keyboard-response","241","400860","0.0-1.0-0.120","+","null","",""
"","2429","audio-keyboard-response","242","403479","0.0-1.0-1.120","../audio/teste-vocab--63.mp3","s","transparente","transparan"
"","null","html-keyboard-response","243","403985","0.0-1.0-0.121","+","null","",""
"","2130","audio-keyboard-response","244","406295","0.0-1.0-1.121","../audio/teste-vocab--35.mp3","s","líquido","likid"
"","null","html-keyboard-response","245","406806","0.0-1.0-0.122","+","null","",""
"","2069","audio-keyboard-response","246","409093","0.0-1.0-1.122","../audio/teste-vocab--33.mp3","s","uniforme","inifòm"
"","null","html-keyboard-response","247","409608","0.0-1.0-0.123","+","null","",""
"","1710","audio-keyboard-response","248","411499","0.0-1.0-1.123","../audio/teste-vocab--49.mp3","s","humano","moun"
"","null","html-keyboard-response","249","412008","0.0-1.0-0.124","+","null","",""
"","2000","audio-keyboard-response","250","414205","0.0-1.0-1.124","../audio/teste-vocab--79.mp3","s","moldura"," chanbranl"
"","null","html-keyboard-response","251","414716","0.0-1.0-0.125","+","null","",""
"","3352","audio-keyboard-response","252","418265","0.0-1.0-1.125","../audio/teste-vocab--118.mp3","s","paralelogramo","paralelogram"
"","null","html-keyboard-response","253","418771","0.0-1.0-0.126","+","null","",""
"","2769","audio-keyboard-response","254","421719","0.0-1.0-1.126","../audio/teste-vocab--67.mp3","s","corrimão","ranp"
"","null","html-keyboard-response","255","422221","0.0-1.0-0.127","+","null","",""
"","2879","audio-keyboard-response","256","425284","0.0-1.0-1.127","../audio/teste-vocab--115.mp3","s","perpendicular","pèpandikilè"
"","null","html-keyboard-response","257","425795","0.0-1.0-0.128","+","null","",""
"","4670","audio-keyboard-response","258","430636","0.0-1.0-1.128","../audio/teste-vocab--104.mp3","s","ira","pwal"
"","null","html-keyboard-response","259","431144","0.0-1.0-0.129","+","null","",""
"","2238","audio-keyboard-response","260","433581","0.0-1.0-1.129","../audio/teste-vocab--114.mp3","s","fragmentar","dechire"
