[
	{
		"view_history": [
			{
				"page_index": 0,
				"viewing_time": 9783
			}
		],
		"rt": 9787,
		"trial_type": "instructions",
		"trial_index": 0,
		"time_elapsed": 9794,
		"internal_node_id": "0.0-0.0"
	},
	{
		"rt": 57934,
		"response": {
			"tcle": "Concordo voluntariamente em participar da pesquisa conforme texto acima."
		},
		"question_order": [
			0
		],
		"trial_type": "survey-multi-choice",
		"trial_index": 1,
		"time_elapsed": 67936,
		"internal_node_id": "0.0-1.0"
	},
	{
		"rt": 46018,
		"response": {
			"email": "RIY5C"
		},
		"trial_type": "survey-text",
		"trial_index": 2,
		"time_elapsed": 114969,
		"internal_node_id": "0.0-2.0"
	}
]