"view_history","rt","trial_type","trial_index","time_elapsed","internal_node_id","stimulus","response","trial_part","word","question","answer","trial","accuracy"
"[{""page_index"":0,""viewing_time"":40524},{""page_index"":1,""viewing_time"":7105}]","47630","instructions","0","47635","0.0-0.0","","","","","","","",""
"","null","html-keyboard-response","1","48761","0.0-1.0-0.0-0.0","<span style= ""font-size:30px; font-family: monospace"">+</span>","null","fixation","","","","",""
"","1991","audio-keyboard-response","2","51823","0.0-1.0-1.0","../audio/prac-question-1-1.mp3"," ","","O","","","",""
"","1611","audio-keyboard-response","3","53751","0.0-1.0-1.1","../audio/prac-question-1-2.mp3"," ","","dia","","","",""
"","1411","audio-keyboard-response","4","55468","0.0-1.0-1.2","../audio/prac-question-1-3.mp3"," ","","estará","","","",""
"","1132","audio-keyboard-response","5","56908","0.0-1.0-1.3","../audio/prac-question-1-4.mp3"," ","","cheio","","","",""
"","1120","audio-keyboard-response","6","58326","0.0-1.0-1.4","../audio/prac-question-1-5.mp3"," ","","de","","","",""
"","1251","audio-keyboard-response","7","59878","0.0-1.0-1.5","../audio/prac-question-1-6.mp3"," ","","nuvens","","","",""
"","1109","audio-keyboard-response","8","61279","0.0-1.0-1.6","../audio/prac-question-1-7.mp3"," ","","hoje.","","","",""
"","null","html-keyboard-response","9","62551","0.0-1.0-0.7-0.7","<span style= ""font-size:30px; font-family: monospace"">+</span>","null","fixation","","","","",""
"","1431","audio-keyboard-response","10","64275","0.0-1.0-1.7","../audio/prac-question-2-1.mp3"," ","","A","","","",""
"","1382","audio-keyboard-response","11","65957","0.0-1.0-1.8","../audio/prac-question-2-2.mp3"," ","","caneca","","","",""
"","1431","audio-keyboard-response","12","67692","0.0-1.0-1.9","../audio/prac-question-2-3.mp3"," ","","colorida","","","",""
"","1260","audio-keyboard-response","13","69245","0.0-1.0-1.10","../audio/prac-question-2-4.mp3"," ","","caiu","","","",""
"","969","audio-keyboard-response","14","70512","0.0-1.0-1.11","../audio/prac-question-2-5.mp3"," ","","da","","","",""
"","1190","audio-keyboard-response","15","71998","0.0-1.0-1.12","../audio/prac-question-2-6.mp3"," ","","mesa","","","",""
"","1001","audio-keyboard-response","16","73305","0.0-1.0-1.13","../audio/prac-question-2-7.mp3"," ","","de","","","",""
"","1422","audio-keyboard-response","17","75034","0.0-1.0-1.14","../audio/prac-question-2-8.mp3"," ","","jantar.","","","",""
"","2682","html-keyboard-response","18","77971","0.0-1.0-2.14-0.14","<span style=""font-size:25px; font-family: monospace"">A caneca era colorida?</span>","s","","","A caneca era colorida?","null","prac-sent","false"
"[{""page_index"":0,""viewing_time"":9420}]","9421","instructions","19","87896","0.0-2.0","","","","","","","",""
"","null","html-keyboard-response","20","89016","0.0-3.0-0.0-0.0","<span style= ""font-size:30px; font-family: monospace"">+</span>","null","fixation","","","","",""
"","1210","audio-keyboard-response","21","90649","0.0-3.0-1.0","../audio/49-1-masc.mp3"," ","","Eu","","","",""
"","900","audio-keyboard-response","22","91906","0.0-3.0-1.1","../audio/49-2-masc.mp3"," ","","quero","","","",""
"","842","audio-keyboard-response","23","93114","0.0-3.0-1.2","../audio/49-3-masc.mp3"," ","","um","","","",""
"","1019","audio-keyboard-response","24","94527","0.0-3.0-1.3","../audio/49-4-masc.mp3"," ","","lanche","","","",""
"","1202","audio-keyboard-response","25","96067","0.0-3.0-1.4","../audio/49-5-masc.mp3"," ","","duplo","","","",""
"","879","audio-keyboard-response","26","97542","0.0-3.0-1.5","../audio/49-6-masc.mp3"," ","","e","","","",""
"","900","audio-keyboard-response","27","98786","0.0-3.0-1.6","../audio/49-7-masc.mp3"," ","","um","","","",""
"","1440","audio-keyboard-response","28","100571","0.0-3.0-1.7","../audio/49-8-masc.mp3"," ","","suco.","","","",""
"","null","html-keyboard-response","29","101836","0.0-3.0-0.8-0.8","<span style= ""font-size:30px; font-family: monospace"">+</span>","null","fixation","","","","",""
"","1141","audio-keyboard-response","30","103395","0.0-3.0-1.8","../audio/47-1-fem.mp3"," ","","O","","","",""
"","1202","audio-keyboard-response","31","104940","0.0-3.0-1.9","../audio/47-2-fem.mp3"," ","","tio","","","",""
"","1419","audio-keyboard-response","32","106707","0.0-3.0-1.10","../audio/47-3-fem.mp3"," ","","recusou","","","",""
"","990","audio-keyboard-response","33","108052","0.0-3.0-1.11","../audio/47-4-fem.mp3"," ","","a","","","",""
"","1698","audio-keyboard-response","34","110118","0.0-3.0-1.12","../audio/47-5-fem.mp3"," ","","sobremesa","","","",""
"","911","audio-keyboard-response","35","111450","0.0-3.0-1.13","../audio/47-6-fem.mp3"," ","","no","","","",""
"","1698","audio-keyboard-response","36","113508","0.0-3.0-1.14","../audio/47-7-fem.mp3"," ","","almoço.","","","",""
"","null","html-keyboard-response","37","114781","0.0-3.0-0.15-0.15","<span style= ""font-size:30px; font-family: monospace"">+</span>","null","fixation","","","","",""
"","990","audio-keyboard-response","38","116188","0.0-3.0-1.15","../audio/48-1-fem.mp3"," ","","Ela","","","",""
"","1030","audio-keyboard-response","39","117586","0.0-3.0-1.16","../audio/48-2-fem.mp3"," ","","come","","","",""
"","1379","audio-keyboard-response","40","119331","0.0-3.0-1.17","../audio/48-3-fem.mp3"," ","","feijão","","","",""
"","879","audio-keyboard-response","41","120561","0.0-3.0-1.18","../audio/48-4-fem.mp3"," ","","com","","","",""
"","1158","audio-keyboard-response","42","122074","0.0-3.0-1.19","../audio/48-5-fem.mp3"," ","","arroz","","","",""
"","1010","audio-keyboard-response","43","123443","0.0-3.0-1.20","../audio/48-6-fem.mp3"," ","","todos","","","",""
"","830","audio-keyboard-response","44","124633","0.0-3.0-1.21","../audio/48-7-fem.mp3"," ","","os","","","",""
"","1942","audio-keyboard-response","45","126933","0.0-3.0-1.22","../audio/48-8-fem.mp3"," ","","dias.","","","",""
"","null","html-keyboard-response","46","128195","0.0-3.0-0.23-0.23","<span style= ""font-size:30px; font-family: monospace"">+</span>","null","fixation","","","","",""
"","940","audio-keyboard-response","47","129562","0.0-3.0-1.23","../audio/46-1-fem.mp3"," ","","Meu","","","",""
"","990","audio-keyboard-response","48","130899","0.0-3.0-1.24","../audio/46-2-fem.mp3"," ","","primo","","","",""
"","1120","audio-keyboard-response","49","132360","0.0-3.0-1.25","../audio/46-3-fem.mp3"," ","","estava","","","",""
"","1019","audio-keyboard-response","50","133738","0.0-3.0-1.26","../audio/46-4-fem.mp3"," ","","muito","","","",""
"","1260","audio-keyboard-response","51","135363","0.0-3.0-1.27","../audio/46-5-fem.mp3"," ","","deprimido","","","",""
"","1019","audio-keyboard-response","52","136735","0.0-3.0-1.28","../audio/46-6-fem.mp3"," ","","no","","","",""
"","1538","audio-keyboard-response","53","138929","0.0-3.0-1.29","../audio/46-7-fem.mp3"," ","","inverno.","","","",""
"","null","html-keyboard-response","54","140198","0.0-3.0-0.30-0.30","<span style= ""font-size:30px; font-family: monospace"">+</span>","null","fixation","","","","",""
"","830","audio-keyboard-response","55","141431","0.0-3.0-1.30","../audio/50-1-fem.mp3"," ","","O","","","",""
"","1181","audio-keyboard-response","56","142991","0.0-3.0-1.31","../audio/50-2-fem.mp3"," ","","pássaro","","","",""
"","1161","audio-keyboard-response","57","144515","0.0-3.0-1.32","../audio/50-3-fem.mp3"," ","","fugiu","","","",""
"","879","audio-keyboard-response","58","145746","0.0-3.0-1.33","../audio/50-4-fem.mp3"," ","","da","","","",""
"","1181","audio-keyboard-response","59","147290","0.0-3.0-1.34","../audio/50-5-fem.mp3"," ","","gaiola","","","",""
"","949","audio-keyboard-response","60","148590","0.0-3.0-1.35","../audio/50-6-fem.mp3"," ","","pela","","","",""
"","981","audio-keyboard-response","61","149934","0.0-3.0-1.36","../audio/50-7-fem.mp3"," ","","portinhola.","","","",""
"","2683","html-keyboard-response","62","152874","0.0-3.0-2.36-0.36","<span style=""font-size:25px; font-family: monospace"">O pássaro fugiu da gaiola?</span>","s","","","O pássaro fugiu da gaiola?","null","exp-sent","false"
"","null","html-keyboard-response","63","154394","0.0-3.0-0.37-0.37","<span style= ""font-size:30px; font-family: monospace"">+</span>","null","fixation","","","","",""
"","1210","audio-keyboard-response","64","155899","0.0-3.0-1.37","../audio/51-1-masc.mp3"," ","","Suco","","","",""
"","1141","audio-keyboard-response","65","157339","0.0-3.0-1.38","../audio/51-2-masc.mp3"," ","","de","","","",""
"","1382","audio-keyboard-response","66","159017","0.0-3.0-1.39","../audio/51-3-masc.mp3"," ","","acerola","","","",""
"","1010","audio-keyboard-response","67","160321","0.0-3.0-1.40","../audio/51-4-masc.mp3"," ","","é","","","",""
"","1271","audio-keyboard-response","68","161892","0.0-3.0-1.41","../audio/51-5-masc.mp3"," ","","azedo","","","",""
"","1010","audio-keyboard-response","69","163207","0.0-3.0-1.42","../audio/51-6-masc.mp3"," ","","e","","","",""
"","1112","audio-keyboard-response","70","164636","0.0-3.0-1.43","../audio/51-7-masc.mp3"," ","","até","","","",""
"","1390","audio-keyboard-response","71","166334","0.0-3.0-1.44","../audio/51-8-masc.mp3"," ","","barato.","","","",""
"","null","html-keyboard-response","72","167595","0.0-3.0-0.45-0.45","<span style= ""font-size:30px; font-family: monospace"">+</span>","null","fixation","","","","",""
"","1231","audio-keyboard-response","73","169241","0.0-3.0-1.45","../audio/52-1-fem.mp3"," ","","Às","","","",""
"","1132","audio-keyboard-response","74","170743","0.0-3.0-1.46","../audio/52-2-fem.mp3"," ","","vezes","","","",""
"","929","audio-keyboard-response","75","172027","0.0-3.0-1.47","../audio/52-3-fem.mp3"," ","","eu","","","",""
"","1120","audio-keyboard-response","76","173505","0.0-3.0-1.48","../audio/52-4-fem.mp3"," ","","tenho","","","",""
"","1338","audio-keyboard-response","77","175202","0.0-3.0-1.49","../audio/52-5-fem.mp3"," ","","azia","","","",""
"","1350","audio-keyboard-response","78","176900","0.0-3.0-1.50","../audio/52-6-fem.mp3"," ","","depois","","","",""
"","1202","audio-keyboard-response","79","178456","0.0-3.0-1.51","../audio/52-7-fem.mp3"," ","","da","","","",""
"","1390","audio-keyboard-response","80","180205","0.0-3.0-1.52","../audio/52-8-fem.mp3"," ","","janta.","","","",""
"","null","html-keyboard-response","81","181465","0.0-3.0-0.53-0.53","<span style= ""font-size:30px; font-family: monospace"">+</span>","null","fixation","","","","",""
"","879","audio-keyboard-response","82","182761","0.0-3.0-1.53","../audio/53-1-masc.mp3"," ","","O","","","",""
"","1190","audio-keyboard-response","83","184306","0.0-3.0-1.54","../audio/53-2-masc.mp3"," ","","médico","","","",""
"","1100","audio-keyboard-response","84","185765","0.0-3.0-1.55","../audio/53-3-masc.mp3"," ","","foi","","","",""
"","1321","audio-keyboard-response","85","187649","0.0-3.0-1.56","../audio/53-4-masc.mp3"," ","","bastante","","","",""
"","1451","audio-keyboard-response","86","189426","0.0-3.0-1.57","../audio/53-5-masc.mp3"," ","","preciso","","","",""
"","1248","audio-keyboard-response","87","191005","0.0-3.0-1.58","../audio/53-6-masc.mp3"," ","","durante","","","",""
"","1051","audio-keyboard-response","88","192616","0.0-3.0-1.59","../audio/53-7-masc.mp3"," ","","a","","","",""
"","1660","audio-keyboard-response","89","194640","0.0-3.0-1.60","../audio/53-8-masc.mp3"," ","","cirurgia.","","","",""
"","null","html-keyboard-response","90","195901","0.0-3.0-0.61-0.61","<span style= ""font-size:30px; font-family: monospace"">+</span>","null","fixation","","","","",""
"","1190","audio-keyboard-response","91","197518","0.0-3.0-1.61","../audio/54-1-fem.mp3"," ","","Estou","","","",""
"","903","audio-keyboard-response","92","198763","0.0-3.0-1.62","../audio/54-2-fem.mp3"," ","","com","","","",""
"","1231","audio-keyboard-response","93","200336","0.0-3.0-1.63","../audio/54-3-fem.mp3"," ","","medo","","","",""
"","1181","audio-keyboard-response","94","201866","0.0-3.0-1.64","../audio/54-4-fem.mp3"," ","","da","","","",""
"","1390","audio-keyboard-response","95","203622","0.0-3.0-1.65","../audio/54-5-fem.mp3"," ","","atual","","","",""
"","1750","audio-keyboard-response","96","205727","0.0-3.0-1.66","../audio/54-6-fem.mp3"," ","","organização","","","",""
"","1181","audio-keyboard-response","97","207365","0.0-3.0-1.67","../audio/54-7-fem.mp3"," ","","do","","","",""
"","1309","audio-keyboard-response","98","209027","0.0-3.0-1.68","../audio/54-8-fem.mp3"," ","","país.","","","",""
"","null","html-keyboard-response","99","210287","0.0-3.0-0.69-0.69","<span style= ""font-size:30px; font-family: monospace"">+</span>","null","fixation","","","","",""
"","981","audio-keyboard-response","100","211685","0.0-3.0-1.69","../audio/55-1-masc.mp3"," ","","O","","","",""
"","1271","audio-keyboard-response","101","213320","0.0-3.0-1.70","../audio/55-2-masc.mp3"," ","","insulto","","","",""
"","1271","audio-keyboard-response","102","214962","0.0-3.0-1.71","../audio/55-3-masc.mp3"," ","","recente","","","",""
"","1190","audio-keyboard-response","103","216511","0.0-3.0-1.72","../audio/55-4-masc.mp3"," ","","causou","","","",""
"","1559","audio-keyboard-response","104","218428","0.0-3.0-1.73","../audio/55-5-masc.mp3"," ","","indignação","","","",""
"","978","audio-keyboard-response","105","219751","0.0-3.0-1.74","../audio/55-6-masc.mp3"," ","","em","","","",""
"","1100","audio-keyboard-response","106","221206","0.0-3.0-1.75","../audio/55-7-masc.mp3"," ","","todos.","","","",""
"","4476","html-keyboard-response","107","225940","0.0-3.0-2.75-0.75","<span style=""font-size:25px; font-family: monospace"">O insulto causou calmaria?</span>","n","","","O insulto causou calmaria?","null","exp-sent","false"
"","null","html-keyboard-response","108","227457","0.0-3.0-0.76-0.76","<span style= ""font-size:30px; font-family: monospace"">+</span>","null","fixation","","","","",""
"","1289","audio-keyboard-response","109","229164","0.0-3.0-1.76","../audio/16-1-masc.mp3"," ","","Eu","","","",""
"","1501","audio-keyboard-response","110","231005","0.0-3.0-1.77","../audio/16-2-masc.mp3"," ","","nunca","","","",""
"","1428","audio-keyboard-response","111","232825","0.0-3.0-1.78","../audio/16-3-masc.mp3"," ","","conheci","","","",""
"","1263","audio-keyboard-response","112","234417","0.0-3.0-1.79","../audio/16-4-masc.mp3"," ","","um","","","",""
"","1440","audio-keyboard-response","113","236300","0.0-3.0-1.80","../audio/16-5-masc.mp3"," ","","general","","","",""
"","1239","audio-keyboard-response","114","237891","0.0-3.0-1.81","../audio/16-6-masc.mp3"," ","","do","","","",""
"","1312","audio-keyboard-response","115","239592","0.0-3.0-1.82","../audio/16-7-masc.mp3"," ","","exército.","","","",""
"","null","html-keyboard-response","116","240856","0.0-3.0-0.83-0.83","<span style= ""font-size:30px; font-family: monospace"">+</span>","null","fixation","","","","",""
"","1059","audio-keyboard-response","117","242211","0.0-3.0-1.83","../audio/19-1-masc.mp3"," ","","O","","","",""
"","1300","audio-keyboard-response","118","243818","0.0-3.0-1.84","../audio/19-2-masc.mp3"," ","","menino","","","",""
"","1251","audio-keyboard-response","119","245371","0.0-3.0-1.85","../audio/19-3-masc.mp3"," ","","ganhou","","","",""
"","1100","audio-keyboard-response","120","246775","0.0-3.0-1.86","../audio/19-4-masc.mp3"," ","","uma","","","",""
"","1431","audio-keyboard-response","121","248514","0.0-3.0-1.87","../audio/19-5-masc.mp3"," ","","bala","","","",""
"","1411","audio-keyboard-response","122","250243","0.0-3.0-1.88","../audio/19-6-masc.mp3"," ","","depois","","","",""
"","1312","audio-keyboard-response","123","251853","0.0-3.0-1.89","../audio/19-7-masc.mp3"," ","","do","","","",""
"","1788","audio-keyboard-response","124","253946","0.0-3.0-1.90","../audio/19-8-masc.mp3"," ","","almoço.","","","",""
"","null","html-keyboard-response","125","255213","0.0-3.0-0.91-0.91","<span style= ""font-size:30px; font-family: monospace"">+</span>","null","fixation","","","","",""
"","1080","audio-keyboard-response","126","256594","0.0-3.0-1.91","../audio/17-1-fem.mp3"," ","","Falaram","","","",""
"","1091","audio-keyboard-response","127","257981","0.0-3.0-1.92","../audio/17-2-fem.mp3"," ","","da","","","",""
"","1100","audio-keyboard-response","128","259385","0.0-3.0-1.93","../audio/17-3-fem.mp3"," ","","lei","","","",""
"","1010","audio-keyboard-response","129","260699","0.0-3.0-1.94","../audio/17-4-fem.mp3"," ","","no","","","",""
"","1701","audio-keyboard-response","130","262717","0.0-3.0-1.95","../audio/17-5-fem.mp3"," ","","ministério","","","",""
"","1440","audio-keyboard-response","131","264456","0.0-3.0-1.96","../audio/17-6-fem.mp3"," ","","diversas","","","",""
"","1358","audio-keyboard-response","132","266122","0.0-3.0-1.97","../audio/17-7-fem.mp3"," ","","vezes.","","","",""
"","null","html-keyboard-response","133","267390","0.0-3.0-0.98-0.98","<span style= ""font-size:30px; font-family: monospace"">+</span>","null","fixation","","","","",""
"","920","audio-keyboard-response","134","268736","0.0-3.0-1.98","../audio/18-1-fem.mp3"," ","","O","","","",""
"","1231","audio-keyboard-response","135","270320","0.0-3.0-1.99","../audio/18-2-fem.mp3"," ","","enredo","","","",""
"","1120","audio-keyboard-response","136","271790","0.0-3.0-1.100","../audio/18-3-fem.mp3"," ","","traz","","","",""
"","940","audio-keyboard-response","137","273078","0.0-3.0-1.101","../audio/18-4-fem.mp3"," ","","um","","","",""
"","1181","audio-keyboard-response","138","274624","0.0-3.0-1.102","../audio/18-5-fem.mp3"," ","","dragão","","","",""
"","1210","audio-keyboard-response","139","276192","0.0-3.0-1.103","../audio/18-6-fem.mp3"," ","","forte","","","",""
"","830","audio-keyboard-response","140","277368","0.0-3.0-1.104","../audio/18-7-fem.mp3"," ","","e","","","",""
"","1628","audio-keyboard-response","141","279353","0.0-3.0-1.105","../audio/18-8-fem.mp3"," ","","solitário.","","","",""
"","null","html-keyboard-response","142","280616","0.0-3.0-0.106-0.106","<span style= ""font-size:30px; font-family: monospace"">+</span>","null","fixation","","","","",""
"","1059","audio-keyboard-response","143","281967","0.0-3.0-1.106","../audio/20-1-fem.mp3"," ","","O","","","",""
"","1312","audio-keyboard-response","144","283579","0.0-3.0-1.107","../audio/20-2-fem.mp3"," ","","colega","","","",""
"","1509","audio-keyboard-response","145","285386","0.0-3.0-1.108","../audio/20-3-fem.mp3"," ","","parecia","","","",""
"","1321","audio-keyboard-response","146","287024","0.0-3.0-1.109","../audio/20-4-fem.mp3"," ","","muito","","","",""
"","1530","audio-keyboard-response","147","288856","0.0-3.0-1.110","../audio/20-5-fem.mp3"," ","","gripado","","","",""
"","1379","audio-keyboard-response","148","290534","0.0-3.0-1.111","../audio/20-6-fem.mp3"," ","","no","","","",""
"","1039","audio-keyboard-response","149","291862","0.0-3.0-1.112","../audio/20-7-fem.mp3"," ","","dia","","","",""
"","1681","audio-keyboard-response","150","293854","0.0-3.0-1.113","../audio/20-8-fem.mp3"," ","","anterior.","","","",""
"","4060","html-keyboard-response","151","298174","0.0-3.0-2.113-0.113","<span style=""font-size:25px; font-family: monospace"">O colega parecia muito gripado?</span>","s","","","O colega parecia muito gripado?","null","exp-sent","false"
"","null","html-keyboard-response","152","299694","0.0-3.0-0.114-0.114","<span style= ""font-size:30px; font-family: monospace"">+</span>","null","fixation","","","","",""
"","1132","audio-keyboard-response","153","301124","0.0-3.0-1.114","../audio/73-1-fem.mp3"," ","","O","","","",""
"","1489","audio-keyboard-response","154","302917","0.0-3.0-1.115","../audio/73-2-fem.mp3"," ","","cliente","","","",""
"","1109","audio-keyboard-response","155","304318","0.0-3.0-1.116","../audio/73-3-fem.mp3"," ","","era","","","",""
"","1228","audio-keyboard-response","156","305853","0.0-3.0-1.117","../audio/73-4-fem.mp3"," ","","um","","","",""
"","1268","audio-keyboard-response","157","307418","0.0-3.0-1.118","../audio/73-5-fem.mp3"," ","","homem","","","",""
"","1361","audio-keyboard-response","158","309073","0.0-3.0-1.119","../audio/73-6-fem.mp3"," ","","muito","","","",""
"","1660","audio-keyboard-response","159","311039","0.0-3.0-1.120","../audio/73-7-fem.mp3"," ","","educado.","","","",""
"","null","html-keyboard-response","160","312299","0.0-3.0-0.121-0.121","<span style= ""font-size:30px; font-family: monospace"">+</span>","null","fixation","","","","",""
"","969","audio-keyboard-response","161","313713","0.0-3.0-1.121","../audio/72-1-masc.mp3"," ","","A","","","",""
"","1210","audio-keyboard-response","162","315291","0.0-3.0-1.122","../audio/72-2-masc.mp3"," ","","vencedora","","","",""
"","1129","audio-keyboard-response","163","316782","0.0-3.0-1.123","../audio/72-3-masc.mp3"," ","","recebeu","","","",""
"","908","audio-keyboard-response","164","318044","0.0-3.0-1.124","../audio/72-4-masc.mp3"," ","","um","","","",""
"","929","audio-keyboard-response","165","319336","0.0-3.0-1.125","../audio/72-5-masc.mp3"," ","","prêmio","","","",""
"","961","audio-keyboard-response","166","320636","0.0-3.0-1.126","../audio/72-6-masc.mp3"," ","","em","","","",""
"","1530","audio-keyboard-response","167","322524","0.0-3.0-1.127","../audio/72-7-masc.mp3"," ","","dinheiro.","","","",""
"","null","html-keyboard-response","168","323794","0.0-3.0-0.128-0.128","<span style= ""font-size:30px; font-family: monospace"">+</span>","null","fixation","","","","",""
"","1382","audio-keyboard-response","169","325478","0.0-3.0-1.128","../audio/71-1-masc.mp3"," ","","Minhas","","","",""
"","1100","audio-keyboard-response","170","326882","0.0-3.0-1.129","../audio/71-2-masc.mp3"," ","","comidas","","","",""
"","1219","audio-keyboard-response","171","328407","0.0-3.0-1.130","../audio/71-3-masc.mp3"," ","","favoritas","","","",""
"","969","audio-keyboard-response","172","329670","0.0-3.0-1.131","../audio/71-4-masc.mp3"," ","","são","","","",""
"","1199","audio-keyboard-response","173","331184","0.0-3.0-1.132","../audio/71-5-masc.mp3"," ","","morango","","","",""
"","1001","audio-keyboard-response","174","332496","0.0-3.0-1.133","../audio/71-6-masc.mp3"," ","","e","","","",""
"","990","audio-keyboard-response","175","333793","0.0-3.0-1.134","../audio/71-7-masc.mp3"," ","","uva.","","","",""
"","null","html-keyboard-response","176","335054","0.0-3.0-0.135-0.135","<span style= ""font-size:30px; font-family: monospace"">+</span>","null","fixation","","","","",""
"","1129","audio-keyboard-response","177","336634","0.0-3.0-1.135","../audio/74-1-masc.mp3"," ","","Este","","","",""
"","1570","audio-keyboard-response","178","338555","0.0-3.0-1.136","../audio/74-2-masc.mp3"," ","","emprego","","","",""
"","920","audio-keyboard-response","179","339823","0.0-3.0-1.137","../audio/74-3-masc.mp3"," ","","é","","","",""
"","1088","audio-keyboard-response","180","341280","0.0-3.0-1.138","../audio/74-4-masc.mp3"," ","","muito","","","",""
"","1509","audio-keyboard-response","181","343148","0.0-3.0-1.139","../audio/74-5-masc.mp3"," ","","cansativo","","","",""
"","940","audio-keyboard-response","182","344442","0.0-3.0-1.140","../audio/74-6-masc.mp3"," ","","a","","","",""
"","1100","audio-keyboard-response","183","345888","0.0-3.0-1.141","../audio/74-7-masc.mp3"," ","","longo","","","",""
"","1631","audio-keyboard-response","184","347867","0.0-3.0-1.142","../audio/74-8-masc.mp3"," ","","prazo.","","","",""
"","null","html-keyboard-response","185","349127","0.0-3.0-0.143-0.143","<span style= ""font-size:30px; font-family: monospace"">+</span>","null","fixation","","","","",""
"","2908","audio-keyboard-response","186","352441","0.0-3.0-1.143","../audio/75-1-masc.mp3"," ","","Só","","","",""
"","1239","audio-keyboard-response","187","354110","0.0-3.0-1.144","../audio/75-2-masc.mp3"," ","","existe","","","",""
"","1501","audio-keyboard-response","188","355973","0.0-3.0-1.145","../audio/75-3-masc.mp3"," ","","uma","","","",""
"","1840","audio-keyboard-response","189","358183","0.0-3.0-1.146","../audio/75-4-masc.mp3"," ","","pessoa","","","",""
"","2531","audio-keyboard-response","190","361127","0.0-3.0-1.147","../audio/75-5-masc.mp3"," ","","canhota","","","",""
"","2130","audio-keyboard-response","191","363687","0.0-3.0-1.148","../audio/75-6-masc.mp3"," ","","nesta","","","",""
"","1942","audio-keyboard-response","192","366057","0.0-3.0-1.149","../audio/75-7-masc.mp3"," ","","cidade.","","","",""
"","3780","html-keyboard-response","193","370097","0.0-3.0-2.149-0.149","<span style=""font-size:25px; font-family: monospace"">Só existe uma pessoa canhota na cidade?</span>","s","","","Só existe uma pessoa canhota na cidade?","null","exp-sent","false"
"","null","html-keyboard-response","194","371614","0.0-3.0-0.150-0.150","<span style= ""font-size:30px; font-family: monospace"">+</span>","null","fixation","","","","",""
"","3080","audio-keyboard-response","195","375136","0.0-3.0-1.150","../audio/63-1-fem.mp3"," ","","A","","","",""
"","1739","audio-keyboard-response","196","377303","0.0-3.0-1.151","../audio/63-2-fem.mp3"," ","","chuva","","","",""
"","1341","audio-keyboard-response","197","379094","0.0-3.0-1.152","../audio/63-3-fem.mp3"," ","","entrou","","","",""
"","1051","audio-keyboard-response","198","380485","0.0-3.0-1.153","../audio/63-4-fem.mp3"," ","","pela","","","",""
"","1710","audio-keyboard-response","199","382542","0.0-3.0-1.154","../audio/63-5-fem.mp3"," ","","abertura","","","",""
"","1181","audio-keyboard-response","200","384136","0.0-3.0-1.155","../audio/63-6-fem.mp3"," ","","na","","","",""
"","1602","audio-keyboard-response","201","386096","0.0-3.0-1.156","../audio/63-7-fem.mp3"," ","","janela.","","","",""
"","null","html-keyboard-response","202","387357","0.0-3.0-0.157-0.157","<span style= ""font-size:30px; font-family: monospace"">+</span>","null","fixation","","","","",""
"","3910","audio-keyboard-response","203","391557","0.0-3.0-1.157","../audio/64-1-masc.mp3"," ","","O","","","",""
"","1138","audio-keyboard-response","204","393004","0.0-3.0-1.158","../audio/64-2-masc.mp3"," ","","dia","","","",""
"","1309","audio-keyboard-response","205","394618","0.0-3.0-1.159","../audio/64-3-masc.mp3"," ","","começou","","","",""
"","1091","audio-keyboard-response","206","396005","0.0-3.0-1.160","../audio/64-4-masc.mp3"," ","","com","","","",""
"","1289","audio-keyboard-response","207","397598","0.0-3.0-1.161","../audio/64-5-masc.mp3"," ","","garoa","","","",""
"","1390","audio-keyboard-response","208","399288","0.0-3.0-1.162","../audio/64-6-masc.mp3"," ","","gelada","","","",""
"","952","audio-keyboard-response","209","400534","0.0-3.0-1.163","../audio/64-7-masc.mp3"," ","","e","","","",""
"","1730","audio-keyboard-response","210","402569","0.0-3.0-1.164","../audio/64-8-masc.mp3"," ","","leve.","","","",""
"","null","html-keyboard-response","211","403844","0.0-3.0-0.165-0.165","<span style= ""font-size:30px; font-family: monospace"">+</span>","null","fixation","","","","",""
"","1178","audio-keyboard-response","212","405333","0.0-3.0-1.165","../audio/61-1-masc.mp3"," ","","Aquele","","","",""
"","1280","audio-keyboard-response","213","406925","0.0-3.0-1.166","../audio/61-2-masc.mp3"," ","","senhor","","","",""
"","1178","audio-keyboard-response","214","408403","0.0-3.0-1.167","../audio/61-3-masc.mp3"," ","","é","","","",""
"","1521","audio-keyboard-response","215","410229","0.0-3.0-1.168","../audio/61-4-masc.mp3"," ","","muito","","","",""
"","1550","audio-keyboard-response","216","412080","0.0-3.0-1.169","../audio/61-5-masc.mp3"," ","","sovina","","","",""
"","1219","audio-keyboard-response","217","413589","0.0-3.0-1.170","../audio/61-6-masc.mp3"," ","","e","","","",""
"","1689","audio-keyboard-response","218","415580","0.0-3.0-1.171","../audio/61-7-masc.mp3"," ","","inflexível.","","","",""
"","null","html-keyboard-response","219","416846","0.0-3.0-0.172-0.172","<span style= ""font-size:30px; font-family: monospace"">+</span>","null","fixation","","","","",""
"","1231","audio-keyboard-response","220","418416","0.0-3.0-1.172","../audio/62-1-fem.mp3"," ","","As","","","",""
"","1469","audio-keyboard-response","221","420244","0.0-3.0-1.173","../audio/62-2-fem.mp3"," ","","artesãs","","","",""
"","1271","audio-keyboard-response","222","421868","0.0-3.0-1.174","../audio/62-3-fem.mp3"," ","","gostam","","","",""
"","1161","audio-keyboard-response","223","423378","0.0-3.0-1.175","../audio/62-4-fem.mp3"," ","","de","","","",""
"","1300","audio-keyboard-response","224","425030","0.0-3.0-1.176","../audio/62-5-fem.mp3"," ","","maquiagem","","","",""
"","1071","audio-keyboard-response","225","426446","0.0-3.0-1.177","../audio/62-6-fem.mp3"," ","","e","","","",""
"","1260","audio-keyboard-response","226","428052","0.0-3.0-1.178","../audio/62-7-fem.mp3"," ","","de","","","",""
"","1289","audio-keyboard-response","227","429714","0.0-3.0-1.179","../audio/62-8-fem.mp3"," ","","crochê.","","","",""
"","null","html-keyboard-response","228","430979","0.0-3.0-0.180-0.180","<span style= ""font-size:30px; font-family: monospace"">+</span>","null","fixation","","","","",""
"","1080","audio-keyboard-response","229","432327","0.0-3.0-1.180","../audio/65-1-masc.mp3"," ","","O","","","",""
"","1280","audio-keyboard-response","230","433887","0.0-3.0-1.181","../audio/65-2-masc.mp3"," ","","fantasma","","","",""
"","1048","audio-keyboard-response","231","435219","0.0-3.0-1.182","../audio/65-3-masc.mp3"," ","","veio","","","",""
"","961","audio-keyboard-response","232","436464","0.0-3.0-1.183","../audio/65-4-masc.mp3"," ","","da","","","",""
"","1550","audio-keyboard-response","233","438293","0.0-3.0-1.184","../audio/65-5-masc.mp3"," ","","escuridão","","","",""
"","1019","audio-keyboard-response","234","439593","0.0-3.0-1.185","../audio/65-6-masc.mp3"," ","","do","","","",""
"","1570","audio-keyboard-response","235","441450","0.0-3.0-1.186","../audio/65-7-masc.mp3"," ","","armário.","","","",""
"","3374","html-keyboard-response","236","445074","0.0-3.0-2.186-0.186","<span style=""font-size:25px; font-family: monospace"">O fantasma veio da escuridão do armário?</span>","s","","","O fantasma veio da escuridão do armário?","null","exp-sent","false"
"","null","html-keyboard-response","237","446597","0.0-3.0-0.187-0.187","<span style= ""font-size:30px; font-family: monospace"">+</span>","null","fixation","","","","",""
"","189","audio-keyboard-response","238","447181","0.0-3.0-1.187","../audio/68-1-fem.mp3"," ","","Meu","","","",""
"","1202","audio-keyboard-response","239","448696","0.0-3.0-1.188","../audio/68-2-fem.mp3"," ","","irmão","","","",""
"","949","audio-keyboard-response","240","449974","0.0-3.0-1.189","../audio/68-3-fem.mp3"," ","","teve","","","",""
"","940","audio-keyboard-response","241","451239","0.0-3.0-1.190","../audio/68-4-fem.mp3"," ","","um","","","",""
"","1591","audio-keyboard-response","242","453156","0.0-3.0-1.191","../audio/68-5-fem.mp3"," ","","noivado","","","",""
"","1199","audio-keyboard-response","243","454690","0.0-3.0-1.192","../audio/68-6-fem.mp3"," ","","longo","","","",""
"","900","audio-keyboard-response","244","455908","0.0-3.0-1.193","../audio/68-7-fem.mp3"," ","","e","","","",""
"","1820","audio-keyboard-response","245","458069","0.0-3.0-1.194","../audio/68-8-fem.mp3"," ","","maravilhoso.","","","",""
"","null","html-keyboard-response","246","459341","0.0-3.0-0.195-0.195","<span style= ""font-size:30px; font-family: monospace"">+</span>","null","fixation","","","","",""
"","1019","audio-keyboard-response","247","460751","0.0-3.0-1.195","../audio/66-1-fem.mp3"," ","","Não","","","",""
"","1289","audio-keyboard-response","248","462373","0.0-3.0-1.196","../audio/66-2-fem.mp3"," ","","gosto","","","",""
"","879","audio-keyboard-response","249","463587","0.0-3.0-1.197","../audio/66-3-fem.mp3"," ","","de","","","",""
"","1222","audio-keyboard-response","250","465159","0.0-3.0-1.198","../audio/66-4-fem.mp3"," ","","gente","","","",""
"","1492","audio-keyboard-response","251","467006","0.0-3.0-1.199","../audio/66-5-fem.mp3"," ","","egoísta","","","",""
"","1202","audio-keyboard-response","252","468549","0.0-3.0-1.200","../audio/66-6-fem.mp3"," ","","nem","","","",""
"","1469","audio-keyboard-response","253","470362","0.0-3.0-1.201","../audio/66-7-fem.mp3"," ","","chata.","","","",""
"","null","html-keyboard-response","254","471618","0.0-3.0-0.202-0.202","<span style= ""font-size:30px; font-family: monospace"">+</span>","null","fixation","","","","",""
"","1399","audio-keyboard-response","255","473406","0.0-3.0-1.202","../audio/67-1-fem.mp3"," ","","Minha","","","",""
"","990","audio-keyboard-response","256","474733","0.0-3.0-1.203","../audio/67-2-fem.mp3"," ","","tia","","","",""
"","1289","audio-keyboard-response","257","476381","0.0-3.0-1.204","../audio/67-3-fem.mp3"," ","","comprou","","","",""
"","920","audio-keyboard-response","258","477627","0.0-3.0-1.205","../audio/67-4-fem.mp3"," ","","um","","","",""
"","1239","audio-keyboard-response","259","479199","0.0-3.0-1.206","../audio/67-5-fem.mp3"," ","","cordão","","","",""
"","1088","audio-keyboard-response","260","480601","0.0-3.0-1.207","../audio/67-6-fem.mp3"," ","","para","","","",""
"","850","audio-keyboard-response","261","481800","0.0-3.0-1.208","../audio/67-7-fem.mp3"," ","","o","","","",""
"","1141","audio-keyboard-response","262","483291","0.0-3.0-1.209","../audio/67-8-fem.mp3"," ","","varal.","","","",""
"","null","html-keyboard-response","263","484550","0.0-3.0-0.210-0.210","<span style= ""font-size:30px; font-family: monospace"">+</span>","null","fixation","","","","",""
"","769","audio-keyboard-response","264","485737","0.0-3.0-1.210","../audio/69-1-fem.mp3"," ","","A","","","",""
"","1059","audio-keyboard-response","265","487144","0.0-3.0-1.211","../audio/69-2-fem.mp3"," ","","loja","","","",""
"","1080","audio-keyboard-response","266","488616","0.0-3.0-1.212","../audio/69-3-fem.mp3"," ","","recebeu","","","",""
"","969","audio-keyboard-response","267","489945","0.0-3.0-1.213","../audio/69-4-fem.mp3"," ","","uma","","","",""
"","1239","audio-keyboard-response","268","491548","0.0-3.0-1.214","../audio/69-5-fem.mp3"," ","","poltrona","","","",""
"","981","audio-keyboard-response","269","492876","0.0-3.0-1.215","../audio/69-6-fem.mp3"," ","","de","","","",""
"","1022","audio-keyboard-response","270","494260","0.0-3.0-1.216","../audio/69-7-fem.mp3"," ","","couro","","","",""
"","1088","audio-keyboard-response","271","495686","0.0-3.0-1.217","../audio/69-8-fem.mp3"," ","","preto.","","","",""
"","null","html-keyboard-response","272","496949","0.0-3.0-0.218-0.218","<span style= ""font-size:30px; font-family: monospace"">+</span>","null","fixation","","","","",""
"","810","audio-keyboard-response","273","498047","0.0-3.0-1.218","../audio/70-1-fem.mp3"," ","","O","","","",""
"","990","audio-keyboard-response","274","499344","0.0-3.0-1.219","../audio/70-2-fem.mp3"," ","","meu","","","",""
"","1158","audio-keyboard-response","275","500811","0.0-3.0-1.220","../audio/70-3-fem.mp3"," ","","filho","","","",""
"","1260","audio-keyboard-response","276","502374","0.0-3.0-1.221","../audio/70-4-fem.mp3"," ","","tem","","","",""
"","1921","audio-keyboard-response","277","504599","0.0-3.0-1.222","../audio/70-5-fem.mp3"," ","","medo","","","",""
"","1480","audio-keyboard-response","278","506367","0.0-3.0-1.223","../audio/70-6-fem.mp3"," ","","de","","","",""
"","1678","audio-keyboard-response","279","508357","0.0-3.0-1.224","../audio/70-7-fem.mp3"," ","","enguia","","","",""
"","1460","audio-keyboard-response","280","510112","0.0-3.0-1.225","../audio/70-8-fem.mp3"," ","","e","","","",""
"","2572","audio-keyboard-response","281","512993","0.0-3.0-1.226","../audio/70-9-fem.mp3"," ","","beija-flor.","","","",""
"","3298","html-keyboard-response","282","516545","0.0-3.0-2.226-0.226","<span style=""font-size:25px; font-family: monospace"">O filho tem medo de tigre?</span>","s","","","O filho tem medo de tigre?","null","exp-sent","false"
"","null","html-keyboard-response","283","518059","0.0-3.0-0.227-0.227","<span style= ""font-size:30px; font-family: monospace"">+</span>","null","fixation","","","","",""
"","1010","audio-keyboard-response","284","519493","0.0-3.0-1.227","../audio/27-1-fem.mp3"," ","","O","","","",""
"","1509","audio-keyboard-response","285","521357","0.0-3.0-1.228","../audio/27-2-fem.mp3"," ","","dinheiro","","","",""
"","1300","audio-keyboard-response","286","523002","0.0-3.0-1.229","../audio/27-3-fem.mp3"," ","","chegou","","","",""
"","1312","audio-keyboard-response","287","524668","0.0-3.0-1.230","../audio/27-4-fem.mp3"," ","","à","","","",""
"","1869","audio-keyboard-response","288","526923","0.0-3.0-1.231","../audio/27-5-fem.mp3"," ","","elite","","","",""
"","1239","audio-keyboard-response","289","528592","0.0-3.0-1.232","../audio/27-6-fem.mp3"," ","","deste","","","",""
"","1332","audio-keyboard-response","290","530285","0.0-3.0-1.233","../audio/27-7-fem.mp3"," ","","país.","","","",""
"","null","html-keyboard-response","291","531550","0.0-3.0-0.234-0.234","<span style= ""font-size:30px; font-family: monospace"">+</span>","null","fixation","","","","",""
"","1443","audio-keyboard-response","292","533295","0.0-3.0-1.234","../audio/26-1-fem.mp3"," ","","Amanhã","","","",""
"","1332","audio-keyboard-response","293","534929","0.0-3.0-1.235","../audio/26-2-fem.mp3"," ","","temos","","","",""
"","1080","audio-keyboard-response","294","536301","0.0-3.0-1.236","../audio/26-3-fem.mp3"," ","","festa","","","",""
"","1068","audio-keyboard-response","295","537663","0.0-3.0-1.237","../audio/26-4-fem.mp3"," ","","na","","","",""
"","1271","audio-keyboard-response","296","539248","0.0-3.0-1.238","../audio/26-5-fem.mp3"," ","","piscina","","","",""
"","969","audio-keyboard-response","297","540528","0.0-3.0-1.239","../audio/26-6-fem.mp3"," ","","o","","","",""
"","1132","audio-keyboard-response","298","541962","0.0-3.0-1.240","../audio/26-7-fem.mp3"," ","","dia","","","",""
"","1088","audio-keyboard-response","299","543337","0.0-3.0-1.241","../audio/26-8-fem.mp3"," ","","todo.","","","",""
"","null","html-keyboard-response","300","544607","0.0-3.0-0.242-0.242","<span style= ""font-size:30px; font-family: monospace"">+</span>","null","fixation","","","","",""
"","1010","audio-keyboard-response","301","546043","0.0-3.0-1.242","../audio/28-1-masc.mp3"," ","","O","","","",""
"","1019","audio-keyboard-response","302","547416","0.0-3.0-1.243","../audio/28-2-masc.mp3"," ","","time","","","",""
"","1141","audio-keyboard-response","303","548896","0.0-3.0-1.244","../audio/28-3-masc.mp3"," ","","quer","","","",""
"","1051","audio-keyboard-response","304","550300","0.0-3.0-1.245","../audio/28-4-masc.mp3"," ","","a","","","",""
"","1280","audio-keyboard-response","305","551930","0.0-3.0-1.246","../audio/28-5-masc.mp3"," ","","vitória","","","",""
"","1129","audio-keyboard-response","306","553401","0.0-3.0-1.247","../audio/28-6-masc.mp3"," ","","no","","","",""
"","1088","audio-keyboard-response","307","554845","0.0-3.0-1.248","../audio/28-7-masc.mp3"," ","","jogo","","","",""
"","1562","audio-keyboard-response","308","556766","0.0-3.0-1.249","../audio/28-8-masc.mp3"," ","","de","","","",""
"","1411","audio-keyboard-response","309","558519","0.0-3.0-1.250","../audio/28-9-masc.mp3"," ","","vôlei.","","","",""
"","null","html-keyboard-response","310","559794","0.0-3.0-0.251-0.251","<span style= ""font-size:30px; font-family: monospace"">+</span>","null","fixation","","","","",""
"","1120","audio-keyboard-response","311","561343","0.0-3.0-1.251","../audio/29-1-masc.mp3"," ","","Hoje","","","",""
"","1120","audio-keyboard-response","312","562818","0.0-3.0-1.252","../audio/29-2-masc.mp3"," ","","vamos","","","",""
"","1190","audio-keyboard-response","313","564361","0.0-3.0-1.253","../audio/29-3-masc.mp3"," ","","fazer","","","",""
"","1100","audio-keyboard-response","314","565806","0.0-3.0-1.254","../audio/29-4-masc.mp3"," ","","uma","","","",""
"","1599","audio-keyboard-response","315","567771","0.0-3.0-1.255","../audio/29-5-masc.mp3"," ","","atividade","","","",""
"","1297","audio-keyboard-response","316","569422","0.0-3.0-1.256","../audio/29-6-masc.mp3"," ","","sobre","","","",""
"","1289","audio-keyboard-response","317","571075","0.0-3.0-1.257","../audio/29-7-masc.mp3"," ","","fauna","","","",""
"","1190","audio-keyboard-response","318","573120","0.0-3.0-1.258","../audio/29-8-masc.mp3"," ","","marinha.","","","",""
"","null","html-keyboard-response","319","574384","0.0-3.0-0.259-0.259","<span style= ""font-size:30px; font-family: monospace"">+</span>","null","fixation","","","","",""
"","1022","audio-keyboard-response","320","575689","0.0-3.0-1.259","../audio/30-1-fem.mp3"," ","","O","","","",""
"","1509","audio-keyboard-response","321","577509","0.0-3.0-1.260","../audio/30-2-fem.mp3"," ","","funcionário","","","",""
"","1588","audio-keyboard-response","322","579410","0.0-3.0-1.261","../audio/30-3-fem.mp3"," ","","entregou","","","",""
"","1088","audio-keyboard-response","323","580801","0.0-3.0-1.262","../audio/30-4-fem.mp3"," ","","o","","","",""
"","1652","audio-keyboard-response","324","582762","0.0-3.0-1.263","../audio/30-5-fem.mp3"," ","","restante","","","",""
"","1100","audio-keyboard-response","325","584165","0.0-3.0-1.264","../audio/30-6-fem.mp3"," ","","do","","","",""
"","1550","audio-keyboard-response","326","586010","0.0-3.0-1.265","../audio/30-7-fem.mp3"," ","","dinheiro.","","","",""
"","5985","html-keyboard-response","327","592248","0.0-3.0-2.265-0.265","<span style=""font-size:25px; font-family: monospace"">O funcionário entregou o contrato?</span>","n","","","O funcionário entregou o contrato?","null","exp-sent","false"
"","null","html-keyboard-response","328","593768","0.0-3.0-0.266-0.266","<span style= ""font-size:30px; font-family: monospace"">+</span>","null","fixation","","","","",""
"","1509","audio-keyboard-response","329","595693","0.0-3.0-1.266","../audio/31-1-masc.mp3"," ","","O","","","",""
"","1591","audio-keyboard-response","330","597639","0.0-3.0-1.267","../audio/31-2-masc.mp3"," ","","padeiro","","","",""
"","1329","audio-keyboard-response","331","599534","0.0-3.0-1.268","../audio/31-3-masc.mp3"," ","","usou","","","",""
"","990","audio-keyboard-response","332","600888","0.0-3.0-1.269","../audio/31-4-masc.mp3"," ","","a","","","",""
"","1422","audio-keyboard-response","333","602657","0.0-3.0-1.270","../audio/31-5-masc.mp3"," ","","balança","","","",""
"","969","audio-keyboard-response","334","604007","0.0-3.0-1.271","../audio/31-6-masc.mp3"," ","","o","","","",""
"","1120","audio-keyboard-response","335","605469","0.0-3.0-1.272","../audio/31-7-masc.mp3"," ","","dia","","","",""
"","1489","audio-keyboard-response","336","607316","0.0-3.0-1.273","../audio/31-8-masc.mp3"," ","","inteiro.","","","",""
"","null","html-keyboard-response","337","608575","0.0-3.0-0.274-0.274","<span style= ""font-size:30px; font-family: monospace"">+</span>","null","fixation","","","","",""
"","908","audio-keyboard-response","338","609791","0.0-3.0-1.274","../audio/33-1-fem.mp3"," ","","Eles","","","",""
"","1248","audio-keyboard-response","339","611343","0.0-3.0-1.275","../audio/33-2-fem.mp3"," ","","sabem","","","",""
"","1030","audio-keyboard-response","340","612683","0.0-3.0-1.276","../audio/33-3-fem.mp3"," ","","do","","","",""
"","1138","audio-keyboard-response","341","614134","0.0-3.0-1.277","../audio/33-4-fem.mp3"," ","","seu","","","",""
"","1579","audio-keyboard-response","342","616034","0.0-3.0-1.278","../audio/33-5-fem.mp3"," ","","privilégio","","","",""
"","1231","audio-keyboard-response","343","617569","0.0-3.0-1.279","../audio/33-6-fem.mp3"," ","","nessa","","","",""
"","1480","audio-keyboard-response","344","619357","0.0-3.0-1.280","../audio/33-7-fem.mp3"," ","","confusão.","","","",""
"","null","html-keyboard-response","345","620627","0.0-3.0-0.281-0.281","<span style= ""font-size:30px; font-family: monospace"">+</span>","null","fixation","","","","",""
"","1228","audio-keyboard-response","346","622280","0.0-3.0-1.281","../audio/34-1-masc.mp3"," ","","Cobrança","","","",""
"","1611","audio-keyboard-response","347","624258","0.0-3.0-1.282","../audio/34-2-masc.mp3"," ","","excessiva","","","",""
"","1280","audio-keyboard-response","348","625876","0.0-3.0-1.283","../audio/34-3-masc.mp3"," ","","é","","","",""
"","1091","audio-keyboard-response","349","627321","0.0-3.0-1.284","../audio/34-4-masc.mp3"," ","","um","","","",""
"","1570","audio-keyboard-response","350","629240","0.0-3.0-1.285","../audio/34-5-masc.mp3"," ","","fardo","","","",""
"","1161","audio-keyboard-response","351","630744","0.0-3.0-1.286","../audio/34-6-masc.mp3"," ","","para","","","",""
"","1080","audio-keyboard-response","352","632183","0.0-3.0-1.287","../audio/34-7-masc.mp3"," ","","a","","","",""
"","1611","audio-keyboard-response","353","634137","0.0-3.0-1.288","../audio/34-8-masc.mp3"," ","","cabeça.","","","",""
"","null","html-keyboard-response","354","635402","0.0-3.0-0.289-0.289","<span style= ""font-size:30px; font-family: monospace"">+</span>","null","fixation","","","","",""
"","961","audio-keyboard-response","355","636659","0.0-3.0-1.289","../audio/32-1-fem.mp3"," ","","A","","","",""
"","1910","audio-keyboard-response","356","638871","0.0-3.0-1.290","../audio/32-2-fem.mp3"," ","","tia","","","",""
"","1620","audio-keyboard-response","357","640788","0.0-3.0-1.291","../audio/32-3-fem.mp3"," ","","comprou","","","",""
"","1440","audio-keyboard-response","358","642529","0.0-3.0-1.292","../audio/32-4-fem.mp3"," ","","um","","","",""
"","1451","audio-keyboard-response","359","644267","0.0-3.0-1.293","../audio/32-5-fem.mp3"," ","","pilão","","","",""
"","1968","audio-keyboard-response","360","646534","0.0-3.0-1.294","../audio/32-6-fem.mp3"," ","","para","","","",""
"","1338","audio-keyboard-response","361","648174","0.0-3.0-1.295","../audio/32-7-fem.mp3"," ","","a","","","",""
"","1472","audio-keyboard-response","362","649949","0.0-3.0-1.296","../audio/32-8-fem.mp3"," ","","cozinha.","","","",""
"","null","html-keyboard-response","363","651215","0.0-3.0-0.297-0.297","<span style= ""font-size:30px; font-family: monospace"">+</span>","null","fixation","","","","",""
"","740","audio-keyboard-response","364","652301","0.0-3.0-1.297","../audio/35-1-masc.mp3"," ","","A","","","",""
"","1260","audio-keyboard-response","365","653910","0.0-3.0-1.298","../audio/35-2-masc.mp3"," ","","receita","","","",""
"","969","audio-keyboard-response","366","655215","0.0-3.0-1.299","../audio/35-3-masc.mp3"," ","","para","","","",""
"","998","audio-keyboard-response","367","656567","0.0-3.0-1.300","../audio/35-4-masc.mp3"," ","","a","","","",""
"","1451","audio-keyboard-response","368","658370","0.0-3.0-1.301","../audio/35-5-masc.mp3"," ","","preparação","","","",""
"","1080","audio-keyboard-response","369","659799","0.0-3.0-1.302","../audio/35-6-masc.mp3"," ","","do","","","",""
"","1129","audio-keyboard-response","370","661276","0.0-3.0-1.303","../audio/35-7-masc.mp3"," ","","bolo","","","",""
"","868","audio-keyboard-response","371","662771","0.0-3.0-1.304","../audio/35-8-masc.mp3"," ","","é","","","",""
"","1309","audio-keyboard-response","372","664429","0.0-3.0-1.305","../audio/35-9-masc.mp3"," ","","leve.","","","",""
"","4020","html-keyboard-response","373","668704","0.0-3.0-2.305-0.305","<span style=""font-size:25px; font-family: monospace"">A receita do bolo é pesada?</span>","n","","","A receita do bolo é pesada?","null","exp-sent","false"
"","null","html-keyboard-response","374","670228","0.0-3.0-0.306-0.306","<span style= ""font-size:30px; font-family: monospace"">+</span>","null","fixation","","","","",""
"","2728","audio-keyboard-response","375","673255","0.0-3.0-1.306","../audio/02-2-masc.mp3"," ","","Havia","","","",""
"","1100","audio-keyboard-response","376","674608","0.0-3.0-1.307","../audio/02-2-masc.mp3"," ","","um","","","",""
"","1080","audio-keyboard-response","377","675986","0.0-3.0-1.308","../audio/02-3-masc.mp3"," ","","cheiro","","","",""
"","929","audio-keyboard-response","378","677216","0.0-3.0-1.309","../audio/02-4-masc.mp3"," ","","de","","","",""
"","1068","audio-keyboard-response","379","678600","0.0-3.0-1.310","../audio/02-5-masc.mp3"," ","","gasolina","","","",""
"","1022","audio-keyboard-response","380","679909","0.0-3.0-1.311","../audio/02-6-masc.mp3"," ","","na","","","",""
"","1239","audio-keyboard-response","381","681426","0.0-3.0-1.312","../audio/02-7-masc.mp3"," ","","garagem.","","","",""
"","null","html-keyboard-response","382","682694","0.0-3.0-0.313-0.313","<span style= ""font-size:30px; font-family: monospace"">+</span>","null","fixation","","","","",""
"","839","audio-keyboard-response","383","683829","0.0-3.0-1.313","../audio/01-1-masc.mp3"," ","","O","","","",""
"","990","audio-keyboard-response","384","685123","0.0-3.0-1.314","../audio/01-2-masc.mp3"," ","","menino","","","",""
"","1149","audio-keyboard-response","385","686567","0.0-3.0-1.315","../audio/01-3-masc.mp3"," ","","derrubou","","","",""
"","1080","audio-keyboard-response","386","687944","0.0-3.0-1.316","../audio/01-4-masc.mp3"," ","","a","","","",""
"","1980","audio-keyboard-response","387","690234","0.0-3.0-1.317","../audio/01-5-masc.mp3"," ","","guitarra","","","",""
"","1248","audio-keyboard-response","388","691782","0.0-3.0-1.318","../audio/01-6-masc.mp3"," ","","no","","","",""
"","1280","audio-keyboard-response","389","693368","0.0-3.0-1.319","../audio/01-7-masc.mp3"," ","","chão.","","","",""
"","null","html-keyboard-response","390","694629","0.0-3.0-0.320-0.320","<span style= ""font-size:30px; font-family: monospace"">+</span>","null","fixation","","","","",""
"","952","audio-keyboard-response","391","695917","0.0-3.0-1.320","../audio/03-1-masc.mp3"," ","","O","","","",""
"","1210","audio-keyboard-response","392","697488","0.0-3.0-1.321","../audio/03-2-masc.mp3"," ","","coelho","","","",""
"","952","audio-keyboard-response","393","698774","0.0-3.0-1.322","../audio/03-3-masc.mp3"," ","","foi","","","",""
"","1129","audio-keyboard-response","394","700271","0.0-3.0-1.323","../audio/03-4-masc.mp3"," ","","bastante","","","",""
"","1443","audio-keyboard-response","395","702068","0.0-3.0-1.324","../audio/03-5-masc.mp3"," ","","dócil","","","",""
"","911","audio-keyboard-response","396","703333","0.0-3.0-1.325","../audio/03-6-masc.mp3"," ","","com","","","",""
"","1001","audio-keyboard-response","397","704677","0.0-3.0-1.326","../audio/03-7-masc.mp3"," ","","as","","","",""
"","819","audio-keyboard-response","398","705865","0.0-3.0-1.327","../audio/03-8-masc.mp3"," ","","crianças.","","","",""
"","null","html-keyboard-response","399","707134","0.0-3.0-0.328-0.328","<span style= ""font-size:30px; font-family: monospace"">+</span>","null","fixation","","","","",""
"","1300","audio-keyboard-response","400","708742","0.0-3.0-1.328","../audio/04-1-masc.mp3"," ","","Duzentos","","","",""
"","1088","audio-keyboard-response","401","710126","0.0-3.0-1.329","../audio/04-2-masc.mp3"," ","","carros","","","",""
"","1100","audio-keyboard-response","402","711541","0.0-3.0-1.330","../audio/04-3-masc.mp3"," ","","passaram","","","",""
"","1010","audio-keyboard-response","403","712854","0.0-3.0-1.331","../audio/04-4-masc.mp3"," ","","pela","","","",""
"","1100","audio-keyboard-response","404","714262","0.0-3.0-1.332","../audio/04-5-masc.mp3"," ","","ponte","","","",""
"","1091","audio-keyboard-response","405","715664","0.0-3.0-1.333","../audio/04-6-masc.mp3"," ","","hoje","","","",""
"","961","audio-keyboard-response","406","716916","0.0-3.0-1.334","../audio/04-7-masc.mp3"," ","","de","","","",""
"","1030","audio-keyboard-response","407","718240","0.0-3.0-1.335","../audio/04-8-masc.mp3"," ","","tarde.","","","",""
"","null","html-keyboard-response","408","719511","0.0-3.0-0.336-0.336","<span style= ""font-size:30px; font-family: monospace"">+</span>","null","fixation","","","","",""
"","830","audio-keyboard-response","409","720758","0.0-3.0-1.336","../audio/05-1-fem.mp3"," ","","A","","","",""
"","1251","audio-keyboard-response","410","722370","0.0-3.0-1.337","../audio/05-2-fem.mp3"," ","","vendedora","","","",""
"","1149","audio-keyboard-response","411","723867","0.0-3.0-1.338","../audio/05-3-fem.mp3"," ","","ajudou","","","",""
"","932","audio-keyboard-response","412","725137","0.0-3.0-1.339","../audio/05-4-fem.mp3"," ","","um","","","",""
"","1141","audio-keyboard-response","413","726637","0.0-3.0-1.340","../audio/05-5-fem.mp3"," ","","turista","","","",""
"","952","audio-keyboard-response","414","727942","0.0-3.0-1.341","../audio/05-6-fem.mp3"," ","","na","","","",""
"","1431","audio-keyboard-response","415","729725","0.0-3.0-1.342","../audio/05-7-fem.mp3"," ","","loja.","","","",""
"","3132","html-keyboard-response","416","733115","0.0-3.0-2.342-0.342","<span style=""font-size:25px; font-family: monospace"">A vendedora ajudou um turista?</span>","s","","","A vendedora ajudou um turista?","null","exp-sent","false"
"","null","html-keyboard-response","417","734637","0.0-3.0-0.343-0.343","<span style= ""font-size:30px; font-family: monospace"">+</span>","null","fixation","","","","",""
"","12","audio-keyboard-response","418","734954","0.0-3.0-1.343","../audio/06-1-masc.mp3"," ","","Ouvimos","","","",""
"","1210","audio-keyboard-response","419","736457","0.0-3.0-1.344","../audio/06-2-masc.mp3"," ","","a","","","",""
"","1051","audio-keyboard-response","420","737809","0.0-3.0-1.345","../audio/06-3-masc.mp3"," ","","fala","","","",""
"","1091","audio-keyboard-response","421","739195","0.0-3.0-1.346","../audio/06-4-masc.mp3"," ","","do","","","",""
"","1152","audio-keyboard-response","422","740647","0.0-3.0-1.347","../audio/06-5-masc.mp3"," ","","profeta","","","",""
"","981","audio-keyboard-response","423","741936","0.0-3.0-1.348","../audio/06-6-masc.mp3"," ","","no","","","",""
"","1332","audio-keyboard-response","424","743566","0.0-3.0-1.349","../audio/06-7-masc.mp3"," ","","púlpito","","","",""
"","1112","audio-keyboard-response","425","744958","0.0-3.0-1.350","../audio/06-8-masc.mp3"," ","","da","","","",""
"","1161","audio-keyboard-response","426","746421","0.0-3.0-1.351","../audio/06-9-masc.mp3"," ","","igreja.","","","",""
"","null","html-keyboard-response","427","747696","0.0-3.0-0.352-0.352","<span style= ""font-size:30px; font-family: monospace"">+</span>","null","fixation","","","","",""
"","981","audio-keyboard-response","428","748971","0.0-3.0-1.352","../audio/07-1-fem.mp3"," ","","Meu","","","",""
"","1010","audio-keyboard-response","429","750275","0.0-3.0-1.353","../audio/07-2-fem.mp3"," ","","filho","","","",""
"","911","audio-keyboard-response","430","751483","0.0-3.0-1.354","../audio/07-3-fem.mp3"," ","","é","","","",""
"","1059","audio-keyboard-response","431","752841","0.0-3.0-1.355","../audio/07-4-fem.mp3"," ","","muito","","","",""
"","1689","audio-keyboard-response","432","754835","0.0-3.0-1.356","../audio/07-5-fem.mp3"," ","","responsável","","","",""
"","998","audio-keyboard-response","433","756145","0.0-3.0-1.357","../audio/07-6-fem.mp3"," ","","nos","","","",""
"","1239","audio-keyboard-response","434","757693","0.0-3.0-1.358","../audio/07-7-fem.mp3"," ","","estudos.","","","",""
"","null","html-keyboard-response","435","758964","0.0-3.0-0.359-0.359","<span style= ""font-size:30px; font-family: monospace"">+</span>","null","fixation","","","","",""
"","740","audio-keyboard-response","436","759993","0.0-3.0-1.359","../audio/08-1-fem.mp3"," ","","A","","","",""
"","1260","audio-keyboard-response","437","761553","0.0-3.0-1.360","../audio/08-2-fem.mp3"," ","","receita","","","",""
"","1010","audio-keyboard-response","438","762846","0.0-3.0-1.361","../audio/08-3-fem.mp3"," ","","pede","","","",""
"","850","audio-keyboard-response","439","763986","0.0-3.0-1.362","../audio/08-4-fem.mp3"," ","","um","","","",""
"","952","audio-keyboard-response","440","765239","0.0-3.0-1.363","../audio/08-5-fem.mp3"," ","","litro","","","",""
"","879","audio-keyboard-response","441","766406","0.0-3.0-1.364","../audio/08-6-fem.mp3"," ","","de","","","",""
"","1129","audio-keyboard-response","442","767837","0.0-3.0-1.365","../audio/08-7-fem.mp3"," ","","leite","","","",""
"","1698","audio-keyboard-response","443","769842","0.0-3.0-1.366","../audio/08-8-fem.mp3"," ","","integral.","","","",""
"","null","html-keyboard-response","444","771115","0.0-3.0-0.367-0.367","<span style= ""font-size:30px; font-family: monospace"">+</span>","null","fixation","","","","",""
"","940","audio-keyboard-response","445","772347","0.0-3.0-1.367","../audio/09-1-fem.mp3"," ","","O","","","",""
"","1190","audio-keyboard-response","446","773821","0.0-3.0-1.368","../audio/09-2-fem.mp3"," ","","rapaz","","","",""
"","1338","audio-keyboard-response","447","775451","0.0-3.0-1.369","../audio/09-3-fem.mp3"," ","","limpou","","","",""
"","1001","audio-keyboard-response","448","776742","0.0-3.0-1.370","../audio/09-4-fem.mp3"," ","","o","","","",""
"","1260","audio-keyboard-response","449","778301","0.0-3.0-1.371","../audio/09-5-fem.mp3"," ","","terreno","","","",""
"","1080","audio-keyboard-response","450","779667","0.0-3.0-1.372","../audio/09-6-fem.mp3"," ","","com","","","",""
"","1210","audio-keyboard-response","451","781175","0.0-3.0-1.373","../audio/09-7-fem.mp3"," ","","uma","","","",""
"","1132","audio-keyboard-response","452","782604","0.0-3.0-1.374","../audio/09-8-fem.mp3"," ","","pá.","","","",""
"","null","html-keyboard-response","453","783875","0.0-3.0-0.375-0.375","<span style= ""font-size:30px; font-family: monospace"">+</span>","null","fixation","","","","",""
"","691","audio-keyboard-response","454","784978","0.0-3.0-1.375","../audio/10-1-fem.mp3"," ","","O","","","",""
"","1219","audio-keyboard-response","455","786559","0.0-3.0-1.376","../audio/10-2-fem.mp3"," ","","pássaro","","","",""
"","949","audio-keyboard-response","456","787857","0.0-3.0-1.377","../audio/10-3-fem.mp3"," ","","azul","","","",""
"","1361","audio-keyboard-response","457","789560","0.0-3.0-1.378","../audio/10-4-fem.mp3"," ","","estava","","","",""
"","1170","audio-keyboard-response","458","791060","0.0-3.0-1.379","../audio/10-5-fem.mp3"," ","","vivo","","","",""
"","949","audio-keyboard-response","459","792365","0.0-3.0-1.380","../audio/10-6-fem.mp3"," ","","e","","","",""
"","929","audio-keyboard-response","460","793636","0.0-3.0-1.381","../audio/10-7-fem.mp3"," ","","em","","","",""
"","1199","audio-keyboard-response","461","795425","0.0-3.0-1.382","../audio/10-8-fem.mp3"," ","","segurança.","","","",""
"","3652","html-keyboard-response","462","799341","0.0-3.0-2.382-0.382","<span style=""font-size:25px; font-family: monospace"">O pássaro vermelho estava em segurança?</span>","s","","","O pássaro vermelho estava em segurança?","null","exp-sent","false"
"","null","html-keyboard-response","463","800866","0.0-3.0-0.383-0.383","<span style= ""font-size:30px; font-family: monospace"">+</span>","null","fixation","","","","",""
"","171","audio-keyboard-response","464","801326","0.0-3.0-1.383","../audio/42-1-masc.mp3"," ","","Eu","","","",""
"","879","audio-keyboard-response","465","802515","0.0-3.0-1.384","../audio/42-2-masc.mp3"," ","","fui","","","",""
"","891","audio-keyboard-response","466","803711","0.0-3.0-1.385","../audio/42-3-masc.mp3"," ","","a","","","",""
"","900","audio-keyboard-response","467","804913","0.0-3.0-1.386","../audio/42-4-masc.mp3"," ","","uma","","","",""
"","888","audio-keyboard-response","468","806104","0.0-3.0-1.387","../audio/42-5-masc.mp3"," ","","loja","","","",""
"","801","audio-keyboard-response","469","807206","0.0-3.0-1.388","../audio/42-6-masc.mp3"," ","","de","","","",""
"","1010","audio-keyboard-response","470","808530","0.0-3.0-1.389","../audio/42-7-masc.mp3"," ","","móveis","","","",""
"","949","audio-keyboard-response","471","809775","0.0-3.0-1.390","../audio/42-8-masc.mp3"," ","","no","","","",""
"","1501","audio-keyboard-response","472","811582","0.0-3.0-1.391","../audio/42-9-masc.mp3"," ","","bairro.","","","",""
"","null","html-keyboard-response","473","812859","0.0-3.0-0.392-0.392","<span style= ""font-size:30px; font-family: monospace"">+</span>","null","fixation","","","","",""
"","450","audio-keyboard-response","474","813595","0.0-3.0-1.392","../audio/44-1-masc.mp3"," ","","Meus","","","",""
"","940","audio-keyboard-response","475","814834","0.0-3.0-1.393","../audio/44-2-masc.mp3"," ","","irmãos","","","",""
"","1010","audio-keyboard-response","476","816157","0.0-3.0-1.394","../audio/44-3-masc.mp3"," ","","brigam","","","",""
"","911","audio-keyboard-response","477","817357","0.0-3.0-1.395","../audio/44-4-masc.mp3"," ","","por","","","",""
"","1051","audio-keyboard-response","478","818698","0.0-3.0-1.396","../audio/44-5-masc.mp3"," ","","bobagem","","","",""
"","1019","audio-keyboard-response","479","820016","0.0-3.0-1.397","../audio/44-6-masc.mp3"," ","","todos","","","",""
"","1010","audio-keyboard-response","480","821317","0.0-3.0-1.398","../audio/44-7-masc.mp3"," ","","os","","","",""
"","1248","audio-keyboard-response","481","822863","0.0-3.0-1.399","../audio/44-8-masc.mp3"," ","","dias.","","","",""
"","null","html-keyboard-response","482","824135","0.0-3.0-0.400-0.400","<span style= ""font-size:30px; font-family: monospace"">+</span>","null","fixation","","","","",""
"","871","audio-keyboard-response","483","825436","0.0-3.0-1.400","../audio/41-1-fem.mp3"," ","","A","","","",""
"","1173","audio-keyboard-response","484","826971","0.0-3.0-1.401","../audio/41-2-fem.mp3"," ","","novela","","","",""
"","1059","audio-keyboard-response","485","828380","0.0-3.0-1.402","../audio/41-3-fem.mp3"," ","","falava","","","",""
"","819","audio-keyboard-response","486","829546","0.0-3.0-1.403","../audio/41-4-fem.mp3"," ","","de","","","",""
"","1231","audio-keyboard-response","487","831133","0.0-3.0-1.404","../audio/41-5-fem.mp3"," ","","paixão","","","",""
"","879","audio-keyboard-response","488","832349","0.0-3.0-1.405","../audio/41-6-fem.mp3"," ","","e","","","",""
"","1350","audio-keyboard-response","489","834046","0.0-3.0-1.406","../audio/41-7-fem.mp3"," ","","comédia.","","","",""
"","null","html-keyboard-response","490","835315","0.0-3.0-0.407-0.407","<span style= ""font-size:30px; font-family: monospace"">+</span>","null","fixation","","","","",""
"","682","audio-keyboard-response","491","836290","0.0-3.0-1.407","../audio/43-1-fem.mp3"," ","","Eu","","","",""
"","1112","audio-keyboard-response","492","837709","0.0-3.0-1.408","../audio/43-2-fem.mp3"," ","","achei","","","",""
"","969","audio-keyboard-response","493","838975","0.0-3.0-1.409","../audio/43-3-fem.mp3"," ","","um","","","",""
"","1390","audio-keyboard-response","494","840670","0.0-3.0-1.410","../audio/43-4-fem.mp3"," ","","colchão","","","",""
"","1141","audio-keyboard-response","495","842108","0.0-3.0-1.411","../audio/43-5-fem.mp3"," ","","velho","","","",""
"","929","audio-keyboard-response","496","843345","0.0-3.0-1.412","../audio/43-6-fem.mp3"," ","","e","","","",""
"","1280","audio-keyboard-response","497","844929","0.0-3.0-1.413","../audio/43-7-fem.mp3"," ","","imundo","","","",""
"","1100","audio-keyboard-response","498","846315","0.0-3.0-1.414","../audio/43-8-fem.mp3"," ","","na","","","",""
"","1199","audio-keyboard-response","499","847835","0.0-3.0-1.415","../audio/43-9-fem.mp3"," ","","casa.","","","",""
"","null","html-keyboard-response","500","849112","0.0-3.0-0.416-0.416","<span style= ""font-size:30px; font-family: monospace"">+</span>","null","fixation","","","","",""
"","781","audio-keyboard-response","501","850242","0.0-3.0-1.416","../audio/45-1-masc.mp3"," ","","O","","","",""
"","940","audio-keyboard-response","502","851542","0.0-3.0-1.417","../audio/45-2-masc.mp3"," ","","homem","","","",""
"","1010","audio-keyboard-response","503","852906","0.0-3.0-1.418","../audio/45-3-masc.mp3"," ","","pagou","","","",""
"","842","audio-keyboard-response","504","854097","0.0-3.0-1.419","../audio/45-4-masc.mp3"," ","","o","","","",""
"","1048","audio-keyboard-response","505","855511","0.0-3.0-1.420","../audio/45-5-masc.mp3"," ","","aluguel","","","",""
"","859","audio-keyboard-response","506","856723","0.0-3.0-1.421","../audio/45-6-masc.mp3"," ","","com","","","",""
"","1051","audio-keyboard-response","507","858137","0.0-3.0-1.422","../audio/45-7-masc.mp3"," ","","atraso.","","","",""
"","3817","html-keyboard-response","508","862215","0.0-3.0-2.422-0.422","<span style=""font-size:25px; font-family: monospace"">O homem pagou o aluguel em dia?</span>","n","","","O homem pagou o aluguel em dia?","null","exp-sent","false"
"","null","html-keyboard-response","509","863726","0.0-3.0-0.423-0.423","<span style= ""font-size:30px; font-family: monospace"">+</span>","null","fixation","","","","",""
"","1451","audio-keyboard-response","510","865489","0.0-3.0-1.423","../audio/21-1-masc.mp3"," ","","Precisamos","","","",""
"","1120","audio-keyboard-response","511","866906","0.0-3.0-1.424","../audio/21-2-masc.mp3"," ","","de","","","",""
"","1501","audio-keyboard-response","512","868725","0.0-3.0-1.425","../audio/21-3-masc.mp3"," ","","paciência","","","",""
"","1530","audio-keyboard-response","513","870547","0.0-3.0-1.426","../audio/21-4-masc.mp3"," ","","e","","","",""
"","1387","audio-keyboard-response","514","872246","0.0-3.0-1.427","../audio/21-5-masc.mp3"," ","","bondade","","","",""
"","1080","audio-keyboard-response","515","873629","0.0-3.0-1.428","../audio/21-6-masc.mp3"," ","","para","","","",""
"","1071","audio-keyboard-response","516","874995","0.0-3.0-1.429","../audio/21-7-masc.mp3"," ","","um","","","",""
"","1210","audio-keyboard-response","517","876507","0.0-3.0-1.430","../audio/21-8-masc.mp3"," ","","mundo","","","",""
"","1149","audio-keyboard-response","518","877957","0.0-3.0-1.431","../audio/21-9-masc.mp3"," ","","melhor.","","","",""
"","null","html-keyboard-response","519","879223","0.0-3.0-0.432-0.432","<span style= ""font-size:30px; font-family: monospace"">+</span>","null","fixation","","","","",""
"","1001","audio-keyboard-response","520","880535","0.0-3.0-1.432","../audio/23-1-masc.mp3"," ","","Português","","","",""
"","769","audio-keyboard-response","521","881597","0.0-3.0-1.433","../audio/23-2-masc.mp3"," ","","é","","","",""
"","850","audio-keyboard-response","522","882744","0.0-3.0-1.434","../audio/23-3-masc.mp3"," ","","um","","","",""
"","1030","audio-keyboard-response","523","884076","0.0-3.0-1.435","../audio/23-4-masc.mp3"," ","","assunto","","","",""
"","1480","audio-keyboard-response","524","885871","0.0-3.0-1.436","../audio/23-5-masc.mp3"," ","","elementar","","","",""
"","952","audio-keyboard-response","525","887113","0.0-3.0-1.437","../audio/23-6-masc.mp3"," ","","para","","","",""
"","1001","audio-keyboard-response","526","888413","0.0-3.0-1.438","../audio/23-7-masc.mp3"," ","","os","","","",""
"","1152","audio-keyboard-response","527","889868","0.0-3.0-1.439","../audio/23-8-masc.mp3"," ","","alunos.","","","",""
"","null","html-keyboard-response","528","891140","0.0-3.0-0.440-0.440","<span style= ""font-size:30px; font-family: monospace"">+</span>","null","fixation","","","","",""
"","830","audio-keyboard-response","529","892260","0.0-3.0-1.440","../audio/22-1-masc.mp3"," ","","Eu","","","",""
"","1042","audio-keyboard-response","530","893605","0.0-3.0-1.441","../audio/22-2-masc.mp3"," ","","detesto","","","",""
"","1091","audio-keyboard-response","531","894988","0.0-3.0-1.442","../audio/22-3-masc.mp3"," ","","fumaça","","","",""
"","842","audio-keyboard-response","532","896116","0.0-3.0-1.443","../audio/22-4-masc.mp3"," ","","de","","","",""
"","1001","audio-keyboard-response","533","897418","0.0-3.0-1.444","../audio/22-5-masc.mp3"," ","","cachimbo","","","",""
"","778","audio-keyboard-response","534","898494","0.0-3.0-1.445","../audio/22-6-masc.mp3"," ","","e","","","",""
"","940","audio-keyboard-response","535","899721","0.0-3.0-1.446","../audio/22-7-masc.mp3"," ","","de","","","",""
"","1190","audio-keyboard-response","536","901215","0.0-3.0-1.447","../audio/22-8-masc.mp3"," ","","cigarro.","","","",""
"","null","html-keyboard-response","537","902493","0.0-3.0-0.448-0.448","<span style= ""font-size:30px; font-family: monospace"">+</span>","null","fixation","","","","",""
"","711","audio-keyboard-response","538","903555","0.0-3.0-1.448","../audio/24-1-masc.mp3"," ","","As","","","",""
"","1010","audio-keyboard-response","539","904923","0.0-3.0-1.449","../audio/24-2-masc.mp3"," ","","crianças","","","",""
"","940","audio-keyboard-response","540","906217","0.0-3.0-1.450","../audio/24-3-masc.mp3"," ","","vão","","","",""
"","911","audio-keyboard-response","541","907482","0.0-3.0-1.451","../audio/24-4-masc.mp3"," ","","ao","","","",""
"","1210","audio-keyboard-response","542","909062","0.0-3.0-1.452","../audio/24-5-masc.mp3"," ","","cinema","","","",""
"","920","audio-keyboard-response","543","910327","0.0-3.0-1.453","../audio/24-6-masc.mp3"," ","","mais","","","",""
"","1039","audio-keyboard-response","544","911713","0.0-3.0-1.454","../audio/24-7-masc.mp3"," ","","tarde.","","","",""
"","null","html-keyboard-response","545","912985","0.0-3.0-0.455-0.455","<span style= ""font-size:30px; font-family: monospace"">+</span>","null","fixation","","","","",""
"","772","audio-keyboard-response","546","914057","0.0-3.0-1.455","../audio/25-1-masc.mp3"," ","","Ela","","","",""
"","920","audio-keyboard-response","547","915268","0.0-3.0-1.456","../audio/25-2-masc.mp3"," ","","faz","","","",""
"","888","audio-keyboard-response","548","916453","0.0-3.0-1.457","../audio/25-3-masc.mp3"," ","","tanto","","","",""
"","1222","audio-keyboard-response","549","917994","0.0-3.0-1.458","../audio/25-4-masc.mp3"," ","","cabelo","","","",""
"","819","audio-keyboard-response","550","919123","0.0-3.0-1.459","../audio/25-5-masc.mp3"," ","","liso","","","",""
"","842","audio-keyboard-response","551","920265","0.0-3.0-1.460","../audio/25-6-masc.mp3"," ","","quanto","","","",""
"","1059","audio-keyboard-response","552","921627","0.0-3.0-1.461","../audio/25-7-masc.mp3"," ","","cacheado.","","","",""
"","4733","html-keyboard-response","553","926624","0.0-3.0-2.461-0.461","<span style=""font-size:25px; font-family: monospace"">Ela só faz cabelo cacheado?</span>","n","","","Ela só faz cabelo cacheado?","null","exp-sent","false"
"","null","html-keyboard-response","554","928145","0.0-3.0-0.462-0.462","<span style= ""font-size:30px; font-family: monospace"">+</span>","null","fixation","","","","",""
"","1260","audio-keyboard-response","555","929701","0.0-3.0-1.462","../audio/12-1-masc.mp3"," ","","O","","","",""
"","1120","audio-keyboard-response","556","931109","0.0-3.0-1.463","../audio/12-2-masc.mp3"," ","","dia","","","",""
"","1370","audio-keyboard-response","557","932776","0.0-3.0-1.464","../audio/12-3-masc.mp3"," ","","estava","","","",""
"","1112","audio-keyboard-response","558","934176","0.0-3.0-1.465","../audio/12-4-masc.mp3"," ","","quente,","","","",""
"","1071","audio-keyboard-response","559","935546","0.0-3.0-1.466","../audio/12-5-masc.mp3"," ","","tranquilo","","","",""
"","969","audio-keyboard-response","560","936818","0.0-3.0-1.467","../audio/12-6-masc.mp3"," ","","e","","","",""
"","1559","audio-keyboard-response","561","938679","0.0-3.0-1.468","../audio/12-7-masc.mp3"," ","","ensolarado.","","","",""
"","null","html-keyboard-response","562","939956","0.0-3.0-0.469-0.469","<span style= ""font-size:30px; font-family: monospace"">+</span>","null","fixation","","","","",""
"","781","audio-keyboard-response","563","941158","0.0-3.0-1.469","../audio/11-1-masc.mp3"," ","","Elas","","","",""
"","949","audio-keyboard-response","564","942465","0.0-3.0-1.470","../audio/11-2-masc.mp3"," ","","gostam","","","",""
"","932","audio-keyboard-response","565","943753","0.0-3.0-1.471","../audio/11-3-masc.mp3"," ","","muito","","","",""
"","819","audio-keyboard-response","566","944948","0.0-3.0-1.472","../audio/11-4-masc.mp3"," ","","de","","","",""
"","1120","audio-keyboard-response","567","946422","0.0-3.0-1.473","../audio/11-5-masc.mp3"," ","","aritmética","","","",""
"","839","audio-keyboard-response","568","947623","0.0-3.0-1.474","../audio/11-6-masc.mp3"," ","","e","","","",""
"","969","audio-keyboard-response","569","948951","0.0-3.0-1.475","../audio/11-7-masc.mp3"," ","","de","","","",""
"","1390","audio-keyboard-response","570","950712","0.0-3.0-1.476","../audio/11-8-masc.mp3"," ","","leitura.","","","",""
"","null","html-keyboard-response","571","951975","0.0-3.0-0.477-0.477","<span style= ""font-size:30px; font-family: monospace"">+</span>","null","fixation","","","","",""
"","720","audio-keyboard-response","572","953114","0.0-3.0-1.477","../audio/14-1-fem.mp3"," ","","O","","","",""
"","1149","audio-keyboard-response","573","954637","0.0-3.0-1.478","../audio/14-2-fem.mp3"," ","","cachorro","","","",""
"","850","audio-keyboard-response","574","955828","0.0-3.0-1.479","../audio/14-3-fem.mp3"," ","","é","","","",""
"","961","audio-keyboard-response","575","957149","0.0-3.0-1.480","../audio/14-4-fem.mp3"," ","","muito","","","",""
"","1010","audio-keyboard-response","576","958512","0.0-3.0-1.481","../audio/14-5-fem.mp3"," ","","fiel","","","",""
"","859","audio-keyboard-response","577","959718","0.0-3.0-1.482","../audio/14-6-fem.mp3"," ","","a","","","",""
"","1068","audio-keyboard-response","578","961234","0.0-3.0-1.483","../audio/14-7-fem.mp3"," ","","seus","","","",""
"","1051","audio-keyboard-response","579","962663","0.0-3.0-1.484","../audio/14-8-fem.mp3"," ","","donos.","","","",""
"","null","html-keyboard-response","580","963927","0.0-3.0-0.485-0.485","<span style= ""font-size:30px; font-family: monospace"">+</span>","null","fixation","","","","",""
"","830","audio-keyboard-response","581","965047","0.0-3.0-1.485","../audio/13-1-masc.mp3"," ","","Para","","","",""
"","920","audio-keyboard-response","582","966260","0.0-3.0-1.486","../audio/13-2-masc.mp3"," ","","mim","","","",""
"","920","audio-keyboard-response","583","967493","0.0-3.0-1.487","../audio/13-3-masc.mp3"," ","","é","","","",""
"","1042","audio-keyboard-response","584","968834","0.0-3.0-1.488","../audio/13-4-masc.mp3"," ","","muito","","","",""
"","1170","audio-keyboard-response","585","970309","0.0-3.0-1.489","../audio/13-5-masc.mp3"," ","","difícil","","","",""
"","1460","audio-keyboard-response","586","972070","0.0-3.0-1.490","../audio/13-6-masc.mp3"," ","","acordar","","","",""
"","1242","audio-keyboard-response","587","973612","0.0-3.0-1.491","../audio/13-7-masc.mp3"," ","","cedo.","","","",""
"","null","html-keyboard-response","588","974885","0.0-3.0-0.492-0.492","<span style= ""font-size:30px; font-family: monospace"">+</span>","null","fixation","","","","",""
"","952","audio-keyboard-response","589","976132","0.0-3.0-1.492","../audio/15-1-fem.mp3"," ","","Meu","","","",""
"","1271","audio-keyboard-response","590","977701","0.0-3.0-1.493","../audio/15-2-fem.mp3"," ","","primo","","","",""
"","929","audio-keyboard-response","591","978931","0.0-3.0-1.494","../audio/15-3-fem.mp3"," ","","é","","","",""
"","879","audio-keyboard-response","592","980113","0.0-3.0-1.495","../audio/15-4-fem.mp3"," ","","um","","","",""
"","1010","audio-keyboard-response","593","981432","0.0-3.0-1.496","../audio/15-5-fem.mp3"," ","","grande","","","",""
"","1030","audio-keyboard-response","594","982756","0.0-3.0-1.497","../audio/15-6-fem.mp3"," ","","vendedor","","","",""
"","920","audio-keyboard-response","595","983982","0.0-3.0-1.498","../audio/15-7-fem.mp3"," ","","de","","","",""
"","990","audio-keyboard-response","596","985276","0.0-3.0-1.499","../audio/15-8-fem.mp3"," ","","carros.","","","",""
"","4971","html-keyboard-response","597","990508","0.0-3.0-2.499-0.499","<span style=""font-size:25px; font-family: monospace"">O primo é um vendedor de carros?</span>","s","","","O primo é um vendedor de carros?","null","exp-sent","false"
"","null","html-keyboard-response","598","992030","0.0-3.0-0.500-0.500","<span style= ""font-size:30px; font-family: monospace"">+</span>","null","fixation","","","","",""
"","920","audio-keyboard-response","599","993370","0.0-3.0-1.500","../audio/58-1-masc.mp3"," ","","Havia","","","",""
"","1109","audio-keyboard-response","600","994838","0.0-3.0-1.501","../audio/58-2-masc.mp3"," ","","apenas","","","",""
"","842","audio-keyboard-response","601","996053","0.0-3.0-1.502","../audio/58-3-masc.mp3"," ","","um","","","",""
"","1222","audio-keyboard-response","602","997617","0.0-3.0-1.503","../audio/58-4-masc.mp3"," ","","último","","","",""
"","1199","audio-keyboard-response","603","999177","0.0-3.0-1.504","../audio/58-5-masc.mp3"," ","","herdeiro","","","",""
"","1341","audio-keyboard-response","604","1000853","0.0-3.0-1.505","../audio/58-6-masc.mp3"," ","","do","","","",""
"","1268","audio-keyboard-response","605","1002484","0.0-3.0-1.506","../audio/58-7-masc.mp3"," ","","dinheiro.","","","",""
"","null","html-keyboard-response","606","1003749","0.0-3.0-0.507-0.507","<span style= ""font-size:30px; font-family: monospace"">+</span>","null","fixation","","","","",""
"","879","audio-keyboard-response","607","1004922","0.0-3.0-1.507","../audio/56-1-masc.mp3"," ","","A","","","",""
"","1100","audio-keyboard-response","608","1006320","0.0-3.0-1.508","../audio/56-2-masc.mp3"," ","","moça","","","",""
"","778","audio-keyboard-response","609","1007396","0.0-3.0-1.509","../audio/56-3-masc.mp3"," ","","foi","","","",""
"","789","audio-keyboard-response","610","1008494","0.0-3.0-1.510","../audio/56-4-masc.mp3"," ","","à","","","",""
"","1010","audio-keyboard-response","611","1009813","0.0-3.0-1.511","../audio/56-5-masc.mp3"," ","","agência","","","",""
"","949","audio-keyboard-response","612","1011064","0.0-3.0-1.512","../audio/56-6-masc.mp3"," ","","bancária","","","",""
"","990","audio-keyboard-response","613","1012350","0.0-3.0-1.513","../audio/56-7-masc.mp3"," ","","ontem","","","",""
"","859","audio-keyboard-response","614","1013505","0.0-3.0-1.514","../audio/56-8-masc.mp3"," ","","de","","","",""
"","1428","audio-keyboard-response","615","1015238","0.0-3.0-1.515","../audio/56-9-masc.mp3"," ","","tarde.","","","",""
"","null","html-keyboard-response","616","1016514","0.0-3.0-0.516-0.516","<span style= ""font-size:30px; font-family: monospace"">+</span>","null","fixation","","","","",""
"","911","audio-keyboard-response","617","1017724","0.0-3.0-1.516","../audio/57-1-masc.mp3"," ","","O","","","",""
"","1091","audio-keyboard-response","618","1019115","0.0-3.0-1.517","../audio/57-2-masc.mp3"," ","","capitão","","","",""
"","848","audio-keyboard-response","619","1020268","0.0-3.0-1.518","../audio/57-3-masc.mp3"," ","","deu","","","",""
"","920","audio-keyboard-response","620","1021490","0.0-3.0-1.519","../audio/57-4-masc.mp3"," ","","uma","","","",""
"","1271","audio-keyboard-response","621","1023060","0.0-3.0-1.520","../audio/57-5-masc.mp3"," ","","instrução","","","",""
"","859","audio-keyboard-response","622","1024221","0.0-3.0-1.521","../audio/57-6-masc.mp3"," ","","para","","","",""
"","781","audio-keyboard-response","623","1025294","0.0-3.0-1.522","../audio/57-7-masc.mp3"," ","","as","","","",""
"","879","audio-keyboard-response","624","1026467","0.0-3.0-1.523","../audio/57-8-masc.mp3"," ","","pessoas.","","","",""
"","null","html-keyboard-response","625","1027731","0.0-3.0-0.524-0.524","<span style= ""font-size:30px; font-family: monospace"">+</span>","null","fixation","","","","",""
"","810","audio-keyboard-response","626","1028833","0.0-3.0-1.524","../audio/59-1-masc.mp3"," ","","O","","","",""
"","1170","audio-keyboard-response","627","1030311","0.0-3.0-1.525","../audio/59-2-masc.mp3"," ","","carteiro","","","",""
"","940","audio-keyboard-response","628","1031545","0.0-3.0-1.526","../audio/59-3-masc.mp3"," ","","fez","","","",""
"","868","audio-keyboard-response","629","1032711","0.0-3.0-1.527","../audio/59-4-masc.mp3"," ","","uma","","","",""
"","1271","audio-keyboard-response","630","1034287","0.0-3.0-1.528","../audio/59-5-masc.mp3"," ","","tentativa","","","",""
"","900","audio-keyboard-response","631","1035479","0.0-3.0-1.529","../audio/59-6-masc.mp3"," ","","de","","","",""
"","929","audio-keyboard-response","632","1036715","0.0-3.0-1.530","../audio/59-7-masc.mp3"," ","","entrega.","","","",""
"","null","html-keyboard-response","633","1037988","0.0-3.0-0.531-0.531","<span style= ""font-size:30px; font-family: monospace"">+</span>","null","fixation","","","","",""
"","891","audio-keyboard-response","634","1039167","0.0-3.0-1.531","../audio/60-1-masc.mp3"," ","","Ondas","","","",""
"","900","audio-keyboard-response","635","1040366","0.0-3.0-1.532","../audio/60-2-masc.mp3"," ","","têm","","","",""
"","920","audio-keyboard-response","636","1041584","0.0-3.0-1.533","../audio/60-3-masc.mp3"," ","","um","","","",""
"","1071","audio-keyboard-response","637","1042965","0.0-3.0-1.534","../audio/60-4-masc.mp3"," ","","impacto","","","",""
"","1538","audio-keyboard-response","638","1044806","0.0-3.0-1.535","../audio/60-5-masc.mp3"," ","","destrutivo","","","",""
"","1228","audio-keyboard-response","639","1046342","0.0-3.0-1.536","../audio/60-6-masc.mp3"," ","","no","","","",""
"","1419","audio-keyboard-response","640","1048065","0.0-3.0-1.537","../audio/60-7-masc.mp3"," ","","litoral.","","","",""
"","4297","html-keyboard-response","641","1052622","0.0-3.0-2.537-0.537","<span style=""font-size:25px; font-family: monospace"">Ondas têm um impacto destrutivo?</span>","s","","","Ondas têm um impacto destrutivo?","null","exp-sent","false"
"","null","html-keyboard-response","642","1054142","0.0-3.0-0.538-0.538","<span style= ""font-size:30px; font-family: monospace"">+</span>","null","fixation","","","","",""
"","1129","audio-keyboard-response","643","1055700","0.0-3.0-1.538","../audio/36-1-fem.mp3"," ","","Meu","","","",""
"","1051","audio-keyboard-response","644","1057093","0.0-3.0-1.539","../audio/36-2-fem.mp3"," ","","tio","","","",""
"","1370","audio-keyboard-response","645","1058822","0.0-3.0-1.540","../audio/36-3-fem.mp3"," ","","comprou","","","",""
"","1001","audio-keyboard-response","646","1060163","0.0-3.0-1.541","../audio/36-4-fem.mp3"," ","","um","","","",""
"","1321","audio-keyboard-response","647","1061850","0.0-3.0-1.542","../audio/36-5-fem.mp3"," ","","filtro","","","",""
"","1019","audio-keyboard-response","648","1063222","0.0-3.0-1.543","../audio/36-6-fem.mp3"," ","","de","","","",""
"","1141","audio-keyboard-response","649","1064702","0.0-3.0-1.544","../audio/36-7-fem.mp3"," ","","água","","","",""
"","1080","audio-keyboard-response","650","1066132","0.0-3.0-1.545","../audio/36-8-fem.mp3"," ","","hoje","","","",""
"","1190","audio-keyboard-response","651","1067707","0.0-3.0-1.546","../audio/36-9-fem.mp3"," ","","cedo.","","","",""
"","null","html-keyboard-response","652","1068973","0.0-3.0-0.547-0.547","<span style= ""font-size:30px; font-family: monospace"">+</span>","null","fixation","","","","",""
"","781","audio-keyboard-response","653","1070053","0.0-3.0-1.547","../audio/39-1-masc.mp3"," ","","O","","","",""
"","1152","audio-keyboard-response","654","1071520","0.0-3.0-1.548","../audio/39-2-masc.mp3"," ","","conselho","","","",""
"","981","audio-keyboard-response","655","1072803","0.0-3.0-1.549","../audio/39-3-masc.mp3"," ","","foi","","","",""
"","1051","audio-keyboard-response","656","1074160","0.0-3.0-1.550","../audio/39-4-masc.mp3"," ","","muito","","","",""
"","911","audio-keyboard-response","657","1075357","0.0-3.0-1.551","../audio/39-5-masc.mp3"," ","","útil","","","",""
"","848","audio-keyboard-response","658","1076496","0.0-3.0-1.552","../audio/39-6-masc.mp3"," ","","para","","","",""
"","911","audio-keyboard-response","659","1077696","0.0-3.0-1.553","../audio/39-7-masc.mp3"," ","","minha","","","",""
"","1289","audio-keyboard-response","660","1079283","0.0-3.0-1.554","../audio/39-8-masc.mp3"," ","","tia.","","","",""
"","null","html-keyboard-response","661","1080556","0.0-3.0-0.555-0.555","<span style= ""font-size:30px; font-family: monospace"">+</span>","null","fixation","","","","",""
"","900","audio-keyboard-response","662","1081747","0.0-3.0-1.555","../audio/38-1-fem.mp3"," ","","A","","","",""
"","1318","audio-keyboard-response","663","1083370","0.0-3.0-1.556","../audio/38-2-fem.mp3"," ","","empresa","","","",""
"","969","audio-keyboard-response","664","1084651","0.0-3.0-1.557","../audio/38-3-fem.mp3"," ","","criou","","","",""
"","842","audio-keyboard-response","665","1085777","0.0-3.0-1.558","../audio/38-4-fem.mp3"," ","","a","","","",""
"","1492","audio-keyboard-response","666","1087584","0.0-3.0-1.559","../audio/38-5-fem.mp3"," ","","patente","","","",""
"","871","audio-keyboard-response","667","1088753","0.0-3.0-1.560","../audio/38-6-fem.mp3"," ","","da","","","",""
"","1800","audio-keyboard-response","668","1090866","0.0-3.0-1.561","../audio/38-7-fem.mp3"," ","","frigideira.","","","",""
"","null","html-keyboard-response","669","1092141","0.0-3.0-0.562-0.562","<span style= ""font-size:30px; font-family: monospace"">+</span>","null","fixation","","","","",""
"","1840","audio-keyboard-response","670","1094404","0.0-3.0-1.562","../audio/37-1-fem.mp3"," ","","Eu","","","",""
"","1370","audio-keyboard-response","671","1096216","0.0-3.0-1.563","../audio/37-2-fem.mp3"," ","","adoro","","","",""
"","1379","audio-keyboard-response","672","1097936","0.0-3.0-1.564","../audio/37-3-fem.mp3"," ","","suco","","","",""
"","1370","audio-keyboard-response","673","1099663","0.0-3.0-1.565","../audio/37-4-fem.mp3"," ","","de","","","",""
"","1321","audio-keyboard-response","674","1101342","0.0-3.0-1.566","../audio/37-5-fem.mp3"," ","","manga","","","",""
"","1039","audio-keyboard-response","675","1102726","0.0-3.0-1.567","../audio/37-6-fem.mp3"," ","","com","","","",""
"","1771","audio-keyboard-response","676","1104853","0.0-3.0-1.568","../audio/37-7-fem.mp3"," ","","hortelã.","","","",""
"","null","html-keyboard-response","677","1106124","0.0-3.0-0.569-0.569","<span style= ""font-size:30px; font-family: monospace"">+</span>","null","fixation","","","","",""
"","1039","audio-keyboard-response","678","1107617","0.0-3.0-1.569","../audio/40-1-masc.mp3"," ","","O","","","",""
"","1210","audio-keyboard-response","679","1109166","0.0-3.0-1.570","../audio/40-2-masc.mp3"," ","","jogo","","","",""
"","1300","audio-keyboard-response","680","1110812","0.0-3.0-1.571","../audio/40-3-masc.mp3"," ","","falava","","","",""
"","1219","audio-keyboard-response","681","1112384","0.0-3.0-1.572","../audio/40-4-masc.mp3"," ","","de","","","",""
"","1649","audio-keyboard-response","682","1114398","0.0-3.0-1.573","../audio/40-5-masc.mp3"," ","","fantasia","","","",""
"","1080","audio-keyboard-response","683","1115822","0.0-3.0-1.574","../audio/40-6-masc.mp3"," ","","e","","","",""
"","1039","audio-keyboard-response","684","1117214","0.0-3.0-1.575","../audio/40-7-masc.mp3"," ","","de","","","",""
"","1509","audio-keyboard-response","685","1119091","0.0-3.0-1.576","../audio/40-8-masc.mp3"," ","","aventura.","","","",""
"","3709","html-keyboard-response","686","1123064","0.0-3.0-2.576-0.576","<span style=""font-size:25px; font-family: monospace"">O jogo tinha fantasia e aventura?</span>","s","","","O jogo tinha fantasia e aventura?","null","exp-sent","false"
"","null","html-keyboard-response","687","1124581","0.0-3.0-0.577-0.577","<span style= ""font-size:30px; font-family: monospace"">+</span>","null","fixation","","","","",""
"","2148","audio-keyboard-response","688","1127141","0.0-3.0-1.577","../audio/76-1-masc.mp3"," ","","O","","","",""
"","1207","audio-keyboard-response","689","1128784","0.0-3.0-1.578","../audio/76-2-masc.mp3"," ","","bisavô","","","",""
"","1080","audio-keyboard-response","690","1130218","0.0-3.0-1.579","../audio/76-3-masc.mp3"," ","","comprou","","","",""
"","969","audio-keyboard-response","691","1131543","0.0-3.0-1.580","../audio/76-4-masc.mp3"," ","","um","","","",""
"","1361","audio-keyboard-response","692","1133262","0.0-3.0-1.581","../audio/76-5-masc.mp3"," ","","ralador","","","",""
"","1129","audio-keyboard-response","693","1134739","0.0-3.0-1.582","../audio/76-6-masc.mp3"," ","","de","","","",""
"","1251","audio-keyboard-response","694","1136356","0.0-3.0-1.583","../audio/76-7-masc.mp3"," ","","queijo.","","","",""
"","null","html-keyboard-response","695","1137635","0.0-3.0-0.584-0.584","<span style= ""font-size:30px; font-family: monospace"">+</span>","null","fixation","","","","",""
"","1059","audio-keyboard-response","696","1139124","0.0-3.0-1.584","../audio/78-1-fem.mp3"," ","","Eles","","","",""
"","1239","audio-keyboard-response","697","1140717","0.0-3.0-1.585","../audio/78-2-fem.mp3"," ","","trazem","","","",""
"","1051","audio-keyboard-response","698","1142101","0.0-3.0-1.586","../audio/78-3-fem.mp3"," ","","um","","","",""
"","1239","audio-keyboard-response","699","1143698","0.0-3.0-1.587","../audio/78-4-fem.mp3"," ","","fato","","","",""
"","1620","audio-keyboard-response","700","1145703","0.0-3.0-1.588","../audio/78-5-fem.mp3"," ","","urgente","","","",""
"","1051","audio-keyboard-response","701","1147222","0.0-3.0-1.589","../audio/78-6-fem.mp3"," ","","todos","","","",""
"","1149","audio-keyboard-response","702","1148712","0.0-3.0-1.590","../audio/78-7-fem.mp3"," ","","os","","","",""
"","1260","audio-keyboard-response","703","1150352","0.0-3.0-1.591","../audio/78-8-fem.mp3"," ","","dias.","","","",""
"","null","html-keyboard-response","704","1151626","0.0-3.0-0.592-0.592","<span style= ""font-size:30px; font-family: monospace"">+</span>","null","fixation","","","","",""
"","830","audio-keyboard-response","705","1152873","0.0-3.0-1.592","../audio/77-1-masc.mp3"," ","","A","","","",""
"","1071","audio-keyboard-response","706","1154305","0.0-3.0-1.593","../audio/77-2-masc.mp3"," ","","criança","","","",""
"","961","audio-keyboard-response","707","1155625","0.0-3.0-1.594","../audio/77-3-masc.mp3"," ","","ficou","","","",""
"","1080","audio-keyboard-response","708","1157047","0.0-3.0-1.595","../audio/77-4-masc.mp3"," ","","muito","","","",""
"","1027","audio-keyboard-response","709","1158418","0.0-3.0-1.596","../audio/77-5-masc.mp3"," ","","feliz","","","",""
"","940","audio-keyboard-response","710","1159714","0.0-3.0-1.597","../audio/77-6-masc.mp3"," ","","com","","","",""
"","949","audio-keyboard-response","711","1161019","0.0-3.0-1.598","../audio/77-7-masc.mp3"," ","","o","","","",""
"","1210","audio-keyboard-response","712","1162584","0.0-3.0-1.599","../audio/77-8-masc.mp3"," ","","brinquedo.","","","",""
"","null","html-keyboard-response","713","1163857","0.0-3.0-0.600-0.600","<span style= ""font-size:30px; font-family: monospace"">+</span>","null","fixation","","","","",""
"","871","audio-keyboard-response","714","1165144","0.0-3.0-1.600","../audio/79-1-fem.mp3"," ","","A","","","",""
"","1181","audio-keyboard-response","715","1166692","0.0-3.0-1.601","../audio/79-2-fem.mp3"," ","","médica","","","",""
"","1161","audio-keyboard-response","716","1168254","0.0-3.0-1.602","../audio/79-3-fem.mp3"," ","","verificou","","","",""
"","801","audio-keyboard-response","717","1169408","0.0-3.0-1.603","../audio/79-4-fem.mp3"," ","","a","","","",""
"","1570","audio-keyboard-response","718","1171336","0.0-3.0-1.604","../audio/79-5-fem.mp3"," ","","gengiva","","","",""
"","679","audio-keyboard-response","719","1172361","0.0-3.0-1.605","../audio/79-6-fem.mp3"," ","","por","","","",""
"","1251","audio-keyboard-response","720","1173974","0.0-3.0-1.606","../audio/79-7-fem.mp3"," ","","último.","","","",""
"","null","html-keyboard-response","721","1175237","0.0-3.0-0.607-0.607","<span style= ""font-size:30px; font-family: monospace"">+</span>","null","fixation","","","","",""
"","961","audio-keyboard-response","722","1176503","0.0-3.0-1.607","../audio/80-1-fem.mp3"," ","","Meu","","","",""
"","990","audio-keyboard-response","723","1177786","0.0-3.0-1.608","../audio/80-2-fem.mp3"," ","","primo","","","",""
"","1271","audio-keyboard-response","724","1179356","0.0-3.0-1.609","../audio/80-3-fem.mp3"," ","","conheceu","","","",""
"","879","audio-keyboard-response","725","1180533","0.0-3.0-1.610","../audio/80-4-fem.mp3"," ","","um","","","",""
"","1141","audio-keyboard-response","726","1181976","0.0-3.0-1.611","../audio/80-5-fem.mp3"," ","","jovem","","","",""
"","1239","audio-keyboard-response","727","1183516","0.0-3.0-1.612","../audio/80-6-fem.mp3"," ","","amável","","","",""
"","769","audio-keyboard-response","728","1184578","0.0-3.0-1.613","../audio/80-7-fem.mp3"," ","","e","","","",""
"","1460","audio-keyboard-response","729","1186336","0.0-3.0-1.614","../audio/80-8-fem.mp3"," ","","confiante.","","","",""
"","3809","html-keyboard-response","730","1190412","0.0-3.0-2.614-0.614","<span style=""font-size:25px; font-family: monospace"">O primo conheceu um jovem irritante?</span>","n","","","O primo conheceu um jovem irritante?","null","exp-sent","false"
"[{""page_index"":0,""viewing_time"":7163}]","7164","instructions","731","1198079","0.0-4.0","","","","","","","",""
