"view_history","rt","trial_type","trial_index","time_elapsed","internal_node_id","stimulus","response","trial_part","trial","word","question","answer","accuracy"
"[{""page_index"":0,""viewing_time"":28932},{""page_index"":1,""viewing_time"":4237}]","33179","instructions","0","33191","0.0-0.0","","","","","","","",""
"","null","html-keyboard-response","1","34307","0.0-1.0-0.0-0.0","<span style= ""font-size:30px; font-family: monospace"">+</span>","null","fixation","","","","",""
"","2578","html-keyboard-response","2","37144","0.0-1.0-1.0","<span style=""font-size:30px; font-family: monospace"">O</span>"," ","","prac-sent","O","","",""
"","2441","html-keyboard-response","3","39855","0.0-1.0-1.1","<span style=""font-size:30px; font-family: monospace"">dia</span>"," ","","prac-sent","dia","","",""
"","2095","html-keyboard-response","4","42205","0.0-1.0-1.2","<span style=""font-size:30px; font-family: monospace"">estará</span>"," ","","prac-sent","estará","","",""
"","1622","html-keyboard-response","5","44090","0.0-1.0-1.3","<span style=""font-size:30px; font-family: monospace"">cheio</span>"," ","","prac-sent","cheio","","",""
"","1049","html-keyboard-response","6","45413","0.0-1.0-1.4","<span style=""font-size:30px; font-family: monospace"">de</span>"," ","","prac-sent","de","","",""
"","1380","html-keyboard-response","7","47059","0.0-1.0-1.5","<span style=""font-size:30px; font-family: monospace"">nuvens</span>"," ","","prac-sent","nuvens","","",""
"","1085","html-keyboard-response","8","48400","0.0-1.0-1.6","<span style=""font-size:30px; font-family: monospace"">hoje.</span>"," ","","prac-sent","hoje.","","",""
"","null","html-keyboard-response","9","49660","0.0-1.0-0.7-0.7","<span style= ""font-size:30px; font-family: monospace"">+</span>","null","fixation","","","","",""
"","1213","html-keyboard-response","10","51131","0.0-1.0-1.7","<span style=""font-size:30px; font-family: monospace"">A</span>"," ","","prac-sent","A","","",""
"","1377","html-keyboard-response","11","52761","0.0-1.0-1.8","<span style=""font-size:30px; font-family: monospace"">caneca</span>"," ","","prac-sent","caneca","","",""
"","1103","html-keyboard-response","12","54120","0.0-1.0-1.9","<span style=""font-size:30px; font-family: monospace"">colorida</span>"," ","","prac-sent","colorida","","",""
"","1046","html-keyboard-response","13","55422","0.0-1.0-1.10","<span style=""font-size:30px; font-family: monospace"">caiu</span>"," ","","prac-sent","caiu","","",""
"","966","html-keyboard-response","14","56642","0.0-1.0-1.11","<span style=""font-size:30px; font-family: monospace"">da</span>"," ","","prac-sent","da","","",""
"","869","html-keyboard-response","15","57766","0.0-1.0-1.12","<span style=""font-size:30px; font-family: monospace"">mesa</span>"," ","","prac-sent","mesa","","",""
"","776","html-keyboard-response","16","58804","0.0-1.0-1.13","<span style=""font-size:30px; font-family: monospace"">de</span>"," ","","prac-sent","de","","",""
"","925","html-keyboard-response","17","59981","0.0-1.0-1.14","<span style=""font-size:30px; font-family: monospace"">jantar.</span>"," ","","prac-comp","jantar.","","",""
"","6139","html-keyboard-response","18","66375","0.0-1.0-2.14-0.14","<span style=""font-size:30px; font-family: monospace"">A caneca permaneceu na mesa?</span>","s","","prac-comp","","A caneca permaneceu na mesa?","não","false"
"[{""page_index"":0,""viewing_time"":31319}]","31320","instructions","19","98202","0.0-2.0","","","","","","","",""
"","null","html-keyboard-response","20","99311","0.0-3.0-0.0-0.0","<span style= ""font-size:30px; font-family: monospace"">+</span>","null","fixation","","","","",""
"","4465","html-keyboard-response","21","104030","0.0-3.0-1.0","<span style=""font-size:30px; font-family: monospace"">O</span>"," ","","exp-sent","O","","",""
"","1959","html-keyboard-response","22","106252","0.0-3.0-1.1","<span style=""font-size:30px; font-family: monospace"">moço</span>"," ","","exp-sent","moço","","",""
"","898","html-keyboard-response","23","107408","0.0-3.0-1.2","<span style=""font-size:30px; font-family: monospace"">usou</span>"," ","","exp-sent","usou","","",""
"","872","html-keyboard-response","24","108547","0.0-3.0-1.3","<span style=""font-size:30px; font-family: monospace"">várias</span>"," ","","exp-sent","várias","","",""
"","897","html-keyboard-response","25","109701","0.0-3.0-1.4","<span style=""font-size:30px; font-family: monospace"">velas</span>"," ","","exp-sent","velas","","",""
"","777","html-keyboard-response","26","110735","0.0-3.0-1.5","<span style=""font-size:30px; font-family: monospace"">no</span>"," ","","exp-sent","no","","",""
"","1212","html-keyboard-response","27","112200","0.0-3.0-1.6","<span style=""font-size:30px; font-family: monospace"">enfeite</span>"," ","","exp-sent","enfeite","","",""
"","639","html-keyboard-response","28","113098","0.0-3.0-1.7","<span style=""font-size:30px; font-family: monospace"">de</span>"," ","","exp-sent","de","","",""
"","641","html-keyboard-response","29","113997","0.0-3.0-1.8","<span style=""font-size:30px; font-family: monospace"">mesa.</span>"," ","","exp-sent","mesa.","","",""
"","null","html-keyboard-response","30","115264","0.0-3.0-0.9-0.9","<span style= ""font-size:30px; font-family: monospace"">+</span>","null","fixation","","","","",""
"","1185","html-keyboard-response","31","116703","0.0-3.0-1.9","<span style=""font-size:30px; font-family: monospace"">Gostamos</span>"," ","","exp-sent","Gostamos","","",""
"","607","html-keyboard-response","32","117564","0.0-3.0-1.10","<span style=""font-size:30px; font-family: monospace"">de</span>"," ","","exp-sent","de","","",""
"","784","html-keyboard-response","33","118612","0.0-3.0-1.11","<span style=""font-size:30px; font-family: monospace"">suco</span>"," ","","exp-sent","suco","","",""
"","813","html-keyboard-response","34","119676","0.0-3.0-1.12","<span style=""font-size:30px; font-family: monospace"">em</span>"," ","","exp-sent","em","","",""
"","852","html-keyboard-response","35","120780","0.0-3.0-1.13","<span style=""font-size:30px; font-family: monospace"">garrafa</span>"," ","","exp-sent","garrafa","","",""
"","546","html-keyboard-response","36","121586","0.0-3.0-1.14","<span style=""font-size:30px; font-family: monospace"">de</span>"," ","","exp-sent","de","","",""
"","663","html-keyboard-response","37","122506","0.0-3.0-1.15","<span style=""font-size:30px; font-family: monospace"">tamanho</span>"," ","","exp-sent","tamanho","","",""
"","561","html-keyboard-response","38","123323","0.0-3.0-1.16","<span style=""font-size:30px; font-family: monospace"">pequeno.</span>"," ","","exp-sent","pequeno.","","",""
"","null","html-keyboard-response","39","124580","0.0-3.0-0.17-0.17","<span style= ""font-size:30px; font-family: monospace"">+</span>","null","fixation","","","","",""
"","554","html-keyboard-response","40","125388","0.0-3.0-1.17","<span style=""font-size:30px; font-family: monospace"">Sua</span>"," ","","exp-sent","Sua","","",""
"","545","html-keyboard-response","41","126194","0.0-3.0-1.18","<span style=""font-size:30px; font-family: monospace"">filha</span>"," ","","exp-sent","filha","","",""
"","553","html-keyboard-response","42","127003","0.0-3.0-1.19","<span style=""font-size:30px; font-family: monospace"">é</span>"," ","","exp-sent","é","","",""
"","500","html-keyboard-response","43","127756","0.0-3.0-1.20","<span style=""font-size:30px; font-family: monospace"">muito</span>"," ","","exp-sent","muito","","",""
"","622","html-keyboard-response","44","128640","0.0-3.0-1.21","<span style=""font-size:30px; font-family: monospace"">capaz</span>"," ","","exp-sent","capaz","","",""
"","528","html-keyboard-response","45","129422","0.0-3.0-1.22","<span style=""font-size:30px; font-family: monospace"">e</span>"," ","","exp-sent","e","","",""
"","673","html-keyboard-response","46","130355","0.0-3.0-1.23","<span style=""font-size:30px; font-family: monospace"">esforçada.</span>"," ","","exp-sent","esforçada.","","",""
"","null","html-keyboard-response","47","131619","0.0-3.0-0.24-0.24","<span style= ""font-size:30px; font-family: monospace"">+</span>","null","fixation","","","","",""
"","384","html-keyboard-response","48","132259","0.0-3.0-1.24","<span style=""font-size:30px; font-family: monospace"">A</span>"," ","","exp-sent","A","","",""
"","708","html-keyboard-response","49","133225","0.0-3.0-1.25","<span style=""font-size:30px; font-family: monospace"">batida</span>"," ","","exp-sent","batida","","",""
"","441","html-keyboard-response","50","133929","0.0-3.0-1.26","<span style=""font-size:30px; font-family: monospace"">causou</span>"," ","","exp-sent","causou","","",""
"","482","html-keyboard-response","51","134669","0.0-3.0-1.27","<span style=""font-size:30px; font-family: monospace"">muita</span>"," ","","exp-sent","muita","","",""
"","468","html-keyboard-response","52","135391","0.0-3.0-1.28","<span style=""font-size:30px; font-family: monospace"">confusão</span>"," ","","exp-sent","confusão","","",""
"","536","html-keyboard-response","53","136184","0.0-3.0-1.29","<span style=""font-size:30px; font-family: monospace"">na</span>"," ","","exp-sent","na","","",""
"","610","html-keyboard-response","54","137048","0.0-3.0-1.30","<span style=""font-size:30px; font-family: monospace"">estrada.</span>"," ","","exp-sent","estrada.","","",""
"","null","html-keyboard-response","55","138317","0.0-3.0-0.31-0.31","<span style= ""font-size:30px; font-family: monospace"">+</span>","null","fixation","","","","",""
"","260","html-keyboard-response","56","138839","0.0-3.0-1.31","<span style=""font-size:30px; font-family: monospace"">Eu</span>"," ","","exp-sent","Eu","","",""
"","2035","html-keyboard-response","57","141133","0.0-3.0-1.32","<span style=""font-size:30px; font-family: monospace"">cozinhei</span>"," ","","exp-sent","cozinhei","","",""
"","839","html-keyboard-response","58","142231","0.0-3.0-1.33","<span style=""font-size:30px; font-family: monospace"">um</span>"," ","","exp-sent","um","","",""
"","622","html-keyboard-response","59","143111","0.0-3.0-1.34","<span style=""font-size:30px; font-family: monospace"">almoço</span>"," ","","exp-sent","almoço","","",""
"","964","html-keyboard-response","60","144331","0.0-3.0-1.35","<span style=""font-size:30px; font-family: monospace"">nutritivo</span>"," ","","exp-sent","nutritivo","","",""
"","528","html-keyboard-response","61","145114","0.0-3.0-1.36","<span style=""font-size:30px; font-family: monospace"">para</span>"," ","","exp-sent","para","","",""
"","549","html-keyboard-response","62","145918","0.0-3.0-1.37","<span style=""font-size:30px; font-family: monospace"">hoje.</span>"," ","","comp","hoje.","","",""
"","5315","html-keyboard-response","63","151496","0.0-3.0-2.37-0.37","<span style=""font-size:30px; font-family: monospace"">O almoço era nutritivo?</span>","s","","comp","","O almoço era nutritivo?","sim","false"
"","null","html-keyboard-response","64","153008","0.0-3.0-0.38-0.38","<span style= ""font-size:30px; font-family: monospace"">+</span>","null","fixation","","","","",""
"","1780","html-keyboard-response","65","155049","0.0-3.0-1.38","<span style=""font-size:30px; font-family: monospace"">Este</span>"," ","","exp-sent","Este","","",""
"","684","html-keyboard-response","66","155992","0.0-3.0-1.39","<span style=""font-size:30px; font-family: monospace"">conto</span>"," ","","exp-sent","conto","","",""
"","630","html-keyboard-response","67","156877","0.0-3.0-1.40","<span style=""font-size:30px; font-family: monospace"">tem</span>"," ","","exp-sent","tem","","",""
"","559","html-keyboard-response","68","157690","0.0-3.0-1.41","<span style=""font-size:30px; font-family: monospace"">um</span>"," ","","exp-sent","um","","",""
"","478","html-keyboard-response","69","158427","0.0-3.0-1.42","<span style=""font-size:30px; font-family: monospace"">final</span>"," ","","exp-sent","final","","",""
"","577","html-keyboard-response","70","159260","0.0-3.0-1.43","<span style=""font-size:30px; font-family: monospace"">perfeito.</span>"," ","","exp-sent","perfeito.","","",""
"","null","html-keyboard-response","71","160538","0.0-3.0-0.44-0.44","<span style= ""font-size:30px; font-family: monospace"">+</span>","null","fixation","","","","",""
"","511","html-keyboard-response","72","161308","0.0-3.0-1.44","<span style=""font-size:30px; font-family: monospace"">Ele</span>"," ","","exp-sent","Ele","","",""
"","683","html-keyboard-response","73","162253","0.0-3.0-1.45","<span style=""font-size:30px; font-family: monospace"">precisa</span>"," ","","exp-sent","precisa","","",""
"","530","html-keyboard-response","74","163039","0.0-3.0-1.46","<span style=""font-size:30px; font-family: monospace"">de</span>"," ","","exp-sent","de","","",""
"","455","html-keyboard-response","75","163752","0.0-3.0-1.47","<span style=""font-size:30px; font-family: monospace"">um</span>"," ","","exp-sent","um","","",""
"","732","html-keyboard-response","76","164747","0.0-3.0-1.48","<span style=""font-size:30px; font-family: monospace"">protetor</span>"," ","","exp-sent","protetor","","",""
"","591","html-keyboard-response","77","165599","0.0-3.0-1.49","<span style=""font-size:30px; font-family: monospace"">de</span>"," ","","exp-sent","de","","",""
"","459","html-keyboard-response","78","166314","0.0-3.0-1.50","<span style=""font-size:30px; font-family: monospace"">ouvido.</span>"," ","","exp-sent","ouvido.","","",""
"","null","html-keyboard-response","79","167578","0.0-3.0-0.51-0.51","<span style= ""font-size:30px; font-family: monospace"">+</span>","null","fixation","","","","",""
"","175","html-keyboard-response","80","168015","0.0-3.0-1.51","<span style=""font-size:30px; font-family: monospace"">Os</span>"," ","","exp-sent","Os","","",""
"","464","html-keyboard-response","81","168735","0.0-3.0-1.52","<span style=""font-size:30px; font-family: monospace"">hábitos</span>"," ","","exp-sent","hábitos","","",""
"","412","html-keyboard-response","82","169402","0.0-3.0-1.53","<span style=""font-size:30px; font-family: monospace"">de</span>"," ","","exp-sent","de","","",""
"","420","html-keyboard-response","83","170079","0.0-3.0-1.54","<span style=""font-size:30px; font-family: monospace"">lugares</span>"," ","","exp-sent","lugares","","",""
"","433","html-keyboard-response","84","170775","0.0-3.0-1.55","<span style=""font-size:30px; font-family: monospace"">diferentes</span>"," ","","exp-sent","diferentes","","",""
"","383","html-keyboard-response","85","171413","0.0-3.0-1.56","<span style=""font-size:30px; font-family: monospace"">são</span>"," ","","exp-sent","são","","",""
"","403","html-keyboard-response","86","172073","0.0-3.0-1.57","<span style=""font-size:30px; font-family: monospace"">muito</span>"," ","","exp-sent","muito","","",""
"","459","html-keyboard-response","87","172788","0.0-3.0-1.58","<span style=""font-size:30px; font-family: monospace"">lindos.</span>"," ","","exp-sent","lindos.","","",""
"","null","html-keyboard-response","88","174057","0.0-3.0-0.59-0.59","<span style= ""font-size:30px; font-family: monospace"">+</span>","null","fixation","","","","",""
"","620","html-keyboard-response","89","174932","0.0-3.0-1.59","<span style=""font-size:30px; font-family: monospace"">O</span>"," ","","exp-sent","O","","",""
"","507","html-keyboard-response","90","175696","0.0-3.0-1.60","<span style=""font-size:30px; font-family: monospace"">médico</span>"," ","","exp-sent","médico","","",""
"","1007","html-keyboard-response","91","176970","0.0-3.0-1.61","<span style=""font-size:30px; font-family: monospace"">corrigiu</span>"," ","","exp-sent","corrigiu","","",""
"","448","html-keyboard-response","92","177675","0.0-3.0-1.62","<span style=""font-size:30px; font-family: monospace"">a</span>"," ","","exp-sent","a","","",""
"","477","html-keyboard-response","93","178405","0.0-3.0-1.63","<span style=""font-size:30px; font-family: monospace"">postura</span>"," ","","exp-sent","postura","","",""
"","544","html-keyboard-response","94","179204","0.0-3.0-1.64","<span style=""font-size:30px; font-family: monospace"">das</span>"," ","","exp-sent","das","","",""
"","535","html-keyboard-response","95","180016","0.0-3.0-1.65","<span style=""font-size:30px; font-family: monospace"">costas</span>"," ","","exp-sent","costas","","",""
"","484","html-keyboard-response","96","180760","0.0-3.0-1.66","<span style=""font-size:30px; font-family: monospace"">da</span>"," ","","exp-sent","da","","",""
"","464","html-keyboard-response","97","181479","0.0-3.0-1.67","<span style=""font-size:30px; font-family: monospace"">pessoa.</span>"," ","","exp-sent","pessoa.","","",""
"","null","html-keyboard-response","98","182743","0.0-3.0-0.68-0.68","<span style= ""font-size:30px; font-family: monospace"">+</span>","null","fixation","","","","",""
"","535","html-keyboard-response","99","183540","0.0-3.0-1.68","<span style=""font-size:30px; font-family: monospace"">Aquele</span>"," ","","exp-sent","Aquele","","",""
"","521","html-keyboard-response","100","184319","0.0-3.0-1.69","<span style=""font-size:30px; font-family: monospace"">era</span>"," ","","exp-sent","era","","",""
"","390","html-keyboard-response","101","184966","0.0-3.0-1.70","<span style=""font-size:30px; font-family: monospace"">um</span>"," ","","exp-sent","um","","",""
"","455","html-keyboard-response","102","185677","0.0-3.0-1.71","<span style=""font-size:30px; font-family: monospace"">caso</span>"," ","","exp-sent","caso","","",""
"","495","html-keyboard-response","103","186424","0.0-3.0-1.72","<span style=""font-size:30px; font-family: monospace"">real</span>"," ","","exp-sent","real","","",""
"","424","html-keyboard-response","104","187108","0.0-3.0-1.73","<span style=""font-size:30px; font-family: monospace"">de</span>"," ","","exp-sent","de","","",""
"","1337","html-keyboard-response","105","188701","0.0-3.0-1.74","<span style=""font-size:30px; font-family: monospace"">sequestro</span>"," ","","exp-sent","sequestro","","",""
"","948","html-keyboard-response","106","189906","0.0-3.0-1.75","<span style=""font-size:30px; font-family: monospace"">premeditado.</span>"," ","","comp","premeditado.","","",""
"","12506","html-keyboard-response","107","202671","0.0-3.0-2.75-0.75","<span style=""font-size:30px; font-family: monospace"">Aquele era um caso real de roubo?</span>","s","","comp","","Aquele era um caso real de roubo?","não","false"
"","null","html-keyboard-response","108","204185","0.0-3.0-0.76-0.76","<span style= ""font-size:30px; font-family: monospace"">+</span>","null","fixation","","","","",""
"","1682","html-keyboard-response","109","206125","0.0-3.0-1.76","<span style=""font-size:30px; font-family: monospace"">Ganhamos</span>"," ","","exp-sent","Ganhamos","","",""
"","514","html-keyboard-response","110","206897","0.0-3.0-1.77","<span style=""font-size:30px; font-family: monospace"">passagem</span>"," ","","exp-sent","passagem","","",""
"","604","html-keyboard-response","111","207761","0.0-3.0-1.78","<span style=""font-size:30px; font-family: monospace"">para</span>"," ","","exp-sent","para","","",""
"","1006","html-keyboard-response","112","209029","0.0-3.0-1.79","<span style=""font-size:30px; font-family: monospace"">uma</span>"," ","","exp-sent","uma","","",""
"","583","html-keyboard-response","113","209867","0.0-3.0-1.80","<span style=""font-size:30px; font-family: monospace"">viagem</span>"," ","","exp-sent","viagem","","",""
"","419","html-keyboard-response","114","210543","0.0-3.0-1.81","<span style=""font-size:30px; font-family: monospace"">de</span>"," ","","exp-sent","de","","",""
"","536","html-keyboard-response","115","211338","0.0-3.0-1.82","<span style=""font-size:30px; font-family: monospace"">férias.</span>"," ","","exp-sent","férias.","","",""
"","null","html-keyboard-response","116","212603","0.0-3.0-0.83-0.83","<span style= ""font-size:30px; font-family: monospace"">+</span>","null","fixation","","","","",""
"","216","html-keyboard-response","117","213071","0.0-3.0-1.83","<span style=""font-size:30px; font-family: monospace"">Caiu</span>"," ","","exp-sent","Caiu","","",""
"","341","html-keyboard-response","118","213666","0.0-3.0-1.84","<span style=""font-size:30px; font-family: monospace"">algo</span>"," ","","exp-sent","algo","","",""
"","358","html-keyboard-response","119","214284","0.0-3.0-1.85","<span style=""font-size:30px; font-family: monospace"">no</span>"," ","","exp-sent","no","","",""
"","309","html-keyboard-response","120","214851","0.0-3.0-1.86","<span style=""font-size:30px; font-family: monospace"">meu</span>"," ","","exp-sent","meu","","",""
"","324","html-keyboard-response","121","215440","0.0-3.0-1.87","<span style=""font-size:30px; font-family: monospace"">olho</span>"," ","","exp-sent","olho","","",""
"","359","html-keyboard-response","122","216069","0.0-3.0-1.88","<span style=""font-size:30px; font-family: monospace"">ontem</span>"," ","","exp-sent","ontem","","",""
"","292","html-keyboard-response","123","216638","0.0-3.0-1.89","<span style=""font-size:30px; font-family: monospace"">de</span>"," ","","exp-sent","de","","",""
"","345","html-keyboard-response","124","217248","0.0-3.0-1.90","<span style=""font-size:30px; font-family: monospace"">tarde.</span>"," ","","exp-sent","tarde.","","",""
"","null","html-keyboard-response","125","218504","0.0-3.0-0.91-0.91","<span style= ""font-size:30px; font-family: monospace"">+</span>","null","fixation","","","","",""
"","468","html-keyboard-response","126","219232","0.0-3.0-1.91","<span style=""font-size:30px; font-family: monospace"">Não</span>"," ","","exp-sent","Não","","",""
"","508","html-keyboard-response","127","220001","0.0-3.0-1.92","<span style=""font-size:30px; font-family: monospace"">havia</span>"," ","","exp-sent","havia","","",""
"","393","html-keyboard-response","128","220658","0.0-3.0-1.93","<span style=""font-size:30px; font-family: monospace"">mais</span>"," ","","exp-sent","mais","","",""
"","394","html-keyboard-response","129","221309","0.0-3.0-1.94","<span style=""font-size:30px; font-family: monospace"">nenhum</span>"," ","","exp-sent","nenhum","","",""
"","403","html-keyboard-response","130","221968","0.0-3.0-1.95","<span style=""font-size:30px; font-family: monospace"">ingresso</span>"," ","","exp-sent","ingresso","","",""
"","370","html-keyboard-response","131","222591","0.0-3.0-1.96","<span style=""font-size:30px; font-family: monospace"">para</span>"," ","","exp-sent","para","","",""
"","435","html-keyboard-response","132","223278","0.0-3.0-1.97","<span style=""font-size:30px; font-family: monospace"">o</span>"," ","","exp-sent","o","","",""
"","669","html-keyboard-response","133","224205","0.0-3.0-1.98","<span style=""font-size:30px; font-family: monospace"">evento.</span>"," ","","exp-sent","evento.","","",""
"","null","html-keyboard-response","134","225467","0.0-3.0-0.99-0.99","<span style= ""font-size:30px; font-family: monospace"">+</span>","null","fixation","","","","",""
"","428","html-keyboard-response","135","226153","0.0-3.0-1.99","<span style=""font-size:30px; font-family: monospace"">A</span>"," ","","exp-sent","A","","",""
"","603","html-keyboard-response","136","227018","0.0-3.0-1.100","<span style=""font-size:30px; font-family: monospace"">médica</span>"," ","","exp-sent","médica","","",""
"","733","html-keyboard-response","137","228007","0.0-3.0-1.101","<span style=""font-size:30px; font-family: monospace"">descobriu</span>"," ","","exp-sent","descobriu","","",""
"","437","html-keyboard-response","138","228702","0.0-3.0-1.102","<span style=""font-size:30px; font-family: monospace"">uma</span>"," ","","exp-sent","uma","","",""
"","361","html-keyboard-response","139","229316","0.0-3.0-1.103","<span style=""font-size:30px; font-family: monospace"">cura</span>"," ","","exp-sent","cura","","",""
"","447","html-keyboard-response","140","230020","0.0-3.0-1.104","<span style=""font-size:30px; font-family: monospace"">para</span>"," ","","exp-sent","para","","",""
"","319","html-keyboard-response","141","230594","0.0-3.0-1.105","<span style=""font-size:30px; font-family: monospace"">a</span>"," ","","exp-sent","a","","",""
"","534","html-keyboard-response","142","231389","0.0-3.0-1.106","<span style=""font-size:30px; font-family: monospace"">doença.</span>"," ","","exp-sent","doença.","","",""
"","null","html-keyboard-response","143","232651","0.0-3.0-0.107-0.107","<span style= ""font-size:30px; font-family: monospace"">+</span>","null","fixation","","","","",""
"","405","html-keyboard-response","144","233310","0.0-3.0-1.107","<span style=""font-size:30px; font-family: monospace"">O</span>"," ","","exp-sent","O","","",""
"","366","html-keyboard-response","145","233930","0.0-3.0-1.108","<span style=""font-size:30px; font-family: monospace"">menino</span>"," ","","exp-sent","menino","","",""
"","670","html-keyboard-response","146","234854","0.0-3.0-1.109","<span style=""font-size:30px; font-family: monospace"">riscou</span>"," ","","exp-sent","riscou","","",""
"","346","html-keyboard-response","147","235463","0.0-3.0-1.110","<span style=""font-size:30px; font-family: monospace"">o</span>"," ","","exp-sent","o","","",""
"","834","html-keyboard-response","148","236558","0.0-3.0-1.111","<span style=""font-size:30px; font-family: monospace"">caderno</span>"," ","","exp-sent","caderno","","",""
"","731","html-keyboard-response","149","237554","0.0-3.0-1.112","<span style=""font-size:30px; font-family: monospace"">com</span>"," ","","exp-sent","com","","",""
"","415","html-keyboard-response","150","238232","0.0-3.0-1.113","<span style=""font-size:30px; font-family: monospace"">a</span>"," ","","exp-sent","a","","",""
"","779","html-keyboard-response","151","239274","0.0-3.0-1.114","<span style=""font-size:30px; font-family: monospace"">caneta.</span>"," ","","comp","caneta.","","",""
"","8471","html-keyboard-response","152","248005","0.0-3.0-2.114-0.114","<span style=""font-size:30px; font-family: monospace"">O menino riscou a parede com a caneta?</span>","s","","comp","","O menino riscou a parede com a caneta?","não","false"
"","null","html-keyboard-response","153","249521","0.0-3.0-0.115-0.115","<span style= ""font-size:30px; font-family: monospace"">+</span>","null","fixation","","","","",""
"","526","html-keyboard-response","154","250310","0.0-3.0-1.115","<span style=""font-size:30px; font-family: monospace"">No</span>"," ","","exp-sent","No","","",""
"","528","html-keyboard-response","155","251090","0.0-3.0-1.116","<span style=""font-size:30px; font-family: monospace"">passado</span>"," ","","exp-sent","passado","","",""
"","448","html-keyboard-response","156","251793","0.0-3.0-1.117","<span style=""font-size:30px; font-family: monospace"">houve</span>"," ","","exp-sent","houve","","",""
"","395","html-keyboard-response","157","252444","0.0-3.0-1.118","<span style=""font-size:30px; font-family: monospace"">uma</span>"," ","","exp-sent","uma","","",""
"","653","html-keyboard-response","158","253355","0.0-3.0-1.119","<span style=""font-size:30px; font-family: monospace"">rebelião</span>"," ","","exp-sent","rebelião","","",""
"","459","html-keyboard-response","159","254074","0.0-3.0-1.120","<span style=""font-size:30px; font-family: monospace"">nesta</span>"," ","","exp-sent","nesta","","",""
"","482","html-keyboard-response","160","254816","0.0-3.0-1.121","<span style=""font-size:30px; font-family: monospace"">cidade.</span>"," ","","exp-sent","cidade.","","",""
"","null","html-keyboard-response","161","256083","0.0-3.0-0.122-0.122","<span style= ""font-size:30px; font-family: monospace"">+</span>","null","fixation","","","","",""
"","251","html-keyboard-response","162","256606","0.0-3.0-1.122","<span style=""font-size:30px; font-family: monospace"">Ele</span>"," ","","exp-sent","Ele","","",""
"","415","html-keyboard-response","163","257276","0.0-3.0-1.123","<span style=""font-size:30px; font-family: monospace"">fundou</span>"," ","","exp-sent","fundou","","",""
"","398","html-keyboard-response","164","257929","0.0-3.0-1.124","<span style=""font-size:30px; font-family: monospace"">uma</span>"," ","","exp-sent","uma","","",""
"","414","html-keyboard-response","165","258607","0.0-3.0-1.125","<span style=""font-size:30px; font-family: monospace"">empresa</span>"," ","","exp-sent","empresa","","",""
"","456","html-keyboard-response","166","259319","0.0-3.0-1.126","<span style=""font-size:30px; font-family: monospace"">privada</span>"," ","","exp-sent","privada","","",""
"","471","html-keyboard-response","167","260052","0.0-3.0-1.127","<span style=""font-size:30px; font-family: monospace"">sem</span>"," ","","exp-sent","sem","","",""
"","372","html-keyboard-response","168","260687","0.0-3.0-1.128","<span style=""font-size:30px; font-family: monospace"">ajuda.</span>"," ","","exp-sent","ajuda.","","",""
"","null","html-keyboard-response","169","261952","0.0-3.0-0.129-0.129","<span style= ""font-size:30px; font-family: monospace"">+</span>","null","fixation","","","","",""
"","143","html-keyboard-response","170","262358","0.0-3.0-1.129","<span style=""font-size:30px; font-family: monospace"">As</span>"," ","","exp-sent","As","","",""
"","287","html-keyboard-response","171","262902","0.0-3.0-1.130","<span style=""font-size:30px; font-family: monospace"">meninas</span>"," ","","exp-sent","meninas","","",""
"","328","html-keyboard-response","172","263495","0.0-3.0-1.131","<span style=""font-size:30px; font-family: monospace"">encontraram</span>"," ","","exp-sent","encontraram","","",""
"","350","html-keyboard-response","173","264103","0.0-3.0-1.132","<span style=""font-size:30px; font-family: monospace"">um</span>"," ","","exp-sent","um","","",""
"","259","html-keyboard-response","174","264624","0.0-3.0-1.133","<span style=""font-size:30px; font-family: monospace"">rato</span>"," ","","exp-sent","rato","","",""
"","330","html-keyboard-response","175","265213","0.0-3.0-1.134","<span style=""font-size:30px; font-family: monospace"">dentro</span>"," ","","exp-sent","dentro","","",""
"","286","html-keyboard-response","176","265759","0.0-3.0-1.135","<span style=""font-size:30px; font-family: monospace"">de</span>"," ","","exp-sent","de","","",""
"","251","html-keyboard-response","177","266265","0.0-3.0-1.136","<span style=""font-size:30px; font-family: monospace"">casa.</span>"," ","","exp-sent","casa.","","",""
"","null","html-keyboard-response","178","267533","0.0-3.0-0.137-0.137","<span style= ""font-size:30px; font-family: monospace"">+</span>","null","fixation","","","","",""
"","305","html-keyboard-response","179","268098","0.0-3.0-1.137","<span style=""font-size:30px; font-family: monospace"">O</span>"," ","","exp-sent","O","","",""
"","377","html-keyboard-response","180","268729","0.0-3.0-1.138","<span style=""font-size:30px; font-family: monospace"">texto</span>"," ","","exp-sent","texto","","",""
"","315","html-keyboard-response","181","269303","0.0-3.0-1.139","<span style=""font-size:30px; font-family: monospace"">tinha</span>"," ","","exp-sent","tinha","","",""
"","312","html-keyboard-response","182","269870","0.0-3.0-1.140","<span style=""font-size:30px; font-family: monospace"">ideias</span>"," ","","exp-sent","ideias","","",""
"","398","html-keyboard-response","183","270525","0.0-3.0-1.141","<span style=""font-size:30px; font-family: monospace"">vagas</span>"," ","","exp-sent","vagas","","",""
"","392","html-keyboard-response","184","271175","0.0-3.0-1.142","<span style=""font-size:30px; font-family: monospace"">e</span>"," ","","exp-sent","e","","",""
"","427","html-keyboard-response","185","271860","0.0-3.0-1.143","<span style=""font-size:30px; font-family: monospace"">confusas.</span>"," ","","exp-sent","confusas.","","",""
"","null","html-keyboard-response","186","273147","0.0-3.0-0.144-0.144","<span style= ""font-size:30px; font-family: monospace"">+</span>","null","fixation","","","","",""
"","489","html-keyboard-response","187","273888","0.0-3.0-1.144","<span style=""font-size:30px; font-family: monospace"">As</span>"," ","","exp-sent","As","","",""
"","367","html-keyboard-response","188","274530","0.0-3.0-1.145","<span style=""font-size:30px; font-family: monospace"">crianças</span>"," ","","exp-sent","crianças","","",""
"","352","html-keyboard-response","189","275137","0.0-3.0-1.146","<span style=""font-size:30px; font-family: monospace"">viram</span>"," ","","exp-sent","viram","","",""
"","348","html-keyboard-response","190","275739","0.0-3.0-1.147","<span style=""font-size:30px; font-family: monospace"">a</span>"," ","","exp-sent","a","","",""
"","364","html-keyboard-response","191","276365","0.0-3.0-1.148","<span style=""font-size:30px; font-family: monospace"">acrobata</span>"," ","","exp-sent","acrobata","","",""
"","505","html-keyboard-response","192","277127","0.0-3.0-1.149","<span style=""font-size:30px; font-family: monospace"">talentosa</span>"," ","","exp-sent","talentosa","","",""
"","63","html-keyboard-response","193","277443","0.0-3.0-1.150","<span style=""font-size:30px; font-family: monospace"">no</span>"," ","","exp-sent","no","","",""
"","446","html-keyboard-response","194","278148","0.0-3.0-1.151","<span style=""font-size:30px; font-family: monospace"">circo.</span>"," ","","comp","circo.","","",""
"","7235","html-keyboard-response","195","285635","0.0-3.0-2.151-0.151","<span style=""font-size:30px; font-family: monospace"">As crianças viram o palhaço no circo?</span>","s","","comp","","As crianças viram o palhaço no circo?","não","false"
"","null","html-keyboard-response","196","287170","0.0-3.0-0.152-0.152","<span style= ""font-size:30px; font-family: monospace"">+</span>","null","fixation","","","","",""
"","642","html-keyboard-response","197","288071","0.0-3.0-1.152","<span style=""font-size:30px; font-family: monospace"">A</span>"," ","","exp-sent","A","","",""
"","488","html-keyboard-response","198","288823","0.0-3.0-1.153","<span style=""font-size:30px; font-family: monospace"">força</span>"," ","","exp-sent","força","","",""
"","340","html-keyboard-response","199","289419","0.0-3.0-1.154","<span style=""font-size:30px; font-family: monospace"">d'água</span>"," ","","exp-sent","d'água","","",""
"","415","html-keyboard-response","200","290093","0.0-3.0-1.155","<span style=""font-size:30px; font-family: monospace"">estava</span>"," ","","exp-sent","estava","","",""
"","388","html-keyboard-response","201","290743","0.0-3.0-1.156","<span style=""font-size:30px; font-family: monospace"">normal</span>"," ","","exp-sent","normal","","",""
"","489","html-keyboard-response","202","291493","0.0-3.0-1.157","<span style=""font-size:30px; font-family: monospace"">naquele</span>"," ","","exp-sent","naquele","","",""
"","448","html-keyboard-response","203","292204","0.0-3.0-1.158","<span style=""font-size:30px; font-family: monospace"">dia.</span>"," ","","exp-sent","dia.","","",""
"","null","html-keyboard-response","204","293474","0.0-3.0-0.159-0.159","<span style= ""font-size:30px; font-family: monospace"">+</span>","null","fixation","","","","",""
"","527","html-keyboard-response","205","294261","0.0-3.0-1.159","<span style=""font-size:30px; font-family: monospace"">A</span>"," ","","exp-sent","A","","",""
"","444","html-keyboard-response","206","294970","0.0-3.0-1.160","<span style=""font-size:30px; font-family: monospace"">médica</span>"," ","","exp-sent","médica","","",""
"","510","html-keyboard-response","207","295741","0.0-3.0-1.161","<span style=""font-size:30px; font-family: monospace"">ofereceu</span>"," ","","exp-sent","ofereceu","","",""
"","511","html-keyboard-response","208","296514","0.0-3.0-1.162","<span style=""font-size:30px; font-family: monospace"">a</span>"," ","","exp-sent","a","","",""
"","709","html-keyboard-response","209","297485","0.0-3.0-1.163","<span style=""font-size:30px; font-family: monospace"">pomada</span>"," ","","exp-sent","pomada","","",""
"","445","html-keyboard-response","210","298188","0.0-3.0-1.164","<span style=""font-size:30px; font-family: monospace"">para</span>"," ","","exp-sent","para","","",""
"","331","html-keyboard-response","211","298778","0.0-3.0-1.165","<span style=""font-size:30px; font-family: monospace"">o</span>"," ","","exp-sent","o","","",""
"","332","html-keyboard-response","212","299366","0.0-3.0-1.166","<span style=""font-size:30px; font-family: monospace"">avô.</span>"," ","","exp-sent","avô.","","",""
"","null","html-keyboard-response","213","300621","0.0-3.0-0.167-0.167","<span style= ""font-size:30px; font-family: monospace"">+</span>","null","fixation","","","","",""
"","227","html-keyboard-response","214","301102","0.0-3.0-1.167","<span style=""font-size:30px; font-family: monospace"">Ele</span>"," ","","exp-sent","Ele","","",""
"","189","html-keyboard-response","215","301550","0.0-3.0-1.168","<span style=""font-size:30px; font-family: monospace"">conversou</span>"," ","","exp-sent","conversou","","",""
"","290","html-keyboard-response","216","302104","0.0-3.0-1.169","<span style=""font-size:30px; font-family: monospace"">com</span>"," ","","exp-sent","com","","",""
"","113","html-keyboard-response","217","302499","0.0-3.0-1.170","<span style=""font-size:30px; font-family: monospace"">o</span>"," ","","exp-sent","o","","",""
"","265","html-keyboard-response","218","303020","0.0-3.0-1.171","<span style=""font-size:30px; font-family: monospace"">patrão</span>"," ","","exp-sent","patrão","","",""
"","304","html-keyboard-response","219","303586","0.0-3.0-1.172","<span style=""font-size:30px; font-family: monospace"">durante</span>"," ","","exp-sent","durante","","",""
"","217","html-keyboard-response","220","304060","0.0-3.0-1.173","<span style=""font-size:30px; font-family: monospace"">a</span>"," ","","exp-sent","a","","",""
"","300","html-keyboard-response","221","304625","0.0-3.0-1.174","<span style=""font-size:30px; font-family: monospace"">tarde.</span>"," ","","exp-sent","tarde.","","",""
"","null","html-keyboard-response","222","305883","0.0-3.0-0.175-0.175","<span style= ""font-size:30px; font-family: monospace"">+</span>","null","fixation","","","","",""
"","150","html-keyboard-response","223","306289","0.0-3.0-1.175","<span style=""font-size:30px; font-family: monospace"">Algumas</span>"," ","","exp-sent","Algumas","","",""
"","287","html-keyboard-response","224","306835","0.0-3.0-1.176","<span style=""font-size:30px; font-family: monospace"">pessoas</span>"," ","","exp-sent","pessoas","","",""
"","265","html-keyboard-response","225","307359","0.0-3.0-1.177","<span style=""font-size:30px; font-family: monospace"">acreditam</span>"," ","","exp-sent","acreditam","","",""
"","215","html-keyboard-response","226","307829","0.0-3.0-1.178","<span style=""font-size:30px; font-family: monospace"">em</span>"," ","","exp-sent","em","","",""
"","225","html-keyboard-response","227","308304","0.0-3.0-1.179","<span style=""font-size:30px; font-family: monospace"">espíritos</span>"," ","","exp-sent","espíritos","","",""
"","271","html-keyboard-response","228","308832","0.0-3.0-1.180","<span style=""font-size:30px; font-family: monospace"">e</span>"," ","","exp-sent","e","","",""
"","207","html-keyboard-response","229","309297","0.0-3.0-1.181","<span style=""font-size:30px; font-family: monospace"">em</span>"," ","","exp-sent","em","","",""
"","232","html-keyboard-response","230","309781","0.0-3.0-1.182","<span style=""font-size:30px; font-family: monospace"">outras</span>"," ","","exp-sent","outras","","",""
"","231","html-keyboard-response","231","310271","0.0-3.0-1.183","<span style=""font-size:30px; font-family: monospace"">vidas.</span>"," ","","exp-sent","vidas.","","",""
"","null","html-keyboard-response","232","311539","0.0-3.0-0.184-0.184","<span style= ""font-size:30px; font-family: monospace"">+</span>","null","fixation","","","","",""
"","113","html-keyboard-response","233","311912","0.0-3.0-1.184","<span style=""font-size:30px; font-family: monospace"">Ela</span>"," ","","exp-sent","Ela","","",""
"","319","html-keyboard-response","234","312491","0.0-3.0-1.185","<span style=""font-size:30px; font-family: monospace"">gosta</span>"," ","","exp-sent","gosta","","",""
"","290","html-keyboard-response","235","313041","0.0-3.0-1.186","<span style=""font-size:30px; font-family: monospace"">de</span>"," ","","exp-sent","de","","",""
"","291","html-keyboard-response","236","313591","0.0-3.0-1.187","<span style=""font-size:30px; font-family: monospace"">estudar</span>"," ","","exp-sent","estudar","","",""
"","329","html-keyboard-response","237","314177","0.0-3.0-1.188","<span style=""font-size:30px; font-family: monospace"">matemática</span>"," ","","exp-sent","matemática","","",""
"","388","html-keyboard-response","238","314828","0.0-3.0-1.189","<span style=""font-size:30px; font-family: monospace"">com</span>"," ","","exp-sent","com","","",""
"","485","html-keyboard-response","239","315566","0.0-3.0-1.190","<span style=""font-size:30px; font-family: monospace"">colegas.</span>"," ","","comp","colegas.","","",""
"","7262","html-keyboard-response","240","323082","0.0-3.0-2.190-0.190","<span style=""font-size:30px; font-family: monospace"">Ela gosta de estudar física?</span>","s","","comp","","Ela gosta de estudar física?","não","false"
"","null","html-keyboard-response","241","324603","0.0-3.0-0.191-0.191","<span style= ""font-size:30px; font-family: monospace"">+</span>","null","fixation","","","","",""
"","359","html-keyboard-response","242","325220","0.0-3.0-1.191","<span style=""font-size:30px; font-family: monospace"">Ursos</span>"," ","","exp-sent","Ursos","","",""
"","259","html-keyboard-response","243","325735","0.0-3.0-1.192","<span style=""font-size:30px; font-family: monospace"">têm</span>"," ","","exp-sent","têm","","",""
"","352","html-keyboard-response","244","326353","0.0-3.0-1.193","<span style=""font-size:30px; font-family: monospace"">uma</span>"," ","","exp-sent","uma","","",""
"","321","html-keyboard-response","245","326941","0.0-3.0-1.194","<span style=""font-size:30px; font-family: monospace"">patada</span>"," ","","exp-sent","patada","","",""
"","305","html-keyboard-response","246","327505","0.0-3.0-1.195","<span style=""font-size:30px; font-family: monospace"">brutal</span>"," ","","exp-sent","brutal","","",""
"","113","html-keyboard-response","247","327924","0.0-3.0-1.196","<span style=""font-size:30px; font-family: monospace"">e</span>"," ","","exp-sent","e","","",""
"","196","html-keyboard-response","248","328375","0.0-3.0-1.197","<span style=""font-size:30px; font-family: monospace"">poderosa.</span>"," ","","exp-sent","poderosa.","","",""
"","null","html-keyboard-response","249","329639","0.0-3.0-0.198-0.198","<span style= ""font-size:30px; font-family: monospace"">+</span>","null","fixation","","","","",""
"","166","html-keyboard-response","250","330064","0.0-3.0-1.198","<span style=""font-size:30px; font-family: monospace"">Eu</span>"," ","","exp-sent","Eu","","",""
"","83","html-keyboard-response","251","330433","0.0-3.0-1.199","<span style=""font-size:30px; font-family: monospace"">fiz</span>"," ","","exp-sent","fiz","","",""
"","150","html-keyboard-response","252","330838","0.0-3.0-1.200","<span style=""font-size:30px; font-family: monospace"">aulas</span>"," ","","exp-sent","aulas","","",""
"","108","html-keyboard-response","253","331202","0.0-3.0-1.201","<span style=""font-size:30px; font-family: monospace"">de</span>"," ","","exp-sent","de","","",""
"","106","html-keyboard-response","254","331563","0.0-3.0-1.202","<span style=""font-size:30px; font-family: monospace"">espanhol</span>"," ","","exp-sent","espanhol","","",""
"","132","html-keyboard-response","255","331951","0.0-3.0-1.203","<span style=""font-size:30px; font-family: monospace"">nesta</span>"," ","","exp-sent","nesta","","",""
"","481","html-keyboard-response","256","332686","0.0-3.0-1.204","<span style=""font-size:30px; font-family: monospace"">cidade.</span>"," ","","exp-sent","cidade.","","",""
"","null","html-keyboard-response","257","333945","0.0-3.0-0.205-0.205","<span style= ""font-size:30px; font-family: monospace"">+</span>","null","fixation","","","","",""
"","331","html-keyboard-response","258","334531","0.0-3.0-1.205","<span style=""font-size:30px; font-family: monospace"">Ele</span>"," ","","exp-sent","Ele","","",""
"","38","html-keyboard-response","259","334822","0.0-3.0-1.206","<span style=""font-size:30px; font-family: monospace"">comprou</span>"," ","","exp-sent","comprou","","",""
"","5","html-keyboard-response","260","335088","0.0-3.0-1.207","<span style=""font-size:30px; font-family: monospace"">mais</span>"," ","","exp-sent","mais","","",""
"","811","html-keyboard-response","261","336152","0.0-3.0-1.208","<span style=""font-size:30px; font-family: monospace"">uma</span>"," ","","exp-sent","uma","","",""
"","643","html-keyboard-response","262","337053","0.0-3.0-1.209","<span style=""font-size:30px; font-family: monospace"">esponja</span>"," ","","exp-sent","esponja","","",""
"","568","html-keyboard-response","263","337877","0.0-3.0-1.210","<span style=""font-size:30px; font-family: monospace"">para</span>"," ","","exp-sent","para","","",""
"","379","html-keyboard-response","264","338519","0.0-3.0-1.211","<span style=""font-size:30px; font-family: monospace"">a</span>"," ","","exp-sent","a","","",""
"","366","html-keyboard-response","265","339145","0.0-3.0-1.212","<span style=""font-size:30px; font-family: monospace"">cozinha.</span>"," ","","exp-sent","cozinha.","","",""
"","null","html-keyboard-response","266","340409","0.0-3.0-0.213-0.213","<span style= ""font-size:30px; font-family: monospace"">+</span>","null","fixation","","","","",""
"","374","html-keyboard-response","267","341043","0.0-3.0-1.213","<span style=""font-size:30px; font-family: monospace"">Ele</span>"," ","","exp-sent","Ele","","",""
"","384","html-keyboard-response","268","341683","0.0-3.0-1.214","<span style=""font-size:30px; font-family: monospace"">teve</span>"," ","","exp-sent","teve","","",""
"","391","html-keyboard-response","269","342327","0.0-3.0-1.215","<span style=""font-size:30px; font-family: monospace"">um</span>"," ","","exp-sent","um","","",""
"","442","html-keyboard-response","270","343030","0.0-3.0-1.216","<span style=""font-size:30px; font-family: monospace"">sono</span>"," ","","exp-sent","sono","","",""
"","295","html-keyboard-response","271","343584","0.0-3.0-1.217","<span style=""font-size:30px; font-family: monospace"">bizarro</span>"," ","","exp-sent","bizarro","","",""
"","745","html-keyboard-response","272","344595","0.0-3.0-1.218","<span style=""font-size:30px; font-family: monospace"">sem</span>"," ","","exp-sent","sem","","",""
"","352","html-keyboard-response","273","345200","0.0-3.0-1.219","<span style=""font-size:30px; font-family: monospace"">nenhum</span>"," ","","exp-sent","nenhum","","",""
"","488","html-keyboard-response","274","345945","0.0-3.0-1.220","<span style=""font-size:30px; font-family: monospace"">motivo.</span>"," ","","exp-sent","motivo.","","",""
"","null","html-keyboard-response","275","347213","0.0-3.0-0.221-0.221","<span style= ""font-size:30px; font-family: monospace"">+</span>","null","fixation","","","","",""
"","126","html-keyboard-response","276","347606","0.0-3.0-1.221","<span style=""font-size:30px; font-family: monospace"">A</span>"," ","","exp-sent","A","","",""
"","400","html-keyboard-response","277","348260","0.0-3.0-1.222","<span style=""font-size:30px; font-family: monospace"">moça</span>"," ","","exp-sent","moça","","",""
"","325","html-keyboard-response","278","348847","0.0-3.0-1.223","<span style=""font-size:30px; font-family: monospace"">comprou</span>"," ","","exp-sent","comprou","","",""
"","314","html-keyboard-response","279","349427","0.0-3.0-1.224","<span style=""font-size:30px; font-family: monospace"">um</span>"," ","","exp-sent","um","","",""
"","596","html-keyboard-response","280","350289","0.0-3.0-1.225","<span style=""font-size:30px; font-family: monospace"">diamante</span>"," ","","exp-sent","diamante","","",""
"","401","html-keyboard-response","281","350952","0.0-3.0-1.226","<span style=""font-size:30px; font-family: monospace"">para</span>"," ","","exp-sent","para","","",""
"","383","html-keyboard-response","282","351592","0.0-3.0-1.227","<span style=""font-size:30px; font-family: monospace"">sua</span>"," ","","exp-sent","sua","","",""
"","340","html-keyboard-response","283","352193","0.0-3.0-1.228","<span style=""font-size:30px; font-family: monospace"">prima.</span>"," ","","comp","prima.","","",""
"","11328","html-keyboard-response","284","363778","0.0-3.0-2.228-0.228","<span style=""font-size:30px; font-family: monospace"">A moça comprou um diamante?</span>","s","","comp","","A moça comprou um diamante?","sim","false"
"","null","html-keyboard-response","285","365298","0.0-3.0-0.229-0.229","<span style= ""font-size:30px; font-family: monospace"">+</span>","null","fixation","","","","",""
"","915","html-keyboard-response","286","366476","0.0-3.0-1.229","<span style=""font-size:30px; font-family: monospace"">O</span>"," ","","exp-sent","O","","",""
"","323","html-keyboard-response","287","367053","0.0-3.0-1.230","<span style=""font-size:30px; font-family: monospace"">texto</span>"," ","","exp-sent","texto","","",""
"","348","html-keyboard-response","288","367653","0.0-3.0-1.231","<span style=""font-size:30px; font-family: monospace"">trazia</span>"," ","","exp-sent","trazia","","",""
"","221","html-keyboard-response","289","368134","0.0-3.0-1.232","<span style=""font-size:30px; font-family: monospace"">um</span>"," ","","exp-sent","um","","",""
"","720","html-keyboard-response","290","369118","0.0-3.0-1.233","<span style=""font-size:30px; font-family: monospace"">argumento</span>"," ","","exp-sent","argumento","","",""
"","286","html-keyboard-response","291","369657","0.0-3.0-1.234","<span style=""font-size:30px; font-family: monospace"">central</span>"," ","","exp-sent","central","","",""
"","125","html-keyboard-response","292","370037","0.0-3.0-1.235","<span style=""font-size:30px; font-family: monospace"">para</span>"," ","","exp-sent","para","","",""
"","369","html-keyboard-response","293","370662","0.0-3.0-1.236","<span style=""font-size:30px; font-family: monospace"">a</span>"," ","","exp-sent","a","","",""
"","92","html-keyboard-response","294","371015","0.0-3.0-1.237","<span style=""font-size:30px; font-family: monospace"">conversa.</span>"," ","","exp-sent","conversa.","","",""
"","null","html-keyboard-response","295","372283","0.0-3.0-0.238-0.238","<span style= ""font-size:30px; font-family: monospace"">+</span>","null","fixation","","","","",""
"","381","html-keyboard-response","296","372929","0.0-3.0-1.238","<span style=""font-size:30px; font-family: monospace"">Ontem</span>"," ","","exp-sent","Ontem","","",""
"","377","html-keyboard-response","297","373562","0.0-3.0-1.239","<span style=""font-size:30px; font-family: monospace"">a</span>"," ","","exp-sent","a","","",""
"","409","html-keyboard-response","298","374227","0.0-3.0-1.240","<span style=""font-size:30px; font-family: monospace"">temperatura</span>"," ","","exp-sent","temperatura","","",""
"","340","html-keyboard-response","299","374823","0.0-3.0-1.241","<span style=""font-size:30px; font-family: monospace"">estava</span>"," ","","exp-sent","estava","","",""
"","323","html-keyboard-response","300","375406","0.0-3.0-1.242","<span style=""font-size:30px; font-family: monospace"">amena</span>"," ","","exp-sent","amena","","",""
"","302","html-keyboard-response","301","375965","0.0-3.0-1.243","<span style=""font-size:30px; font-family: monospace"">durante</span>"," ","","exp-sent","durante","","",""
"","289","html-keyboard-response","302","376506","0.0-3.0-1.244","<span style=""font-size:30px; font-family: monospace"">o</span>"," ","","exp-sent","o","","",""
"","278","html-keyboard-response","303","377039","0.0-3.0-1.245","<span style=""font-size:30px; font-family: monospace"">dia.</span>"," ","","exp-sent","dia.","","",""
"","null","html-keyboard-response","304","378301","0.0-3.0-0.246-0.246","<span style= ""font-size:30px; font-family: monospace"">+</span>","null","fixation","","","","",""
"","115","html-keyboard-response","305","378676","0.0-3.0-1.246","<span style=""font-size:30px; font-family: monospace"">Havia</span>"," ","","exp-sent","Havia","","",""
"","356","html-keyboard-response","306","379285","0.0-3.0-1.247","<span style=""font-size:30px; font-family: monospace"">um</span>"," ","","exp-sent","um","","",""
"","239","html-keyboard-response","307","379784","0.0-3.0-1.248","<span style=""font-size:30px; font-family: monospace"">machucado</span>"," ","","exp-sent","machucado","","",""
"","385","html-keyboard-response","308","380421","0.0-3.0-1.249","<span style=""font-size:30px; font-family: monospace"">no</span>"," ","","exp-sent","no","","",""
"","325","html-keyboard-response","309","381011","0.0-3.0-1.250","<span style=""font-size:30px; font-family: monospace"">dedo</span>"," ","","exp-sent","dedo","","",""
"","349","html-keyboard-response","310","381625","0.0-3.0-1.251","<span style=""font-size:30px; font-family: monospace"">da</span>"," ","","exp-sent","da","","",""
"","365","html-keyboard-response","311","382250","0.0-3.0-1.252","<span style=""font-size:30px; font-family: monospace"">criança.</span>"," ","","exp-sent","criança.","","",""
"","null","html-keyboard-response","312","383523","0.0-3.0-0.253-0.253","<span style= ""font-size:30px; font-family: monospace"">+</span>","null","fixation","","","","",""
"","92","html-keyboard-response","313","383878","0.0-3.0-1.253","<span style=""font-size:30px; font-family: monospace"">A</span>"," ","","exp-sent","A","","",""
"","606","html-keyboard-response","314","384738","0.0-3.0-1.254","<span style=""font-size:30px; font-family: monospace"">borboleta</span>"," ","","exp-sent","borboleta","","",""
"","354","html-keyboard-response","315","385356","0.0-3.0-1.255","<span style=""font-size:30px; font-family: monospace"">pousou</span>"," ","","exp-sent","pousou","","",""
"","355","html-keyboard-response","316","385968","0.0-3.0-1.256","<span style=""font-size:30px; font-family: monospace"">no</span>"," ","","exp-sent","no","","",""
"","366","html-keyboard-response","317","386587","0.0-3.0-1.257","<span style=""font-size:30px; font-family: monospace"">ombro</span>"," ","","exp-sent","ombro","","",""
"","471","html-keyboard-response","318","387326","0.0-3.0-1.258","<span style=""font-size:30px; font-family: monospace"">daquela</span>"," ","","exp-sent","daquela","","",""
"","462","html-keyboard-response","319","388044","0.0-3.0-1.259","<span style=""font-size:30px; font-family: monospace"">moça.</span>"," ","","exp-sent","moça.","","",""
"","null","html-keyboard-response","320","389312","0.0-3.0-0.260-0.260","<span style= ""font-size:30px; font-family: monospace"">+</span>","null","fixation","","","","",""
"","436","html-keyboard-response","321","390009","0.0-3.0-1.260","<span style=""font-size:30px; font-family: monospace"">Eu</span>"," ","","exp-sent","Eu","","",""
"","389","html-keyboard-response","322","390651","0.0-3.0-1.261","<span style=""font-size:30px; font-family: monospace"">quero</span>"," ","","exp-sent","quero","","",""
"","401","html-keyboard-response","323","391314","0.0-3.0-1.262","<span style=""font-size:30px; font-family: monospace"">um</span>"," ","","exp-sent","um","","",""
"","323","html-keyboard-response","324","391893","0.0-3.0-1.263","<span style=""font-size:30px; font-family: monospace"">namorado</span>"," ","","exp-sent","namorado","","",""
"","383","html-keyboard-response","325","392538","0.0-3.0-1.264","<span style=""font-size:30px; font-family: monospace"">honesto</span>"," ","","exp-sent","honesto","","",""
"","349","html-keyboard-response","326","393149","0.0-3.0-1.265","<span style=""font-size:30px; font-family: monospace"">e</span>"," ","","exp-sent","e","","",""
"","2291","html-keyboard-response","327","395697","0.0-3.0-1.266","<span style=""font-size:30px; font-family: monospace"">compreensivo.</span>"," ","","comp","compreensivo.","","",""
"","4967","html-keyboard-response","328","400921","0.0-3.0-2.266-0.266","<span style=""font-size:30px; font-family: monospace"">Eu quero um namorado honesto?</span>","s","","comp","","Eu quero um namorado honesto?","sim","false"
"","null","html-keyboard-response","329","402428","0.0-3.0-0.267-0.267","<span style= ""font-size:30px; font-family: monospace"">+</span>","null","fixation","","","","",""
"","219","html-keyboard-response","330","402908","0.0-3.0-1.267","<span style=""font-size:30px; font-family: monospace"">Minha</span>"," ","","exp-sent","Minha","","",""
"","231","html-keyboard-response","331","403396","0.0-3.0-1.268","<span style=""font-size:30px; font-family: monospace"">prima</span>"," ","","exp-sent","prima","","",""
"","239","html-keyboard-response","332","403890","0.0-3.0-1.269","<span style=""font-size:30px; font-family: monospace"">trocou</span>"," ","","exp-sent","trocou","","",""
"","116","html-keyboard-response","333","404270","0.0-3.0-1.270","<span style=""font-size:30px; font-family: monospace"">a</span>"," ","","exp-sent","a","","",""
"","270","html-keyboard-response","334","404799","0.0-3.0-1.271","<span style=""font-size:30px; font-family: monospace"">tela</span>"," ","","exp-sent","tela","","",""
"","253","html-keyboard-response","335","405304","0.0-3.0-1.272","<span style=""font-size:30px; font-family: monospace"">do</span>"," ","","exp-sent","do","","",""
"","222","html-keyboard-response","336","405783","0.0-3.0-1.273","<span style=""font-size:30px; font-family: monospace"">celular</span>"," ","","exp-sent","celular","","",""
"","204","html-keyboard-response","337","406248","0.0-3.0-1.274","<span style=""font-size:30px; font-family: monospace"">duas</span>"," ","","exp-sent","duas","","",""
"","261","html-keyboard-response","338","406772","0.0-3.0-1.275","<span style=""font-size:30px; font-family: monospace"">vezes.</span>"," ","","exp-sent","vezes.","","",""
"","null","html-keyboard-response","339","408044","0.0-3.0-0.276-0.276","<span style= ""font-size:30px; font-family: monospace"">+</span>","null","fixation","","","","",""
"","47","html-keyboard-response","340","408349","0.0-3.0-1.276","<span style=""font-size:30px; font-family: monospace"">Agora</span>"," ","","exp-sent","Agora","","",""
"","304","html-keyboard-response","341","408911","0.0-3.0-1.277","<span style=""font-size:30px; font-family: monospace"">a</span>"," ","","exp-sent","a","","",""
"","279","html-keyboard-response","342","409450","0.0-3.0-1.278","<span style=""font-size:30px; font-family: monospace"">minha</span>"," ","","exp-sent","minha","","",""
"","287","html-keyboard-response","343","409998","0.0-3.0-1.279","<span style=""font-size:30px; font-family: monospace"">única</span>"," ","","exp-sent","única","","",""
"","322","html-keyboard-response","344","410576","0.0-3.0-1.280","<span style=""font-size:30px; font-family: monospace"">preocupação</span>"," ","","exp-sent","preocupação","","",""
"","321","html-keyboard-response","345","411156","0.0-3.0-1.281","<span style=""font-size:30px; font-family: monospace"">é</span>"," ","","exp-sent","é","","",""
"","323","html-keyboard-response","346","411732","0.0-3.0-1.282","<span style=""font-size:30px; font-family: monospace"">um</span>"," ","","exp-sent","um","","",""
"","311","html-keyboard-response","347","412303","0.0-3.0-1.283","<span style=""font-size:30px; font-family: monospace"">descanso</span>"," ","","exp-sent","descanso","","",""
"","368","html-keyboard-response","348","412930","0.0-3.0-1.284","<span style=""font-size:30px; font-family: monospace"">tranquilo.</span>"," ","","exp-sent","tranquilo.","","",""
"","null","html-keyboard-response","349","414199","0.0-3.0-0.285-0.285","<span style= ""font-size:30px; font-family: monospace"">+</span>","null","fixation","","","","",""
"","170","html-keyboard-response","350","414623","0.0-3.0-1.285","<span style=""font-size:30px; font-family: monospace"">A</span>"," ","","exp-sent","A","","",""
"","349","html-keyboard-response","351","415229","0.0-3.0-1.286","<span style=""font-size:30px; font-family: monospace"">criança</span>"," ","","exp-sent","criança","","",""
"","299","html-keyboard-response","352","415788","0.0-3.0-1.287","<span style=""font-size:30px; font-family: monospace"">ganhou</span>"," ","","exp-sent","ganhou","","",""
"","222","html-keyboard-response","353","416268","0.0-3.0-1.288","<span style=""font-size:30px; font-family: monospace"">um</span>"," ","","exp-sent","um","","",""
"","342","html-keyboard-response","354","416869","0.0-3.0-1.289","<span style=""font-size:30px; font-family: monospace"">presente</span>"," ","","exp-sent","presente","","",""
"","296","html-keyboard-response","355","417428","0.0-3.0-1.290","<span style=""font-size:30px; font-family: monospace"">maravilhoso.</span>"," ","","exp-sent","maravilhoso.","","",""
"","null","html-keyboard-response","356","418700","0.0-3.0-0.291-0.291","<span style= ""font-size:30px; font-family: monospace"">+</span>","null","fixation","","","","",""
"","89","html-keyboard-response","357","419052","0.0-3.0-1.291","<span style=""font-size:30px; font-family: monospace"">Os</span>"," ","","exp-sent","Os","","",""
"","232","html-keyboard-response","358","419544","0.0-3.0-1.292","<span style=""font-size:30px; font-family: monospace"">bichos</span>"," ","","exp-sent","bichos","","",""
"","324","html-keyboard-response","359","420124","0.0-3.0-1.293","<span style=""font-size:30px; font-family: monospace"">têm</span>"," ","","exp-sent","têm","","",""
"","349","html-keyboard-response","360","420731","0.0-3.0-1.294","<span style=""font-size:30px; font-family: monospace"">um</span>"," ","","exp-sent","um","","",""
"","292","html-keyboard-response","361","421282","0.0-3.0-1.295","<span style=""font-size:30px; font-family: monospace"">instinto</span>"," ","","exp-sent","instinto","","",""
"","289","html-keyboard-response","362","421827","0.0-3.0-1.296","<span style=""font-size:30px; font-family: monospace"">de</span>"," ","","exp-sent","de","","",""
"","263","html-keyboard-response","363","422348","0.0-3.0-1.297","<span style=""font-size:30px; font-family: monospace"">sobrevivência</span>"," ","","exp-sent","sobrevivência","","",""
"","355","html-keyboard-response","364","422963","0.0-3.0-1.298","<span style=""font-size:30px; font-family: monospace"">forte.</span>"," ","","exp-sent","forte.","","",""
"","null","html-keyboard-response","365","424220","0.0-3.0-0.299-0.299","<span style= ""font-size:30px; font-family: monospace"">+</span>","null","fixation","","","","",""
"","511","html-keyboard-response","366","424991","0.0-3.0-1.299","<span style=""font-size:30px; font-family: monospace"">Aquele</span>"," ","","exp-sent","Aquele","","",""
"","259","html-keyboard-response","367","425508","0.0-3.0-1.300","<span style=""font-size:30px; font-family: monospace"">menino</span>"," ","","exp-sent","menino","","",""
"","136","html-keyboard-response","368","425899","0.0-3.0-1.301","<span style=""font-size:30px; font-family: monospace"">alto</span>"," ","","exp-sent","alto","","",""
"","277","html-keyboard-response","369","426432","0.0-3.0-1.302","<span style=""font-size:30px; font-family: monospace"">é</span>"," ","","exp-sent","é","","",""
"","308","html-keyboard-response","370","427001","0.0-3.0-1.303","<span style=""font-size:30px; font-family: monospace"">exibido</span>"," ","","exp-sent","exibido","","",""
"","292","html-keyboard-response","371","427555","0.0-3.0-1.304","<span style=""font-size:30px; font-family: monospace"">e</span>"," ","","exp-sent","e","","",""
"","346","html-keyboard-response","372","428161","0.0-3.0-1.305","<span style=""font-size:30px; font-family: monospace"">sovina.</span>"," ","","comp","sovina.","","",""
"","7134","html-keyboard-response","373","435550","0.0-3.0-2.305-0.305","<span style=""font-size:30px; font-family: monospace"">Aquele menino é humilde?</span>","s","","comp","","Aquele menino é humilde?","não","false"
"","null","html-keyboard-response","374","437068","0.0-3.0-0.306-0.306","<span style= ""font-size:30px; font-family: monospace"">+</span>","null","fixation","","","","",""
"","588","html-keyboard-response","375","437915","0.0-3.0-1.306","<span style=""font-size:30px; font-family: monospace"">A</span>"," ","","exp-sent","A","","",""
"","226","html-keyboard-response","376","438402","0.0-3.0-1.307","<span style=""font-size:30px; font-family: monospace"">senhora</span>"," ","","exp-sent","senhora","","",""
"","283","html-keyboard-response","377","438937","0.0-3.0-1.308","<span style=""font-size:30px; font-family: monospace"">cumprimentou</span>"," ","","exp-sent","cumprimentou","","",""
"","444","html-keyboard-response","378","439640","0.0-3.0-1.309","<span style=""font-size:30px; font-family: monospace"">o</span>"," ","","exp-sent","o","","",""
"","316","html-keyboard-response","379","440214","0.0-3.0-1.310","<span style=""font-size:30px; font-family: monospace"">operador</span>"," ","","exp-sent","operador","","",""
"","270","html-keyboard-response","380","440751","0.0-3.0-1.311","<span style=""font-size:30px; font-family: monospace"">de</span>"," ","","exp-sent","de","","",""
"","333","html-keyboard-response","381","441336","0.0-3.0-1.312","<span style=""font-size:30px; font-family: monospace"">caixa.</span>"," ","","exp-sent","caixa.","","",""
"","null","html-keyboard-response","382","442607","0.0-3.0-0.313-0.313","<span style= ""font-size:30px; font-family: monospace"">+</span>","null","fixation","","","","",""
"","207","html-keyboard-response","383","443068","0.0-3.0-1.313","<span style=""font-size:30px; font-family: monospace"">A</span>"," ","","exp-sent","A","","",""
"","239","html-keyboard-response","384","443562","0.0-3.0-1.314","<span style=""font-size:30px; font-family: monospace"">gente</span>"," ","","exp-sent","gente","","",""
"","255","html-keyboard-response","385","444080","0.0-3.0-1.315","<span style=""font-size:30px; font-family: monospace"">viu</span>"," ","","exp-sent","viu","","",""
"","155","html-keyboard-response","386","444488","0.0-3.0-1.316","<span style=""font-size:30px; font-family: monospace"">o</span>"," ","","exp-sent","o","","",""
"","281","html-keyboard-response","387","445025","0.0-3.0-1.317","<span style=""font-size:30px; font-family: monospace"">eclipse</span>"," ","","exp-sent","eclipse","","",""
"","252","html-keyboard-response","388","445542","0.0-3.0-1.318","<span style=""font-size:30px; font-family: monospace"">lunar</span>"," ","","exp-sent","lunar","","",""
"","241","html-keyboard-response","389","446046","0.0-3.0-1.319","<span style=""font-size:30px; font-family: monospace"">durante</span>"," ","","exp-sent","durante","","",""
"","335","html-keyboard-response","390","446637","0.0-3.0-1.320","<span style=""font-size:30px; font-family: monospace"">o</span>"," ","","exp-sent","o","","",""
"","243","html-keyboard-response","391","447139","0.0-3.0-1.321","<span style=""font-size:30px; font-family: monospace"">dia.</span>"," ","","exp-sent","dia.","","",""
"","null","html-keyboard-response","392","448399","0.0-3.0-0.322-0.322","<span style= ""font-size:30px; font-family: monospace"">+</span>","null","fixation","","","","",""
"","312","html-keyboard-response","393","448966","0.0-3.0-1.322","<span style=""font-size:30px; font-family: monospace"">A</span>"," ","","exp-sent","A","","",""
"","300","html-keyboard-response","394","449523","0.0-3.0-1.323","<span style=""font-size:30px; font-family: monospace"">mordida</span>"," ","","exp-sent","mordida","","",""
"","375","html-keyboard-response","395","450153","0.0-3.0-1.324","<span style=""font-size:30px; font-family: monospace"">do</span>"," ","","exp-sent","do","","",""
"","243","html-keyboard-response","396","450652","0.0-3.0-1.325","<span style=""font-size:30px; font-family: monospace"">cachorro</span>"," ","","exp-sent","cachorro","","",""
"","377","html-keyboard-response","397","451286","0.0-3.0-1.326","<span style=""font-size:30px; font-family: monospace"">voraz</span>"," ","","exp-sent","voraz","","",""
"","343","html-keyboard-response","398","451885","0.0-3.0-1.327","<span style=""font-size:30px; font-family: monospace"">causou</span>"," ","","exp-sent","causou","","",""
"","341","html-keyboard-response","399","452501","0.0-3.0-1.328","<span style=""font-size:30px; font-family: monospace"">uma</span>"," ","","exp-sent","uma","","",""
"","329","html-keyboard-response","400","453085","0.0-3.0-1.329","<span style=""font-size:30px; font-family: monospace"">cicatriz.</span>"," ","","exp-sent","cicatriz.","","",""
"","null","html-keyboard-response","401","454364","0.0-3.0-0.330-0.330","<span style= ""font-size:30px; font-family: monospace"">+</span>","null","fixation","","","","",""
"","41","html-keyboard-response","402","454662","0.0-3.0-1.330","<span style=""font-size:30px; font-family: monospace"">Elas</span>"," ","","exp-sent","Elas","","",""
"","255","html-keyboard-response","403","455180","0.0-3.0-1.331","<span style=""font-size:30px; font-family: monospace"">não</span>"," ","","exp-sent","não","","",""
"","325","html-keyboard-response","404","455761","0.0-3.0-1.332","<span style=""font-size:30px; font-family: monospace"">viram</span>"," ","","exp-sent","viram","","",""
"","319","html-keyboard-response","405","456335","0.0-3.0-1.333","<span style=""font-size:30px; font-family: monospace"">nenhuma</span>"," ","","exp-sent","nenhuma","","",""
"","378","html-keyboard-response","406","456974","0.0-3.0-1.334","<span style=""font-size:30px; font-family: monospace"">diferença</span>"," ","","exp-sent","diferença","","",""
"","190","html-keyboard-response","407","457427","0.0-3.0-1.335","<span style=""font-size:30px; font-family: monospace"">entre</span>"," ","","exp-sent","entre","","",""
"","232","html-keyboard-response","408","457917","0.0-3.0-1.336","<span style=""font-size:30px; font-family: monospace"">os</span>"," ","","exp-sent","os","","",""
"","678","html-keyboard-response","409","458853","0.0-3.0-1.337","<span style=""font-size:30px; font-family: monospace"">textos.</span>"," ","","exp-sent","textos.","","",""
"","null","html-keyboard-response","410","460120","0.0-3.0-0.338-0.338","<span style= ""font-size:30px; font-family: monospace"">+</span>","null","fixation","","","","",""
"","212","html-keyboard-response","411","460585","0.0-3.0-1.338","<span style=""font-size:30px; font-family: monospace"">Amanhã</span>"," ","","exp-sent","Amanhã","","",""
"","290","html-keyboard-response","412","461134","0.0-3.0-1.339","<span style=""font-size:30px; font-family: monospace"">vai</span>"," ","","exp-sent","vai","","",""
"","211","html-keyboard-response","413","461603","0.0-3.0-1.340","<span style=""font-size:30px; font-family: monospace"">ter</span>"," ","","exp-sent","ter","","",""
"","293","html-keyboard-response","414","462157","0.0-3.0-1.341","<span style=""font-size:30px; font-family: monospace"">um</span>"," ","","exp-sent","um","","",""
"","282","html-keyboard-response","415","462697","0.0-3.0-1.342","<span style=""font-size:30px; font-family: monospace"">bazar</span>"," ","","exp-sent","bazar","","",""
"","242","html-keyboard-response","416","463201","0.0-3.0-1.343","<span style=""font-size:30px; font-family: monospace"">no</span>"," ","","exp-sent","no","","",""
"","234","html-keyboard-response","417","463687","0.0-3.0-1.344","<span style=""font-size:30px; font-family: monospace"">bairro.</span>"," ","","comp","bairro.","","",""
"","6680","html-keyboard-response","418","470621","0.0-3.0-2.344-0.344","<span style=""font-size:30px; font-family: monospace"">Amanhã vai acontecer um bazar no bairro?</span>","s","","comp","","Amanhã vai acontecer um bazar no bairro?","sim","false"
"","null","html-keyboard-response","419","472137","0.0-3.0-0.345-0.345","<span style= ""font-size:30px; font-family: monospace"">+</span>","null","fixation","","","","",""
"","620","html-keyboard-response","420","473014","0.0-3.0-1.345","<span style=""font-size:30px; font-family: monospace"">A</span>"," ","","exp-sent","A","","",""
"","704","html-keyboard-response","421","473980","0.0-3.0-1.346","<span style=""font-size:30px; font-family: monospace"">motorista</span>"," ","","exp-sent","motorista","","",""
"","321","html-keyboard-response","422","474555","0.0-3.0-1.347","<span style=""font-size:30px; font-family: monospace"">fez</span>"," ","","exp-sent","fez","","",""
"","288","html-keyboard-response","423","475097","0.0-3.0-1.348","<span style=""font-size:30px; font-family: monospace"">o</span>"," ","","exp-sent","o","","",""
"","166","html-keyboard-response","424","475526","0.0-3.0-1.349","<span style=""font-size:30px; font-family: monospace"">retorno</span>"," ","","exp-sent","retorno","","",""
"","127","html-keyboard-response","425","475924","0.0-3.0-1.350","<span style=""font-size:30px; font-family: monospace"">com</span>"," ","","exp-sent","com","","",""
"","162","html-keyboard-response","426","476347","0.0-3.0-1.351","<span style=""font-size:30px; font-family: monospace"">cuidado.</span>"," ","","exp-sent","cuidado.","","",""
"","null","html-keyboard-response","427","477619","0.0-3.0-0.352-0.352","<span style= ""font-size:30px; font-family: monospace"">+</span>","null","fixation","","","","",""
"","161","html-keyboard-response","428","478034","0.0-3.0-1.352","<span style=""font-size:30px; font-family: monospace"">Contos</span>"," ","","exp-sent","Contos","","",""
"","230","html-keyboard-response","429","478517","0.0-3.0-1.353","<span style=""font-size:30px; font-family: monospace"">de</span>"," ","","exp-sent","de","","",""
"","177","html-keyboard-response","430","478962","0.0-3.0-1.354","<span style=""font-size:30px; font-family: monospace"">ação</span>"," ","","exp-sent","ação","","",""
"","221","html-keyboard-response","431","479445","0.0-3.0-1.355","<span style=""font-size:30px; font-family: monospace"">têm</span>"," ","","exp-sent","têm","","",""
"","155","html-keyboard-response","432","479860","0.0-3.0-1.356","<span style=""font-size:30px; font-family: monospace"">chantagem</span>"," ","","exp-sent","chantagem","","",""
"","197","html-keyboard-response","433","480310","0.0-3.0-1.357","<span style=""font-size:30px; font-family: monospace"">e</span>"," ","","exp-sent","e","","",""
"","247","html-keyboard-response","434","480822","0.0-3.0-1.358","<span style=""font-size:30px; font-family: monospace"">muita</span>"," ","","exp-sent","muita","","",""
"","172","html-keyboard-response","435","481257","0.0-3.0-1.359","<span style=""font-size:30px; font-family: monospace"">luta.</span>"," ","","exp-sent","luta.","","",""
"","null","html-keyboard-response","436","482524","0.0-3.0-0.360-0.360","<span style= ""font-size:30px; font-family: monospace"">+</span>","null","fixation","","","","",""
"","152","html-keyboard-response","437","482937","0.0-3.0-1.360","<span style=""font-size:30px; font-family: monospace"">A</span>"," ","","exp-sent","A","","",""
"","312","html-keyboard-response","438","483515","0.0-3.0-1.361","<span style=""font-size:30px; font-family: monospace"">bisavó</span>"," ","","exp-sent","bisavó","","",""
"","351","html-keyboard-response","439","484126","0.0-3.0-1.362","<span style=""font-size:30px; font-family: monospace"">recebeu</span>"," ","","exp-sent","recebeu","","",""
"","304","html-keyboard-response","440","484690","0.0-3.0-1.363","<span style=""font-size:30px; font-family: monospace"">um</span>"," ","","exp-sent","um","","",""
"","312","html-keyboard-response","441","485264","0.0-3.0-1.364","<span style=""font-size:30px; font-family: monospace"">benefício</span>"," ","","exp-sent","benefício","","",""
"","342","html-keyboard-response","442","485859","0.0-3.0-1.365","<span style=""font-size:30px; font-family: monospace"">temporário</span>"," ","","exp-sent","temporário","","",""
"","294","html-keyboard-response","443","486409","0.0-3.0-1.366","<span style=""font-size:30px; font-family: monospace"">do</span>"," ","","exp-sent","do","","",""
"","284","html-keyboard-response","444","486947","0.0-3.0-1.367","<span style=""font-size:30px; font-family: monospace"">governo.</span>"," ","","exp-sent","governo.","","",""
"","null","html-keyboard-response","445","488203","0.0-3.0-0.368-0.368","<span style= ""font-size:30px; font-family: monospace"">+</span>","null","fixation","","","","",""
"","329","html-keyboard-response","446","488794","0.0-3.0-1.368","<span style=""font-size:30px; font-family: monospace"">As</span>"," ","","exp-sent","As","","",""
"","189","html-keyboard-response","447","489234","0.0-3.0-1.369","<span style=""font-size:30px; font-family: monospace"">crianças</span>"," ","","exp-sent","crianças","","",""
"","414","html-keyboard-response","448","489906","0.0-3.0-1.370","<span style=""font-size:30px; font-family: monospace"">brincaram</span>"," ","","exp-sent","brincaram","","",""
"","187","html-keyboard-response","449","490361","0.0-3.0-1.371","<span style=""font-size:30px; font-family: monospace"">no</span>"," ","","exp-sent","no","","",""
"","101","html-keyboard-response","450","490725","0.0-3.0-1.372","<span style=""font-size:30px; font-family: monospace"">balanço</span>"," ","","exp-sent","balanço","","",""
"","200","html-keyboard-response","451","491184","0.0-3.0-1.373","<span style=""font-size:30px; font-family: monospace"">a</span>"," ","","exp-sent","a","","",""
"","172","html-keyboard-response","452","491616","0.0-3.0-1.374","<span style=""font-size:30px; font-family: monospace"">tarde</span>"," ","","exp-sent","tarde","","",""
"","206","html-keyboard-response","453","492080","0.0-3.0-1.375","<span style=""font-size:30px; font-family: monospace"">toda.</span>"," ","","exp-sent","toda.","","",""
"","null","html-keyboard-response","454","493338","0.0-3.0-0.376-0.376","<span style= ""font-size:30px; font-family: monospace"">+</span>","null","fixation","","","","",""
"","319","html-keyboard-response","455","493916","0.0-3.0-1.376","<span style=""font-size:30px; font-family: monospace"">Ela</span>"," ","","exp-sent","Ela","","",""
"","150","html-keyboard-response","456","494327","0.0-3.0-1.377","<span style=""font-size:30px; font-family: monospace"">gosta</span>"," ","","exp-sent","gosta","","",""
"","144","html-keyboard-response","457","494725","0.0-3.0-1.378","<span style=""font-size:30px; font-family: monospace"">de</span>"," ","","exp-sent","de","","",""
"","86","html-keyboard-response","458","495067","0.0-3.0-1.379","<span style=""font-size:30px; font-family: monospace"">comida</span>"," ","","exp-sent","comida","","",""
"","165","html-keyboard-response","459","495487","0.0-3.0-1.380","<span style=""font-size:30px; font-family: monospace"">natural</span>"," ","","exp-sent","natural","","",""
"","149","html-keyboard-response","460","495887","0.0-3.0-1.381","<span style=""font-size:30px; font-family: monospace"">no</span>"," ","","exp-sent","no","","",""
"","100","html-keyboard-response","461","496274","0.0-3.0-1.382","<span style=""font-size:30px; font-family: monospace"">almoço.</span>"," ","","comp","almoço.","","",""
"","4578","html-keyboard-response","462","501110","0.0-3.0-2.382-0.382","<span style=""font-size:30px; font-family: monospace"">Ela gosta de comida natural no almoço?</span>","s","","comp","","Ela gosta de comida natural no almoço?","sim","false"
"","null","html-keyboard-response","463","502624","0.0-3.0-0.383-0.383","<span style= ""font-size:30px; font-family: monospace"">+</span>","null","fixation","","","","",""
"","1691","html-keyboard-response","464","504573","0.0-3.0-1.383","<span style=""font-size:30px; font-family: monospace"">O</span>"," ","","exp-sent","O","","",""
"","284","html-keyboard-response","465","505116","0.0-3.0-1.384","<span style=""font-size:30px; font-family: monospace"">travesseiro</span>"," ","","exp-sent","travesseiro","","",""
"","110","html-keyboard-response","466","505510","0.0-3.0-1.385","<span style=""font-size:30px; font-family: monospace"">era</span>"," ","","exp-sent","era","","",""
"","467","html-keyboard-response","467","506229","0.0-3.0-1.386","<span style=""font-size:30px; font-family: monospace"">muito</span>"," ","","exp-sent","muito","","",""
"","161","html-keyboard-response","468","506644","0.0-3.0-1.387","<span style=""font-size:30px; font-family: monospace"">macio</span>"," ","","exp-sent","macio","","",""
"","255","html-keyboard-response","469","507157","0.0-3.0-1.388","<span style=""font-size:30px; font-family: monospace"">e</span>"," ","","exp-sent","e","","",""
"","155","html-keyboard-response","470","507569","0.0-3.0-1.389","<span style=""font-size:30px; font-family: monospace"">confortável.</span>"," ","","exp-sent","confortável.","","",""
"","null","html-keyboard-response","471","508828","0.0-3.0-0.390-0.390","<span style= ""font-size:30px; font-family: monospace"">+</span>","null","fixation","","","","",""
"","71","html-keyboard-response","472","509155","0.0-3.0-1.390","<span style=""font-size:30px; font-family: monospace"">Hoje</span>"," ","","exp-sent","Hoje","","",""
"","53","html-keyboard-response","473","509468","0.0-3.0-1.391","<span style=""font-size:30px; font-family: monospace"">a</span>"," ","","exp-sent","a","","",""
"","115","html-keyboard-response","474","509837","0.0-3.0-1.392","<span style=""font-size:30px; font-family: monospace"">atendente</span>"," ","","exp-sent","atendente","","",""
"","143","html-keyboard-response","475","510247","0.0-3.0-1.393","<span style=""font-size:30px; font-family: monospace"">estava</span>"," ","","exp-sent","estava","","",""
"","984","html-keyboard-response","476","511489","0.0-3.0-1.394","<span style=""font-size:30px; font-family: monospace"">furiosa</span>"," ","","exp-sent","furiosa","","",""
"","553","html-keyboard-response","477","512298","0.0-3.0-1.395","<span style=""font-size:30px; font-family: monospace"">com</span>"," ","","exp-sent","com","","",""
"","342","html-keyboard-response","478","512896","0.0-3.0-1.396","<span style=""font-size:30px; font-family: monospace"">o</span>"," ","","exp-sent","o","","",""
"","143","html-keyboard-response","479","513291","0.0-3.0-1.397","<span style=""font-size:30px; font-family: monospace"">cliente.</span>"," ","","exp-sent","cliente.","","",""
"","null","html-keyboard-response","480","514571","0.0-3.0-0.398-0.398","<span style= ""font-size:30px; font-family: monospace"">+</span>","null","fixation","","","","",""
"","396","html-keyboard-response","481","515231","0.0-3.0-1.398","<span style=""font-size:30px; font-family: monospace"">O</span>"," ","","exp-sent","O","","",""
"","486","html-keyboard-response","482","515970","0.0-3.0-1.399","<span style=""font-size:30px; font-family: monospace"">vizinho</span>"," ","","exp-sent","vizinho","","",""
"","319","html-keyboard-response","483","516543","0.0-3.0-1.400","<span style=""font-size:30px; font-family: monospace"">é</span>"," ","","exp-sent","é","","",""
"","103","html-keyboard-response","484","516908","0.0-3.0-1.401","<span style=""font-size:30px; font-family: monospace"">um</span>"," ","","exp-sent","um","","",""
"","81","html-keyboard-response","485","517245","0.0-3.0-1.402","<span style=""font-size:30px; font-family: monospace"">arquiteto</span>"," ","","exp-sent","arquiteto","","",""
"","72","html-keyboard-response","486","517577","0.0-3.0-1.403","<span style=""font-size:30px; font-family: monospace"">muito</span>"," ","","exp-sent","muito","","",""
"","130","html-keyboard-response","487","517965","0.0-3.0-1.404","<span style=""font-size:30px; font-family: monospace"">excêntrico.</span>"," ","","exp-sent","excêntrico.","","",""
"","null","html-keyboard-response","488","519229","0.0-3.0-0.405-0.405","<span style= ""font-size:30px; font-family: monospace"">+</span>","null","fixation","","","","",""
"","79","html-keyboard-response","489","519563","0.0-3.0-1.405","<span style=""font-size:30px; font-family: monospace"">A</span>"," ","","exp-sent","A","","",""
"","504","html-keyboard-response","490","520324","0.0-3.0-1.406","<span style=""font-size:30px; font-family: monospace"">nossa</span>"," ","","exp-sent","nossa","","",""
"","336","html-keyboard-response","491","520919","0.0-3.0-1.407","<span style=""font-size:30px; font-family: monospace"">colega</span>"," ","","exp-sent","colega","","",""
"","311","html-keyboard-response","492","521484","0.0-3.0-1.408","<span style=""font-size:30px; font-family: monospace"">foi</span>"," ","","exp-sent","foi","","",""
"","312","html-keyboard-response","493","522057","0.0-3.0-1.409","<span style=""font-size:30px; font-family: monospace"">má</span>"," ","","exp-sent","má","","",""
"","338","html-keyboard-response","494","522654","0.0-3.0-1.410","<span style=""font-size:30px; font-family: monospace"">com</span>"," ","","exp-sent","com","","",""
"","274","html-keyboard-response","495","523188","0.0-3.0-1.411","<span style=""font-size:30px; font-family: monospace"">as</span>"," ","","exp-sent","as","","",""
"","307","html-keyboard-response","496","523748","0.0-3.0-1.412","<span style=""font-size:30px; font-family: monospace"">crianças.</span>"," ","","exp-sent","crianças.","","",""
"","null","html-keyboard-response","497","525011","0.0-3.0-0.413-0.413","<span style= ""font-size:30px; font-family: monospace"">+</span>","null","fixation","","","","",""
"","335","html-keyboard-response","498","525611","0.0-3.0-1.413","<span style=""font-size:30px; font-family: monospace"">Virtudes</span>"," ","","exp-sent","Virtudes","","",""
"","319","html-keyboard-response","499","526194","0.0-3.0-1.414","<span style=""font-size:30px; font-family: monospace"">não</span>"," ","","exp-sent","não","","",""
"","362","html-keyboard-response","500","526816","0.0-3.0-1.415","<span style=""font-size:30px; font-family: monospace"">são</span>"," ","","exp-sent","são","","",""
"","349","html-keyboard-response","501","527423","0.0-3.0-1.416","<span style=""font-size:30px; font-family: monospace"">preguiça,</span>"," ","","exp-sent","preguiça,","","",""
"","295","html-keyboard-response","502","527980","0.0-3.0-1.417","<span style=""font-size:30px; font-family: monospace"">gula</span>"," ","","exp-sent","gula","","",""
"","333","html-keyboard-response","503","528569","0.0-3.0-1.418","<span style=""font-size:30px; font-family: monospace"">nem</span>"," ","","exp-sent","nem","","",""
"","447","html-keyboard-response","504","529275","0.0-3.0-1.419","<span style=""font-size:30px; font-family: monospace"">ganância.</span>"," ","","comp","ganância.","","",""
"","9595","html-keyboard-response","505","539126","0.0-3.0-2.419-0.419","<span style=""font-size:30px; font-family: monospace"">Preguiça é uma virtude?</span>","s","","comp","","Preguiça é uma virtude?","não","false"
"","null","html-keyboard-response","506","540631","0.0-3.0-0.420-0.420","<span style= ""font-size:30px; font-family: monospace"">+</span>","null","fixation","","","","",""
"","3178","html-keyboard-response","507","544063","0.0-3.0-1.420","<span style=""font-size:30px; font-family: monospace"">Barulho</span>"," ","","exp-sent","Barulho","","",""
"","332","html-keyboard-response","508","544672","0.0-3.0-1.421","<span style=""font-size:30px; font-family: monospace"">de</span>"," ","","exp-sent","de","","",""
"","316","html-keyboard-response","509","545250","0.0-3.0-1.422","<span style=""font-size:30px; font-family: monospace"">carros</span>"," ","","exp-sent","carros","","",""
"","326","html-keyboard-response","510","545850","0.0-3.0-1.423","<span style=""font-size:30px; font-family: monospace"">é</span>"," ","","exp-sent","é","","",""
"","259","html-keyboard-response","511","546371","0.0-3.0-1.424","<span style=""font-size:30px; font-family: monospace"">irritante</span>"," ","","exp-sent","irritante","","",""
"","444","html-keyboard-response","512","547069","0.0-3.0-1.425","<span style=""font-size:30px; font-family: monospace"">para</span>"," ","","exp-sent","para","","",""
"","307","html-keyboard-response","513","547628","0.0-3.0-1.426","<span style=""font-size:30px; font-family: monospace"">a</span>"," ","","exp-sent","a","","",""
"","523","html-keyboard-response","514","548407","0.0-3.0-1.427","<span style=""font-size:30px; font-family: monospace"">moça.</span>"," ","","exp-sent","moça.","","",""
"","null","html-keyboard-response","515","549672","0.0-3.0-0.428-0.428","<span style= ""font-size:30px; font-family: monospace"">+</span>","null","fixation","","","","",""
"","212","html-keyboard-response","516","550137","0.0-3.0-1.428","<span style=""font-size:30px; font-family: monospace"">A</span>"," ","","exp-sent","A","","",""
"","487","html-keyboard-response","517","550877","0.0-3.0-1.429","<span style=""font-size:30px; font-family: monospace"">loja</span>"," ","","exp-sent","loja","","",""
"","355","html-keyboard-response","518","551487","0.0-3.0-1.430","<span style=""font-size:30px; font-family: monospace"">também</span>"," ","","exp-sent","também","","",""
"","332","html-keyboard-response","519","552076","0.0-3.0-1.431","<span style=""font-size:30px; font-family: monospace"">vende</span>"," ","","exp-sent","vende","","",""
"","351","html-keyboard-response","520","552684","0.0-3.0-1.432","<span style=""font-size:30px; font-family: monospace"">taça</span>"," ","","exp-sent","taça","","",""
"","328","html-keyboard-response","521","553268","0.0-3.0-1.433","<span style=""font-size:30px; font-family: monospace"">de</span>"," ","","exp-sent","de","","",""
"","302","html-keyboard-response","522","553823","0.0-3.0-1.434","<span style=""font-size:30px; font-family: monospace"">vinho</span>"," ","","exp-sent","vinho","","",""
"","295","html-keyboard-response","523","554380","0.0-3.0-1.435","<span style=""font-size:30px; font-family: monospace"">e</span>"," ","","exp-sent","e","","",""
"","184","html-keyboard-response","524","554818","0.0-3.0-1.436","<span style=""font-size:30px; font-family: monospace"">espumante.</span>"," ","","exp-sent","espumante.","","",""
"","null","html-keyboard-response","525","556079","0.0-3.0-0.437-0.437","<span style= ""font-size:30px; font-family: monospace"">+</span>","null","fixation","","","","",""
"","299","html-keyboard-response","526","556630","0.0-3.0-1.437","<span style=""font-size:30px; font-family: monospace"">A</span>"," ","","exp-sent","A","","",""
"","309","html-keyboard-response","527","557195","0.0-3.0-1.438","<span style=""font-size:30px; font-family: monospace"">bruxa</span>"," ","","exp-sent","bruxa","","",""
"","334","html-keyboard-response","528","557784","0.0-3.0-1.439","<span style=""font-size:30px; font-family: monospace"">tinha</span>"," ","","exp-sent","tinha","","",""
"","331","html-keyboard-response","529","558375","0.0-3.0-1.440","<span style=""font-size:30px; font-family: monospace"">uma</span>"," ","","exp-sent","uma","","",""
"","344","html-keyboard-response","530","558978","0.0-3.0-1.441","<span style=""font-size:30px; font-family: monospace"">vassoura</span>"," ","","exp-sent","vassoura","","",""
"","292","html-keyboard-response","531","559532","0.0-3.0-1.442","<span style=""font-size:30px; font-family: monospace"">e</span>"," ","","exp-sent","e","","",""
"","353","html-keyboard-response","532","560149","0.0-3.0-1.443","<span style=""font-size:30px; font-family: monospace"">um</span>"," ","","exp-sent","um","","",""
"","178","html-keyboard-response","533","560584","0.0-3.0-1.444","<span style=""font-size:30px; font-family: monospace"">gato.</span>"," ","","exp-sent","gato.","","",""
"","null","html-keyboard-response","534","561847","0.0-3.0-0.445-0.445","<span style= ""font-size:30px; font-family: monospace"">+</span>","null","fixation","","","","",""
"","260","html-keyboard-response","535","562364","0.0-3.0-1.445","<span style=""font-size:30px; font-family: monospace"">Eu</span>"," ","","exp-sent","Eu","","",""
"","269","html-keyboard-response","536","562892","0.0-3.0-1.446","<span style=""font-size:30px; font-family: monospace"">me</span>"," ","","exp-sent","me","","",""
"","261","html-keyboard-response","537","563415","0.0-3.0-1.447","<span style=""font-size:30px; font-family: monospace"">divirto</span>"," ","","exp-sent","divirto","","",""
"","319","html-keyboard-response","538","563985","0.0-3.0-1.448","<span style=""font-size:30px; font-family: monospace"">em</span>"," ","","exp-sent","em","","",""
"","279","html-keyboard-response","539","564523","0.0-3.0-1.449","<span style=""font-size:30px; font-family: monospace"">festas</span>"," ","","exp-sent","festas","","",""
"","284","html-keyboard-response","540","565068","0.0-3.0-1.450","<span style=""font-size:30px; font-family: monospace"">de</span>"," ","","exp-sent","de","","",""
"","307","html-keyboard-response","541","565642","0.0-3.0-1.451","<span style=""font-size:30px; font-family: monospace"">criança.</span>"," ","","exp-sent","criança.","","",""
"","null","html-keyboard-response","542","566918","0.0-3.0-0.452-0.452","<span style= ""font-size:30px; font-family: monospace"">+</span>","null","fixation","","","","",""
"","237","html-keyboard-response","543","567411","0.0-3.0-1.452","<span style=""font-size:30px; font-family: monospace"">A</span>"," ","","exp-sent","A","","",""
"","296","html-keyboard-response","544","567965","0.0-3.0-1.453","<span style=""font-size:30px; font-family: monospace"">janela</span>"," ","","exp-sent","janela","","",""
"","334","html-keyboard-response","545","568557","0.0-3.0-1.454","<span style=""font-size:30px; font-family: monospace"">alta</span>"," ","","exp-sent","alta","","",""
"","271","html-keyboard-response","546","569090","0.0-3.0-1.455","<span style=""font-size:30px; font-family: monospace"">estava</span>"," ","","exp-sent","estava","","",""
"","405","html-keyboard-response","547","569752","0.0-3.0-1.456","<span style=""font-size:30px; font-family: monospace"">quebrada</span>"," ","","exp-sent","quebrada","","",""
"","403","html-keyboard-response","548","570409","0.0-3.0-1.457","<span style=""font-size:30px; font-family: monospace"">desde</span>"," ","","exp-sent","desde","","",""
"","495","html-keyboard-response","549","571156","0.0-3.0-1.458","<span style=""font-size:30px; font-family: monospace"">ontem.</span>"," ","","comp","ontem.","","",""
"","7894","html-keyboard-response","550","579309","0.0-3.0-2.458-0.458","<span style=""font-size:30px; font-family: monospace"">A janela alta estava quebrada?</span>","s","","comp","","A janela alta estava quebrada?","sim","false"
"","null","html-keyboard-response","551","580823","0.0-3.0-0.459-0.459","<span style= ""font-size:30px; font-family: monospace"">+</span>","null","fixation","","","","",""
"","8","html-keyboard-response","552","581096","0.0-3.0-1.459","<span style=""font-size:30px; font-family: monospace"">As</span>"," ","","exp-sent","As","","",""
"","448","html-keyboard-response","553","581800","0.0-3.0-1.460","<span style=""font-size:30px; font-family: monospace"">crianças</span>"," ","","exp-sent","crianças","","",""
"","483","html-keyboard-response","554","582537","0.0-3.0-1.461","<span style=""font-size:30px; font-family: monospace"">viram</span>"," ","","exp-sent","viram","","",""
"","357","html-keyboard-response","555","583151","0.0-3.0-1.462","<span style=""font-size:30px; font-family: monospace"">um</span>"," ","","exp-sent","um","","",""
"","312","html-keyboard-response","556","583720","0.0-3.0-1.463","<span style=""font-size:30px; font-family: monospace"">vaga-lume</span>"," ","","exp-sent","vaga-lume","","",""
"","391","html-keyboard-response","557","584367","0.0-3.0-1.464","<span style=""font-size:30px; font-family: monospace"">nos</span>"," ","","exp-sent","nos","","",""
"","313","html-keyboard-response","558","584937","0.0-3.0-1.465","<span style=""font-size:30px; font-family: monospace"">arbustos.</span>"," ","","exp-sent","arbustos.","","",""
"","null","html-keyboard-response","559","586199","0.0-3.0-0.466-0.466","<span style= ""font-size:30px; font-family: monospace"">+</span>","null","fixation","","","","",""
"","407","html-keyboard-response","560","586860","0.0-3.0-1.466","<span style=""font-size:30px; font-family: monospace"">Ontem</span>"," ","","exp-sent","Ontem","","",""
"","372","html-keyboard-response","561","587484","0.0-3.0-1.467","<span style=""font-size:30px; font-family: monospace"">o</span>"," ","","exp-sent","o","","",""
"","384","html-keyboard-response","562","588124","0.0-3.0-1.468","<span style=""font-size:30px; font-family: monospace"">funcionário</span>"," ","","exp-sent","funcionário","","",""
"","502","html-keyboard-response","563","588888","0.0-3.0-1.469","<span style=""font-size:30px; font-family: monospace"">pediu</span>"," ","","exp-sent","pediu","","",""
"","286","html-keyboard-response","564","589429","0.0-3.0-1.470","<span style=""font-size:30px; font-family: monospace"">autorização</span>"," ","","exp-sent","autorização","","",""
"","486","html-keyboard-response","565","590172","0.0-3.0-1.471","<span style=""font-size:30px; font-family: monospace"">para</span>"," ","","exp-sent","para","","",""
"","350","html-keyboard-response","566","590784","0.0-3.0-1.472","<span style=""font-size:30px; font-family: monospace"">a</span>"," ","","exp-sent","a","","",""
"","371","html-keyboard-response","567","591408","0.0-3.0-1.473","<span style=""font-size:30px; font-family: monospace"">colega.</span>"," ","","exp-sent","colega.","","",""
"","null","html-keyboard-response","568","592667","0.0-3.0-0.474-0.474","<span style= ""font-size:30px; font-family: monospace"">+</span>","null","fixation","","","","",""
"","219","html-keyboard-response","569","593144","0.0-3.0-1.474","<span style=""font-size:30px; font-family: monospace"">Eu</span>"," ","","exp-sent","Eu","","",""
"","483","html-keyboard-response","570","593889","0.0-3.0-1.475","<span style=""font-size:30px; font-family: monospace"">sempre</span>"," ","","exp-sent","sempre","","",""
"","501","html-keyboard-response","571","594645","0.0-3.0-1.476","<span style=""font-size:30px; font-family: monospace"">fujo</span>"," ","","exp-sent","fujo","","",""
"","387","html-keyboard-response","572","595285","0.0-3.0-1.477","<span style=""font-size:30px; font-family: monospace"">de</span>"," ","","exp-sent","de","","",""
"","363","html-keyboard-response","573","595906","0.0-3.0-1.478","<span style=""font-size:30px; font-family: monospace"">conflito</span>"," ","","exp-sent","conflito","","",""
"","401","html-keyboard-response","574","596561","0.0-3.0-1.479","<span style=""font-size:30px; font-family: monospace"">com</span>"," ","","exp-sent","com","","",""
"","345","html-keyboard-response","575","597169","0.0-3.0-1.480","<span style=""font-size:30px; font-family: monospace"">as</span>"," ","","exp-sent","as","","",""
"","334","html-keyboard-response","576","597757","0.0-3.0-1.481","<span style=""font-size:30px; font-family: monospace"">pessoas.</span>"," ","","exp-sent","pessoas.","","",""
"","null","html-keyboard-response","577","599021","0.0-3.0-0.482-0.482","<span style= ""font-size:30px; font-family: monospace"">+</span>","null","fixation","","","","",""
"","529","html-keyboard-response","578","599812","0.0-3.0-1.482","<span style=""font-size:30px; font-family: monospace"">O</span>"," ","","exp-sent","O","","",""
"","463","html-keyboard-response","579","600537","0.0-3.0-1.483","<span style=""font-size:30px; font-family: monospace"">bolo</span>"," ","","exp-sent","bolo","","",""
"","596","html-keyboard-response","580","601388","0.0-3.0-1.484","<span style=""font-size:30px; font-family: monospace"">era</span>"," ","","exp-sent","era","","",""
"","881","html-keyboard-response","581","602524","0.0-3.0-1.485","<span style=""font-size:30px; font-family: monospace"">de</span>"," ","","exp-sent","de","","",""
"","405","html-keyboard-response","582","603185","0.0-3.0-1.486","<span style=""font-size:30px; font-family: monospace"">abacaxi</span>"," ","","exp-sent","abacaxi","","",""
"","526","html-keyboard-response","583","603968","0.0-3.0-1.487","<span style=""font-size:30px; font-family: monospace"">e</span>"," ","","exp-sent","e","","",""
"","337","html-keyboard-response","584","604558","0.0-3.0-1.488","<span style=""font-size:30px; font-family: monospace"">creme</span>"," ","","exp-sent","creme","","",""
