[
	{
		"view_history": [
			{
				"page_index": 0,
				"viewing_time": 28932
			},
			{
				"page_index": 1,
				"viewing_time": 4237
			}
		],
		"rt": 33179,
		"trial_type": "instructions",
		"trial_index": 0,
		"time_elapsed": 33191,
		"internal_node_id": "0.0-0.0"
	},
	{
		"rt": null,
		"stimulus": "<span style= \"font-size:30px; font-family: monospace\">+</span>",
		"response": null,
		"trial_part": "fixation",
		"trial_type": "html-keyboard-response",
		"trial_index": 1,
		"time_elapsed": 34307,
		"internal_node_id": "0.0-1.0-0.0-0.0"
	},
	{
		"rt": 2578,
		"stimulus": "<span style=\"font-size:30px; font-family: monospace\">O</span>",
		"response": " ",
		"trial": "prac-sent",
		"word": "O",
		"trial_type": "html-keyboard-response",
		"trial_index": 2,
		"time_elapsed": 37144,
		"internal_node_id": "0.0-1.0-1.0"
	},
	{
		"rt": 2441,
		"stimulus": "<span style=\"font-size:30px; font-family: monospace\">dia</span>",
		"response": " ",
		"trial": "prac-sent",
		"word": "dia",
		"trial_type": "html-keyboard-response",
		"trial_index": 3,
		"time_elapsed": 39855,
		"internal_node_id": "0.0-1.0-1.1"
	},
	{
		"rt": 2095,
		"stimulus": "<span style=\"font-size:30px; font-family: monospace\">estará</span>",
		"response": " ",
		"trial": "prac-sent",
		"word": "estará",
		"trial_type": "html-keyboard-response",
		"trial_index": 4,
		"time_elapsed": 42205,
		"internal_node_id": "0.0-1.0-1.2"
	},
	{
		"rt": 1622,
		"stimulus": "<span style=\"font-size:30px; font-family: monospace\">cheio</span>",
		"response": " ",
		"trial": "prac-sent",
		"word": "cheio",
		"trial_type": "html-keyboard-response",
		"trial_index": 5,
		"time_elapsed": 44090,
		"internal_node_id": "0.0-1.0-1.3"
	},
	{
		"rt": 1049,
		"stimulus": "<span style=\"font-size:30px; font-family: monospace\">de</span>",
		"response": " ",
		"trial": "prac-sent",
		"word": "de",
		"trial_type": "html-keyboard-response",
		"trial_index": 6,
		"time_elapsed": 45413,
		"internal_node_id": "0.0-1.0-1.4"
	},
	{
		"rt": 1380,
		"stimulus": "<span style=\"font-size:30px; font-family: monospace\">nuvens</span>",
		"response": " ",
		"trial": "prac-sent",
		"word": "nuvens",
		"trial_type": "html-keyboard-response",
		"trial_index": 7,
		"time_elapsed": 47059,
		"internal_node_id": "0.0-1.0-1.5"
	},
	{
		"rt": 1085,
		"stimulus": "<span style=\"font-size:30px; font-family: monospace\">hoje.</span>",
		"response": " ",
		"trial": "prac-sent",
		"word": "hoje.",
		"trial_type": "html-keyboard-response",
		"trial_index": 8,
		"time_elapsed": 48400,
		"internal_node_id": "0.0-1.0-1.6"
	},
	{
		"rt": null,
		"stimulus": "<span style= \"font-size:30px; font-family: monospace\">+</span>",
		"response": null,
		"trial_part": "fixation",
		"trial_type": "html-keyboard-response",
		"trial_index": 9,
		"time_elapsed": 49660,
		"internal_node_id": "0.0-1.0-0.7-0.7"
	},
	{
		"rt": 1213,
		"stimulus": "<span style=\"font-size:30px; font-family: monospace\">A</span>",
		"response": " ",
		"trial": "prac-sent",
		"word": "A",
		"trial_type": "html-keyboard-response",
		"trial_index": 10,
		"time_elapsed": 51131,
		"internal_node_id": "0.0-1.0-1.7"
	},
	{
		"rt": 1377,
		"stimulus": "<span style=\"font-size:30px; font-family: monospace\">caneca</span>",
		"response": " ",
		"trial": "prac-sent",
		"word": "caneca",
		"trial_type": "html-keyboard-response",
		"trial_index": 11,
		"time_elapsed": 52761,
		"internal_node_id": "0.0-1.0-1.8"
	},
	{
		"rt": 1103,
		"stimulus": "<span style=\"font-size:30px; font-family: monospace\">colorida</span>",
		"response": " ",
		"trial": "prac-sent",
		"word": "colorida",
		"trial_type": "html-keyboard-response",
		"trial_index": 12,
		"time_elapsed": 54120,
		"internal_node_id": "0.0-1.0-1.9"
	},
	{
		"rt": 1046,
		"stimulus": "<span style=\"font-size:30px; font-family: monospace\">caiu</span>",
		"response": " ",
		"trial": "prac-sent",
		"word": "caiu",
		"trial_type": "html-keyboard-response",
		"trial_index": 13,
		"time_elapsed": 55422,
		"internal_node_id": "0.0-1.0-1.10"
	},
	{
		"rt": 966,
		"stimulus": "<span style=\"font-size:30px; font-family: monospace\">da</span>",
		"response": " ",
		"trial": "prac-sent",
		"word": "da",
		"trial_type": "html-keyboard-response",
		"trial_index": 14,
		"time_elapsed": 56642,
		"internal_node_id": "0.0-1.0-1.11"
	},
	{
		"rt": 869,
		"stimulus": "<span style=\"font-size:30px; font-family: monospace\">mesa</span>",
		"response": " ",
		"trial": "prac-sent",
		"word": "mesa",
		"trial_type": "html-keyboard-response",
		"trial_index": 15,
		"time_elapsed": 57766,
		"internal_node_id": "0.0-1.0-1.12"
	},
	{
		"rt": 776,
		"stimulus": "<span style=\"font-size:30px; font-family: monospace\">de</span>",
		"response": " ",
		"trial": "prac-sent",
		"word": "de",
		"trial_type": "html-keyboard-response",
		"trial_index": 16,
		"time_elapsed": 58804,
		"internal_node_id": "0.0-1.0-1.13"
	},
	{
		"rt": 925,
		"stimulus": "<span style=\"font-size:30px; font-family: monospace\">jantar.</span>",
		"response": " ",
		"trial": "prac-comp",
		"word": "jantar.",
		"trial_type": "html-keyboard-response",
		"trial_index": 17,
		"time_elapsed": 59981,
		"internal_node_id": "0.0-1.0-1.14"
	},
	{
		"rt": 6139,
		"stimulus": "<span style=\"font-size:30px; font-family: monospace\">A caneca permaneceu na mesa?</span>",
		"response": "s",
		"question": "A caneca permaneceu na mesa?",
		"answer": "não",
		"trial": "prac-comp",
		"trial_type": "html-keyboard-response",
		"trial_index": 18,
		"time_elapsed": 66375,
		"internal_node_id": "0.0-1.0-2.14-0.14",
		"accuracy": false
	},
	{
		"view_history": [
			{
				"page_index": 0,
				"viewing_time": 31319
			}
		],
		"rt": 31320,
		"trial_type": "instructions",
		"trial_index": 19,
		"time_elapsed": 98202,
		"internal_node_id": "0.0-2.0"
	},
	{
		"rt": null,
		"stimulus": "<span style= \"font-size:30px; font-family: monospace\">+</span>",
		"response": null,
		"trial_part": "fixation",
		"trial_type": "html-keyboard-response",
		"trial_index": 20,
		"time_elapsed": 99311,
		"internal_node_id": "0.0-3.0-0.0-0.0"
	},
	{
		"rt": 4465,
		"stimulus": "<span style=\"font-size:30px; font-family: monospace\">O</span>",
		"response": " ",
		"trial": "exp-sent",
		"word": "O",
		"trial_type": "html-keyboard-response",
		"trial_index": 21,
		"time_elapsed": 104030,
		"internal_node_id": "0.0-3.0-1.0"
	},
	{
		"rt": 1959,
		"stimulus": "<span style=\"font-size:30px; font-family: monospace\">moço</span>",
		"response": " ",
		"trial": "exp-sent",
		"word": "moço",
		"trial_type": "html-keyboard-response",
		"trial_index": 22,
		"time_elapsed": 106252,
		"internal_node_id": "0.0-3.0-1.1"
	},
	{
		"rt": 898,
		"stimulus": "<span style=\"font-size:30px; font-family: monospace\">usou</span>",
		"response": " ",
		"trial": "exp-sent",
		"word": "usou",
		"trial_type": "html-keyboard-response",
		"trial_index": 23,
		"time_elapsed": 107408,
		"internal_node_id": "0.0-3.0-1.2"
	},
	{
		"rt": 872,
		"stimulus": "<span style=\"font-size:30px; font-family: monospace\">várias</span>",
		"response": " ",
		"trial": "exp-sent",
		"word": "várias",
		"trial_type": "html-keyboard-response",
		"trial_index": 24,
		"time_elapsed": 108547,
		"internal_node_id": "0.0-3.0-1.3"
	},
	{
		"rt": 897,
		"stimulus": "<span style=\"font-size:30px; font-family: monospace\">velas</span>",
		"response": " ",
		"trial": "exp-sent",
		"word": "velas",
		"trial_type": "html-keyboard-response",
		"trial_index": 25,
		"time_elapsed": 109701,
		"internal_node_id": "0.0-3.0-1.4"
	},
	{
		"rt": 777,
		"stimulus": "<span style=\"font-size:30px; font-family: monospace\">no</span>",
		"response": " ",
		"trial": "exp-sent",
		"word": "no",
		"trial_type": "html-keyboard-response",
		"trial_index": 26,
		"time_elapsed": 110735,
		"internal_node_id": "0.0-3.0-1.5"
	},
	{
		"rt": 1212,
		"stimulus": "<span style=\"font-size:30px; font-family: monospace\">enfeite</span>",
		"response": " ",
		"trial": "exp-sent",
		"word": "enfeite",
		"trial_type": "html-keyboard-response",
		"trial_index": 27,
		"time_elapsed": 112200,
		"internal_node_id": "0.0-3.0-1.6"
	},
	{
		"rt": 639,
		"stimulus": "<span style=\"font-size:30px; font-family: monospace\">de</span>",
		"response": " ",
		"trial": "exp-sent",
		"word": "de",
		"trial_type": "html-keyboard-response",
		"trial_index": 28,
		"time_elapsed": 113098,
		"internal_node_id": "0.0-3.0-1.7"
	},
	{
		"rt": 641,
		"stimulus": "<span style=\"font-size:30px; font-family: monospace\">mesa.</span>",
		"response": " ",
		"trial": "exp-sent",
		"word": "mesa.",
		"trial_type": "html-keyboard-response",
		"trial_index": 29,
		"time_elapsed": 113997,
		"internal_node_id": "0.0-3.0-1.8"
	},
	{
		"rt": null,
		"stimulus": "<span style= \"font-size:30px; font-family: monospace\">+</span>",
		"response": null,
		"trial_part": "fixation",
		"trial_type": "html-keyboard-response",
		"trial_index": 30,
		"time_elapsed": 115264,
		"internal_node_id": "0.0-3.0-0.9-0.9"
	},
	{
		"rt": 1185,
		"stimulus": "<span style=\"font-size:30px; font-family: monospace\">Gostamos</span>",
		"response": " ",
		"trial": "exp-sent",
		"word": "Gostamos",
		"trial_type": "html-keyboard-response",
		"trial_index": 31,
		"time_elapsed": 116703,
		"internal_node_id": "0.0-3.0-1.9"
	},
	{
		"rt": 607,
		"stimulus": "<span style=\"font-size:30px; font-family: monospace\">de</span>",
		"response": " ",
		"trial": "exp-sent",
		"word": "de",
		"trial_type": "html-keyboard-response",
		"trial_index": 32,
		"time_elapsed": 117564,
		"internal_node_id": "0.0-3.0-1.10"
	},
	{
		"rt": 784,
		"stimulus": "<span style=\"font-size:30px; font-family: monospace\">suco</span>",
		"response": " ",
		"trial": "exp-sent",
		"word": "suco",
		"trial_type": "html-keyboard-response",
		"trial_index": 33,
		"time_elapsed": 118612,
		"internal_node_id": "0.0-3.0-1.11"
	},
	{
		"rt": 813,
		"stimulus": "<span style=\"font-size:30px; font-family: monospace\">em</span>",
		"response": " ",
		"trial": "exp-sent",
		"word": "em",
		"trial_type": "html-keyboard-response",
		"trial_index": 34,
		"time_elapsed": 119676,
		"internal_node_id": "0.0-3.0-1.12"
	},
	{
		"rt": 852,
		"stimulus": "<span style=\"font-size:30px; font-family: monospace\">garrafa</span>",
		"response": " ",
		"trial": "exp-sent",
		"word": "garrafa",
		"trial_type": "html-keyboard-response",
		"trial_index": 35,
		"time_elapsed": 120780,
		"internal_node_id": "0.0-3.0-1.13"
	},
	{
		"rt": 546,
		"stimulus": "<span style=\"font-size:30px; font-family: monospace\">de</span>",
		"response": " ",
		"trial": "exp-sent",
		"word": "de",
		"trial_type": "html-keyboard-response",
		"trial_index": 36,
		"time_elapsed": 121586,
		"internal_node_id": "0.0-3.0-1.14"
	},
	{
		"rt": 663,
		"stimulus": "<span style=\"font-size:30px; font-family: monospace\">tamanho</span>",
		"response": " ",
		"trial": "exp-sent",
		"word": "tamanho",
		"trial_type": "html-keyboard-response",
		"trial_index": 37,
		"time_elapsed": 122506,
		"internal_node_id": "0.0-3.0-1.15"
	},
	{
		"rt": 561,
		"stimulus": "<span style=\"font-size:30px; font-family: monospace\">pequeno.</span>",
		"response": " ",
		"trial": "exp-sent",
		"word": "pequeno.",
		"trial_type": "html-keyboard-response",
		"trial_index": 38,
		"time_elapsed": 123323,
		"internal_node_id": "0.0-3.0-1.16"
	},
	{
		"rt": null,
		"stimulus": "<span style= \"font-size:30px; font-family: monospace\">+</span>",
		"response": null,
		"trial_part": "fixation",
		"trial_type": "html-keyboard-response",
		"trial_index": 39,
		"time_elapsed": 124580,
		"internal_node_id": "0.0-3.0-0.17-0.17"
	},
	{
		"rt": 554,
		"stimulus": "<span style=\"font-size:30px; font-family: monospace\">Sua</span>",
		"response": " ",
		"trial": "exp-sent",
		"word": "Sua",
		"trial_type": "html-keyboard-response",
		"trial_index": 40,
		"time_elapsed": 125388,
		"internal_node_id": "0.0-3.0-1.17"
	},
	{
		"rt": 545,
		"stimulus": "<span style=\"font-size:30px; font-family: monospace\">filha</span>",
		"response": " ",
		"trial": "exp-sent",
		"word": "filha",
		"trial_type": "html-keyboard-response",
		"trial_index": 41,
		"time_elapsed": 126194,
		"internal_node_id": "0.0-3.0-1.18"
	},
	{
		"rt": 553,
		"stimulus": "<span style=\"font-size:30px; font-family: monospace\">é</span>",
		"response": " ",
		"trial": "exp-sent",
		"word": "é",
		"trial_type": "html-keyboard-response",
		"trial_index": 42,
		"time_elapsed": 127003,
		"internal_node_id": "0.0-3.0-1.19"
	},
	{
		"rt": 500,
		"stimulus": "<span style=\"font-size:30px; font-family: monospace\">muito</span>",
		"response": " ",
		"trial": "exp-sent",
		"word": "muito",
		"trial_type": "html-keyboard-response",
		"trial_index": 43,
		"time_elapsed": 127756,
		"internal_node_id": "0.0-3.0-1.20"
	},
	{
		"rt": 622,
		"stimulus": "<span style=\"font-size:30px; font-family: monospace\">capaz</span>",
		"response": " ",
		"trial": "exp-sent",
		"word": "capaz",
		"trial_type": "html-keyboard-response",
		"trial_index": 44,
		"time_elapsed": 128640,
		"internal_node_id": "0.0-3.0-1.21"
	},
	{
		"rt": 528,
		"stimulus": "<span style=\"font-size:30px; font-family: monospace\">e</span>",
		"response": " ",
		"trial": "exp-sent",
		"word": "e",
		"trial_type": "html-keyboard-response",
		"trial_index": 45,
		"time_elapsed": 129422,
		"internal_node_id": "0.0-3.0-1.22"
	},
	{
		"rt": 673,
		"stimulus": "<span style=\"font-size:30px; font-family: monospace\">esforçada.</span>",
		"response": " ",
		"trial": "exp-sent",
		"word": "esforçada.",
		"trial_type": "html-keyboard-response",
		"trial_index": 46,
		"time_elapsed": 130355,
		"internal_node_id": "0.0-3.0-1.23"
	},
	{
		"rt": null,
		"stimulus": "<span style= \"font-size:30px; font-family: monospace\">+</span>",
		"response": null,
		"trial_part": "fixation",
		"trial_type": "html-keyboard-response",
		"trial_index": 47,
		"time_elapsed": 131619,
		"internal_node_id": "0.0-3.0-0.24-0.24"
	},
	{
		"rt": 384,
		"stimulus": "<span style=\"font-size:30px; font-family: monospace\">A</span>",
		"response": " ",
		"trial": "exp-sent",
		"word": "A",
		"trial_type": "html-keyboard-response",
		"trial_index": 48,
		"time_elapsed": 132259,
		"internal_node_id": "0.0-3.0-1.24"
	},
	{
		"rt": 708,
		"stimulus": "<span style=\"font-size:30px; font-family: monospace\">batida</span>",
		"response": " ",
		"trial": "exp-sent",
		"word": "batida",
		"trial_type": "html-keyboard-response",
		"trial_index": 49,
		"time_elapsed": 133225,
		"internal_node_id": "0.0-3.0-1.25"
	},
	{
		"rt": 441,
		"stimulus": "<span style=\"font-size:30px; font-family: monospace\">causou</span>",
		"response": " ",
		"trial": "exp-sent",
		"word": "causou",
		"trial_type": "html-keyboard-response",
		"trial_index": 50,
		"time_elapsed": 133929,
		"internal_node_id": "0.0-3.0-1.26"
	},
	{
		"rt": 482,
		"stimulus": "<span style=\"font-size:30px; font-family: monospace\">muita</span>",
		"response": " ",
		"trial": "exp-sent",
		"word": "muita",
		"trial_type": "html-keyboard-response",
		"trial_index": 51,
		"time_elapsed": 134669,
		"internal_node_id": "0.0-3.0-1.27"
	},
	{
		"rt": 468,
		"stimulus": "<span style=\"font-size:30px; font-family: monospace\">confusão</span>",
		"response": " ",
		"trial": "exp-sent",
		"word": "confusão",
		"trial_type": "html-keyboard-response",
		"trial_index": 52,
		"time_elapsed": 135391,
		"internal_node_id": "0.0-3.0-1.28"
	},
	{
		"rt": 536,
		"stimulus": "<span style=\"font-size:30px; font-family: monospace\">na</span>",
		"response": " ",
		"trial": "exp-sent",
		"word": "na",
		"trial_type": "html-keyboard-response",
		"trial_index": 53,
		"time_elapsed": 136184,
		"internal_node_id": "0.0-3.0-1.29"
	},
	{
		"rt": 610,
		"stimulus": "<span style=\"font-size:30px; font-family: monospace\">estrada.</span>",
		"response": " ",
		"trial": "exp-sent",
		"word": "estrada.",
		"trial_type": "html-keyboard-response",
		"trial_index": 54,
		"time_elapsed": 137048,
		"internal_node_id": "0.0-3.0-1.30"
	},
	{
		"rt": null,
		"stimulus": "<span style= \"font-size:30px; font-family: monospace\">+</span>",
		"response": null,
		"trial_part": "fixation",
		"trial_type": "html-keyboard-response",
		"trial_index": 55,
		"time_elapsed": 138317,
		"internal_node_id": "0.0-3.0-0.31-0.31"
	},
	{
		"rt": 260,
		"stimulus": "<span style=\"font-size:30px; font-family: monospace\">Eu</span>",
		"response": " ",
		"trial": "exp-sent",
		"word": "Eu",
		"trial_type": "html-keyboard-response",
		"trial_index": 56,
		"time_elapsed": 138839,
		"internal_node_id": "0.0-3.0-1.31"
	},
	{
		"rt": 2035,
		"stimulus": "<span style=\"font-size:30px; font-family: monospace\">cozinhei</span>",
		"response": " ",
		"trial": "exp-sent",
		"word": "cozinhei",
		"trial_type": "html-keyboard-response",
		"trial_index": 57,
		"time_elapsed": 141133,
		"internal_node_id": "0.0-3.0-1.32"
	},
	{
		"rt": 839,
		"stimulus": "<span style=\"font-size:30px; font-family: monospace\">um</span>",
		"response": " ",
		"trial": "exp-sent",
		"word": "um",
		"trial_type": "html-keyboard-response",
		"trial_index": 58,
		"time_elapsed": 142231,
		"internal_node_id": "0.0-3.0-1.33"
	},
	{
		"rt": 622,
		"stimulus": "<span style=\"font-size:30px; font-family: monospace\">almoço</span>",
		"response": " ",
		"trial": "exp-sent",
		"word": "almoço",
		"trial_type": "html-keyboard-response",
		"trial_index": 59,
		"time_elapsed": 143111,
		"internal_node_id": "0.0-3.0-1.34"
	},
	{
		"rt": 964,
		"stimulus": "<span style=\"font-size:30px; font-family: monospace\">nutritivo</span>",
		"response": " ",
		"trial": "exp-sent",
		"word": "nutritivo",
		"trial_type": "html-keyboard-response",
		"trial_index": 60,
		"time_elapsed": 144331,
		"internal_node_id": "0.0-3.0-1.35"
	},
	{
		"rt": 528,
		"stimulus": "<span style=\"font-size:30px; font-family: monospace\">para</span>",
		"response": " ",
		"trial": "exp-sent",
		"word": "para",
		"trial_type": "html-keyboard-response",
		"trial_index": 61,
		"time_elapsed": 145114,
		"internal_node_id": "0.0-3.0-1.36"
	},
	{
		"rt": 549,
		"stimulus": "<span style=\"font-size:30px; font-family: monospace\">hoje.</span>",
		"response": " ",
		"trial": "comp",
		"word": "hoje.",
		"trial_type": "html-keyboard-response",
		"trial_index": 62,
		"time_elapsed": 145918,
		"internal_node_id": "0.0-3.0-1.37"
	},
	{
		"rt": 5315,
		"stimulus": "<span style=\"font-size:30px; font-family: monospace\">O almoço era nutritivo?</span>",
		"response": "s",
		"question": "O almoço era nutritivo?",
		"answer": "sim",
		"trial": "comp",
		"trial_type": "html-keyboard-response",
		"trial_index": 63,
		"time_elapsed": 151496,
		"internal_node_id": "0.0-3.0-2.37-0.37",
		"accuracy": false
	},
	{
		"rt": null,
		"stimulus": "<span style= \"font-size:30px; font-family: monospace\">+</span>",
		"response": null,
		"trial_part": "fixation",
		"trial_type": "html-keyboard-response",
		"trial_index": 64,
		"time_elapsed": 153008,
		"internal_node_id": "0.0-3.0-0.38-0.38"
	},
	{
		"rt": 1780,
		"stimulus": "<span style=\"font-size:30px; font-family: monospace\">Este</span>",
		"response": " ",
		"trial": "exp-sent",
		"word": "Este",
		"trial_type": "html-keyboard-response",
		"trial_index": 65,
		"time_elapsed": 155049,
		"internal_node_id": "0.0-3.0-1.38"
	},
	{
		"rt": 684,
		"stimulus": "<span style=\"font-size:30px; font-family: monospace\">conto</span>",
		"response": " ",
		"trial": "exp-sent",
		"word": "conto",
		"trial_type": "html-keyboard-response",
		"trial_index": 66,
		"time_elapsed": 155992,
		"internal_node_id": "0.0-3.0-1.39"
	},
	{
		"rt": 630,
		"stimulus": "<span style=\"font-size:30px; font-family: monospace\">tem</span>",
		"response": " ",
		"trial": "exp-sent",
		"word": "tem",
		"trial_type": "html-keyboard-response",
		"trial_index": 67,
		"time_elapsed": 156877,
		"internal_node_id": "0.0-3.0-1.40"
	},
	{
		"rt": 559,
		"stimulus": "<span style=\"font-size:30px; font-family: monospace\">um</span>",
		"response": " ",
		"trial": "exp-sent",
		"word": "um",
		"trial_type": "html-keyboard-response",
		"trial_index": 68,
		"time_elapsed": 157690,
		"internal_node_id": "0.0-3.0-1.41"
	},
	{
		"rt": 478,
		"stimulus": "<span style=\"font-size:30px; font-family: monospace\">final</span>",
		"response": " ",
		"trial": "exp-sent",
		"word": "final",
		"trial_type": "html-keyboard-response",
		"trial_index": 69,
		"time_elapsed": 158427,
		"internal_node_id": "0.0-3.0-1.42"
	},
	{
		"rt": 577,
		"stimulus": "<span style=\"font-size:30px; font-family: monospace\">perfeito.</span>",
		"response": " ",
		"trial": "exp-sent",
		"word": "perfeito.",
		"trial_type": "html-keyboard-response",
		"trial_index": 70,
		"time_elapsed": 159260,
		"internal_node_id": "0.0-3.0-1.43"
	},
	{
		"rt": null,
		"stimulus": "<span style= \"font-size:30px; font-family: monospace\">+</span>",
		"response": null,
		"trial_part": "fixation",
		"trial_type": "html-keyboard-response",
		"trial_index": 71,
		"time_elapsed": 160538,
		"internal_node_id": "0.0-3.0-0.44-0.44"
	},
	{
		"rt": 511,
		"stimulus": "<span style=\"font-size:30px; font-family: monospace\">Ele</span>",
		"response": " ",
		"trial": "exp-sent",
		"word": "Ele",
		"trial_type": "html-keyboard-response",
		"trial_index": 72,
		"time_elapsed": 161308,
		"internal_node_id": "0.0-3.0-1.44"
	},
	{
		"rt": 683,
		"stimulus": "<span style=\"font-size:30px; font-family: monospace\">precisa</span>",
		"response": " ",
		"trial": "exp-sent",
		"word": "precisa",
		"trial_type": "html-keyboard-response",
		"trial_index": 73,
		"time_elapsed": 162253,
		"internal_node_id": "0.0-3.0-1.45"
	},
	{
		"rt": 530,
		"stimulus": "<span style=\"font-size:30px; font-family: monospace\">de</span>",
		"response": " ",
		"trial": "exp-sent",
		"word": "de",
		"trial_type": "html-keyboard-response",
		"trial_index": 74,
		"time_elapsed": 163039,
		"internal_node_id": "0.0-3.0-1.46"
	},
	{
		"rt": 455,
		"stimulus": "<span style=\"font-size:30px; font-family: monospace\">um</span>",
		"response": " ",
		"trial": "exp-sent",
		"word": "um",
		"trial_type": "html-keyboard-response",
		"trial_index": 75,
		"time_elapsed": 163752,
		"internal_node_id": "0.0-3.0-1.47"
	},
	{
		"rt": 732,
		"stimulus": "<span style=\"font-size:30px; font-family: monospace\">protetor</span>",
		"response": " ",
		"trial": "exp-sent",
		"word": "protetor",
		"trial_type": "html-keyboard-response",
		"trial_index": 76,
		"time_elapsed": 164747,
		"internal_node_id": "0.0-3.0-1.48"
	},
	{
		"rt": 591,
		"stimulus": "<span style=\"font-size:30px; font-family: monospace\">de</span>",
		"response": " ",
		"trial": "exp-sent",
		"word": "de",
		"trial_type": "html-keyboard-response",
		"trial_index": 77,
		"time_elapsed": 165599,
		"internal_node_id": "0.0-3.0-1.49"
	},
	{
		"rt": 459,
		"stimulus": "<span style=\"font-size:30px; font-family: monospace\">ouvido.</span>",
		"response": " ",
		"trial": "exp-sent",
		"word": "ouvido.",
		"trial_type": "html-keyboard-response",
		"trial_index": 78,
		"time_elapsed": 166314,
		"internal_node_id": "0.0-3.0-1.50"
	},
	{
		"rt": null,
		"stimulus": "<span style= \"font-size:30px; font-family: monospace\">+</span>",
		"response": null,
		"trial_part": "fixation",
		"trial_type": "html-keyboard-response",
		"trial_index": 79,
		"time_elapsed": 167578,
		"internal_node_id": "0.0-3.0-0.51-0.51"
	},
	{
		"rt": 175,
		"stimulus": "<span style=\"font-size:30px; font-family: monospace\">Os</span>",
		"response": " ",
		"trial": "exp-sent",
		"word": "Os",
		"trial_type": "html-keyboard-response",
		"trial_index": 80,
		"time_elapsed": 168015,
		"internal_node_id": "0.0-3.0-1.51"
	},
	{
		"rt": 464,
		"stimulus": "<span style=\"font-size:30px; font-family: monospace\">hábitos</span>",
		"response": " ",
		"trial": "exp-sent",
		"word": "hábitos",
		"trial_type": "html-keyboard-response",
		"trial_index": 81,
		"time_elapsed": 168735,
		"internal_node_id": "0.0-3.0-1.52"
	},
	{
		"rt": 412,
		"stimulus": "<span style=\"font-size:30px; font-family: monospace\">de</span>",
		"response": " ",
		"trial": "exp-sent",
		"word": "de",
		"trial_type": "html-keyboard-response",
		"trial_index": 82,
		"time_elapsed": 169402,
		"internal_node_id": "0.0-3.0-1.53"
	},
	{
		"rt": 420,
		"stimulus": "<span style=\"font-size:30px; font-family: monospace\">lugares</span>",
		"response": " ",
		"trial": "exp-sent",
		"word": "lugares",
		"trial_type": "html-keyboard-response",
		"trial_index": 83,
		"time_elapsed": 170079,
		"internal_node_id": "0.0-3.0-1.54"
	},
	{
		"rt": 433,
		"stimulus": "<span style=\"font-size:30px; font-family: monospace\">diferentes</span>",
		"response": " ",
		"trial": "exp-sent",
		"word": "diferentes",
		"trial_type": "html-keyboard-response",
		"trial_index": 84,
		"time_elapsed": 170775,
		"internal_node_id": "0.0-3.0-1.55"
	},
	{
		"rt": 383,
		"stimulus": "<span style=\"font-size:30px; font-family: monospace\">são</span>",
		"response": " ",
		"trial": "exp-sent",
		"word": "são",
		"trial_type": "html-keyboard-response",
		"trial_index": 85,
		"time_elapsed": 171413,
		"internal_node_id": "0.0-3.0-1.56"
	},
	{
		"rt": 403,
		"stimulus": "<span style=\"font-size:30px; font-family: monospace\">muito</span>",
		"response": " ",
		"trial": "exp-sent",
		"word": "muito",
		"trial_type": "html-keyboard-response",
		"trial_index": 86,
		"time_elapsed": 172073,
		"internal_node_id": "0.0-3.0-1.57"
	},
	{
		"rt": 459,
		"stimulus": "<span style=\"font-size:30px; font-family: monospace\">lindos.</span>",
		"response": " ",
		"trial": "exp-sent",
		"word": "lindos.",
		"trial_type": "html-keyboard-response",
		"trial_index": 87,
		"time_elapsed": 172788,
		"internal_node_id": "0.0-3.0-1.58"
	},
	{
		"rt": null,
		"stimulus": "<span style= \"font-size:30px; font-family: monospace\">+</span>",
		"response": null,
		"trial_part": "fixation",
		"trial_type": "html-keyboard-response",
		"trial_index": 88,
		"time_elapsed": 174057,
		"internal_node_id": "0.0-3.0-0.59-0.59"
	},
	{
		"rt": 620,
		"stimulus": "<span style=\"font-size:30px; font-family: monospace\">O</span>",
		"response": " ",
		"trial": "exp-sent",
		"word": "O",
		"trial_type": "html-keyboard-response",
		"trial_index": 89,
		"time_elapsed": 174932,
		"internal_node_id": "0.0-3.0-1.59"
	},
	{
		"rt": 507,
		"stimulus": "<span style=\"font-size:30px; font-family: monospace\">médico</span>",
		"response": " ",
		"trial": "exp-sent",
		"word": "médico",
		"trial_type": "html-keyboard-response",
		"trial_index": 90,
		"time_elapsed": 175696,
		"internal_node_id": "0.0-3.0-1.60"
	},
	{
		"rt": 1007,
		"stimulus": "<span style=\"font-size:30px; font-family: monospace\">corrigiu</span>",
		"response": " ",
		"trial": "exp-sent",
		"word": "corrigiu",
		"trial_type": "html-keyboard-response",
		"trial_index": 91,
		"time_elapsed": 176970,
		"internal_node_id": "0.0-3.0-1.61"
	},
	{
		"rt": 448,
		"stimulus": "<span style=\"font-size:30px; font-family: monospace\">a</span>",
		"response": " ",
		"trial": "exp-sent",
		"word": "a",
		"trial_type": "html-keyboard-response",
		"trial_index": 92,
		"time_elapsed": 177675,
		"internal_node_id": "0.0-3.0-1.62"
	},
	{
		"rt": 477,
		"stimulus": "<span style=\"font-size:30px; font-family: monospace\">postura</span>",
		"response": " ",
		"trial": "exp-sent",
		"word": "postura",
		"trial_type": "html-keyboard-response",
		"trial_index": 93,
		"time_elapsed": 178405,
		"internal_node_id": "0.0-3.0-1.63"
	},
	{
		"rt": 544,
		"stimulus": "<span style=\"font-size:30px; font-family: monospace\">das</span>",
		"response": " ",
		"trial": "exp-sent",
		"word": "das",
		"trial_type": "html-keyboard-response",
		"trial_index": 94,
		"time_elapsed": 179204,
		"internal_node_id": "0.0-3.0-1.64"
	},
	{
		"rt": 535,
		"stimulus": "<span style=\"font-size:30px; font-family: monospace\">costas</span>",
		"response": " ",
		"trial": "exp-sent",
		"word": "costas",
		"trial_type": "html-keyboard-response",
		"trial_index": 95,
		"time_elapsed": 180016,
		"internal_node_id": "0.0-3.0-1.65"
	},
	{
		"rt": 484,
		"stimulus": "<span style=\"font-size:30px; font-family: monospace\">da</span>",
		"response": " ",
		"trial": "exp-sent",
		"word": "da",
		"trial_type": "html-keyboard-response",
		"trial_index": 96,
		"time_elapsed": 180760,
		"internal_node_id": "0.0-3.0-1.66"
	},
	{
		"rt": 464,
		"stimulus": "<span style=\"font-size:30px; font-family: monospace\">pessoa.</span>",
		"response": " ",
		"trial": "exp-sent",
		"word": "pessoa.",
		"trial_type": "html-keyboard-response",
		"trial_index": 97,
		"time_elapsed": 181479,
		"internal_node_id": "0.0-3.0-1.67"
	},
	{
		"rt": null,
		"stimulus": "<span style= \"font-size:30px; font-family: monospace\">+</span>",
		"response": null,
		"trial_part": "fixation",
		"trial_type": "html-keyboard-response",
		"trial_index": 98,
		"time_elapsed": 182743,
		"internal_node_id": "0.0-3.0-0.68-0.68"
	},
	{
		"rt": 535,
		"stimulus": "<span style=\"font-size:30px; font-family: monospace\">Aquele</span>",
		"response": " ",
		"trial": "exp-sent",
		"word": "Aquele",
		"trial_type": "html-keyboard-response",
		"trial_index": 99,
		"time_elapsed": 183540,
		"internal_node_id": "0.0-3.0-1.68"
	},
	{
		"rt": 521,
		"stimulus": "<span style=\"font-size:30px; font-family: monospace\">era</span>",
		"response": " ",
		"trial": "exp-sent",
		"word": "era",
		"trial_type": "html-keyboard-response",
		"trial_index": 100,
		"time_elapsed": 184319,
		"internal_node_id": "0.0-3.0-1.69"
	},
	{
		"rt": 390,
		"stimulus": "<span style=\"font-size:30px; font-family: monospace\">um</span>",
		"response": " ",
		"trial": "exp-sent",
		"word": "um",
		"trial_type": "html-keyboard-response",
		"trial_index": 101,
		"time_elapsed": 184966,
		"internal_node_id": "0.0-3.0-1.70"
	},
	{
		"rt": 455,
		"stimulus": "<span style=\"font-size:30px; font-family: monospace\">caso</span>",
		"response": " ",
		"trial": "exp-sent",
		"word": "caso",
		"trial_type": "html-keyboard-response",
		"trial_index": 102,
		"time_elapsed": 185677,
		"internal_node_id": "0.0-3.0-1.71"
	},
	{
		"rt": 495,
		"stimulus": "<span style=\"font-size:30px; font-family: monospace\">real</span>",
		"response": " ",
		"trial": "exp-sent",
		"word": "real",
		"trial_type": "html-keyboard-response",
		"trial_index": 103,
		"time_elapsed": 186424,
		"internal_node_id": "0.0-3.0-1.72"
	},
	{
		"rt": 424,
		"stimulus": "<span style=\"font-size:30px; font-family: monospace\">de</span>",
		"response": " ",
		"trial": "exp-sent",
		"word": "de",
		"trial_type": "html-keyboard-response",
		"trial_index": 104,
		"time_elapsed": 187108,
		"internal_node_id": "0.0-3.0-1.73"
	},
	{
		"rt": 1337,
		"stimulus": "<span style=\"font-size:30px; font-family: monospace\">sequestro</span>",
		"response": " ",
		"trial": "exp-sent",
		"word": "sequestro",
		"trial_type": "html-keyboard-response",
		"trial_index": 105,
		"time_elapsed": 188701,
		"internal_node_id": "0.0-3.0-1.74"
	},
	{
		"rt": 948,
		"stimulus": "<span style=\"font-size:30px; font-family: monospace\">premeditado.</span>",
		"response": " ",
		"trial": "comp",
		"word": "premeditado.",
		"trial_type": "html-keyboard-response",
		"trial_index": 106,
		"time_elapsed": 189906,
		"internal_node_id": "0.0-3.0-1.75"
	},
	{
		"rt": 12506,
		"stimulus": "<span style=\"font-size:30px; font-family: monospace\">Aquele era um caso real de roubo?</span>",
		"response": "s",
		"question": "Aquele era um caso real de roubo?",
		"answer": "não",
		"trial": "comp",
		"trial_type": "html-keyboard-response",
		"trial_index": 107,
		"time_elapsed": 202671,
		"internal_node_id": "0.0-3.0-2.75-0.75",
		"accuracy": false
	},
	{
		"rt": null,
		"stimulus": "<span style= \"font-size:30px; font-family: monospace\">+</span>",
		"response": null,
		"trial_part": "fixation",
		"trial_type": "html-keyboard-response",
		"trial_index": 108,
		"time_elapsed": 204185,
		"internal_node_id": "0.0-3.0-0.76-0.76"
	},
	{
		"rt": 1682,
		"stimulus": "<span style=\"font-size:30px; font-family: monospace\">Ganhamos</span>",
		"response": " ",
		"trial": "exp-sent",
		"word": "Ganhamos",
		"trial_type": "html-keyboard-response",
		"trial_index": 109,
		"time_elapsed": 206125,
		"internal_node_id": "0.0-3.0-1.76"
	},
	{
		"rt": 514,
		"stimulus": "<span style=\"font-size:30px; font-family: monospace\">passagem</span>",
		"response": " ",
		"trial": "exp-sent",
		"word": "passagem",
		"trial_type": "html-keyboard-response",
		"trial_index": 110,
		"time_elapsed": 206897,
		"internal_node_id": "0.0-3.0-1.77"
	},
	{
		"rt": 604,
		"stimulus": "<span style=\"font-size:30px; font-family: monospace\">para</span>",
		"response": " ",
		"trial": "exp-sent",
		"word": "para",
		"trial_type": "html-keyboard-response",
		"trial_index": 111,
		"time_elapsed": 207761,
		"internal_node_id": "0.0-3.0-1.78"
	},
	{
		"rt": 1006,
		"stimulus": "<span style=\"font-size:30px; font-family: monospace\">uma</span>",
		"response": " ",
		"trial": "exp-sent",
		"word": "uma",
		"trial_type": "html-keyboard-response",
		"trial_index": 112,
		"time_elapsed": 209029,
		"internal_node_id": "0.0-3.0-1.79"
	},
	{
		"rt": 583,
		"stimulus": "<span style=\"font-size:30px; font-family: monospace\">viagem</span>",
		"response": " ",
		"trial": "exp-sent",
		"word": "viagem",
		"trial_type": "html-keyboard-response",
		"trial_index": 113,
		"time_elapsed": 209867,
		"internal_node_id": "0.0-3.0-1.80"
	},
	{
		"rt": 419,
		"stimulus": "<span style=\"font-size:30px; font-family: monospace\">de</span>",
		"response": " ",
		"trial": "exp-sent",
		"word": "de",
		"trial_type": "html-keyboard-response",
		"trial_index": 114,
		"time_elapsed": 210543,
		"internal_node_id": "0.0-3.0-1.81"
	},
	{
		"rt": 536,
		"stimulus": "<span style=\"font-size:30px; font-family: monospace\">férias.</span>",
		"response": " ",
		"trial": "exp-sent",
		"word": "férias.",
		"trial_type": "html-keyboard-response",
		"trial_index": 115,
		"time_elapsed": 211338,
		"internal_node_id": "0.0-3.0-1.82"
	},
	{
		"rt": null,
		"stimulus": "<span style= \"font-size:30px; font-family: monospace\">+</span>",
		"response": null,
		"trial_part": "fixation",
		"trial_type": "html-keyboard-response",
		"trial_index": 116,
		"time_elapsed": 212603,
		"internal_node_id": "0.0-3.0-0.83-0.83"
	},
	{
		"rt": 216,
		"stimulus": "<span style=\"font-size:30px; font-family: monospace\">Caiu</span>",
		"response": " ",
		"trial": "exp-sent",
		"word": "Caiu",
		"trial_type": "html-keyboard-response",
		"trial_index": 117,
		"time_elapsed": 213071,
		"internal_node_id": "0.0-3.0-1.83"
	},
	{
		"rt": 341,
		"stimulus": "<span style=\"font-size:30px; font-family: monospace\">algo</span>",
		"response": " ",
		"trial": "exp-sent",
		"word": "algo",
		"trial_type": "html-keyboard-response",
		"trial_index": 118,
		"time_elapsed": 213666,
		"internal_node_id": "0.0-3.0-1.84"
	},
	{
		"rt": 358,
		"stimulus": "<span style=\"font-size:30px; font-family: monospace\">no</span>",
		"response": " ",
		"trial": "exp-sent",
		"word": "no",
		"trial_type": "html-keyboard-response",
		"trial_index": 119,
		"time_elapsed": 214284,
		"internal_node_id": "0.0-3.0-1.85"
	},
	{
		"rt": 309,
		"stimulus": "<span style=\"font-size:30px; font-family: monospace\">meu</span>",
		"response": " ",
		"trial": "exp-sent",
		"word": "meu",
		"trial_type": "html-keyboard-response",
		"trial_index": 120,
		"time_elapsed": 214851,
		"internal_node_id": "0.0-3.0-1.86"
	},
	{
		"rt": 324,
		"stimulus": "<span style=\"font-size:30px; font-family: monospace\">olho</span>",
		"response": " ",
		"trial": "exp-sent",
		"word": "olho",
		"trial_type": "html-keyboard-response",
		"trial_index": 121,
		"time_elapsed": 215440,
		"internal_node_id": "0.0-3.0-1.87"
	},
	{
		"rt": 359,
		"stimulus": "<span style=\"font-size:30px; font-family: monospace\">ontem</span>",
		"response": " ",
		"trial": "exp-sent",
		"word": "ontem",
		"trial_type": "html-keyboard-response",
		"trial_index": 122,
		"time_elapsed": 216069,
		"internal_node_id": "0.0-3.0-1.88"
	},
	{
		"rt": 292,
		"stimulus": "<span style=\"font-size:30px; font-family: monospace\">de</span>",
		"response": " ",
		"trial": "exp-sent",
		"word": "de",
		"trial_type": "html-keyboard-response",
		"trial_index": 123,
		"time_elapsed": 216638,
		"internal_node_id": "0.0-3.0-1.89"
	},
	{
		"rt": 345,
		"stimulus": "<span style=\"font-size:30px; font-family: monospace\">tarde.</span>",
		"response": " ",
		"trial": "exp-sent",
		"word": "tarde.",
		"trial_type": "html-keyboard-response",
		"trial_index": 124,
		"time_elapsed": 217248,
		"internal_node_id": "0.0-3.0-1.90"
	},
	{
		"rt": null,
		"stimulus": "<span style= \"font-size:30px; font-family: monospace\">+</span>",
		"response": null,
		"trial_part": "fixation",
		"trial_type": "html-keyboard-response",
		"trial_index": 125,
		"time_elapsed": 218504,
		"internal_node_id": "0.0-3.0-0.91-0.91"
	},
	{
		"rt": 468,
		"stimulus": "<span style=\"font-size:30px; font-family: monospace\">Não</span>",
		"response": " ",
		"trial": "exp-sent",
		"word": "Não",
		"trial_type": "html-keyboard-response",
		"trial_index": 126,
		"time_elapsed": 219232,
		"internal_node_id": "0.0-3.0-1.91"
	},
	{
		"rt": 508,
		"stimulus": "<span style=\"font-size:30px; font-family: monospace\">havia</span>",
		"response": " ",
		"trial": "exp-sent",
		"word": "havia",
		"trial_type": "html-keyboard-response",
		"trial_index": 127,
		"time_elapsed": 220001,
		"internal_node_id": "0.0-3.0-1.92"
	},
	{
		"rt": 393,
		"stimulus": "<span style=\"font-size:30px; font-family: monospace\">mais</span>",
		"response": " ",
		"trial": "exp-sent",
		"word": "mais",
		"trial_type": "html-keyboard-response",
		"trial_index": 128,
		"time_elapsed": 220658,
		"internal_node_id": "0.0-3.0-1.93"
	},
	{
		"rt": 394,
		"stimulus": "<span style=\"font-size:30px; font-family: monospace\">nenhum</span>",
		"response": " ",
		"trial": "exp-sent",
		"word": "nenhum",
		"trial_type": "html-keyboard-response",
		"trial_index": 129,
		"time_elapsed": 221309,
		"internal_node_id": "0.0-3.0-1.94"
	},
	{
		"rt": 403,
		"stimulus": "<span style=\"font-size:30px; font-family: monospace\">ingresso</span>",
		"response": " ",
		"trial": "exp-sent",
		"word": "ingresso",
		"trial_type": "html-keyboard-response",
		"trial_index": 130,
		"time_elapsed": 221968,
		"internal_node_id": "0.0-3.0-1.95"
	},
	{
		"rt": 370,
		"stimulus": "<span style=\"font-size:30px; font-family: monospace\">para</span>",
		"response": " ",
		"trial": "exp-sent",
		"word": "para",
		"trial_type": "html-keyboard-response",
		"trial_index": 131,
		"time_elapsed": 222591,
		"internal_node_id": "0.0-3.0-1.96"
	},
	{
		"rt": 435,
		"stimulus": "<span style=\"font-size:30px; font-family: monospace\">o</span>",
		"response": " ",
		"trial": "exp-sent",
		"word": "o",
		"trial_type": "html-keyboard-response",
		"trial_index": 132,
		"time_elapsed": 223278,
		"internal_node_id": "0.0-3.0-1.97"
	},
	{
		"rt": 669,
		"stimulus": "<span style=\"font-size:30px; font-family: monospace\">evento.</span>",
		"response": " ",
		"trial": "exp-sent",
		"word": "evento.",
		"trial_type": "html-keyboard-response",
		"trial_index": 133,
		"time_elapsed": 224205,
		"internal_node_id": "0.0-3.0-1.98"
	},
	{
		"rt": null,
		"stimulus": "<span style= \"font-size:30px; font-family: monospace\">+</span>",
		"response": null,
		"trial_part": "fixation",
		"trial_type": "html-keyboard-response",
		"trial_index": 134,
		"time_elapsed": 225467,
		"internal_node_id": "0.0-3.0-0.99-0.99"
	},
	{
		"rt": 428,
		"stimulus": "<span style=\"font-size:30px; font-family: monospace\">A</span>",
		"response": " ",
		"trial": "exp-sent",
		"word": "A",
		"trial_type": "html-keyboard-response",
		"trial_index": 135,
		"time_elapsed": 226153,
		"internal_node_id": "0.0-3.0-1.99"
	},
	{
		"rt": 603,
		"stimulus": "<span style=\"font-size:30px; font-family: monospace\">médica</span>",
		"response": " ",
		"trial": "exp-sent",
		"word": "médica",
		"trial_type": "html-keyboard-response",
		"trial_index": 136,
		"time_elapsed": 227018,
		"internal_node_id": "0.0-3.0-1.100"
	},
	{
		"rt": 733,
		"stimulus": "<span style=\"font-size:30px; font-family: monospace\">descobriu</span>",
		"response": " ",
		"trial": "exp-sent",
		"word": "descobriu",
		"trial_type": "html-keyboard-response",
		"trial_index": 137,
		"time_elapsed": 228007,
		"internal_node_id": "0.0-3.0-1.101"
	},
	{
		"rt": 437,
		"stimulus": "<span style=\"font-size:30px; font-family: monospace\">uma</span>",
		"response": " ",
		"trial": "exp-sent",
		"word": "uma",
		"trial_type": "html-keyboard-response",
		"trial_index": 138,
		"time_elapsed": 228702,
		"internal_node_id": "0.0-3.0-1.102"
	},
	{
		"rt": 361,
		"stimulus": "<span style=\"font-size:30px; font-family: monospace\">cura</span>",
		"response": " ",
		"trial": "exp-sent",
		"word": "cura",
		"trial_type": "html-keyboard-response",
		"trial_index": 139,
		"time_elapsed": 229316,
		"internal_node_id": "0.0-3.0-1.103"
	},
	{
		"rt": 447,
		"stimulus": "<span style=\"font-size:30px; font-family: monospace\">para</span>",
		"response": " ",
		"trial": "exp-sent",
		"word": "para",
		"trial_type": "html-keyboard-response",
		"trial_index": 140,
		"time_elapsed": 230020,
		"internal_node_id": "0.0-3.0-1.104"
	},
	{
		"rt": 319,
		"stimulus": "<span style=\"font-size:30px; font-family: monospace\">a</span>",
		"response": " ",
		"trial": "exp-sent",
		"word": "a",
		"trial_type": "html-keyboard-response",
		"trial_index": 141,
		"time_elapsed": 230594,
		"internal_node_id": "0.0-3.0-1.105"
	},
	{
		"rt": 534,
		"stimulus": "<span style=\"font-size:30px; font-family: monospace\">doença.</span>",
		"response": " ",
		"trial": "exp-sent",
		"word": "doença.",
		"trial_type": "html-keyboard-response",
		"trial_index": 142,
		"time_elapsed": 231389,
		"internal_node_id": "0.0-3.0-1.106"
	},
	{
		"rt": null,
		"stimulus": "<span style= \"font-size:30px; font-family: monospace\">+</span>",
		"response": null,
		"trial_part": "fixation",
		"trial_type": "html-keyboard-response",
		"trial_index": 143,
		"time_elapsed": 232651,
		"internal_node_id": "0.0-3.0-0.107-0.107"
	},
	{
		"rt": 405,
		"stimulus": "<span style=\"font-size:30px; font-family: monospace\">O</span>",
		"response": " ",
		"trial": "exp-sent",
		"word": "O",
		"trial_type": "html-keyboard-response",
		"trial_index": 144,
		"time_elapsed": 233310,
		"internal_node_id": "0.0-3.0-1.107"
	},
	{
		"rt": 366,
		"stimulus": "<span style=\"font-size:30px; font-family: monospace\">menino</span>",
		"response": " ",
		"trial": "exp-sent",
		"word": "menino",
		"trial_type": "html-keyboard-response",
		"trial_index": 145,
		"time_elapsed": 233930,
		"internal_node_id": "0.0-3.0-1.108"
	},
	{
		"rt": 670,
		"stimulus": "<span style=\"font-size:30px; font-family: monospace\">riscou</span>",
		"response": " ",
		"trial": "exp-sent",
		"word": "riscou",
		"trial_type": "html-keyboard-response",
		"trial_index": 146,
		"time_elapsed": 234854,
		"internal_node_id": "0.0-3.0-1.109"
	},
	{
		"rt": 346,
		"stimulus": "<span style=\"font-size:30px; font-family: monospace\">o</span>",
		"response": " ",
		"trial": "exp-sent",
		"word": "o",
		"trial_type": "html-keyboard-response",
		"trial_index": 147,
		"time_elapsed": 235463,
		"internal_node_id": "0.0-3.0-1.110"
	},
	{
		"rt": 834,
		"stimulus": "<span style=\"font-size:30px; font-family: monospace\">caderno</span>",
		"response": " ",
		"trial": "exp-sent",
		"word": "caderno",
		"trial_type": "html-keyboard-response",
		"trial_index": 148,
		"time_elapsed": 236558,
		"internal_node_id": "0.0-3.0-1.111"
	},
	{
		"rt": 731,
		"stimulus": "<span style=\"font-size:30px; font-family: monospace\">com</span>",
		"response": " ",
		"trial": "exp-sent",
		"word": "com",
		"trial_type": "html-keyboard-response",
		"trial_index": 149,
		"time_elapsed": 237554,
		"internal_node_id": "0.0-3.0-1.112"
	},
	{
		"rt": 415,
		"stimulus": "<span style=\"font-size:30px; font-family: monospace\">a</span>",
		"response": " ",
		"trial": "exp-sent",
		"word": "a",
		"trial_type": "html-keyboard-response",
		"trial_index": 150,
		"time_elapsed": 238232,
		"internal_node_id": "0.0-3.0-1.113"
	},
	{
		"rt": 779,
		"stimulus": "<span style=\"font-size:30px; font-family: monospace\">caneta.</span>",
		"response": " ",
		"trial": "comp",
		"word": "caneta.",
		"trial_type": "html-keyboard-response",
		"trial_index": 151,
		"time_elapsed": 239274,
		"internal_node_id": "0.0-3.0-1.114"
	},
	{
		"rt": 8471,
		"stimulus": "<span style=\"font-size:30px; font-family: monospace\">O menino riscou a parede com a caneta?</span>",
		"response": "s",
		"question": "O menino riscou a parede com a caneta?",
		"answer": "não",
		"trial": "comp",
		"trial_type": "html-keyboard-response",
		"trial_index": 152,
		"time_elapsed": 248005,
		"internal_node_id": "0.0-3.0-2.114-0.114",
		"accuracy": false
	},
	{
		"rt": null,
		"stimulus": "<span style= \"font-size:30px; font-family: monospace\">+</span>",
		"response": null,
		"trial_part": "fixation",
		"trial_type": "html-keyboard-response",
		"trial_index": 153,
		"time_elapsed": 249521,
		"internal_node_id": "0.0-3.0-0.115-0.115"
	},
	{
		"rt": 526,
		"stimulus": "<span style=\"font-size:30px; font-family: monospace\">No</span>",
		"response": " ",
		"trial": "exp-sent",
		"word": "No",
		"trial_type": "html-keyboard-response",
		"trial_index": 154,
		"time_elapsed": 250310,
		"internal_node_id": "0.0-3.0-1.115"
	},
	{
		"rt": 528,
		"stimulus": "<span style=\"font-size:30px; font-family: monospace\">passado</span>",
		"response": " ",
		"trial": "exp-sent",
		"word": "passado",
		"trial_type": "html-keyboard-response",
		"trial_index": 155,
		"time_elapsed": 251090,
		"internal_node_id": "0.0-3.0-1.116"
	},
	{
		"rt": 448,
		"stimulus": "<span style=\"font-size:30px; font-family: monospace\">houve</span>",
		"response": " ",
		"trial": "exp-sent",
		"word": "houve",
		"trial_type": "html-keyboard-response",
		"trial_index": 156,
		"time_elapsed": 251793,
		"internal_node_id": "0.0-3.0-1.117"
	},
	{
		"rt": 395,
		"stimulus": "<span style=\"font-size:30px; font-family: monospace\">uma</span>",
		"response": " ",
		"trial": "exp-sent",
		"word": "uma",
		"trial_type": "html-keyboard-response",
		"trial_index": 157,
		"time_elapsed": 252444,
		"internal_node_id": "0.0-3.0-1.118"
	},
	{
		"rt": 653,
		"stimulus": "<span style=\"font-size:30px; font-family: monospace\">rebelião</span>",
		"response": " ",
		"trial": "exp-sent",
		"word": "rebelião",
		"trial_type": "html-keyboard-response",
		"trial_index": 158,
		"time_elapsed": 253355,
		"internal_node_id": "0.0-3.0-1.119"
	},
	{
		"rt": 459,
		"stimulus": "<span style=\"font-size:30px; font-family: monospace\">nesta</span>",
		"response": " ",
		"trial": "exp-sent",
		"word": "nesta",
		"trial_type": "html-keyboard-response",
		"trial_index": 159,
		"time_elapsed": 254074,
		"internal_node_id": "0.0-3.0-1.120"
	},
	{
		"rt": 482,
		"stimulus": "<span style=\"font-size:30px; font-family: monospace\">cidade.</span>",
		"response": " ",
		"trial": "exp-sent",
		"word": "cidade.",
		"trial_type": "html-keyboard-response",
		"trial_index": 160,
		"time_elapsed": 254816,
		"internal_node_id": "0.0-3.0-1.121"
	},
	{
		"rt": null,
		"stimulus": "<span style= \"font-size:30px; font-family: monospace\">+</span>",
		"response": null,
		"trial_part": "fixation",
		"trial_type": "html-keyboard-response",
		"trial_index": 161,
		"time_elapsed": 256083,
		"internal_node_id": "0.0-3.0-0.122-0.122"
	},
	{
		"rt": 251,
		"stimulus": "<span style=\"font-size:30px; font-family: monospace\">Ele</span>",
		"response": " ",
		"trial": "exp-sent",
		"word": "Ele",
		"trial_type": "html-keyboard-response",
		"trial_index": 162,
		"time_elapsed": 256606,
		"internal_node_id": "0.0-3.0-1.122"
	},
	{
		"rt": 415,
		"stimulus": "<span style=\"font-size:30px; font-family: monospace\">fundou</span>",
		"response": " ",
		"trial": "exp-sent",
		"word": "fundou",
		"trial_type": "html-keyboard-response",
		"trial_index": 163,
		"time_elapsed": 257276,
		"internal_node_id": "0.0-3.0-1.123"
	},
	{
		"rt": 398,
		"stimulus": "<span style=\"font-size:30px; font-family: monospace\">uma</span>",
		"response": " ",
		"trial": "exp-sent",
		"word": "uma",
		"trial_type": "html-keyboard-response",
		"trial_index": 164,
		"time_elapsed": 257929,
		"internal_node_id": "0.0-3.0-1.124"
	},
	{
		"rt": 414,
		"stimulus": "<span style=\"font-size:30px; font-family: monospace\">empresa</span>",
		"response": " ",
		"trial": "exp-sent",
		"word": "empresa",
		"trial_type": "html-keyboard-response",
		"trial_index": 165,
		"time_elapsed": 258607,
		"internal_node_id": "0.0-3.0-1.125"
	},
	{
		"rt": 456,
		"stimulus": "<span style=\"font-size:30px; font-family: monospace\">privada</span>",
		"response": " ",
		"trial": "exp-sent",
		"word": "privada",
		"trial_type": "html-keyboard-response",
		"trial_index": 166,
		"time_elapsed": 259319,
		"internal_node_id": "0.0-3.0-1.126"
	},
	{
		"rt": 471,
		"stimulus": "<span style=\"font-size:30px; font-family: monospace\">sem</span>",
		"response": " ",
		"trial": "exp-sent",
		"word": "sem",
		"trial_type": "html-keyboard-response",
		"trial_index": 167,
		"time_elapsed": 260052,
		"internal_node_id": "0.0-3.0-1.127"
	},
	{
		"rt": 372,
		"stimulus": "<span style=\"font-size:30px; font-family: monospace\">ajuda.</span>",
		"response": " ",
		"trial": "exp-sent",
		"word": "ajuda.",
		"trial_type": "html-keyboard-response",
		"trial_index": 168,
		"time_elapsed": 260687,
		"internal_node_id": "0.0-3.0-1.128"
	},
	{
		"rt": null,
		"stimulus": "<span style= \"font-size:30px; font-family: monospace\">+</span>",
		"response": null,
		"trial_part": "fixation",
		"trial_type": "html-keyboard-response",
		"trial_index": 169,
		"time_elapsed": 261952,
		"internal_node_id": "0.0-3.0-0.129-0.129"
	},
	{
		"rt": 143,
		"stimulus": "<span style=\"font-size:30px; font-family: monospace\">As</span>",
		"response": " ",
		"trial": "exp-sent",
		"word": "As",
		"trial_type": "html-keyboard-response",
		"trial_index": 170,
		"time_elapsed": 262358,
		"internal_node_id": "0.0-3.0-1.129"
	},
	{
		"rt": 287,
		"stimulus": "<span style=\"font-size:30px; font-family: monospace\">meninas</span>",
		"response": " ",
		"trial": "exp-sent",
		"word": "meninas",
		"trial_type": "html-keyboard-response",
		"trial_index": 171,
		"time_elapsed": 262902,
		"internal_node_id": "0.0-3.0-1.130"
	},
	{
		"rt": 328,
		"stimulus": "<span style=\"font-size:30px; font-family: monospace\">encontraram</span>",
		"response": " ",
		"trial": "exp-sent",
		"word": "encontraram",
		"trial_type": "html-keyboard-response",
		"trial_index": 172,
		"time_elapsed": 263495,
		"internal_node_id": "0.0-3.0-1.131"
	},
	{
		"rt": 350,
		"stimulus": "<span style=\"font-size:30px; font-family: monospace\">um</span>",
		"response": " ",
		"trial": "exp-sent",
		"word": "um",
		"trial_type": "html-keyboard-response",
		"trial_index": 173,
		"time_elapsed": 264103,
		"internal_node_id": "0.0-3.0-1.132"
	},
	{
		"rt": 259,
		"stimulus": "<span style=\"font-size:30px; font-family: monospace\">rato</span>",
		"response": " ",
		"trial": "exp-sent",
		"word": "rato",
		"trial_type": "html-keyboard-response",
		"trial_index": 174,
		"time_elapsed": 264624,
		"internal_node_id": "0.0-3.0-1.133"
	},
	{
		"rt": 330,
		"stimulus": "<span style=\"font-size:30px; font-family: monospace\">dentro</span>",
		"response": " ",
		"trial": "exp-sent",
		"word": "dentro",
		"trial_type": "html-keyboard-response",
		"trial_index": 175,
		"time_elapsed": 265213,
		"internal_node_id": "0.0-3.0-1.134"
	},
	{
		"rt": 286,
		"stimulus": "<span style=\"font-size:30px; font-family: monospace\">de</span>",
		"response": " ",
		"trial": "exp-sent",
		"word": "de",
		"trial_type": "html-keyboard-response",
		"trial_index": 176,
		"time_elapsed": 265759,
		"internal_node_id": "0.0-3.0-1.135"
	},
	{
		"rt": 251,
		"stimulus": "<span style=\"font-size:30px; font-family: monospace\">casa.</span>",
		"response": " ",
		"trial": "exp-sent",
		"word": "casa.",
		"trial_type": "html-keyboard-response",
		"trial_index": 177,
		"time_elapsed": 266265,
		"internal_node_id": "0.0-3.0-1.136"
	},
	{
		"rt": null,
		"stimulus": "<span style= \"font-size:30px; font-family: monospace\">+</span>",
		"response": null,
		"trial_part": "fixation",
		"trial_type": "html-keyboard-response",
		"trial_index": 178,
		"time_elapsed": 267533,
		"internal_node_id": "0.0-3.0-0.137-0.137"
	},
	{
		"rt": 305,
		"stimulus": "<span style=\"font-size:30px; font-family: monospace\">O</span>",
		"response": " ",
		"trial": "exp-sent",
		"word": "O",
		"trial_type": "html-keyboard-response",
		"trial_index": 179,
		"time_elapsed": 268098,
		"internal_node_id": "0.0-3.0-1.137"
	},
	{
		"rt": 377,
		"stimulus": "<span style=\"font-size:30px; font-family: monospace\">texto</span>",
		"response": " ",
		"trial": "exp-sent",
		"word": "texto",
		"trial_type": "html-keyboard-response",
		"trial_index": 180,
		"time_elapsed": 268729,
		"internal_node_id": "0.0-3.0-1.138"
	},
	{
		"rt": 315,
		"stimulus": "<span style=\"font-size:30px; font-family: monospace\">tinha</span>",
		"response": " ",
		"trial": "exp-sent",
		"word": "tinha",
		"trial_type": "html-keyboard-response",
		"trial_index": 181,
		"time_elapsed": 269303,
		"internal_node_id": "0.0-3.0-1.139"
	},
	{
		"rt": 312,
		"stimulus": "<span style=\"font-size:30px; font-family: monospace\">ideias</span>",
		"response": " ",
		"trial": "exp-sent",
		"word": "ideias",
		"trial_type": "html-keyboard-response",
		"trial_index": 182,
		"time_elapsed": 269870,
		"internal_node_id": "0.0-3.0-1.140"
	},
	{
		"rt": 398,
		"stimulus": "<span style=\"font-size:30px; font-family: monospace\">vagas</span>",
		"response": " ",
		"trial": "exp-sent",
		"word": "vagas",
		"trial_type": "html-keyboard-response",
		"trial_index": 183,
		"time_elapsed": 270525,
		"internal_node_id": "0.0-3.0-1.141"
	},
	{
		"rt": 392,
		"stimulus": "<span style=\"font-size:30px; font-family: monospace\">e</span>",
		"response": " ",
		"trial": "exp-sent",
		"word": "e",
		"trial_type": "html-keyboard-response",
		"trial_index": 184,
		"time_elapsed": 271175,
		"internal_node_id": "0.0-3.0-1.142"
	},
	{
		"rt": 427,
		"stimulus": "<span style=\"font-size:30px; font-family: monospace\">confusas.</span>",
		"response": " ",
		"trial": "exp-sent",
		"word": "confusas.",
		"trial_type": "html-keyboard-response",
		"trial_index": 185,
		"time_elapsed": 271860,
		"internal_node_id": "0.0-3.0-1.143"
	},
	{
		"rt": null,
		"stimulus": "<span style= \"font-size:30px; font-family: monospace\">+</span>",
		"response": null,
		"trial_part": "fixation",
		"trial_type": "html-keyboard-response",
		"trial_index": 186,
		"time_elapsed": 273147,
		"internal_node_id": "0.0-3.0-0.144-0.144"
	},
	{
		"rt": 489,
		"stimulus": "<span style=\"font-size:30px; font-family: monospace\">As</span>",
		"response": " ",
		"trial": "exp-sent",
		"word": "As",
		"trial_type": "html-keyboard-response",
		"trial_index": 187,
		"time_elapsed": 273888,
		"internal_node_id": "0.0-3.0-1.144"
	},
	{
		"rt": 367,
		"stimulus": "<span style=\"font-size:30px; font-family: monospace\">crianças</span>",
		"response": " ",
		"trial": "exp-sent",
		"word": "crianças",
		"trial_type": "html-keyboard-response",
		"trial_index": 188,
		"time_elapsed": 274530,
		"internal_node_id": "0.0-3.0-1.145"
	},
	{
		"rt": 352,
		"stimulus": "<span style=\"font-size:30px; font-family: monospace\">viram</span>",
		"response": " ",
		"trial": "exp-sent",
		"word": "viram",
		"trial_type": "html-keyboard-response",
		"trial_index": 189,
		"time_elapsed": 275137,
		"internal_node_id": "0.0-3.0-1.146"
	},
	{
		"rt": 348,
		"stimulus": "<span style=\"font-size:30px; font-family: monospace\">a</span>",
		"response": " ",
		"trial": "exp-sent",
		"word": "a",
		"trial_type": "html-keyboard-response",
		"trial_index": 190,
		"time_elapsed": 275739,
		"internal_node_id": "0.0-3.0-1.147"
	},
	{
		"rt": 364,
		"stimulus": "<span style=\"font-size:30px; font-family: monospace\">acrobata</span>",
		"response": " ",
		"trial": "exp-sent",
		"word": "acrobata",
		"trial_type": "html-keyboard-response",
		"trial_index": 191,
		"time_elapsed": 276365,
		"internal_node_id": "0.0-3.0-1.148"
	},
	{
		"rt": 505,
		"stimulus": "<span style=\"font-size:30px; font-family: monospace\">talentosa</span>",
		"response": " ",
		"trial": "exp-sent",
		"word": "talentosa",
		"trial_type": "html-keyboard-response",
		"trial_index": 192,
		"time_elapsed": 277127,
		"internal_node_id": "0.0-3.0-1.149"
	},
	{
		"rt": 63,
		"stimulus": "<span style=\"font-size:30px; font-family: monospace\">no</span>",
		"response": " ",
		"trial": "exp-sent",
		"word": "no",
		"trial_type": "html-keyboard-response",
		"trial_index": 193,
		"time_elapsed": 277443,
		"internal_node_id": "0.0-3.0-1.150"
	},
	{
		"rt": 446,
		"stimulus": "<span style=\"font-size:30px; font-family: monospace\">circo.</span>",
		"response": " ",
		"trial": "comp",
		"word": "circo.",
		"trial_type": "html-keyboard-response",
		"trial_index": 194,
		"time_elapsed": 278148,
		"internal_node_id": "0.0-3.0-1.151"
	},
	{
		"rt": 7235,
		"stimulus": "<span style=\"font-size:30px; font-family: monospace\">As crianças viram o palhaço no circo?</span>",
		"response": "s",
		"question": "As crianças viram o palhaço no circo?",
		"answer": "não",
		"trial": "comp",
		"trial_type": "html-keyboard-response",
		"trial_index": 195,
		"time_elapsed": 285635,
		"internal_node_id": "0.0-3.0-2.151-0.151",
		"accuracy": false
	},
	{
		"rt": null,
		"stimulus": "<span style= \"font-size:30px; font-family: monospace\">+</span>",
		"response": null,
		"trial_part": "fixation",
		"trial_type": "html-keyboard-response",
		"trial_index": 196,
		"time_elapsed": 287170,
		"internal_node_id": "0.0-3.0-0.152-0.152"
	},
	{
		"rt": 642,
		"stimulus": "<span style=\"font-size:30px; font-family: monospace\">A</span>",
		"response": " ",
		"trial": "exp-sent",
		"word": "A",
		"trial_type": "html-keyboard-response",
		"trial_index": 197,
		"time_elapsed": 288071,
		"internal_node_id": "0.0-3.0-1.152"
	},
	{
		"rt": 488,
		"stimulus": "<span style=\"font-size:30px; font-family: monospace\">força</span>",
		"response": " ",
		"trial": "exp-sent",
		"word": "força",
		"trial_type": "html-keyboard-response",
		"trial_index": 198,
		"time_elapsed": 288823,
		"internal_node_id": "0.0-3.0-1.153"
	},
	{
		"rt": 340,
		"stimulus": "<span style=\"font-size:30px; font-family: monospace\">d'água</span>",
		"response": " ",
		"trial": "exp-sent",
		"word": "d'água",
		"trial_type": "html-keyboard-response",
		"trial_index": 199,
		"time_elapsed": 289419,
		"internal_node_id": "0.0-3.0-1.154"
	},
	{
		"rt": 415,
		"stimulus": "<span style=\"font-size:30px; font-family: monospace\">estava</span>",
		"response": " ",
		"trial": "exp-sent",
		"word": "estava",
		"trial_type": "html-keyboard-response",
		"trial_index": 200,
		"time_elapsed": 290093,
		"internal_node_id": "0.0-3.0-1.155"
	},
	{
		"rt": 388,
		"stimulus": "<span style=\"font-size:30px; font-family: monospace\">normal</span>",
		"response": " ",
		"trial": "exp-sent",
		"word": "normal",
		"trial_type": "html-keyboard-response",
		"trial_index": 201,
		"time_elapsed": 290743,
		"internal_node_id": "0.0-3.0-1.156"
	},
	{
		"rt": 489,
		"stimulus": "<span style=\"font-size:30px; font-family: monospace\">naquele</span>",
		"response": " ",
		"trial": "exp-sent",
		"word": "naquele",
		"trial_type": "html-keyboard-response",
		"trial_index": 202,
		"time_elapsed": 291493,
		"internal_node_id": "0.0-3.0-1.157"
	},
	{
		"rt": 448,
		"stimulus": "<span style=\"font-size:30px; font-family: monospace\">dia.</span>",
		"response": " ",
		"trial": "exp-sent",
		"word": "dia.",
		"trial_type": "html-keyboard-response",
		"trial_index": 203,
		"time_elapsed": 292204,
		"internal_node_id": "0.0-3.0-1.158"
	},
	{
		"rt": null,
		"stimulus": "<span style= \"font-size:30px; font-family: monospace\">+</span>",
		"response": null,
		"trial_part": "fixation",
		"trial_type": "html-keyboard-response",
		"trial_index": 204,
		"time_elapsed": 293474,
		"internal_node_id": "0.0-3.0-0.159-0.159"
	},
	{
		"rt": 527,
		"stimulus": "<span style=\"font-size:30px; font-family: monospace\">A</span>",
		"response": " ",
		"trial": "exp-sent",
		"word": "A",
		"trial_type": "html-keyboard-response",
		"trial_index": 205,
		"time_elapsed": 294261,
		"internal_node_id": "0.0-3.0-1.159"
	},
	{
		"rt": 444,
		"stimulus": "<span style=\"font-size:30px; font-family: monospace\">médica</span>",
		"response": " ",
		"trial": "exp-sent",
		"word": "médica",
		"trial_type": "html-keyboard-response",
		"trial_index": 206,
		"time_elapsed": 294970,
		"internal_node_id": "0.0-3.0-1.160"
	},
	{
		"rt": 510,
		"stimulus": "<span style=\"font-size:30px; font-family: monospace\">ofereceu</span>",
		"response": " ",
		"trial": "exp-sent",
		"word": "ofereceu",
		"trial_type": "html-keyboard-response",
		"trial_index": 207,
		"time_elapsed": 295741,
		"internal_node_id": "0.0-3.0-1.161"
	},
	{
		"rt": 511,
		"stimulus": "<span style=\"font-size:30px; font-family: monospace\">a</span>",
		"response": " ",
		"trial": "exp-sent",
		"word": "a",
		"trial_type": "html-keyboard-response",
		"trial_index": 208,
		"time_elapsed": 296514,
		"internal_node_id": "0.0-3.0-1.162"
	},
	{
		"rt": 709,
		"stimulus": "<span style=\"font-size:30px; font-family: monospace\">pomada</span>",
		"response": " ",
		"trial": "exp-sent",
		"word": "pomada",
		"trial_type": "html-keyboard-response",
		"trial_index": 209,
		"time_elapsed": 297485,
		"internal_node_id": "0.0-3.0-1.163"
	},
	{
		"rt": 445,
		"stimulus": "<span style=\"font-size:30px; font-family: monospace\">para</span>",
		"response": " ",
		"trial": "exp-sent",
		"word": "para",
		"trial_type": "html-keyboard-response",
		"trial_index": 210,
		"time_elapsed": 298188,
		"internal_node_id": "0.0-3.0-1.164"
	},
	{
		"rt": 331,
		"stimulus": "<span style=\"font-size:30px; font-family: monospace\">o</span>",
		"response": " ",
		"trial": "exp-sent",
		"word": "o",
		"trial_type": "html-keyboard-response",
		"trial_index": 211,
		"time_elapsed": 298778,
		"internal_node_id": "0.0-3.0-1.165"
	},
	{
		"rt": 332,
		"stimulus": "<span style=\"font-size:30px; font-family: monospace\">avô.</span>",
		"response": " ",
		"trial": "exp-sent",
		"word": "avô.",
		"trial_type": "html-keyboard-response",
		"trial_index": 212,
		"time_elapsed": 299366,
		"internal_node_id": "0.0-3.0-1.166"
	},
	{
		"rt": null,
		"stimulus": "<span style= \"font-size:30px; font-family: monospace\">+</span>",
		"response": null,
		"trial_part": "fixation",
		"trial_type": "html-keyboard-response",
		"trial_index": 213,
		"time_elapsed": 300621,
		"internal_node_id": "0.0-3.0-0.167-0.167"
	},
	{
		"rt": 227,
		"stimulus": "<span style=\"font-size:30px; font-family: monospace\">Ele</span>",
		"response": " ",
		"trial": "exp-sent",
		"word": "Ele",
		"trial_type": "html-keyboard-response",
		"trial_index": 214,
		"time_elapsed": 301102,
		"internal_node_id": "0.0-3.0-1.167"
	},
	{
		"rt": 189,
		"stimulus": "<span style=\"font-size:30px; font-family: monospace\">conversou</span>",
		"response": " ",
		"trial": "exp-sent",
		"word": "conversou",
		"trial_type": "html-keyboard-response",
		"trial_index": 215,
		"time_elapsed": 301550,
		"internal_node_id": "0.0-3.0-1.168"
	},
	{
		"rt": 290,
		"stimulus": "<span style=\"font-size:30px; font-family: monospace\">com</span>",
		"response": " ",
		"trial": "exp-sent",
		"word": "com",
		"trial_type": "html-keyboard-response",
		"trial_index": 216,
		"time_elapsed": 302104,
		"internal_node_id": "0.0-3.0-1.169"
	},
	{
		"rt": 113,
		"stimulus": "<span style=\"font-size:30px; font-family: monospace\">o</span>",
		"response": " ",
		"trial": "exp-sent",
		"word": "o",
		"trial_type": "html-keyboard-response",
		"trial_index": 217,
		"time_elapsed": 302499,
		"internal_node_id": "0.0-3.0-1.170"
	},
	{
		"rt": 265,
		"stimulus": "<span style=\"font-size:30px; font-family: monospace\">patrão</span>",
		"response": " ",
		"trial": "exp-sent",
		"word": "patrão",
		"trial_type": "html-keyboard-response",
		"trial_index": 218,
		"time_elapsed": 303020,
		"internal_node_id": "0.0-3.0-1.171"
	},
	{
		"rt": 304,
		"stimulus": "<span style=\"font-size:30px; font-family: monospace\">durante</span>",
		"response": " ",
		"trial": "exp-sent",
		"word": "durante",
		"trial_type": "html-keyboard-response",
		"trial_index": 219,
		"time_elapsed": 303586,
		"internal_node_id": "0.0-3.0-1.172"
	},
	{
		"rt": 217,
		"stimulus": "<span style=\"font-size:30px; font-family: monospace\">a</span>",
		"response": " ",
		"trial": "exp-sent",
		"word": "a",
		"trial_type": "html-keyboard-response",
		"trial_index": 220,
		"time_elapsed": 304060,
		"internal_node_id": "0.0-3.0-1.173"
	},
	{
		"rt": 300,
		"stimulus": "<span style=\"font-size:30px; font-family: monospace\">tarde.</span>",
		"response": " ",
		"trial": "exp-sent",
		"word": "tarde.",
		"trial_type": "html-keyboard-response",
		"trial_index": 221,
		"time_elapsed": 304625,
		"internal_node_id": "0.0-3.0-1.174"
	},
	{
		"rt": null,
		"stimulus": "<span style= \"font-size:30px; font-family: monospace\">+</span>",
		"response": null,
		"trial_part": "fixation",
		"trial_type": "html-keyboard-response",
		"trial_index": 222,
		"time_elapsed": 305883,
		"internal_node_id": "0.0-3.0-0.175-0.175"
	},
	{
		"rt": 150,
		"stimulus": "<span style=\"font-size:30px; font-family: monospace\">Algumas</span>",
		"response": " ",
		"trial": "exp-sent",
		"word": "Algumas",
		"trial_type": "html-keyboard-response",
		"trial_index": 223,
		"time_elapsed": 306289,
		"internal_node_id": "0.0-3.0-1.175"
	},
	{
		"rt": 287,
		"stimulus": "<span style=\"font-size:30px; font-family: monospace\">pessoas</span>",
		"response": " ",
		"trial": "exp-sent",
		"word": "pessoas",
		"trial_type": "html-keyboard-response",
		"trial_index": 224,
		"time_elapsed": 306835,
		"internal_node_id": "0.0-3.0-1.176"
	},
	{
		"rt": 265,
		"stimulus": "<span style=\"font-size:30px; font-family: monospace\">acreditam</span>",
		"response": " ",
		"trial": "exp-sent",
		"word": "acreditam",
		"trial_type": "html-keyboard-response",
		"trial_index": 225,
		"time_elapsed": 307359,
		"internal_node_id": "0.0-3.0-1.177"
	},
	{
		"rt": 215,
		"stimulus": "<span style=\"font-size:30px; font-family: monospace\">em</span>",
		"response": " ",
		"trial": "exp-sent",
		"word": "em",
		"trial_type": "html-keyboard-response",
		"trial_index": 226,
		"time_elapsed": 307829,
		"internal_node_id": "0.0-3.0-1.178"
	},
	{
		"rt": 225,
		"stimulus": "<span style=\"font-size:30px; font-family: monospace\">espíritos</span>",
		"response": " ",
		"trial": "exp-sent",
		"word": "espíritos",
		"trial_type": "html-keyboard-response",
		"trial_index": 227,
		"time_elapsed": 308304,
		"internal_node_id": "0.0-3.0-1.179"
	},
	{
		"rt": 271,
		"stimulus": "<span style=\"font-size:30px; font-family: monospace\">e</span>",
		"response": " ",
		"trial": "exp-sent",
		"word": "e",
		"trial_type": "html-keyboard-response",
		"trial_index": 228,
		"time_elapsed": 308832,
		"internal_node_id": "0.0-3.0-1.180"
	},
	{
		"rt": 207,
		"stimulus": "<span style=\"font-size:30px; font-family: monospace\">em</span>",
		"response": " ",
		"trial": "exp-sent",
		"word": "em",
		"trial_type": "html-keyboard-response",
		"trial_index": 229,
		"time_elapsed": 309297,
		"internal_node_id": "0.0-3.0-1.181"
	},
	{
		"rt": 232,
		"stimulus": "<span style=\"font-size:30px; font-family: monospace\">outras</span>",
		"response": " ",
		"trial": "exp-sent",
		"word": "outras",
		"trial_type": "html-keyboard-response",
		"trial_index": 230,
		"time_elapsed": 309781,
		"internal_node_id": "0.0-3.0-1.182"
	},
	{
		"rt": 231,
		"stimulus": "<span style=\"font-size:30px; font-family: monospace\">vidas.</span>",
		"response": " ",
		"trial": "exp-sent",
		"word": "vidas.",
		"trial_type": "html-keyboard-response",
		"trial_index": 231,
		"time_elapsed": 310271,
		"internal_node_id": "0.0-3.0-1.183"
	},
	{
		"rt": null,
		"stimulus": "<span style= \"font-size:30px; font-family: monospace\">+</span>",
		"response": null,
		"trial_part": "fixation",
		"trial_type": "html-keyboard-response",
		"trial_index": 232,
		"time_elapsed": 311539,
		"internal_node_id": "0.0-3.0-0.184-0.184"
	},
	{
		"rt": 113,
		"stimulus": "<span style=\"font-size:30px; font-family: monospace\">Ela</span>",
		"response": " ",
		"trial": "exp-sent",
		"word": "Ela",
		"trial_type": "html-keyboard-response",
		"trial_index": 233,
		"time_elapsed": 311912,
		"internal_node_id": "0.0-3.0-1.184"
	},
	{
		"rt": 319,
		"stimulus": "<span style=\"font-size:30px; font-family: monospace\">gosta</span>",
		"response": " ",
		"trial": "exp-sent",
		"word": "gosta",
		"trial_type": "html-keyboard-response",
		"trial_index": 234,
		"time_elapsed": 312491,
		"internal_node_id": "0.0-3.0-1.185"
	},
	{
		"rt": 290,
		"stimulus": "<span style=\"font-size:30px; font-family: monospace\">de</span>",
		"response": " ",
		"trial": "exp-sent",
		"word": "de",
		"trial_type": "html-keyboard-response",
		"trial_index": 235,
		"time_elapsed": 313041,
		"internal_node_id": "0.0-3.0-1.186"
	},
	{
		"rt": 291,
		"stimulus": "<span style=\"font-size:30px; font-family: monospace\">estudar</span>",
		"response": " ",
		"trial": "exp-sent",
		"word": "estudar",
		"trial_type": "html-keyboard-response",
		"trial_index": 236,
		"time_elapsed": 313591,
		"internal_node_id": "0.0-3.0-1.187"
	},
	{
		"rt": 329,
		"stimulus": "<span style=\"font-size:30px; font-family: monospace\">matemática</span>",
		"response": " ",
		"trial": "exp-sent",
		"word": "matemática",
		"trial_type": "html-keyboard-response",
		"trial_index": 237,
		"time_elapsed": 314177,
		"internal_node_id": "0.0-3.0-1.188"
	},
	{
		"rt": 388,
		"stimulus": "<span style=\"font-size:30px; font-family: monospace\">com</span>",
		"response": " ",
		"trial": "exp-sent",
		"word": "com",
		"trial_type": "html-keyboard-response",
		"trial_index": 238,
		"time_elapsed": 314828,
		"internal_node_id": "0.0-3.0-1.189"
	},
	{
		"rt": 485,
		"stimulus": "<span style=\"font-size:30px; font-family: monospace\">colegas.</span>",
		"response": " ",
		"trial": "comp",
		"word": "colegas.",
		"trial_type": "html-keyboard-response",
		"trial_index": 239,
		"time_elapsed": 315566,
		"internal_node_id": "0.0-3.0-1.190"
	},
	{
		"rt": 7262,
		"stimulus": "<span style=\"font-size:30px; font-family: monospace\">Ela gosta de estudar física?</span>",
		"response": "s",
		"question": "Ela gosta de estudar física?",
		"answer": "não",
		"trial": "comp",
		"trial_type": "html-keyboard-response",
		"trial_index": 240,
		"time_elapsed": 323082,
		"internal_node_id": "0.0-3.0-2.190-0.190",
		"accuracy": false
	},
	{
		"rt": null,
		"stimulus": "<span style= \"font-size:30px; font-family: monospace\">+</span>",
		"response": null,
		"trial_part": "fixation",
		"trial_type": "html-keyboard-response",
		"trial_index": 241,
		"time_elapsed": 324603,
		"internal_node_id": "0.0-3.0-0.191-0.191"
	},
	{
		"rt": 359,
		"stimulus": "<span style=\"font-size:30px; font-family: monospace\">Ursos</span>",
		"response": " ",
		"trial": "exp-sent",
		"word": "Ursos",
		"trial_type": "html-keyboard-response",
		"trial_index": 242,
		"time_elapsed": 325220,
		"internal_node_id": "0.0-3.0-1.191"
	},
	{
		"rt": 259,
		"stimulus": "<span style=\"font-size:30px; font-family: monospace\">têm</span>",
		"response": " ",
		"trial": "exp-sent",
		"word": "têm",
		"trial_type": "html-keyboard-response",
		"trial_index": 243,
		"time_elapsed": 325735,
		"internal_node_id": "0.0-3.0-1.192"
	},
	{
		"rt": 352,
		"stimulus": "<span style=\"font-size:30px; font-family: monospace\">uma</span>",
		"response": " ",
		"trial": "exp-sent",
		"word": "uma",
		"trial_type": "html-keyboard-response",
		"trial_index": 244,
		"time_elapsed": 326353,
		"internal_node_id": "0.0-3.0-1.193"
	},
	{
		"rt": 321,
		"stimulus": "<span style=\"font-size:30px; font-family: monospace\">patada</span>",
		"response": " ",
		"trial": "exp-sent",
		"word": "patada",
		"trial_type": "html-keyboard-response",
		"trial_index": 245,
		"time_elapsed": 326941,
		"internal_node_id": "0.0-3.0-1.194"
	},
	{
		"rt": 305,
		"stimulus": "<span style=\"font-size:30px; font-family: monospace\">brutal</span>",
		"response": " ",
		"trial": "exp-sent",
		"word": "brutal",
		"trial_type": "html-keyboard-response",
		"trial_index": 246,
		"time_elapsed": 327505,
		"internal_node_id": "0.0-3.0-1.195"
	},
	{
		"rt": 113,
		"stimulus": "<span style=\"font-size:30px; font-family: monospace\">e</span>",
		"response": " ",
		"trial": "exp-sent",
		"word": "e",
		"trial_type": "html-keyboard-response",
		"trial_index": 247,
		"time_elapsed": 327924,
		"internal_node_id": "0.0-3.0-1.196"
	},
	{
		"rt": 196,
		"stimulus": "<span style=\"font-size:30px; font-family: monospace\">poderosa.</span>",
		"response": " ",
		"trial": "exp-sent",
		"word": "poderosa.",
		"trial_type": "html-keyboard-response",
		"trial_index": 248,
		"time_elapsed": 328375,
		"internal_node_id": "0.0-3.0-1.197"
	},
	{
		"rt": null,
		"stimulus": "<span style= \"font-size:30px; font-family: monospace\">+</span>",
		"response": null,
		"trial_part": "fixation",
		"trial_type": "html-keyboard-response",
		"trial_index": 249,
		"time_elapsed": 329639,
		"internal_node_id": "0.0-3.0-0.198-0.198"
	},
	{
		"rt": 166,
		"stimulus": "<span style=\"font-size:30px; font-family: monospace\">Eu</span>",
		"response": " ",
		"trial": "exp-sent",
		"word": "Eu",
		"trial_type": "html-keyboard-response",
		"trial_index": 250,
		"time_elapsed": 330064,
		"internal_node_id": "0.0-3.0-1.198"
	},
	{
		"rt": 83,
		"stimulus": "<span style=\"font-size:30px; font-family: monospace\">fiz</span>",
		"response": " ",
		"trial": "exp-sent",
		"word": "fiz",
		"trial_type": "html-keyboard-response",
		"trial_index": 251,
		"time_elapsed": 330433,
		"internal_node_id": "0.0-3.0-1.199"
	},
	{
		"rt": 150,
		"stimulus": "<span style=\"font-size:30px; font-family: monospace\">aulas</span>",
		"response": " ",
		"trial": "exp-sent",
		"word": "aulas",
		"trial_type": "html-keyboard-response",
		"trial_index": 252,
		"time_elapsed": 330838,
		"internal_node_id": "0.0-3.0-1.200"
	},
	{
		"rt": 108,
		"stimulus": "<span style=\"font-size:30px; font-family: monospace\">de</span>",
		"response": " ",
		"trial": "exp-sent",
		"word": "de",
		"trial_type": "html-keyboard-response",
		"trial_index": 253,
		"time_elapsed": 331202,
		"internal_node_id": "0.0-3.0-1.201"
	},
	{
		"rt": 106,
		"stimulus": "<span style=\"font-size:30px; font-family: monospace\">espanhol</span>",
		"response": " ",
		"trial": "exp-sent",
		"word": "espanhol",
		"trial_type": "html-keyboard-response",
		"trial_index": 254,
		"time_elapsed": 331563,
		"internal_node_id": "0.0-3.0-1.202"
	},
	{
		"rt": 132,
		"stimulus": "<span style=\"font-size:30px; font-family: monospace\">nesta</span>",
		"response": " ",
		"trial": "exp-sent",
		"word": "nesta",
		"trial_type": "html-keyboard-response",
		"trial_index": 255,
		"time_elapsed": 331951,
		"internal_node_id": "0.0-3.0-1.203"
	},
	{
		"rt": 481,
		"stimulus": "<span style=\"font-size:30px; font-family: monospace\">cidade.</span>",
		"response": " ",
		"trial": "exp-sent",
		"word": "cidade.",
		"trial_type": "html-keyboard-response",
		"trial_index": 256,
		"time_elapsed": 332686,
		"internal_node_id": "0.0-3.0-1.204"
	},
	{
		"rt": null,
		"stimulus": "<span style= \"font-size:30px; font-family: monospace\">+</span>",
		"response": null,
		"trial_part": "fixation",
		"trial_type": "html-keyboard-response",
		"trial_index": 257,
		"time_elapsed": 333945,
		"internal_node_id": "0.0-3.0-0.205-0.205"
	},
	{
		"rt": 331,
		"stimulus": "<span style=\"font-size:30px; font-family: monospace\">Ele</span>",
		"response": " ",
		"trial": "exp-sent",
		"word": "Ele",
		"trial_type": "html-keyboard-response",
		"trial_index": 258,
		"time_elapsed": 334531,
		"internal_node_id": "0.0-3.0-1.205"
	},
	{
		"rt": 38,
		"stimulus": "<span style=\"font-size:30px; font-family: monospace\">comprou</span>",
		"response": " ",
		"trial": "exp-sent",
		"word": "comprou",
		"trial_type": "html-keyboard-response",
		"trial_index": 259,
		"time_elapsed": 334822,
		"internal_node_id": "0.0-3.0-1.206"
	},
	{
		"rt": 5,
		"stimulus": "<span style=\"font-size:30px; font-family: monospace\">mais</span>",
		"response": " ",
		"trial": "exp-sent",
		"word": "mais",
		"trial_type": "html-keyboard-response",
		"trial_index": 260,
		"time_elapsed": 335088,
		"internal_node_id": "0.0-3.0-1.207"
	},
	{
		"rt": 811,
		"stimulus": "<span style=\"font-size:30px; font-family: monospace\">uma</span>",
		"response": " ",
		"trial": "exp-sent",
		"word": "uma",
		"trial_type": "html-keyboard-response",
		"trial_index": 261,
		"time_elapsed": 336152,
		"internal_node_id": "0.0-3.0-1.208"
	},
	{
		"rt": 643,
		"stimulus": "<span style=\"font-size:30px; font-family: monospace\">esponja</span>",
		"response": " ",
		"trial": "exp-sent",
		"word": "esponja",
		"trial_type": "html-keyboard-response",
		"trial_index": 262,
		"time_elapsed": 337053,
		"internal_node_id": "0.0-3.0-1.209"
	},
	{
		"rt": 568,
		"stimulus": "<span style=\"font-size:30px; font-family: monospace\">para</span>",
		"response": " ",
		"trial": "exp-sent",
		"word": "para",
		"trial_type": "html-keyboard-response",
		"trial_index": 263,
		"time_elapsed": 337877,
		"internal_node_id": "0.0-3.0-1.210"
	},
	{
		"rt": 379,
		"stimulus": "<span style=\"font-size:30px; font-family: monospace\">a</span>",
		"response": " ",
		"trial": "exp-sent",
		"word": "a",
		"trial_type": "html-keyboard-response",
		"trial_index": 264,
		"time_elapsed": 338519,
		"internal_node_id": "0.0-3.0-1.211"
	},
	{
		"rt": 366,
		"stimulus": "<span style=\"font-size:30px; font-family: monospace\">cozinha.</span>",
		"response": " ",
		"trial": "exp-sent",
		"word": "cozinha.",
		"trial_type": "html-keyboard-response",
		"trial_index": 265,
		"time_elapsed": 339145,
		"internal_node_id": "0.0-3.0-1.212"
	},
	{
		"rt": null,
		"stimulus": "<span style= \"font-size:30px; font-family: monospace\">+</span>",
		"response": null,
		"trial_part": "fixation",
		"trial_type": "html-keyboard-response",
		"trial_index": 266,
		"time_elapsed": 340409,
		"internal_node_id": "0.0-3.0-0.213-0.213"
	},
	{
		"rt": 374,
		"stimulus": "<span style=\"font-size:30px; font-family: monospace\">Ele</span>",
		"response": " ",
		"trial": "exp-sent",
		"word": "Ele",
		"trial_type": "html-keyboard-response",
		"trial_index": 267,
		"time_elapsed": 341043,
		"internal_node_id": "0.0-3.0-1.213"
	},
	{
		"rt": 384,
		"stimulus": "<span style=\"font-size:30px; font-family: monospace\">teve</span>",
		"response": " ",
		"trial": "exp-sent",
		"word": "teve",
		"trial_type": "html-keyboard-response",
		"trial_index": 268,
		"time_elapsed": 341683,
		"internal_node_id": "0.0-3.0-1.214"
	},
	{
		"rt": 391,
		"stimulus": "<span style=\"font-size:30px; font-family: monospace\">um</span>",
		"response": " ",
		"trial": "exp-sent",
		"word": "um",
		"trial_type": "html-keyboard-response",
		"trial_index": 269,
		"time_elapsed": 342327,
		"internal_node_id": "0.0-3.0-1.215"
	},
	{
		"rt": 442,
		"stimulus": "<span style=\"font-size:30px; font-family: monospace\">sono</span>",
		"response": " ",
		"trial": "exp-sent",
		"word": "sono",
		"trial_type": "html-keyboard-response",
		"trial_index": 270,
		"time_elapsed": 343030,
		"internal_node_id": "0.0-3.0-1.216"
	},
	{
		"rt": 295,
		"stimulus": "<span style=\"font-size:30px; font-family: monospace\">bizarro</span>",
		"response": " ",
		"trial": "exp-sent",
		"word": "bizarro",
		"trial_type": "html-keyboard-response",
		"trial_index": 271,
		"time_elapsed": 343584,
		"internal_node_id": "0.0-3.0-1.217"
	},
	{
		"rt": 745,
		"stimulus": "<span style=\"font-size:30px; font-family: monospace\">sem</span>",
		"response": " ",
		"trial": "exp-sent",
		"word": "sem",
		"trial_type": "html-keyboard-response",
		"trial_index": 272,
		"time_elapsed": 344595,
		"internal_node_id": "0.0-3.0-1.218"
	},
	{
		"rt": 352,
		"stimulus": "<span style=\"font-size:30px; font-family: monospace\">nenhum</span>",
		"response": " ",
		"trial": "exp-sent",
		"word": "nenhum",
		"trial_type": "html-keyboard-response",
		"trial_index": 273,
		"time_elapsed": 345200,
		"internal_node_id": "0.0-3.0-1.219"
	},
	{
		"rt": 488,
		"stimulus": "<span style=\"font-size:30px; font-family: monospace\">motivo.</span>",
		"response": " ",
		"trial": "exp-sent",
		"word": "motivo.",
		"trial_type": "html-keyboard-response",
		"trial_index": 274,
		"time_elapsed": 345945,
		"internal_node_id": "0.0-3.0-1.220"
	},
	{
		"rt": null,
		"stimulus": "<span style= \"font-size:30px; font-family: monospace\">+</span>",
		"response": null,
		"trial_part": "fixation",
		"trial_type": "html-keyboard-response",
		"trial_index": 275,
		"time_elapsed": 347213,
		"internal_node_id": "0.0-3.0-0.221-0.221"
	},
	{
		"rt": 126,
		"stimulus": "<span style=\"font-size:30px; font-family: monospace\">A</span>",
		"response": " ",
		"trial": "exp-sent",
		"word": "A",
		"trial_type": "html-keyboard-response",
		"trial_index": 276,
		"time_elapsed": 347606,
		"internal_node_id": "0.0-3.0-1.221"
	},
	{
		"rt": 400,
		"stimulus": "<span style=\"font-size:30px; font-family: monospace\">moça</span>",
		"response": " ",
		"trial": "exp-sent",
		"word": "moça",
		"trial_type": "html-keyboard-response",
		"trial_index": 277,
		"time_elapsed": 348260,
		"internal_node_id": "0.0-3.0-1.222"
	},
	{
		"rt": 325,
		"stimulus": "<span style=\"font-size:30px; font-family: monospace\">comprou</span>",
		"response": " ",
		"trial": "exp-sent",
		"word": "comprou",
		"trial_type": "html-keyboard-response",
		"trial_index": 278,
		"time_elapsed": 348847,
		"internal_node_id": "0.0-3.0-1.223"
	},
	{
		"rt": 314,
		"stimulus": "<span style=\"font-size:30px; font-family: monospace\">um</span>",
		"response": " ",
		"trial": "exp-sent",
		"word": "um",
		"trial_type": "html-keyboard-response",
		"trial_index": 279,
		"time_elapsed": 349427,
		"internal_node_id": "0.0-3.0-1.224"
	},
	{
		"rt": 596,
		"stimulus": "<span style=\"font-size:30px; font-family: monospace\">diamante</span>",
		"response": " ",
		"trial": "exp-sent",
		"word": "diamante",
		"trial_type": "html-keyboard-response",
		"trial_index": 280,
		"time_elapsed": 350289,
		"internal_node_id": "0.0-3.0-1.225"
	},
	{
		"rt": 401,
		"stimulus": "<span style=\"font-size:30px; font-family: monospace\">para</span>",
		"response": " ",
		"trial": "exp-sent",
		"word": "para",
		"trial_type": "html-keyboard-response",
		"trial_index": 281,
		"time_elapsed": 350952,
		"internal_node_id": "0.0-3.0-1.226"
	},
	{
		"rt": 383,
		"stimulus": "<span style=\"font-size:30px; font-family: monospace\">sua</span>",
		"response": " ",
		"trial": "exp-sent",
		"word": "sua",
		"trial_type": "html-keyboard-response",
		"trial_index": 282,
		"time_elapsed": 351592,
		"internal_node_id": "0.0-3.0-1.227"
	},
	{
		"rt": 340,
		"stimulus": "<span style=\"font-size:30px; font-family: monospace\">prima.</span>",
		"response": " ",
		"trial": "comp",
		"word": "prima.",
		"trial_type": "html-keyboard-response",
		"trial_index": 283,
		"time_elapsed": 352193,
		"internal_node_id": "0.0-3.0-1.228"
	},
	{
		"rt": 11328,
		"stimulus": "<span style=\"font-size:30px; font-family: monospace\">A moça comprou um diamante?</span>",
		"response": "s",
		"question": "A moça comprou um diamante?",
		"answer": "sim",
		"trial": "comp",
		"trial_type": "html-keyboard-response",
		"trial_index": 284,
		"time_elapsed": 363778,
		"internal_node_id": "0.0-3.0-2.228-0.228",
		"accuracy": false
	},
	{
		"rt": null,
		"stimulus": "<span style= \"font-size:30px; font-family: monospace\">+</span>",
		"response": null,
		"trial_part": "fixation",
		"trial_type": "html-keyboard-response",
		"trial_index": 285,
		"time_elapsed": 365298,
		"internal_node_id": "0.0-3.0-0.229-0.229"
	},
	{
		"rt": 915,
		"stimulus": "<span style=\"font-size:30px; font-family: monospace\">O</span>",
		"response": " ",
		"trial": "exp-sent",
		"word": "O",
		"trial_type": "html-keyboard-response",
		"trial_index": 286,
		"time_elapsed": 366476,
		"internal_node_id": "0.0-3.0-1.229"
	},
	{
		"rt": 323,
		"stimulus": "<span style=\"font-size:30px; font-family: monospace\">texto</span>",
		"response": " ",
		"trial": "exp-sent",
		"word": "texto",
		"trial_type": "html-keyboard-response",
		"trial_index": 287,
		"time_elapsed": 367053,
		"internal_node_id": "0.0-3.0-1.230"
	},
	{
		"rt": 348,
		"stimulus": "<span style=\"font-size:30px; font-family: monospace\">trazia</span>",
		"response": " ",
		"trial": "exp-sent",
		"word": "trazia",
		"trial_type": "html-keyboard-response",
		"trial_index": 288,
		"time_elapsed": 367653,
		"internal_node_id": "0.0-3.0-1.231"
	},
	{
		"rt": 221,
		"stimulus": "<span style=\"font-size:30px; font-family: monospace\">um</span>",
		"response": " ",
		"trial": "exp-sent",
		"word": "um",
		"trial_type": "html-keyboard-response",
		"trial_index": 289,
		"time_elapsed": 368134,
		"internal_node_id": "0.0-3.0-1.232"
	},
	{
		"rt": 720,
		"stimulus": "<span style=\"font-size:30px; font-family: monospace\">argumento</span>",
		"response": " ",
		"trial": "exp-sent",
		"word": "argumento",
		"trial_type": "html-keyboard-response",
		"trial_index": 290,
		"time_elapsed": 369118,
		"internal_node_id": "0.0-3.0-1.233"
	},
	{
		"rt": 286,
		"stimulus": "<span style=\"font-size:30px; font-family: monospace\">central</span>",
		"response": " ",
		"trial": "exp-sent",
		"word": "central",
		"trial_type": "html-keyboard-response",
		"trial_index": 291,
		"time_elapsed": 369657,
		"internal_node_id": "0.0-3.0-1.234"
	},
	{
		"rt": 125,
		"stimulus": "<span style=\"font-size:30px; font-family: monospace\">para</span>",
		"response": " ",
		"trial": "exp-sent",
		"word": "para",
		"trial_type": "html-keyboard-response",
		"trial_index": 292,
		"time_elapsed": 370037,
		"internal_node_id": "0.0-3.0-1.235"
	},
	{
		"rt": 369,
		"stimulus": "<span style=\"font-size:30px; font-family: monospace\">a</span>",
		"response": " ",
		"trial": "exp-sent",
		"word": "a",
		"trial_type": "html-keyboard-response",
		"trial_index": 293,
		"time_elapsed": 370662,
		"internal_node_id": "0.0-3.0-1.236"
	},
	{
		"rt": 92,
		"stimulus": "<span style=\"font-size:30px; font-family: monospace\">conversa.</span>",
		"response": " ",
		"trial": "exp-sent",
		"word": "conversa.",
		"trial_type": "html-keyboard-response",
		"trial_index": 294,
		"time_elapsed": 371015,
		"internal_node_id": "0.0-3.0-1.237"
	},
	{
		"rt": null,
		"stimulus": "<span style= \"font-size:30px; font-family: monospace\">+</span>",
		"response": null,
		"trial_part": "fixation",
		"trial_type": "html-keyboard-response",
		"trial_index": 295,
		"time_elapsed": 372283,
		"internal_node_id": "0.0-3.0-0.238-0.238"
	},
	{
		"rt": 381,
		"stimulus": "<span style=\"font-size:30px; font-family: monospace\">Ontem</span>",
		"response": " ",
		"trial": "exp-sent",
		"word": "Ontem",
		"trial_type": "html-keyboard-response",
		"trial_index": 296,
		"time_elapsed": 372929,
		"internal_node_id": "0.0-3.0-1.238"
	},
	{
		"rt": 377,
		"stimulus": "<span style=\"font-size:30px; font-family: monospace\">a</span>",
		"response": " ",
		"trial": "exp-sent",
		"word": "a",
		"trial_type": "html-keyboard-response",
		"trial_index": 297,
		"time_elapsed": 373562,
		"internal_node_id": "0.0-3.0-1.239"
	},
	{
		"rt": 409,
		"stimulus": "<span style=\"font-size:30px; font-family: monospace\">temperatura</span>",
		"response": " ",
		"trial": "exp-sent",
		"word": "temperatura",
		"trial_type": "html-keyboard-response",
		"trial_index": 298,
		"time_elapsed": 374227,
		"internal_node_id": "0.0-3.0-1.240"
	},
	{
		"rt": 340,
		"stimulus": "<span style=\"font-size:30px; font-family: monospace\">estava</span>",
		"response": " ",
		"trial": "exp-sent",
		"word": "estava",
		"trial_type": "html-keyboard-response",
		"trial_index": 299,
		"time_elapsed": 374823,
		"internal_node_id": "0.0-3.0-1.241"
	},
	{
		"rt": 323,
		"stimulus": "<span style=\"font-size:30px; font-family: monospace\">amena</span>",
		"response": " ",
		"trial": "exp-sent",
		"word": "amena",
		"trial_type": "html-keyboard-response",
		"trial_index": 300,
		"time_elapsed": 375406,
		"internal_node_id": "0.0-3.0-1.242"
	},
	{
		"rt": 302,
		"stimulus": "<span style=\"font-size:30px; font-family: monospace\">durante</span>",
		"response": " ",
		"trial": "exp-sent",
		"word": "durante",
		"trial_type": "html-keyboard-response",
		"trial_index": 301,
		"time_elapsed": 375965,
		"internal_node_id": "0.0-3.0-1.243"
	},
	{
		"rt": 289,
		"stimulus": "<span style=\"font-size:30px; font-family: monospace\">o</span>",
		"response": " ",
		"trial": "exp-sent",
		"word": "o",
		"trial_type": "html-keyboard-response",
		"trial_index": 302,
		"time_elapsed": 376506,
		"internal_node_id": "0.0-3.0-1.244"
	},
	{
		"rt": 278,
		"stimulus": "<span style=\"font-size:30px; font-family: monospace\">dia.</span>",
		"response": " ",
		"trial": "exp-sent",
		"word": "dia.",
		"trial_type": "html-keyboard-response",
		"trial_index": 303,
		"time_elapsed": 377039,
		"internal_node_id": "0.0-3.0-1.245"
	},
	{
		"rt": null,
		"stimulus": "<span style= \"font-size:30px; font-family: monospace\">+</span>",
		"response": null,
		"trial_part": "fixation",
		"trial_type": "html-keyboard-response",
		"trial_index": 304,
		"time_elapsed": 378301,
		"internal_node_id": "0.0-3.0-0.246-0.246"
	},
	{
		"rt": 115,
		"stimulus": "<span style=\"font-size:30px; font-family: monospace\">Havia</span>",
		"response": " ",
		"trial": "exp-sent",
		"word": "Havia",
		"trial_type": "html-keyboard-response",
		"trial_index": 305,
		"time_elapsed": 378676,
		"internal_node_id": "0.0-3.0-1.246"
	},
	{
		"rt": 356,
		"stimulus": "<span style=\"font-size:30px; font-family: monospace\">um</span>",
		"response": " ",
		"trial": "exp-sent",
		"word": "um",
		"trial_type": "html-keyboard-response",
		"trial_index": 306,
		"time_elapsed": 379285,
		"internal_node_id": "0.0-3.0-1.247"
	},
	{
		"rt": 239,
		"stimulus": "<span style=\"font-size:30px; font-family: monospace\">machucado</span>",
		"response": " ",
		"trial": "exp-sent",
		"word": "machucado",
		"trial_type": "html-keyboard-response",
		"trial_index": 307,
		"time_elapsed": 379784,
		"internal_node_id": "0.0-3.0-1.248"
	},
	{
		"rt": 385,
		"stimulus": "<span style=\"font-size:30px; font-family: monospace\">no</span>",
		"response": " ",
		"trial": "exp-sent",
		"word": "no",
		"trial_type": "html-keyboard-response",
		"trial_index": 308,
		"time_elapsed": 380421,
		"internal_node_id": "0.0-3.0-1.249"
	},
	{
		"rt": 325,
		"stimulus": "<span style=\"font-size:30px; font-family: monospace\">dedo</span>",
		"response": " ",
		"trial": "exp-sent",
		"word": "dedo",
		"trial_type": "html-keyboard-response",
		"trial_index": 309,
		"time_elapsed": 381011,
		"internal_node_id": "0.0-3.0-1.250"
	},
	{
		"rt": 349,
		"stimulus": "<span style=\"font-size:30px; font-family: monospace\">da</span>",
		"response": " ",
		"trial": "exp-sent",
		"word": "da",
		"trial_type": "html-keyboard-response",
		"trial_index": 310,
		"time_elapsed": 381625,
		"internal_node_id": "0.0-3.0-1.251"
	},
	{
		"rt": 365,
		"stimulus": "<span style=\"font-size:30px; font-family: monospace\">criança.</span>",
		"response": " ",
		"trial": "exp-sent",
		"word": "criança.",
		"trial_type": "html-keyboard-response",
		"trial_index": 311,
		"time_elapsed": 382250,
		"internal_node_id": "0.0-3.0-1.252"
	},
	{
		"rt": null,
		"stimulus": "<span style= \"font-size:30px; font-family: monospace\">+</span>",
		"response": null,
		"trial_part": "fixation",
		"trial_type": "html-keyboard-response",
		"trial_index": 312,
		"time_elapsed": 383523,
		"internal_node_id": "0.0-3.0-0.253-0.253"
	},
	{
		"rt": 92,
		"stimulus": "<span style=\"font-size:30px; font-family: monospace\">A</span>",
		"response": " ",
		"trial": "exp-sent",
		"word": "A",
		"trial_type": "html-keyboard-response",
		"trial_index": 313,
		"time_elapsed": 383878,
		"internal_node_id": "0.0-3.0-1.253"
	},
	{
		"rt": 606,
		"stimulus": "<span style=\"font-size:30px; font-family: monospace\">borboleta</span>",
		"response": " ",
		"trial": "exp-sent",
		"word": "borboleta",
		"trial_type": "html-keyboard-response",
		"trial_index": 314,
		"time_elapsed": 384738,
		"internal_node_id": "0.0-3.0-1.254"
	},
	{
		"rt": 354,
		"stimulus": "<span style=\"font-size:30px; font-family: monospace\">pousou</span>",
		"response": " ",
		"trial": "exp-sent",
		"word": "pousou",
		"trial_type": "html-keyboard-response",
		"trial_index": 315,
		"time_elapsed": 385356,
		"internal_node_id": "0.0-3.0-1.255"
	},
	{
		"rt": 355,
		"stimulus": "<span style=\"font-size:30px; font-family: monospace\">no</span>",
		"response": " ",
		"trial": "exp-sent",
		"word": "no",
		"trial_type": "html-keyboard-response",
		"trial_index": 316,
		"time_elapsed": 385968,
		"internal_node_id": "0.0-3.0-1.256"
	},
	{
		"rt": 366,
		"stimulus": "<span style=\"font-size:30px; font-family: monospace\">ombro</span>",
		"response": " ",
		"trial": "exp-sent",
		"word": "ombro",
		"trial_type": "html-keyboard-response",
		"trial_index": 317,
		"time_elapsed": 386587,
		"internal_node_id": "0.0-3.0-1.257"
	},
	{
		"rt": 471,
		"stimulus": "<span style=\"font-size:30px; font-family: monospace\">daquela</span>",
		"response": " ",
		"trial": "exp-sent",
		"word": "daquela",
		"trial_type": "html-keyboard-response",
		"trial_index": 318,
		"time_elapsed": 387326,
		"internal_node_id": "0.0-3.0-1.258"
	},
	{
		"rt": 462,
		"stimulus": "<span style=\"font-size:30px; font-family: monospace\">moça.</span>",
		"response": " ",
		"trial": "exp-sent",
		"word": "moça.",
		"trial_type": "html-keyboard-response",
		"trial_index": 319,
		"time_elapsed": 388044,
		"internal_node_id": "0.0-3.0-1.259"
	},
	{
		"rt": null,
		"stimulus": "<span style= \"font-size:30px; font-family: monospace\">+</span>",
		"response": null,
		"trial_part": "fixation",
		"trial_type": "html-keyboard-response",
		"trial_index": 320,
		"time_elapsed": 389312,
		"internal_node_id": "0.0-3.0-0.260-0.260"
	},
	{
		"rt": 436,
		"stimulus": "<span style=\"font-size:30px; font-family: monospace\">Eu</span>",
		"response": " ",
		"trial": "exp-sent",
		"word": "Eu",
		"trial_type": "html-keyboard-response",
		"trial_index": 321,
		"time_elapsed": 390009,
		"internal_node_id": "0.0-3.0-1.260"
	},
	{
		"rt": 389,
		"stimulus": "<span style=\"font-size:30px; font-family: monospace\">quero</span>",
		"response": " ",
		"trial": "exp-sent",
		"word": "quero",
		"trial_type": "html-keyboard-response",
		"trial_index": 322,
		"time_elapsed": 390651,
		"internal_node_id": "0.0-3.0-1.261"
	},
	{
		"rt": 401,
		"stimulus": "<span style=\"font-size:30px; font-family: monospace\">um</span>",
		"response": " ",
		"trial": "exp-sent",
		"word": "um",
		"trial_type": "html-keyboard-response",
		"trial_index": 323,
		"time_elapsed": 391314,
		"internal_node_id": "0.0-3.0-1.262"
	},
	{
		"rt": 323,
		"stimulus": "<span style=\"font-size:30px; font-family: monospace\">namorado</span>",
		"response": " ",
		"trial": "exp-sent",
		"word": "namorado",
		"trial_type": "html-keyboard-response",
		"trial_index": 324,
		"time_elapsed": 391893,
		"internal_node_id": "0.0-3.0-1.263"
	},
	{
		"rt": 383,
		"stimulus": "<span style=\"font-size:30px; font-family: monospace\">honesto</span>",
		"response": " ",
		"trial": "exp-sent",
		"word": "honesto",
		"trial_type": "html-keyboard-response",
		"trial_index": 325,
		"time_elapsed": 392538,
		"internal_node_id": "0.0-3.0-1.264"
	},
	{
		"rt": 349,
		"stimulus": "<span style=\"font-size:30px; font-family: monospace\">e</span>",
		"response": " ",
		"trial": "exp-sent",
		"word": "e",
		"trial_type": "html-keyboard-response",
		"trial_index": 326,
		"time_elapsed": 393149,
		"internal_node_id": "0.0-3.0-1.265"
	},
	{
		"rt": 2291,
		"stimulus": "<span style=\"font-size:30px; font-family: monospace\">compreensivo.</span>",
		"response": " ",
		"trial": "comp",
		"word": "compreensivo.",
		"trial_type": "html-keyboard-response",
		"trial_index": 327,
		"time_elapsed": 395697,
		"internal_node_id": "0.0-3.0-1.266"
	},
	{
		"rt": 4967,
		"stimulus": "<span style=\"font-size:30px; font-family: monospace\">Eu quero um namorado honesto?</span>",
		"response": "s",
		"question": "Eu quero um namorado honesto?",
		"answer": "sim",
		"trial": "comp",
		"trial_type": "html-keyboard-response",
		"trial_index": 328,
		"time_elapsed": 400921,
		"internal_node_id": "0.0-3.0-2.266-0.266",
		"accuracy": false
	},
	{
		"rt": null,
		"stimulus": "<span style= \"font-size:30px; font-family: monospace\">+</span>",
		"response": null,
		"trial_part": "fixation",
		"trial_type": "html-keyboard-response",
		"trial_index": 329,
		"time_elapsed": 402428,
		"internal_node_id": "0.0-3.0-0.267-0.267"
	},
	{
		"rt": 219,
		"stimulus": "<span style=\"font-size:30px; font-family: monospace\">Minha</span>",
		"response": " ",
		"trial": "exp-sent",
		"word": "Minha",
		"trial_type": "html-keyboard-response",
		"trial_index": 330,
		"time_elapsed": 402908,
		"internal_node_id": "0.0-3.0-1.267"
	},
	{
		"rt": 231,
		"stimulus": "<span style=\"font-size:30px; font-family: monospace\">prima</span>",
		"response": " ",
		"trial": "exp-sent",
		"word": "prima",
		"trial_type": "html-keyboard-response",
		"trial_index": 331,
		"time_elapsed": 403396,
		"internal_node_id": "0.0-3.0-1.268"
	},
	{
		"rt": 239,
		"stimulus": "<span style=\"font-size:30px; font-family: monospace\">trocou</span>",
		"response": " ",
		"trial": "exp-sent",
		"word": "trocou",
		"trial_type": "html-keyboard-response",
		"trial_index": 332,
		"time_elapsed": 403890,
		"internal_node_id": "0.0-3.0-1.269"
	},
	{
		"rt": 116,
		"stimulus": "<span style=\"font-size:30px; font-family: monospace\">a</span>",
		"response": " ",
		"trial": "exp-sent",
		"word": "a",
		"trial_type": "html-keyboard-response",
		"trial_index": 333,
		"time_elapsed": 404270,
		"internal_node_id": "0.0-3.0-1.270"
	},
	{
		"rt": 270,
		"stimulus": "<span style=\"font-size:30px; font-family: monospace\">tela</span>",
		"response": " ",
		"trial": "exp-sent",
		"word": "tela",
		"trial_type": "html-keyboard-response",
		"trial_index": 334,
		"time_elapsed": 404799,
		"internal_node_id": "0.0-3.0-1.271"
	},
	{
		"rt": 253,
		"stimulus": "<span style=\"font-size:30px; font-family: monospace\">do</span>",
		"response": " ",
		"trial": "exp-sent",
		"word": "do",
		"trial_type": "html-keyboard-response",
		"trial_index": 335,
		"time_elapsed": 405304,
		"internal_node_id": "0.0-3.0-1.272"
	},
	{
		"rt": 222,
		"stimulus": "<span style=\"font-size:30px; font-family: monospace\">celular</span>",
		"response": " ",
		"trial": "exp-sent",
		"word": "celular",
		"trial_type": "html-keyboard-response",
		"trial_index": 336,
		"time_elapsed": 405783,
		"internal_node_id": "0.0-3.0-1.273"
	},
	{
		"rt": 204,
		"stimulus": "<span style=\"font-size:30px; font-family: monospace\">duas</span>",
		"response": " ",
		"trial": "exp-sent",
		"word": "duas",
		"trial_type": "html-keyboard-response",
		"trial_index": 337,
		"time_elapsed": 406248,
		"internal_node_id": "0.0-3.0-1.274"
	},
	{
		"rt": 261,
		"stimulus": "<span style=\"font-size:30px; font-family: monospace\">vezes.</span>",
		"response": " ",
		"trial": "exp-sent",
		"word": "vezes.",
		"trial_type": "html-keyboard-response",
		"trial_index": 338,
		"time_elapsed": 406772,
		"internal_node_id": "0.0-3.0-1.275"
	},
	{
		"rt": null,
		"stimulus": "<span style= \"font-size:30px; font-family: monospace\">+</span>",
		"response": null,
		"trial_part": "fixation",
		"trial_type": "html-keyboard-response",
		"trial_index": 339,
		"time_elapsed": 408044,
		"internal_node_id": "0.0-3.0-0.276-0.276"
	},
	{
		"rt": 47,
		"stimulus": "<span style=\"font-size:30px; font-family: monospace\">Agora</span>",
		"response": " ",
		"trial": "exp-sent",
		"word": "Agora",
