"view_history","rt","trial_type","trial_index","time_elapsed","internal_node_id","stimulus","response","class","status","answer","correct","trial","letters"
"[{""page_index"":0,""viewing_time"":84053}]","84054","instructions","0","84057","0.0-0.0","","","","","","","",""
"","null","html-keyboard-response","1","84669","0.0-1.0-0.0","+","null","","","","","",""
"","9950","html-keyboard-response","2","94623","0.0-1.0-1.0","daja","n","null","noncog","pseudo","N","prac","null"
"","null","html-keyboard-response","3","95126","0.0-1.0-0.1","+","null","","","","","",""
"","15154","html-keyboard-response","4","110281","0.0-1.0-1.1","plibar","n","null","noncog","pseudo","N","prac","null"
"","null","html-keyboard-response","5","110783","0.0-1.0-0.2","+","null","","","","","",""
"","11383","html-keyboard-response","6","122169","0.0-1.0-1.2","chassi","s","null","cog","word","S","prac","null"
"","null","html-keyboard-response","7","122673","0.0-1.0-0.3","+","null","","","","","",""
"","5071","html-keyboard-response","8","127747","0.0-1.0-1.3","órgão","s","null","noncog","word","S","prac","null"
"","null","html-keyboard-response","9","128250","0.0-1.0-0.4","+","null","","","","","",""
"","3914","html-keyboard-response","10","132167","0.0-1.0-1.4","oliva","s","null","cog","word","S","prac","null"
"","null","html-keyboard-response","11","132669","0.0-1.0-0.5","+","null","","","","","",""
"","5935","html-keyboard-response","12","138606","0.0-1.0-1.5","crante","n","null","noncog","pseudo","N","prac","null"
"","null","html-keyboard-response","13","139109","0.0-1.0-0.6","+","null","","","","","",""
"","4145","html-keyboard-response","14","143256","0.0-1.0-1.6","calmaria","s","null","noncog","word","S","prac","null"
"[{""page_index"":0,""viewing_time"":56058}]","56059","instructions","15","199316","0.0-2.0","","","","","","","",""
"","null","html-keyboard-response","16","199920","0.0-3.0-0.0","+","null","","","","","",""
"","3198","html-keyboard-response","17","203120","0.0-3.0-1.0","traduzir","s","v","cog","word","S","exp","8"
"","null","html-keyboard-response","18","203622","0.0-3.0-0.1","+","null","","","","","",""
"","2644","html-keyboard-response","19","206269","0.0-3.0-1.1","protas","n","null","noncog","pseudo","N","exp","null"
"","null","html-keyboard-response","20","206772","0.0-3.0-0.2","+","null","","","","","",""
"","2218","html-keyboard-response","21","208992","0.0-3.0-1.2","gertas","n","null","noncog","pseudo","N","exp","null"
"","null","html-keyboard-response","22","209495","0.0-3.0-0.3","+","null","","","","","",""
"","3030","html-keyboard-response","23","212527","0.0-3.0-1.3","delirar","n","v","noncog","word","S","exp","7"
"","null","html-keyboard-response","24","213029","0.0-3.0-0.4","+","null","","","","","",""
"","2121","html-keyboard-response","25","215152","0.0-3.0-1.4","pulmão","s","n","noncog","word","S","exp","6"
"","null","html-keyboard-response","26","215655","0.0-3.0-0.5","+","null","","","","","",""
"","1550","html-keyboard-response","27","217207","0.0-3.0-1.5","multiplicar","s","v","cog","word","S","exp","11"
"","null","html-keyboard-response","28","217710","0.0-3.0-0.6","+","null","","","","","",""
"","1933","html-keyboard-response","29","219645","0.0-3.0-1.6","avenas","s","null","noncog","pseudo","N","exp","null"
"","null","html-keyboard-response","30","220148","0.0-3.0-0.7","+","null","","","","","",""
"","1907","html-keyboard-response","31","222057","0.0-3.0-1.7","montanha","s","n","cog","word","S","exp","8"
"","null","html-keyboard-response","32","222560","0.0-3.0-0.8","+","null","","","","","",""
"","1674","html-keyboard-response","33","224235","0.0-3.0-1.8","nervoso","s","a","noncog","word","S","exp","7"
"","null","html-keyboard-response","34","224738","0.0-3.0-0.9","+","null","","","","","",""
"","1245","html-keyboard-response","35","225986","0.0-3.0-1.9","tênis","s","n","cog","word","S","exp","5"
"","null","html-keyboard-response","36","226489","0.0-3.0-0.10","+","null","","","","","",""
"","2214","html-keyboard-response","37","228705","0.0-3.0-1.10","lagras","n","null","noncog","pseudo","N","exp","null"
"","null","html-keyboard-response","38","229208","0.0-3.0-0.11","+","null","","","","","",""
"","2878","html-keyboard-response","39","232087","0.0-3.0-1.11","costra","n","null","noncog","pseudo","N","exp","null"
"","null","html-keyboard-response","40","232590","0.0-3.0-0.12","+","null","","","","","",""
"","1131","html-keyboard-response","41","233724","0.0-3.0-1.12","telefone","s","n","cog","word","S","exp","8"
"","null","html-keyboard-response","42","234227","0.0-3.0-0.13","+","null","","","","","",""
"","2248","html-keyboard-response","43","236477","0.0-3.0-1.13","usfiga","n","null","noncog","pseudo","N","exp","null"
"","null","html-keyboard-response","44","236979","0.0-3.0-0.14","+","null","","","","","",""
"","2906","html-keyboard-response","45","239886","0.0-3.0-1.14","liso","s","n","noncog","word","S","exp","4"
"","null","html-keyboard-response","46","240389","0.0-3.0-0.15","+","null","","","","","",""
"","1338","html-keyboard-response","47","241729","0.0-3.0-1.15","disbrituir","s","null","noncog","pseudo","N","exp","null"
"","null","html-keyboard-response","48","242241","0.0-3.0-0.16","+","null","","","","","",""
"","1611","html-keyboard-response","49","243854","0.0-3.0-1.16","cápsula","s","n","noncog","word","S","exp","7"
"","null","html-keyboard-response","50","244358","0.0-3.0-0.17","+","null","","","","","",""
"","2251","html-keyboard-response","51","246611","0.0-3.0-1.17","mabras","s","null","noncog","pseudo","N","exp","null"
"","null","html-keyboard-response","52","247114","0.0-3.0-0.18","+","null","","","","","",""
"","3548","html-keyboard-response","53","250665","0.0-3.0-1.18","senareta","n","null","noncog","pseudo","N","exp","null"
"","null","html-keyboard-response","54","251171","0.0-3.0-0.19","+","null","","","","","",""
"","2137","html-keyboard-response","55","253309","0.0-3.0-1.19","abieso","n","null","noncog","pseudo","N","exp","null"
"","null","html-keyboard-response","56","253811","0.0-3.0-0.20","+","null","","","","","",""
"","1382","html-keyboard-response","57","255194","0.0-3.0-1.20","cristal","s","n","cog","word","S","exp","7"
"","null","html-keyboard-response","58","255696","0.0-3.0-0.21","+","null","","","","","",""
"","1861","html-keyboard-response","59","257562","0.0-3.0-1.21","lagoa","s","n","cog","word","S","exp","5"
"","null","html-keyboard-response","60","258065","0.0-3.0-0.22","+","null","","","","","",""
"","1771","html-keyboard-response","61","259838","0.0-3.0-1.22","lorfaz","n","null","noncog","pseudo","N","exp","null"
"","null","html-keyboard-response","62","260341","0.0-3.0-0.23","+","null","","","","","",""
"","2084","html-keyboard-response","63","262426","0.0-3.0-1.23","dacada","n","null","noncog","pseudo","N","exp","null"
"","null","html-keyboard-response","64","262929","0.0-3.0-0.24","+","null","","","","","",""
"","3964","html-keyboard-response","65","266895","0.0-3.0-1.24","braras","n","null","noncog","pseudo","N","exp","null"
"","null","html-keyboard-response","66","267399","0.0-3.0-0.25","+","null","","","","","",""
"","1433","html-keyboard-response","67","268834","0.0-3.0-1.25","apontar","s","v","noncog","word","S","exp","7"
"","null","html-keyboard-response","68","269335","0.0-3.0-0.26","+","null","","","","","",""
"","1840","html-keyboard-response","69","271177","0.0-3.0-1.26","hipócrita","s","a","noncog","word","S","exp","9"
"","null","html-keyboard-response","70","271680","0.0-3.0-0.27","+","null","","","","","",""
"","1163","html-keyboard-response","71","272844","0.0-3.0-1.27","papai","s","n","cog","word","S","exp","5"
"","null","html-keyboard-response","72","273348","0.0-3.0-0.28","+","null","","","","","",""
"","1172","html-keyboard-response","73","274521","0.0-3.0-1.28","carro","s","n","noncog","word","S","exp","5"
"","null","html-keyboard-response","74","275025","0.0-3.0-0.29","+","null","","","","","",""
"","2090","html-keyboard-response","75","277116","0.0-3.0-1.29","mua","s","null","noncog","pseudo","N","exp","null"
"","null","html-keyboard-response","76","277618","0.0-3.0-0.30","+","null","","","","","",""
"","1850","html-keyboard-response","77","279470","0.0-3.0-1.30","aivões","s","null","noncog","pseudo","N","exp","null"
"","null","html-keyboard-response","78","279974","0.0-3.0-0.31","+","null","","","","","",""
"","4713","html-keyboard-response","79","284688","0.0-3.0-1.31","candifência","n","null","noncog","pseudo","N","exp","null"
"","null","html-keyboard-response","80","285191","0.0-3.0-0.32","+","null","","","","","",""
"","1332","html-keyboard-response","81","286524","0.0-3.0-1.32","anjo","s","n","cog","word","S","exp","4"
"","null","html-keyboard-response","82","287026","0.0-3.0-0.33","+","null","","","","","",""
"","1357","html-keyboard-response","83","288385","0.0-3.0-1.33","revista","s","n","cog","word","S","exp","7"
"","null","html-keyboard-response","84","288889","0.0-3.0-0.34","+","null","","","","","",""
"","2778","html-keyboard-response","85","291668","0.0-3.0-1.34","sábio","s","n","noncog","word","S","exp","5"
"","null","html-keyboard-response","86","292170","0.0-3.0-0.35","+","null","","","","","",""
"","2056","html-keyboard-response","87","294227","0.0-3.0-1.35","prenas","n","null","noncog","pseudo","N","exp","null"
"","null","html-keyboard-response","88","294729","0.0-3.0-0.36","+","null","","","","","",""
"","1413","html-keyboard-response","89","296144","0.0-3.0-1.36","atrasar","s","v","noncog","word","S","exp","7"
"","null","html-keyboard-response","90","296648","0.0-3.0-0.37","+","null","","","","","",""
"","1469","html-keyboard-response","91","298119","0.0-3.0-1.37","barco","s","n","cog","word","S","exp","5"
"","null","html-keyboard-response","92","298621","0.0-3.0-0.38","+","null","","","","","",""
"","3159","html-keyboard-response","93","301781","0.0-3.0-1.38","cenada","n","null","noncog","pseudo","N","exp","null"
"","null","html-keyboard-response","94","302284","0.0-3.0-0.39","+","null","","","","","",""
"","1947","html-keyboard-response","95","304232","0.0-3.0-1.39","carona","s","n","noncog","word","S","exp","6"
"","null","html-keyboard-response","96","304736","0.0-3.0-0.40","+","null","","","","","",""
"","1814","html-keyboard-response","97","306551","0.0-3.0-1.40","cravo","s","n","noncog","word","S","exp","5"
"","null","html-keyboard-response","98","307054","0.0-3.0-0.41","+","null","","","","","",""
"","3346","html-keyboard-response","99","310402","0.0-3.0-1.41","conjerto","n","null","noncog","pseudo","N","exp","null"
"","null","html-keyboard-response","100","310907","0.0-3.0-0.42","+","null","","","","","",""
"","1285","html-keyboard-response","101","312193","0.0-3.0-1.42","esperar","s","v","cog","word","S","exp","7"
"","null","html-keyboard-response","102","312696","0.0-3.0-0.43","+","null","","","","","",""
"","2630","html-keyboard-response","103","315328","0.0-3.0-1.43","dilheira","n","null","noncog","pseudo","N","exp","null"
"","null","html-keyboard-response","104","315830","0.0-3.0-0.44","+","null","","","","","",""
"","2918","html-keyboard-response","105","318750","0.0-3.0-1.44","aparme","n","null","noncog","pseudo","N","exp","null"
"","null","html-keyboard-response","106","319254","0.0-3.0-0.45","+","null","","","","","",""
"","1179","html-keyboard-response","107","320435","0.0-3.0-1.45","ensuas","n","null","noncog","pseudo","N","exp","null"
"","null","html-keyboard-response","108","320939","0.0-3.0-0.46","+","null","","","","","",""
"","1336","html-keyboard-response","109","322277","0.0-3.0-1.46","oricia","n","null","noncog","pseudo","N","exp","null"
"","null","html-keyboard-response","110","322779","0.0-3.0-0.47","+","null","","","","","",""
"","1369","html-keyboard-response","111","324149","0.0-3.0-1.47","comércio","s","n","noncog","word","S","exp","8"
"","null","html-keyboard-response","112","324652","0.0-3.0-0.48","+","null","","","","","",""
"","1553","html-keyboard-response","113","326209","0.0-3.0-1.48","burtos","n","null","noncog","pseudo","N","exp","null"
"","null","html-keyboard-response","114","326715","0.0-3.0-0.49","+","null","","","","","",""
"","2324","html-keyboard-response","115","329042","0.0-3.0-1.49","deselegante","s","a","noncog","word","S","exp","11"
"","null","html-keyboard-response","116","329544","0.0-3.0-0.50","+","null","","","","","",""
"","1482","html-keyboard-response","117","331028","0.0-3.0-1.50","enxarto","n","null","noncog","pseudo","N","exp","null"
"","null","html-keyboard-response","118","331529","0.0-3.0-0.51","+","null","","","","","",""
"","1723","html-keyboard-response","119","333254","0.0-3.0-1.51","pantufa","s","n","cog","word","S","exp","7"
"","null","html-keyboard-response","120","333755","0.0-3.0-0.52","+","null","","","","","",""
"","1302","html-keyboard-response","121","335059","0.0-3.0-1.52","areia","s","n","noncog","word","S","exp","5"
"","null","html-keyboard-response","122","335560","0.0-3.0-0.53","+","null","","","","","",""
"","1403","html-keyboard-response","123","336965","0.0-3.0-1.53","pitada","s","n","noncog","word","S","exp","6"
"","null","html-keyboard-response","124","337467","0.0-3.0-0.54","+","null","","","","","",""
"","2609","html-keyboard-response","125","340078","0.0-3.0-1.54","motros","n","null","noncog","pseudo","N","exp","null"
"","null","html-keyboard-response","126","340580","0.0-3.0-0.55","+","null","","","","","",""
"","2390","html-keyboard-response","127","342971","0.0-3.0-1.55","aitrou","n","null","noncog","pseudo","N","exp","null"
"","null","html-keyboard-response","128","343474","0.0-3.0-0.56","+","null","","","","","",""
"","1627","html-keyboard-response","129","345102","0.0-3.0-1.56","rédesa","n","null","noncog","pseudo","N","exp","null"
"","null","html-keyboard-response","130","345604","0.0-3.0-0.57","+","null","","","","","",""
"","1344","html-keyboard-response","131","346950","0.0-3.0-1.57","memória","s","n","cog","word","S","exp","7"
"","null","html-keyboard-response","132","347454","0.0-3.0-0.58","+","null","","","","","",""
"","1685","html-keyboard-response","133","349140","0.0-3.0-1.58","chorão","s","a","noncog","word","S","exp","6"
"","null","html-keyboard-response","134","349642","0.0-3.0-0.59","+","null","","","","","",""
"","2805","html-keyboard-response","135","352449","0.0-3.0-1.59","uchães","n","null","noncog","pseudo","N","exp","null"
"","null","html-keyboard-response","136","352952","0.0-3.0-0.60","+","null","","","","","",""
"","1182","html-keyboard-response","137","354136","0.0-3.0-1.60","cinema","s","n","cog","word","S","exp","6"
"","null","html-keyboard-response","138","354639","0.0-3.0-0.61","+","null","","","","","",""
"","2769","html-keyboard-response","139","357409","0.0-3.0-1.61","crolatário","n","null","noncog","pseudo","N","exp","null"
"","null","html-keyboard-response","140","357912","0.0-3.0-0.62","+","null","","","","","",""
"","1690","html-keyboard-response","141","359604","0.0-3.0-1.62","sintonizar","s","v","noncog","word","S","exp","10"
"","null","html-keyboard-response","142","360106","0.0-3.0-0.63","+","null","","","","","",""
"","2716","html-keyboard-response","143","362825","0.0-3.0-1.63","ênclio","n","null","noncog","pseudo","N","exp","null"
"","null","html-keyboard-response","144","363326","0.0-3.0-0.64","+","null","","","","","",""
"","1105","html-keyboard-response","145","364433","0.0-3.0-1.64","jantar","s","v","noncog","word","S","exp","6"
"","null","html-keyboard-response","146","364936","0.0-3.0-0.65","+","null","","","","","",""
"","1118","html-keyboard-response","147","366056","0.0-3.0-1.65","matinal","s","a","cog","word","S","exp","7"
"","null","html-keyboard-response","148","366558","0.0-3.0-0.66","+","null","","","","","",""
"","878","html-keyboard-response","149","367438","0.0-3.0-1.66","agressivo","s","a","cog","word","S","exp","9"
"","null","html-keyboard-response","150","367940","0.0-3.0-0.67","+","null","","","","","",""
"","2874","html-keyboard-response","151","370815","0.0-3.0-1.67","dobradiça","n","n","noncog","word","S","exp","9"
"","null","html-keyboard-response","152","371317","0.0-3.0-0.68","+","null","","","","","",""
"","2216","html-keyboard-response","153","373535","0.0-3.0-1.68","dencosto","s","null","noncog","pseudo","N","exp","null"
"","null","html-keyboard-response","154","374038","0.0-3.0-0.69","+","null","","","","","",""
"","3755","html-keyboard-response","155","377795","0.0-3.0-1.69","ocinto","n","null","noncog","pseudo","N","exp","null"
"","null","html-keyboard-response","156","378298","0.0-3.0-0.70","+","null","","","","","",""
"","1683","html-keyboard-response","157","379985","0.0-3.0-1.70","ofreta","n","null","noncog","pseudo","N","exp","null"
"","null","html-keyboard-response","158","380488","0.0-3.0-0.71","+","null","","","","","",""
"","1084","html-keyboard-response","159","381574","0.0-3.0-1.71","açúcar","s","n","noncog","word","S","exp","6"
"","null","html-keyboard-response","160","382076","0.0-3.0-0.72","+","null","","","","","",""
"","2621","html-keyboard-response","161","384698","0.0-3.0-1.72","morno","n","a","noncog","word","S","exp","5"
"","null","html-keyboard-response","162","385200","0.0-3.0-0.73","+","null","","","","","",""
"","1142","html-keyboard-response","163","386344","0.0-3.0-1.73","usnado","n","null","noncog","pseudo","N","exp","null"
"","null","html-keyboard-response","164","386847","0.0-3.0-0.74","+","null","","","","","",""
"","1274","html-keyboard-response","165","388123","0.0-3.0-1.74","agravar","s","v","cog","word","S","exp","7"
"","null","html-keyboard-response","166","388625","0.0-3.0-0.75","+","null","","","","","",""
"","1817","html-keyboard-response","167","390447","0.0-3.0-1.75","parceter","n","null","noncog","pseudo","N","exp","null"
"","null","html-keyboard-response","168","390950","0.0-3.0-0.76","+","null","","","","","",""
"","766","html-keyboard-response","169","391719","0.0-3.0-1.76","civil","s","a","cog","word","S","exp","5"
"","null","html-keyboard-response","170","392220","0.0-3.0-0.77","+","null","","","","","",""
"","1234","html-keyboard-response","171","393455","0.0-3.0-1.77","alpica","s","null","noncog","pseudo","N","exp","null"
"","null","html-keyboard-response","172","393959","0.0-3.0-0.78","+","null","","","","","",""
"","1593","html-keyboard-response","173","395555","0.0-3.0-1.78","bracos","s","null","noncog","pseudo","N","exp","null"
"","null","html-keyboard-response","174","396058","0.0-3.0-0.79","+","null","","","","","",""
"","1934","html-keyboard-response","175","397994","0.0-3.0-1.79","perbas","n","null","noncog","pseudo","N","exp","null"
"","null","html-keyboard-response","176","398496","0.0-3.0-0.80","+","null","","","","","",""
"","1918","html-keyboard-response","177","400416","0.0-3.0-1.80","beima","s","null","noncog","pseudo","N","exp","null"
"","null","html-keyboard-response","178","400917","0.0-3.0-0.81","+","null","","","","","",""
"","1085","html-keyboard-response","179","402004","0.0-3.0-1.81","afual","n","null","noncog","pseudo","N","exp","null"
"","null","html-keyboard-response","180","402508","0.0-3.0-0.82","+","null","","","","","",""
"","1107","html-keyboard-response","181","403617","0.0-3.0-1.82","mania","n","n","cog","word","S","exp","5"
"","null","html-keyboard-response","182","404120","0.0-3.0-0.83","+","null","","","","","",""
"","1064","html-keyboard-response","183","405185","0.0-3.0-1.83","gruja","n","null","noncog","pseudo","N","exp","null"
"","null","html-keyboard-response","184","405687","0.0-3.0-0.84","+","null","","","","","",""
"","987","html-keyboard-response","185","406677","0.0-3.0-1.84","fusbão","n","null","noncog","pseudo","N","exp","null"
"","null","html-keyboard-response","186","407180","0.0-3.0-0.85","+","null","","","","","",""
"","1626","html-keyboard-response","187","408807","0.0-3.0-1.85","salpicado","n","a","noncog","word","S","exp","9"
"","null","html-keyboard-response","188","409310","0.0-3.0-0.86","+","null","","","","","",""
"","1210","html-keyboard-response","189","410523","0.0-3.0-1.86","fofo","s","a","noncog","word","S","exp","4"
"","null","html-keyboard-response","190","411025","0.0-3.0-0.87","+","null","","","","","",""
"","2166","html-keyboard-response","191","413193","0.0-3.0-1.87","escumo","n","null","noncog","pseudo","N","exp","null"
"","null","html-keyboard-response","192","413696","0.0-3.0-0.88","+","null","","","","","",""
"","1153","html-keyboard-response","193","414850","0.0-3.0-1.88","frotes","n","null","noncog","pseudo","N","exp","null"
"","null","html-keyboard-response","194","415352","0.0-3.0-0.89","+","null","","","","","",""
"","1115","html-keyboard-response","195","416470","0.0-3.0-1.89","bagunceira","n","a","noncog","word","S","exp","10"
"","null","html-keyboard-response","196","416974","0.0-3.0-0.90","+","null","","","","","",""
"","1571","html-keyboard-response","197","418546","0.0-3.0-1.90","pedaço","s","n","noncog","word","S","exp","6"
"","null","html-keyboard-response","198","419048","0.0-3.0-0.91","+","null","","","","","",""
"","1690","html-keyboard-response","199","420740","0.0-3.0-1.91","propaganda","s","n","cog","word","S","exp","10"
"","null","html-keyboard-response","200","421243","0.0-3.0-0.92","+","null","","","","","",""
"","921","html-keyboard-response","201","422166","0.0-3.0-1.92","verceja","s","null","noncog","pseudo","N","exp","null"
"","null","html-keyboard-response","202","422669","0.0-3.0-0.93","+","null","","","","","",""
"","965","html-keyboard-response","203","423636","0.0-3.0-1.93","país","s","n","noncog","word","S","exp","4"
"","null","html-keyboard-response","204","424138","0.0-3.0-0.94","+","null","","","","","",""
"","937","html-keyboard-response","205","425077","0.0-3.0-1.94","espinho","s","n","noncog","word","S","exp","7"
"","null","html-keyboard-response","206","425581","0.0-3.0-0.95","+","null","","","","","",""
"","1058","html-keyboard-response","207","426640","0.0-3.0-1.95","bibarconato","s","null","noncog","pseudo","N","exp","null"
"","null","html-keyboard-response","208","427144","0.0-3.0-0.96","+","null","","","","","",""
"","1979","html-keyboard-response","209","429125","0.0-3.0-1.96","faínas","n","null","noncog","pseudo","N","exp","null"
"","null","html-keyboard-response","210","429627","0.0-3.0-0.97","+","null","","","","","",""
"","1652","html-keyboard-response","211","431281","0.0-3.0-1.97","sanque","n","null","noncog","pseudo","N","exp","null"
"","null","html-keyboard-response","212","431784","0.0-3.0-0.98","+","null","","","","","",""
"","980","html-keyboard-response","213","432767","0.0-3.0-1.98","aletiê","n","null","noncog","pseudo","N","exp","null"
"","null","html-keyboard-response","214","433269","0.0-3.0-0.99","+","null","","","","","",""
"","2348","html-keyboard-response","215","435620","0.0-3.0-1.99","gilha","n","null","noncog","pseudo","N","exp","null"
"","null","html-keyboard-response","216","436121","0.0-3.0-0.100","+","null","","","","","",""
"","1447","html-keyboard-response","217","437571","0.0-3.0-1.100","bachir","n","null","noncog","pseudo","N","exp","null"
"","null","html-keyboard-response","218","438075","0.0-3.0-0.101","+","null","","","","","",""
"","1005","html-keyboard-response","219","439082","0.0-3.0-1.101","prantal","n","null","noncog","pseudo","N","exp","null"
"","null","html-keyboard-response","220","439586","0.0-3.0-0.102","+","null","","","","","",""
"","1317","html-keyboard-response","221","440904","0.0-3.0-1.102","morija","n","null","noncog","pseudo","N","exp","null"
"","null","html-keyboard-response","222","441408","0.0-3.0-0.103","+","null","","","","","",""
"","1417","html-keyboard-response","223","442826","0.0-3.0-1.103","selir","n","null","noncog","pseudo","N","exp","null"
"","null","html-keyboard-response","224","443328","0.0-3.0-0.104","+","null","","","","","",""
"","897","html-keyboard-response","225","444227","0.0-3.0-1.104","tinta","s","n","cog","word","S","exp","5"
"","null","html-keyboard-response","226","444757","0.0-3.0-0.105","+","null","","","","","",""
"","800","html-keyboard-response","227","445558","0.0-3.0-1.105","glória","s","n","cog","word","S","exp","6"
"","null","html-keyboard-response","228","446061","0.0-3.0-0.106","+","null","","","","","",""
"","2030","html-keyboard-response","229","448093","0.0-3.0-1.106","orupas","s","null","noncog","pseudo","N","exp","null"
"","null","html-keyboard-response","230","448595","0.0-3.0-0.107","+","null","","","","","",""
"","1567","html-keyboard-response","231","450163","0.0-3.0-1.107","atitro","s","null","noncog","pseudo","N","exp","null"
"","null","html-keyboard-response","232","450667","0.0-3.0-0.108","+","null","","","","","",""
"","817","html-keyboard-response","233","451486","0.0-3.0-1.108","ótimo","s","a","noncog","word","S","exp","5"
"","null","html-keyboard-response","234","451988","0.0-3.0-0.109","+","null","","","","","",""
"","1766","html-keyboard-response","235","453756","0.0-3.0-1.109","cirado","n","null","noncog","pseudo","N","exp","null"
"","null","html-keyboard-response","236","454258","0.0-3.0-0.110","+","null","","","","","",""
"","879","html-keyboard-response","237","455139","0.0-3.0-1.110","tio","s","n","noncog","word","S","exp","3"
"","null","html-keyboard-response","238","455643","0.0-3.0-0.111","+","null","","","","","",""
"","1381","html-keyboard-response","239","457026","0.0-3.0-1.111","boreta","n","null","noncog","pseudo","N","exp","null"
"","null","html-keyboard-response","240","457527","0.0-3.0-0.112","+","null","","","","","",""
"","1675","html-keyboard-response","241","459204","0.0-3.0-1.112","taberia","n","null","noncog","pseudo","N","exp","null"
"","null","html-keyboard-response","242","459720","0.0-3.0-0.113","+","null","","","","","",""
"","1376","html-keyboard-response","243","461097","0.0-3.0-1.113","irratinte","n","null","noncog","pseudo","N","exp","null"
"","null","html-keyboard-response","244","461600","0.0-3.0-0.114","+","null","","","","","",""
"","1073","html-keyboard-response","245","462676","0.0-3.0-1.114","convidado","s","n","noncog","word","S","exp","9"
"","null","html-keyboard-response","246","463179","0.0-3.0-0.115","+","null","","","","","",""
"","618","html-keyboard-response","247","463799","0.0-3.0-1.115","azul","s","n","noncog","word","S","exp","4"
"","null","html-keyboard-response","248","464302","0.0-3.0-0.116","+","null","","","","","",""
"","1460","html-keyboard-response","249","465764","0.0-3.0-1.116","âgnulo","n","null","noncog","pseudo","N","exp","null"
"","null","html-keyboard-response","250","466265","0.0-3.0-0.117","+","null","","","","","",""
"","1253","html-keyboard-response","251","467520","0.0-3.0-1.117","oper","n","null","noncog","pseudo","N","exp","null"
"","null","html-keyboard-response","252","468024","0.0-3.0-0.118","+","null","","","","","",""
"","937","html-keyboard-response","253","468963","0.0-3.0-1.118","pangos","n","null","noncog","pseudo","N","exp","null"
"","null","html-keyboard-response","254","469465","0.0-3.0-0.119","+","null","","","","","",""
"","1130","html-keyboard-response","255","470597","0.0-3.0-1.119","macras","n","null","noncog","pseudo","N","exp","null"
"","null","html-keyboard-response","256","471100","0.0-3.0-0.120","+","null","","","","","",""
"","1363","html-keyboard-response","257","472465","0.0-3.0-1.120","ronronar","n","v","cog","word","S","exp","8"
"","null","html-keyboard-response","258","472968","0.0-3.0-0.121","+","null","","","","","",""
"","1527","html-keyboard-response","259","474497","0.0-3.0-1.121","fogão","s","n","noncog","word","S","exp","5"
"","null","html-keyboard-response","260","474999","0.0-3.0-0.122","+","null","","","","","",""
"","882","html-keyboard-response","261","475882","0.0-3.0-1.122","mudança","s","n","noncog","word","S","exp","7"
"","null","html-keyboard-response","262","476387","0.0-3.0-0.123","+","null","","","","","",""
"","1499","html-keyboard-response","263","477887","0.0-3.0-1.123","pneucania","s","null","noncog","pseudo","N","exp","null"
"","null","html-keyboard-response","264","478390","0.0-3.0-0.124","+","null","","","","","",""
"","1107","html-keyboard-response","265","479498","0.0-3.0-1.124","manais","n","null","noncog","pseudo","N","exp","null"
"","null","html-keyboard-response","266","480000","0.0-3.0-0.125","+","null","","","","","",""
"","997","html-keyboard-response","267","481002","0.0-3.0-1.125","jastor","n","null","noncog","pseudo","N","exp","null"
"","null","html-keyboard-response","268","481504","0.0-3.0-0.126","+","null","","","","","",""
"","1395","html-keyboard-response","269","482901","0.0-3.0-1.126","instruído","s","a","noncog","word","S","exp","9"
"","null","html-keyboard-response","270","483404","0.0-3.0-0.127","+","null","","","","","",""
"","888","html-keyboard-response","271","484293","0.0-3.0-1.127","cerca","s","n","noncog","word","S","exp","5"
"","null","html-keyboard-response","272","484795","0.0-3.0-0.128","+","null","","","","","",""
"","1039","html-keyboard-response","273","485836","0.0-3.0-1.128","grave","s","a","cog","word","S","exp","5"
"","null","html-keyboard-response","274","486338","0.0-3.0-0.129","+","null","","","","","",""
"","1934","html-keyboard-response","275","488274","0.0-3.0-1.129","atapdar","s","null","noncog","pseudo","N","exp","null"
"","null","html-keyboard-response","276","488776","0.0-3.0-0.130","+","null","","","","","",""
"","1386","html-keyboard-response","277","490164","0.0-3.0-1.130","especial","s","a","cog","word","S","exp","8"
"","null","html-keyboard-response","278","490666","0.0-3.0-0.131","+","null","","","","","",""
"","1278","html-keyboard-response","279","491946","0.0-3.0-1.131","animado","s","a","noncog","word","S","exp","7"
"","null","html-keyboard-response","280","492449","0.0-3.0-0.132","+","null","","","","","",""
"","1884","html-keyboard-response","281","494335","0.0-3.0-1.132","enxerido","n","a","noncog","word","S","exp","8"
"","null","html-keyboard-response","282","494846","0.0-3.0-0.133","+","null","","","","","",""
"","1140","html-keyboard-response","283","495987","0.0-3.0-1.133","farcas","n","null","noncog","pseudo","N","exp","null"
"","null","html-keyboard-response","284","496489","0.0-3.0-0.134","+","null","","","","","",""
"","1243","html-keyboard-response","285","497734","0.0-3.0-1.134","perdão","s","n","noncog","word","S","exp","6"
"","null","html-keyboard-response","286","498235","0.0-3.0-0.135","+","null","","","","","",""
"","673","html-keyboard-response","287","498912","0.0-3.0-1.135","viver","s","v","cog","word","S","exp","5"
"","null","html-keyboard-response","288","499414","0.0-3.0-0.136","+","null","","","","","",""
"","1701","html-keyboard-response","289","501117","0.0-3.0-1.136","nivelado","n","a","cog","word","S","exp","8"
"","null","html-keyboard-response","290","501619","0.0-3.0-0.137","+","null","","","","","",""
"","804","html-keyboard-response","291","502425","0.0-3.0-1.137","tartos","n","null","noncog","pseudo","N","exp","null"
"","null","html-keyboard-response","292","502927","0.0-3.0-0.138","+","null","","","","","",""
"","908","html-keyboard-response","293","503837","0.0-3.0-1.138","refletir","s","v","cog","word","S","exp","8"
"","null","html-keyboard-response","294","504339","0.0-3.0-0.139","+","null","","","","","",""
"","1537","html-keyboard-response","295","505878","0.0-3.0-1.139","nevela","n","null","noncog","pseudo","N","exp","null"
"","null","html-keyboard-response","296","506380","0.0-3.0-0.140","+","null","","","","","",""
"","1380","html-keyboard-response","297","507764","0.0-3.0-1.140","drama","s","n","cog","word","S","exp","5"
"","null","html-keyboard-response","298","508266","0.0-3.0-0.141","+","null","","","","","",""
"","1671","html-keyboard-response","299","509938","0.0-3.0-1.141","undivídio","n","null","noncog","pseudo","N","exp","null"
"","null","html-keyboard-response","300","510440","0.0-3.0-0.142","+","null","","","","","",""
"","745","html-keyboard-response","301","511187","0.0-3.0-1.142","chato","s","n","noncog","word","S","exp","5"
"","null","html-keyboard-response","302","511690","0.0-3.0-0.143","+","null","","","","","",""
"","1866","html-keyboard-response","303","513558","0.0-3.0-1.143","pritas","n","null","noncog","pseudo","N","exp","null"
"","null","html-keyboard-response","304","514062","0.0-3.0-0.144","+","null","","","","","",""
"","1060","html-keyboard-response","305","515123","0.0-3.0-1.144","tímido","s","a","cog","word","S","exp","6"
"","null","html-keyboard-response","306","515626","0.0-3.0-0.145","+","null","","","","","",""
"","1470","html-keyboard-response","307","517097","0.0-3.0-1.145","euorpa","s","null","noncog","pseudo","N","exp","null"
"","null","html-keyboard-response","308","517604","0.0-3.0-0.146","+","null","","","","","",""
"","1584","html-keyboard-response","309","519190","0.0-3.0-1.146","gordo","s","a","noncog","word","S","exp","5"
"","null","html-keyboard-response","310","519693","0.0-3.0-0.147","+","null","","","","","",""
"","1624","html-keyboard-response","311","521319","0.0-3.0-1.147","pega-pega","s","n","noncog","word","S","exp","8"
"","null","html-keyboard-response","312","521821","0.0-3.0-0.148","+","null","","","","","",""
"","862","html-keyboard-response","313","522685","0.0-3.0-1.148","promessa","s","n","noncog","word","S","exp","8"
"","null","html-keyboard-response","314","523188","0.0-3.0-0.149","+","null","","","","","",""
"","665","html-keyboard-response","315","523854","0.0-3.0-1.149","morar","s","v","noncog","word","S","exp","5"
"","null","html-keyboard-response","316","524357","0.0-3.0-0.150","+","null","","","","","",""
"","1366","html-keyboard-response","317","525725","0.0-3.0-1.150","raspar","s","v","noncog","word","S","exp","6"
"","null","html-keyboard-response","318","526228","0.0-3.0-0.151","+","null","","","","","",""
"","606","html-keyboard-response","319","526836","0.0-3.0-1.151","dia","s","n","noncog","word","S","exp","3"
"","null","html-keyboard-response","320","527340","0.0-3.0-0.152","+","null","","","","","",""
"","752","html-keyboard-response","321","528094","0.0-3.0-1.152","trair","s","v","cog","word","S","exp","5"
"","null","html-keyboard-response","322","528597","0.0-3.0-0.153","+","null","","","","","",""
"","912","html-keyboard-response","323","529511","0.0-3.0-1.153","liberal","s","a","cog","word","S","exp","7"
"","null","html-keyboard-response","324","530014","0.0-3.0-0.154","+","null","","","","","",""
"","1017","html-keyboard-response","325","531033","0.0-3.0-1.154","tela","s","n","noncog","word","S","exp","4"
"","null","html-keyboard-response","326","531535","0.0-3.0-0.155","+","null","","","","","",""
"","4429","html-keyboard-response","327","535966","0.0-3.0-1.155","tatear","n","v","cog","word","S","exp","6"
"","null","html-keyboard-response","328","536468","0.0-3.0-0.156","+","null","","","","","",""
"","1642","html-keyboard-response","329","538112","0.0-3.0-1.156","plinta","n","null","noncog","pseudo","N","exp","null"
"","null","html-keyboard-response","330","538615","0.0-3.0-0.157","+","null","","","","","",""
"","1437","html-keyboard-response","331","540053","0.0-3.0-1.157","berquesa","n","null","noncog","pseudo","N","exp","null"
"","null","html-keyboard-response","332","540557","0.0-3.0-0.158","+","null","","","","","",""
"","1338","html-keyboard-response","333","541897","0.0-3.0-1.158","cascata","n","n","noncog","word","S","exp","7"
"","null","html-keyboard-response","334","542399","0.0-3.0-0.159","+","null","","","","","",""
"","910","html-keyboard-response","335","543311","0.0-3.0-1.159","adoçar","s","v","noncog","word","S","exp","6"
"","null","html-keyboard-response","336","543813","0.0-3.0-0.160","+","null","","","","","",""
"","2015","html-keyboard-response","337","545830","0.0-3.0-1.160","detative","s","null","noncog","pseudo","N","exp","null"
"","null","html-keyboard-response","338","546334","0.0-3.0-0.161","+","null","","","","","",""
"","2005","html-keyboard-response","339","548340","0.0-3.0-1.161","planalto","n","n","cog","word","S","exp","8"
"","null","html-keyboard-response","340","548842","0.0-3.0-0.162","+","null","","","","","",""
"","2010","html-keyboard-response","341","550854","0.0-3.0-1.162","telafonir","n","null","noncog","pseudo","N","exp","null"
"","null","html-keyboard-response","342","551356","0.0-3.0-0.163","+","null","","","","","",""
"","713","html-keyboard-response","343","552072","0.0-3.0-1.163","mal","s","a","cog","word","S","exp","3"
"","null","html-keyboard-response","344","552575","0.0-3.0-0.164","+","null","","","","","",""
"","638","html-keyboard-response","345","553215","0.0-3.0-1.164","filme","s","n","cog","word","S","exp","5"
"","null","html-keyboard-response","346","553720","0.0-3.0-0.165","+","null","","","","","",""
"","1500","html-keyboard-response","347","555224","0.0-3.0-1.165","grótis","n","null","noncog","pseudo","N","exp","null"
"","null","html-keyboard-response","348","555732","0.0-3.0-0.166","+","null","","","","","",""
"","2903","html-keyboard-response","349","558637","0.0-3.0-1.166","suipestar","s","null","noncog","pseudo","N","exp","null"
"","null","html-keyboard-response","350","559140","0.0-3.0-0.167","+","null","","","","","",""
"","1462","html-keyboard-response","351","560604","0.0-3.0-1.167","ejerro","n","null","noncog","pseudo","N","exp","null"
"","null","html-keyboard-response","352","561107","0.0-3.0-0.168","+","null","","","","","",""
"","1830","html-keyboard-response","353","562939","0.0-3.0-1.168","fratos","n","null","noncog","pseudo","N","exp","null"
"","null","html-keyboard-response","354","563441","0.0-3.0-0.169","+","null","","","","","",""
"","1367","html-keyboard-response","355","564810","0.0-3.0-1.169","melão","s","n","cog","word","S","exp","5"
"","null","html-keyboard-response","356","565313","0.0-3.0-0.170","+","null","","","","","",""
"","1790","html-keyboard-response","357","567104","0.0-3.0-1.170","distraído","s","a","cog","word","S","exp","9"
"","null","html-keyboard-response","358","567606","0.0-3.0-0.171","+","null","","","","","",""
"","1245","html-keyboard-response","359","568852","0.0-3.0-1.171","ideisa","n","null","noncog","pseudo","N","exp","null"
"","null","html-keyboard-response","360","569355","0.0-3.0-0.172","+","null","","","","","",""
"","2168","html-keyboard-response","361","571525","0.0-3.0-1.172","casuas","n","null","noncog","pseudo","N","exp","null"
"","null","html-keyboard-response","362","572026","0.0-3.0-0.173","+","null","","","","","",""
"","1124","html-keyboard-response","363","573152","0.0-3.0-1.173","destino","s","n","cog","word","S","exp","7"
"","null","html-keyboard-response","364","573655","0.0-3.0-0.174","+","null","","","","","",""
"","746","html-keyboard-response","365","574413","0.0-3.0-1.174","fino","s","a","cog","word","S","exp","4"
"","null","html-keyboard-response","366","574916","0.0-3.0-0.175","+","null","","","","","",""
"","787","html-keyboard-response","367","575705","0.0-3.0-1.175","pimada","s","null","noncog","pseudo","N","exp","null"
"","null","html-keyboard-response","368","576208","0.0-3.0-0.176","+","null","","","","","",""
"","3361","html-keyboard-response","369","579571","0.0-3.0-1.176","resmungar","n","v","noncog","word","S","exp","9"
"","null","html-keyboard-response","370","580073","0.0-3.0-0.177","+","null","","","","","",""
"","1402","html-keyboard-response","371","581478","0.0-3.0-1.177","enedro","s","null","noncog","pseudo","N","exp","null"
"","null","html-keyboard-response","372","581981","0.0-3.0-0.178","+","null","","","","","",""
"","1891","html-keyboard-response","373","583873","0.0-3.0-1.178","carregar","s","v","noncog","word","S","exp","8"
"","null","html-keyboard-response","374","584375","0.0-3.0-0.179","+","null","","","","","",""
"","2499","html-keyboard-response","375","586876","0.0-3.0-1.179","franda","n","null","noncog","pseudo","N","exp","null"
"","null","html-keyboard-response","376","587378","0.0-3.0-0.180","+","null","","","","","",""
"","3339","html-keyboard-response","377","590718","0.0-3.0-1.180","medalha","s","n","cog","word","S","exp","7"
"","null","html-keyboard-response","378","591222","0.0-3.0-0.181","+","null","","","","","",""
"","2982","html-keyboard-response","379","594205","0.0-3.0-1.181","afonher","n","null","noncog","pseudo","N","exp","null"
"","null","html-keyboard-response","380","594708","0.0-3.0-0.182","+","null","","","","","",""
"","850","html-keyboard-response","381","595563","0.0-3.0-1.182","ilhure","n","null","noncog","pseudo","N","exp","null"
"","null","html-keyboard-response","382","596066","0.0-3.0-0.183","+","null","","","","","",""
"","2258","html-keyboard-response","383","598326","0.0-3.0-1.183","delomir","n","null","noncog","pseudo","N","exp","null"
"","null","html-keyboard-response","384","598829","0.0-3.0-0.184","+","null","","","","","",""
"","1838","html-keyboard-response","385","600669","0.0-3.0-1.184","fasdas","n","null","noncog","pseudo","N","exp","null"
"","null","html-keyboard-response","386","601171","0.0-3.0-0.185","+","null","","","","","",""
"","970","html-keyboard-response","387","602143","0.0-3.0-1.185","revear","n","null","noncog","pseudo","N","exp","null"
"","null","html-keyboard-response","388","602646","0.0-3.0-0.186","+","null","","","","","",""
"","1825","html-keyboard-response","389","604473","0.0-3.0-1.186","sustentar","s","v","noncog","word","S","exp","9"
"","null","html-keyboard-response","390","604975","0.0-3.0-0.187","+","null","","","","","",""
"","2105","html-keyboard-response","391","607082","0.0-3.0-1.187","risbos","n","null","noncog","pseudo","N","exp","null"
"","null","html-keyboard-response","392","607584","0.0-3.0-0.188","+","null","","","","","",""
"","1973","html-keyboard-response","393","609559","0.0-3.0-1.188","independente","s","a","noncog","word","S","exp","12"
"","null","html-keyboard-response","394","610062","0.0-3.0-0.189","+","null","","","","","",""
"","1207","html-keyboard-response","395","611270","0.0-3.0-1.189","vitrive","s","null","noncog","pseudo","N","exp","null"
"","null","html-keyboard-response","396","611773","0.0-3.0-0.190","+","null","","","","","",""
"","1497","html-keyboard-response","397","613272","0.0-3.0-1.190","bancada","s","n","noncog","word","S","exp","7"
"","null","html-keyboard-response","398","613774","0.0-3.0-0.191","+","null","","","","","",""
"","739","html-keyboard-response","399","614514","0.0-3.0-1.191","brincar","s","v","noncog","word","S","exp","7"
"","null","html-keyboard-response","400","615016","0.0-3.0-0.192","+","null","","","","","",""
"","1322","html-keyboard-response","401","616340","0.0-3.0-1.192","incomodar","s","v","noncog","word","S","exp","9"
"","null","html-keyboard-response","402","616842","0.0-3.0-0.193","+","null","","","","","",""
"","1187","html-keyboard-response","403","618031","0.0-3.0-1.193","filosofia","s","n","cog","word","S","exp","9"
"","null","html-keyboard-response","404","618533","0.0-3.0-0.194","+","null","","","","","",""
"","1698","html-keyboard-response","405","620233","0.0-3.0-1.194","imitar","s","v","cog","word","S","exp","6"
"","null","html-keyboard-response","406","620736","0.0-3.0-0.195","+","null","","","","","",""
"","828","html-keyboard-response","407","621565","0.0-3.0-1.195","bambu","s","n","cog","word","S","exp","5"
"","null","html-keyboard-response","408","622069","0.0-3.0-0.196","+","null","","","","","",""
"","2453","html-keyboard-response","409","624524","0.0-3.0-1.196","trenos","s","null","noncog","pseudo","N","exp","null"
"","null","html-keyboard-response","410","625027","0.0-3.0-0.197","+","null","","","","","",""
"","1620","html-keyboard-response","411","626648","0.0-3.0-1.197","vervas","n","null","noncog","pseudo","N","exp","null"
"","null","html-keyboard-response","412","627152","0.0-3.0-0.198","+","null","","","","","",""
"","5002","html-keyboard-response","413","632157","0.0-3.0-1.198","aemaça","s","null","noncog","pseudo","N","exp","null"
"","null","html-keyboard-response","414","632659","0.0-3.0-0.199","+","null","","","","","",""
"","1582","html-keyboard-response","415","634244","0.0-3.0-1.199","hébies","n","null","noncog","pseudo","N","exp","null"
"","null","html-keyboard-response","416","634747","0.0-3.0-0.200","+","null","","","","","",""
"","949","html-keyboard-response","417","635698","0.0-3.0-1.200","loaco","n","null","noncog","pseudo","N","exp","null"
"","null","html-keyboard-response","418","636210","0.0-3.0-0.201","+","null","","","","","",""
"","2821","html-keyboard-response","419","639033","0.0-3.0-1.201","promeção","n","null","noncog","pseudo","N","exp","null"
"","null","html-keyboard-response","420","639535","0.0-3.0-0.202","+","null","","","","","",""
"","1182","html-keyboard-response","421","640718","0.0-3.0-1.202","tronca","s","null","noncog","pseudo","N","exp","null"
"","null","html-keyboard-response","422","641223","0.0-3.0-0.203","+","null","","","","","",""
"","596","html-keyboard-response","423","641821","0.0-3.0-1.203","verde","s","a","noncog","word","S","exp","5"
"","null","html-keyboard-response","424","642324","0.0-3.0-0.204","+","null","","","","","",""
"","757","html-keyboard-response","425","643083","0.0-3.0-1.204","alfabeto","s","n","cog","word","S","exp","8"
"","null","html-keyboard-response","426","643585","0.0-3.0-0.205","+","null","","","","","",""
"","557","html-keyboard-response","427","644145","0.0-3.0-1.205","livro","s","n","cog","word","S","exp","5"
"","null","html-keyboard-response","428","644649","0.0-3.0-0.206","+","null","","","","","",""
"","2192","html-keyboard-response","429","646843","0.0-3.0-1.206","motre","n","null","noncog","pseudo","N","exp","null"
"","null","html-keyboard-response","430","647345","0.0-3.0-0.207","+","null","","","","","",""
"","1849","html-keyboard-response","431","649196","0.0-3.0-1.207","podilo","n","null","noncog","pseudo","N","exp","null"
"","null","html-keyboard-response","432","649699","0.0-3.0-0.208","+","null","","","","","",""
"","1115","html-keyboard-response","433","650822","0.0-3.0-1.208","dipata","n","null","noncog","pseudo","N","exp","null"
"","null","html-keyboard-response","434","651326","0.0-3.0-0.209","+","null","","","","","",""
"","1296","html-keyboard-response","435","652623","0.0-3.0-1.209","uçar","n","null","noncog","pseudo","N","exp","null"
"","null","html-keyboard-response","436","653125","0.0-3.0-0.210","+","null","","","","","",""
"","1354","html-keyboard-response","437","654482","0.0-3.0-1.210","lapestra","n","null","noncog","pseudo","N","exp","null"
"","null","html-keyboard-response","438","654984","0.0-3.0-0.211","+","null","","","","","",""
"","1068","html-keyboard-response","439","656054","0.0-3.0-1.211","verdade","s","n","cog","word","S","exp","7"
"","null","html-keyboard-response","440","656557","0.0-3.0-0.212","+","null","","","","","",""
"","3028","html-keyboard-response","441","659586","0.0-3.0-1.212","prever","n","v","cog","word","S","exp","6"
"","null","html-keyboard-response","442","660089","0.0-3.0-0.213","+","null","","","","","",""
"","723","html-keyboard-response","443","660813","0.0-3.0-1.213","espaço","s","n","cog","word","S","exp","6"
"","null","html-keyboard-response","444","661316","0.0-3.0-0.214","+","null","","","","","",""
"","745","html-keyboard-response","445","662062","0.0-3.0-1.214","nacional","s","a","cog","word","S","exp","8"
"","null","html-keyboard-response","446","662565","0.0-3.0-0.215","+","null","","","","","",""
"","1150","html-keyboard-response","447","663716","0.0-3.0-1.215","crutas","n","null","noncog","pseudo","N","exp","null"
"","null","html-keyboard-response","448","664219","0.0-3.0-0.216","+","null","","","","","",""
"","1521","html-keyboard-response","449","665743","0.0-3.0-1.216","rovaz","n","null","noncog","pseudo","N","exp","null"
"","null","html-keyboard-response","450","666246","0.0-3.0-0.217","+","null","","","","","",""
"","765","html-keyboard-response","451","667013","0.0-3.0-1.217","grátis","s","a","cog","word","S","exp","6"
"","null","html-keyboard-response","452","667516","0.0-3.0-0.218","+","null","","","","","",""
"","1012","html-keyboard-response","453","668529","0.0-3.0-1.218","socorro","s","n","noncog","word","S","exp","7"
"","null","html-keyboard-response","454","669032","0.0-3.0-0.219","+","null","","","","","",""
"","990","html-keyboard-response","455","670023","0.0-3.0-1.219","reduzir","s","v","cog","word","S","exp","7"
"","null","html-keyboard-response","456","670525","0.0-3.0-0.220","+","null","","","","","",""
"","1131","html-keyboard-response","457","671658","0.0-3.0-1.220","terdia","n","null","noncog","pseudo","N","exp","null"
"","null","html-keyboard-response","458","672166","0.0-3.0-0.221","+","null","","","","","",""
"","1367","html-keyboard-response","459","673534","0.0-3.0-1.221","preferir","s","v","cog","word","S","exp","8"
"","null","html-keyboard-response","460","674037","0.0-3.0-0.222","+","null","","","","","",""
"","2239","html-keyboard-response","461","676278","0.0-3.0-1.222","extravagante","s","a","cog","word","S","exp","12"
"","null","html-keyboard-response","462","676779","0.0-3.0-0.223","+","null","","","","","",""
"","2893","html-keyboard-response","463","679675","0.0-3.0-1.223","garastia","n","null","noncog","pseudo","N","exp","null"
"","null","html-keyboard-response","464","680176","0.0-3.0-0.224","+","null","","","","","",""
"","876","html-keyboard-response","465","681055","0.0-3.0-1.224","trabalhar","s","v","noncog","word","S","exp","9"
"","null","html-keyboard-response","466","681557","0.0-3.0-0.225","+","null","","","","","",""
"","1155","html-keyboard-response","467","682714","0.0-3.0-1.225","oecano","n","null","noncog","pseudo","N","exp","null"
"","null","html-keyboard-response","468","683218","0.0-3.0-0.226","+","null","","","","","",""
"","2098","html-keyboard-response","469","685316","0.0-3.0-1.226","encelhor","n","null","noncog","pseudo","N","exp","null"
"","null","html-keyboard-response","470","685819","0.0-3.0-0.227","+","null","","","","","",""
"","1356","html-keyboard-response","471","687176","0.0-3.0-1.227","temperar","s","v","noncog","word","S","exp","8"
"","null","html-keyboard-response","472","687678","0.0-3.0-0.228","+","null","","","","","",""
"","620","html-keyboard-response","473","688300","0.0-3.0-1.228","francês","s","a","cog","word","S","exp","7"
"","null","html-keyboard-response","474","688802","0.0-3.0-0.229","+","null","","","","","",""
"","1271","html-keyboard-response","475","690075","0.0-3.0-1.229","arranjar","s","v","cog","word","S","exp","8"
"","null","html-keyboard-response","476","690578","0.0-3.0-0.230","+","null","","","","","",""
"","966","html-keyboard-response","477","691547","0.0-3.0-1.230","árovre","n","null","noncog","pseudo","N","exp","null"
"","null","html-keyboard-response","478","692050","0.0-3.0-0.231","+","null","","","","","",""
"","872","html-keyboard-response","479","692924","0.0-3.0-1.231","hedoru","n","null","noncog","pseudo","N","exp","null"
"","null","html-keyboard-response","480","693426","0.0-3.0-0.232","+","null","","","","","",""
"","1760","html-keyboard-response","481","695188","0.0-3.0-1.232","esprotiar","n","null","noncog","pseudo","N","exp","null"
"","null","html-keyboard-response","482","695691","0.0-3.0-0.233","+","null","","","","","",""
"","1252","html-keyboard-response","483","696945","0.0-3.0-1.233","manfa","n","null","noncog","pseudo","N","exp","null"
"","null","html-keyboard-response","484","697446","0.0-3.0-0.234","+","null","","","","","",""
"","1171","html-keyboard-response","485","698625","0.0-3.0-1.234","aperor","n","null","noncog","pseudo","N","exp","null"
"","null","html-keyboard-response","486","699128","0.0-3.0-0.235","+","null","","","","","",""
"","1366","html-keyboard-response","487","700497","0.0-3.0-1.235","esfoce","n","null","noncog","pseudo","N","exp","null"
"","null","html-keyboard-response","488","701001","0.0-3.0-0.236","+","null","","","","","",""
"","1491","html-keyboard-response","489","702493","0.0-3.0-1.236","bandido","s","n","cog","word","S","exp","7"
"","null","html-keyboard-response","490","702995","0.0-3.0-0.237","+","null","","","","","",""
"","1936","html-keyboard-response","491","704933","0.0-3.0-1.237","espionar","s","v","cog","word","S","exp","8"
"","null","html-keyboard-response","492","705435","0.0-3.0-0.238","+","null","","","","","",""
"","1257","html-keyboard-response","493","706694","0.0-3.0-1.238","nome","s","n","cog","word","S","exp","4"
"","null","html-keyboard-response","494","707197","0.0-3.0-0.239","+","null","","","","","",""
"","2483","html-keyboard-response","495","709682","0.0-3.0-1.239","quenzina","n","null","noncog","pseudo","N","exp","null"
