"view_history","rt","trial_type","trial_index","time_elapsed","internal_node_id","stimulus","response","trial_part","trial","word","question","answer","accuracy"
"[{""page_index"":0,""viewing_time"":120106},{""page_index"":1,""viewing_time"":18738}]","138847","instructions","0","138845","0.0-0.0","","","","","","","",""
"","null","html-keyboard-response","1","139954","0.0-1.0-0.0-0.0","<span style= ""font-size:30px; font-family: monospace"">+</span>","null","fixation","","","","",""
"","15863","html-keyboard-response","2","156072","0.0-1.0-1.0","<span style=""font-size:30px; font-family: monospace"">O</span>"," ","","prac-sent","O","","",""
"","3233","html-keyboard-response","3","159561","0.0-1.0-1.1","<span style=""font-size:30px; font-family: monospace"">dia</span>"," ","","prac-sent","dia","","",""
"","2631","html-keyboard-response","4","162453","0.0-1.0-1.2","<span style=""font-size:30px; font-family: monospace"">estará</span>"," ","","prac-sent","estará","","",""
"","1763","html-keyboard-response","5","164471","0.0-1.0-1.3","<span style=""font-size:30px; font-family: monospace"">cheio</span>"," ","","prac-sent","cheio","","",""
"","1429","html-keyboard-response","6","166161","0.0-1.0-1.4","<span style=""font-size:30px; font-family: monospace"">de</span>"," ","","prac-sent","de","","",""
"","2557","html-keyboard-response","7","168976","0.0-1.0-1.5","<span style=""font-size:30px; font-family: monospace"">nuvens</span>"," ","","prac-sent","nuvens","","",""
"","5662","html-keyboard-response","8","174894","0.0-1.0-1.6","<span style=""font-size:30px; font-family: monospace"">hoje.</span>"," ","","prac-sent","hoje.","","",""
"","null","html-keyboard-response","9","176153","0.0-1.0-0.7-0.7","<span style= ""font-size:30px; font-family: monospace"">+</span>","null","fixation","","","","",""
"","3117","html-keyboard-response","10","179532","0.0-1.0-1.7","<span style=""font-size:30px; font-family: monospace"">A</span>"," ","","prac-sent","A","","",""
"","2311","html-keyboard-response","11","182105","0.0-1.0-1.8","<span style=""font-size:30px; font-family: monospace"">caneca</span>"," ","","prac-sent","caneca","","",""
"","2116","html-keyboard-response","12","184478","0.0-1.0-1.9","<span style=""font-size:30px; font-family: monospace"">colorida</span>"," ","","prac-sent","colorida","","",""
"","1821","html-keyboard-response","13","186559","0.0-1.0-1.10","<span style=""font-size:30px; font-family: monospace"">caiu</span>"," ","","prac-sent","caiu","","",""
"","1664","html-keyboard-response","14","188483","0.0-1.0-1.11","<span style=""font-size:30px; font-family: monospace"">da</span>"," ","","prac-sent","da","","",""
"","1832","html-keyboard-response","15","190569","0.0-1.0-1.12","<span style=""font-size:30px; font-family: monospace"">mesa</span>"," ","","prac-sent","mesa","","",""
"","1231","html-keyboard-response","16","192058","0.0-1.0-1.13","<span style=""font-size:30px; font-family: monospace"">de</span>"," ","","prac-sent","de","","",""
"","3550","html-keyboard-response","17","195865","0.0-1.0-1.14","<span style=""font-size:30px; font-family: monospace"">jantar.</span>"," ","","prac-comp","jantar.","","",""
"","64369","html-keyboard-response","18","260492","0.0-1.0-2.14-0.14","<span style=""font-size:30px; font-family: monospace"">A caneca permaneceu na mesa?</span>","n","","prac-comp","","A caneca permaneceu na mesa?","não","false"
"[{""page_index"":0,""viewing_time"":70848}]","70852","instructions","19","331851","0.0-2.0","","","","","","","",""
"","null","html-keyboard-response","20","332961","0.0-3.0-0.0-0.0","<span style= ""font-size:30px; font-family: monospace"">+</span>","null","fixation","","","","",""
"","5010","html-keyboard-response","21","338234","0.0-3.0-1.0","<span style=""font-size:30px; font-family: monospace"">As</span>"," ","","exp-sent","As","","",""
"","1607","html-keyboard-response","22","340098","0.0-3.0-1.1","<span style=""font-size:30px; font-family: monospace"">crianças</span>"," ","","exp-sent","crianças","","",""
"","1261","html-keyboard-response","23","341614","0.0-3.0-1.2","<span style=""font-size:30px; font-family: monospace"">viram</span>"," ","","exp-sent","viram","","",""
"","1240","html-keyboard-response","24","343109","0.0-3.0-1.3","<span style=""font-size:30px; font-family: monospace"">um</span>"," ","","exp-sent","um","","",""
"","2647","html-keyboard-response","25","346012","0.0-3.0-1.4","<span style=""font-size:30px; font-family: monospace"">vaga-lume</span>"," ","","exp-sent","vaga-lume","","",""
"","2864","html-keyboard-response","26","349137","0.0-3.0-1.5","<span style=""font-size:30px; font-family: monospace"">nos</span>"," ","","exp-sent","nos","","",""
"","3492","html-keyboard-response","27","352893","0.0-3.0-1.6","<span style=""font-size:30px; font-family: monospace"">arbustos.</span>"," ","","exp-sent","arbustos.","","",""
"","null","html-keyboard-response","28","354158","0.0-3.0-0.7-0.7","<span style= ""font-size:30px; font-family: monospace"">+</span>","null","fixation","","","","",""
"","1757","html-keyboard-response","29","356173","0.0-3.0-1.7","<span style=""font-size:30px; font-family: monospace"">Ontem</span>"," ","","exp-sent","Ontem","","",""
"","1511","html-keyboard-response","30","357941","0.0-3.0-1.8","<span style=""font-size:30px; font-family: monospace"">o</span>"," ","","exp-sent","o","","",""
"","1714","html-keyboard-response","31","359919","0.0-3.0-1.9","<span style=""font-size:30px; font-family: monospace"">funcionário</span>"," ","","exp-sent","funcionário","","",""
"","1794","html-keyboard-response","32","361978","0.0-3.0-1.10","<span style=""font-size:30px; font-family: monospace"">pediu</span>"," ","","exp-sent","pediu","","",""
"","1788","html-keyboard-response","33","364025","0.0-3.0-1.11","<span style=""font-size:30px; font-family: monospace"">autorização</span>"," ","","exp-sent","autorização","","",""
"","1677","html-keyboard-response","34","365959","0.0-3.0-1.12","<span style=""font-size:30px; font-family: monospace"">para</span>"," ","","exp-sent","para","","",""
"","1706","html-keyboard-response","35","367923","0.0-3.0-1.13","<span style=""font-size:30px; font-family: monospace"">a</span>"," ","","exp-sent","a","","",""
"","2119","html-keyboard-response","36","370299","0.0-3.0-1.14","<span style=""font-size:30px; font-family: monospace"">colega.</span>"," ","","exp-sent","colega.","","",""
"","null","html-keyboard-response","37","371567","0.0-3.0-0.15-0.15","<span style= ""font-size:30px; font-family: monospace"">+</span>","null","fixation","","","","",""
"","2171","html-keyboard-response","38","373996","0.0-3.0-1.15","<span style=""font-size:30px; font-family: monospace"">Eu</span>"," ","","exp-sent","Eu","","",""
"","1505","html-keyboard-response","39","375760","0.0-3.0-1.16","<span style=""font-size:30px; font-family: monospace"">sempre</span>"," ","","exp-sent","sempre","","",""
"","1695","html-keyboard-response","40","377714","0.0-3.0-1.17","<span style=""font-size:30px; font-family: monospace"">fujo</span>"," ","","exp-sent","fujo","","",""
"","1683","html-keyboard-response","41","379660","0.0-3.0-1.18","<span style=""font-size:30px; font-family: monospace"">de</span>"," ","","exp-sent","de","","",""
"","2112","html-keyboard-response","42","382038","0.0-3.0-1.19","<span style=""font-size:30px; font-family: monospace"">conflito</span>"," ","","exp-sent","conflito","","",""
"","1779","html-keyboard-response","43","384074","0.0-3.0-1.20","<span style=""font-size:30px; font-family: monospace"">com</span>"," ","","exp-sent","com","","",""
"","1467","html-keyboard-response","44","385805","0.0-3.0-1.21","<span style=""font-size:30px; font-family: monospace"">as</span>"," ","","exp-sent","as","","",""
"","2591","html-keyboard-response","45","388658","0.0-3.0-1.22","<span style=""font-size:30px; font-family: monospace"">pessoas.</span>"," ","","exp-sent","pessoas.","","",""
"","null","html-keyboard-response","46","389923","0.0-3.0-0.23-0.23","<span style= ""font-size:30px; font-family: monospace"">+</span>","null","fixation","","","","",""
"","4271","html-keyboard-response","47","394452","0.0-3.0-1.23","<span style=""font-size:30px; font-family: monospace"">O</span>"," ","","exp-sent","O","","",""
"","2124","html-keyboard-response","48","396829","0.0-3.0-1.24","<span style=""font-size:30px; font-family: monospace"">bolo</span>"," ","","exp-sent","bolo","","",""
"","996","html-keyboard-response","49","398081","0.0-3.0-1.25","<span style=""font-size:30px; font-family: monospace"">era</span>"," ","","exp-sent","era","","",""
"","2026","html-keyboard-response","50","400359","0.0-3.0-1.26","<span style=""font-size:30px; font-family: monospace"">de</span>"," ","","exp-sent","de","","",""
"","2475","html-keyboard-response","51","403088","0.0-3.0-1.27","<span style=""font-size:30px; font-family: monospace"">abacaxi</span>"," ","","exp-sent","abacaxi","","",""
"","2796","html-keyboard-response","52","406138","0.0-3.0-1.28","<span style=""font-size:30px; font-family: monospace"">e</span>"," ","","exp-sent","e","","",""
"","1465","html-keyboard-response","53","407863","0.0-3.0-1.29","<span style=""font-size:30px; font-family: monospace"">creme</span>"," ","","exp-sent","creme","","",""
"","1313","html-keyboard-response","54","409431","0.0-3.0-1.30","<span style=""font-size:30px; font-family: monospace"">de</span>"," ","","exp-sent","de","","",""
"","3343","html-keyboard-response","55","413028","0.0-3.0-1.31","<span style=""font-size:30px; font-family: monospace"">coco.</span>"," ","","exp-sent","coco.","","",""
"","null","html-keyboard-response","56","414286","0.0-3.0-0.32-0.32","<span style= ""font-size:30px; font-family: monospace"">+</span>","null","fixation","","","","",""
"","1691","html-keyboard-response","57","416234","0.0-3.0-1.32","<span style=""font-size:30px; font-family: monospace"">As</span>"," ","","exp-sent","As","","",""
"","1890","html-keyboard-response","58","418379","0.0-3.0-1.33","<span style=""font-size:30px; font-family: monospace"">crianças</span>"," ","","exp-sent","crianças","","",""
"","2450","html-keyboard-response","59","421087","0.0-3.0-1.34","<span style=""font-size:30px; font-family: monospace"">brincaram</span>"," ","","exp-sent","brincaram","","",""
"","1462","html-keyboard-response","60","422806","0.0-3.0-1.35","<span style=""font-size:30px; font-family: monospace"">com</span>"," ","","exp-sent","com","","",""
"","2796","html-keyboard-response","61","425854","0.0-3.0-1.36","<span style=""font-size:30px; font-family: monospace"">bolhas</span>"," ","","exp-sent","bolhas","","",""
"","1667","html-keyboard-response","62","427776","0.0-3.0-1.37","<span style=""font-size:30px; font-family: monospace"">no</span>"," ","","exp-sent","no","","",""
"","2311","html-keyboard-response","63","430344","0.0-3.0-1.38","<span style=""font-size:30px; font-family: monospace"">banho.</span>"," ","","comp","banho.","","",""
"","16846","html-keyboard-response","64","447442","0.0-3.0-2.38-0.38","<span style=""font-size:30px; font-family: monospace"">As crianças brincaram com bolhas?</span>","n","","comp","","As crianças brincaram com bolhas?","sim","false"
"","null","html-keyboard-response","65","448955","0.0-3.0-0.39-0.39","<span style= ""font-size:30px; font-family: monospace"">+</span>","null","fixation","","","","",""
"","3085","html-keyboard-response","66","452302","0.0-3.0-1.39","<span style=""font-size:30px; font-family: monospace"">O</span>"," ","","exp-sent","O","","",""
"","1330","html-keyboard-response","67","453892","0.0-3.0-1.40","<span style=""font-size:30px; font-family: monospace"">texto</span>"," ","","exp-sent","texto","","",""
"","2322","html-keyboard-response","68","456474","0.0-3.0-1.41","<span style=""font-size:30px; font-family: monospace"">trazia</span>"," ","","exp-sent","trazia","","",""
"","1079","html-keyboard-response","69","457808","0.0-3.0-1.42","<span style=""font-size:30px; font-family: monospace"">um</span>"," ","","exp-sent","um","","",""
"","1662","html-keyboard-response","70","459732","0.0-3.0-1.43","<span style=""font-size:30px; font-family: monospace"">argumento</span>"," ","","exp-sent","argumento","","",""
"","1597","html-keyboard-response","71","461583","0.0-3.0-1.44","<span style=""font-size:30px; font-family: monospace"">central</span>"," ","","exp-sent","central","","",""
"","1680","html-keyboard-response","72","463518","0.0-3.0-1.45","<span style=""font-size:30px; font-family: monospace"">para</span>"," ","","exp-sent","para","","",""
"","1077","html-keyboard-response","73","464854","0.0-3.0-1.46","<span style=""font-size:30px; font-family: monospace"">a</span>"," ","","exp-sent","a","","",""
"","1354","html-keyboard-response","74","466464","0.0-3.0-1.47","<span style=""font-size:30px; font-family: monospace"">conversa.</span>"," ","","exp-sent","conversa.","","",""
"","null","html-keyboard-response","75","467728","0.0-3.0-0.48-0.48","<span style= ""font-size:30px; font-family: monospace"">+</span>","null","fixation","","","","",""
"","1711","html-keyboard-response","76","469702","0.0-3.0-1.48","<span style=""font-size:30px; font-family: monospace"">Ontem</span>"," ","","exp-sent","Ontem","","",""
"","1164","html-keyboard-response","77","471124","0.0-3.0-1.49","<span style=""font-size:30px; font-family: monospace"">a</span>"," ","","exp-sent","a","","",""
"","1574","html-keyboard-response","78","472961","0.0-3.0-1.50","<span style=""font-size:30px; font-family: monospace"">temperatura</span>"," ","","exp-sent","temperatura","","",""
"","1325","html-keyboard-response","79","474541","0.0-3.0-1.51","<span style=""font-size:30px; font-family: monospace"">estava</span>"," ","","exp-sent","estava","","",""
"","2511","html-keyboard-response","80","477308","0.0-3.0-1.52","<span style=""font-size:30px; font-family: monospace"">amena</span>"," ","","exp-sent","amena","","",""
"","1264","html-keyboard-response","81","478830","0.0-3.0-1.53","<span style=""font-size:30px; font-family: monospace"">durante</span>"," ","","exp-sent","durante","","",""
"","1381","html-keyboard-response","82","480472","0.0-3.0-1.54","<span style=""font-size:30px; font-family: monospace"">o</span>"," ","","exp-sent","o","","",""
"","1411","html-keyboard-response","83","482138","0.0-3.0-1.55","<span style=""font-size:30px; font-family: monospace"">dia.</span>"," ","","exp-sent","dia.","","",""
"","null","html-keyboard-response","84","483399","0.0-3.0-0.56-0.56","<span style= ""font-size:30px; font-family: monospace"">+</span>","null","fixation","","","","",""
"","1490","html-keyboard-response","85","485147","0.0-3.0-1.56","<span style=""font-size:30px; font-family: monospace"">Havia</span>"," ","","exp-sent","Havia","","",""
"","1147","html-keyboard-response","86","486551","0.0-3.0-1.57","<span style=""font-size:30px; font-family: monospace"">um</span>"," ","","exp-sent","um","","",""
"","3141","html-keyboard-response","87","489954","0.0-3.0-1.58","<span style=""font-size:30px; font-family: monospace"">machucado</span>"," ","","exp-sent","machucado","","",""
"","1352","html-keyboard-response","88","491567","0.0-3.0-1.59","<span style=""font-size:30px; font-family: monospace"">no</span>"," ","","exp-sent","no","","",""
"","1244","html-keyboard-response","89","493068","0.0-3.0-1.60","<span style=""font-size:30px; font-family: monospace"">dedo</span>"," ","","exp-sent","dedo","","",""
"","1035","html-keyboard-response","90","494361","0.0-3.0-1.61","<span style=""font-size:30px; font-family: monospace"">da</span>"," ","","exp-sent","da","","",""
"","1482","html-keyboard-response","91","496100","0.0-3.0-1.62","<span style=""font-size:30px; font-family: monospace"">criança.</span>"," ","","exp-sent","criança.","","",""
"","null","html-keyboard-response","92","497364","0.0-3.0-0.63-0.63","<span style= ""font-size:30px; font-family: monospace"">+</span>","null","fixation","","","","",""
"","1681","html-keyboard-response","93","499302","0.0-3.0-1.63","<span style=""font-size:30px; font-family: monospace"">A</span>"," ","","exp-sent","A","","",""
"","2636","html-keyboard-response","94","502205","0.0-3.0-1.64","<span style=""font-size:30px; font-family: monospace"">borboleta</span>"," ","","exp-sent","borboleta","","",""
"","2456","html-keyboard-response","95","504921","0.0-3.0-1.65","<span style=""font-size:30px; font-family: monospace"">pousou</span>"," ","","exp-sent","pousou","","",""
"","1215","html-keyboard-response","96","506392","0.0-3.0-1.66","<span style=""font-size:30px; font-family: monospace"">no</span>"," ","","exp-sent","no","","",""
"","2936","html-keyboard-response","97","509593","0.0-3.0-1.67","<span style=""font-size:30px; font-family: monospace"">ombro</span>"," ","","exp-sent","ombro","","",""
"","1566","html-keyboard-response","98","511420","0.0-3.0-1.68","<span style=""font-size:30px; font-family: monospace"">daquela</span>"," ","","exp-sent","daquela","","",""
"","1229","html-keyboard-response","99","512904","0.0-3.0-1.69","<span style=""font-size:30px; font-family: monospace"">moça.</span>"," ","","exp-sent","moça.","","",""
"","null","html-keyboard-response","100","514167","0.0-3.0-0.70-0.70","<span style= ""font-size:30px; font-family: monospace"">+</span>","null","fixation","","","","",""
"","1581","html-keyboard-response","101","516010","0.0-3.0-1.70","<span style=""font-size:30px; font-family: monospace"">Eu</span>"," ","","exp-sent","Eu","","",""
"","1134","html-keyboard-response","102","517401","0.0-3.0-1.71","<span style=""font-size:30px; font-family: monospace"">quero</span>"," ","","exp-sent","quero","","",""
"","1278","html-keyboard-response","103","518936","0.0-3.0-1.72","<span style=""font-size:30px; font-family: monospace"">um</span>"," ","","exp-sent","um","","",""
"","2008","html-keyboard-response","104","521203","0.0-3.0-1.73","<span style=""font-size:30px; font-family: monospace"">namorado</span>"," ","","exp-sent","namorado","","",""
"","1380","html-keyboard-response","105","522839","0.0-3.0-1.74","<span style=""font-size:30px; font-family: monospace"">honesto</span>"," ","","exp-sent","honesto","","",""
"","1745","html-keyboard-response","106","524845","0.0-3.0-1.75","<span style=""font-size:30px; font-family: monospace"">e</span>"," ","","exp-sent","e","","",""
"","1795","html-keyboard-response","107","526899","0.0-3.0-1.76","<span style=""font-size:30px; font-family: monospace"">compreensivo.</span>"," ","","comp","compreensivo.","","",""
"","68270","html-keyboard-response","108","595427","0.0-3.0-2.76-0.76","<span style=""font-size:30px; font-family: monospace"">Eu quero um namorado honesto?</span>","s","","comp","","Eu quero um namorado honesto?","sim","false"
"","null","html-keyboard-response","109","596941","0.0-3.0-0.77-0.77","<span style= ""font-size:30px; font-family: monospace"">+</span>","null","fixation","","","","",""
"","2347","html-keyboard-response","110","599548","0.0-3.0-1.77","<span style=""font-size:30px; font-family: monospace"">Este</span>"," ","","exp-sent","Este","","",""
"","2503","html-keyboard-response","111","602307","0.0-3.0-1.78","<span style=""font-size:30px; font-family: monospace"">conto</span>"," ","","exp-sent","conto","","",""
"","2643","html-keyboard-response","112","605204","0.0-3.0-1.79","<span style=""font-size:30px; font-family: monospace"">tem</span>"," ","","exp-sent","tem","","",""
"","1016","html-keyboard-response","113","606474","0.0-3.0-1.80","<span style=""font-size:30px; font-family: monospace"">um</span>"," ","","exp-sent","um","","",""
"","1204","html-keyboard-response","114","607932","0.0-3.0-1.81","<span style=""font-size:30px; font-family: monospace"">final</span>"," ","","exp-sent","final","","",""
"","1407","html-keyboard-response","115","609595","0.0-3.0-1.82","<span style=""font-size:30px; font-family: monospace"">perfeito.</span>"," ","","exp-sent","perfeito.","","",""
"","null","html-keyboard-response","116","610854","0.0-3.0-0.83-0.83","<span style= ""font-size:30px; font-family: monospace"">+</span>","null","fixation","","","","",""
"","851","html-keyboard-response","117","611967","0.0-3.0-1.83","<span style=""font-size:30px; font-family: monospace"">Ele</span>"," ","","exp-sent","Ele","","",""
"","1285","html-keyboard-response","118","613505","0.0-3.0-1.84","<span style=""font-size:30px; font-family: monospace"">precisa</span>"," ","","exp-sent","precisa","","",""
"","1148","html-keyboard-response","119","614911","0.0-3.0-1.85","<span style=""font-size:30px; font-family: monospace"">de</span>"," ","","exp-sent","de","","",""
"","1040","html-keyboard-response","120","616205","0.0-3.0-1.86","<span style=""font-size:30px; font-family: monospace"">um</span>"," ","","exp-sent","um","","",""
"","1617","html-keyboard-response","121","618076","0.0-3.0-1.87","<span style=""font-size:30px; font-family: monospace"">protetor</span>"," ","","exp-sent","protetor","","",""
"","1115","html-keyboard-response","122","619453","0.0-3.0-1.88","<span style=""font-size:30px; font-family: monospace"">de</span>"," ","","exp-sent","de","","",""
"","1457","html-keyboard-response","123","621166","0.0-3.0-1.89","<span style=""font-size:30px; font-family: monospace"">ouvido.</span>"," ","","exp-sent","ouvido.","","",""
"","null","html-keyboard-response","124","622437","0.0-3.0-0.90-0.90","<span style= ""font-size:30px; font-family: monospace"">+</span>","null","fixation","","","","",""
"","761","html-keyboard-response","125","623455","0.0-3.0-1.90","<span style=""font-size:30px; font-family: monospace"">Os</span>"," ","","exp-sent","Os","","",""
"","4056","html-keyboard-response","126","627766","0.0-3.0-1.91","<span style=""font-size:30px; font-family: monospace"">hábitos</span>"," ","","exp-sent","hábitos","","",""
"","957","html-keyboard-response","127","628976","0.0-3.0-1.92","<span style=""font-size:30px; font-family: monospace"">de</span>"," ","","exp-sent","de","","",""
"","1492","html-keyboard-response","128","630727","0.0-3.0-1.93","<span style=""font-size:30px; font-family: monospace"">lugares</span>"," ","","exp-sent","lugares","","",""
"","2082","html-keyboard-response","129","633065","0.0-3.0-1.94","<span style=""font-size:30px; font-family: monospace"">diferentes</span>"," ","","exp-sent","diferentes","","",""
"","1005","html-keyboard-response","130","634329","0.0-3.0-1.95","<span style=""font-size:30px; font-family: monospace"">são</span>"," ","","exp-sent","são","","",""
"","1215","html-keyboard-response","131","635802","0.0-3.0-1.96","<span style=""font-size:30px; font-family: monospace"">muito</span>"," ","","exp-sent","muito","","",""
"","1132","html-keyboard-response","132","637191","0.0-3.0-1.97","<span style=""font-size:30px; font-family: monospace"">lindos.</span>"," ","","exp-sent","lindos.","","",""
"","null","html-keyboard-response","133","638454","0.0-3.0-0.98-0.98","<span style= ""font-size:30px; font-family: monospace"">+</span>","null","fixation","","","","",""
"","679","html-keyboard-response","134","639395","0.0-3.0-1.98","<span style=""font-size:30px; font-family: monospace"">O</span>"," ","","exp-sent","O","","",""
"","1226","html-keyboard-response","135","640879","0.0-3.0-1.99","<span style=""font-size:30px; font-family: monospace"">médico</span>"," ","","exp-sent","médico","","",""
"","1553","html-keyboard-response","136","642687","0.0-3.0-1.100","<span style=""font-size:30px; font-family: monospace"">corrigiu</span>"," ","","exp-sent","corrigiu","","",""
"","1070","html-keyboard-response","137","644014","0.0-3.0-1.101","<span style=""font-size:30px; font-family: monospace"">a</span>"," ","","exp-sent","a","","",""
"","2298","html-keyboard-response","138","646573","0.0-3.0-1.102","<span style=""font-size:30px; font-family: monospace"">postura</span>"," ","","exp-sent","postura","","",""
"","1080","html-keyboard-response","139","647908","0.0-3.0-1.103","<span style=""font-size:30px; font-family: monospace"">das</span>"," ","","exp-sent","das","","",""
"","2072","html-keyboard-response","140","650240","0.0-3.0-1.104","<span style=""font-size:30px; font-family: monospace"">costas</span>"," ","","exp-sent","costas","","",""
"","848","html-keyboard-response","141","651346","0.0-3.0-1.105","<span style=""font-size:30px; font-family: monospace"">da</span>"," ","","exp-sent","da","","",""
"","1662","html-keyboard-response","142","653265","0.0-3.0-1.106","<span style=""font-size:30px; font-family: monospace"">pessoa.</span>"," ","","exp-sent","pessoa.","","",""
"","null","html-keyboard-response","143","654530","0.0-3.0-0.107-0.107","<span style= ""font-size:30px; font-family: monospace"">+</span>","null","fixation","","","","",""
"","1485","html-keyboard-response","144","656279","0.0-3.0-1.107","<span style=""font-size:30px; font-family: monospace"">Aquele</span>"," ","","exp-sent","Aquele","","",""
"","2090","html-keyboard-response","145","658631","0.0-3.0-1.108","<span style=""font-size:30px; font-family: monospace"">era</span>"," ","","exp-sent","era","","",""
"","1316","html-keyboard-response","146","660202","0.0-3.0-1.109","<span style=""font-size:30px; font-family: monospace"">um</span>"," ","","exp-sent","um","","",""
"","2186","html-keyboard-response","147","662645","0.0-3.0-1.110","<span style=""font-size:30px; font-family: monospace"">caso</span>"," ","","exp-sent","caso","","",""
"","2076","html-keyboard-response","148","664979","0.0-3.0-1.111","<span style=""font-size:30px; font-family: monospace"">real</span>"," ","","exp-sent","real","","",""
"","1395","html-keyboard-response","149","666630","0.0-3.0-1.112","<span style=""font-size:30px; font-family: monospace"">de</span>"," ","","exp-sent","de","","",""
"","3677","html-keyboard-response","150","670569","0.0-3.0-1.113","<span style=""font-size:30px; font-family: monospace"">sequestro</span>"," ","","exp-sent","sequestro","","",""
"","5687","html-keyboard-response","151","676513","0.0-3.0-1.114","<span style=""font-size:30px; font-family: monospace"">premeditado.</span>"," ","","comp","premeditado.","","",""
"","68379","html-keyboard-response","152","745152","0.0-3.0-2.114-0.114","<span style=""font-size:30px; font-family: monospace"">Aquele era um caso real de roubo?</span>","n","","comp","","Aquele era um caso real de roubo?","não","false"
"","null","html-keyboard-response","153","746666","0.0-3.0-0.115-0.115","<span style= ""font-size:30px; font-family: monospace"">+</span>","null","fixation","","","","",""
"","4851","html-keyboard-response","154","751779","0.0-3.0-1.115","<span style=""font-size:30px; font-family: monospace"">A</span>"," ","","exp-sent","A","","",""
"","959","html-keyboard-response","155","752997","0.0-3.0-1.116","<span style=""font-size:30px; font-family: monospace"">força</span>"," ","","exp-sent","força","","",""
"","1093","html-keyboard-response","156","754354","0.0-3.0-1.117","<span style=""font-size:30px; font-family: monospace"">d'água</span>"," ","","exp-sent","d'água","","",""
"","1455","html-keyboard-response","157","756073","0.0-3.0-1.118","<span style=""font-size:30px; font-family: monospace"">estava</span>"," ","","exp-sent","estava","","",""
"","1781","html-keyboard-response","158","758114","0.0-3.0-1.119","<span style=""font-size:30px; font-family: monospace"">normal</span>"," ","","exp-sent","normal","","",""
"","1210","html-keyboard-response","159","759587","0.0-3.0-1.120","<span style=""font-size:30px; font-family: monospace"">naquele</span>"," ","","exp-sent","naquele","","",""
"","1332","html-keyboard-response","160","761170","0.0-3.0-1.121","<span style=""font-size:30px; font-family: monospace"">dia.</span>"," ","","exp-sent","dia.","","",""
"","null","html-keyboard-response","161","762435","0.0-3.0-0.122-0.122","<span style= ""font-size:30px; font-family: monospace"">+</span>","null","fixation","","","","",""
"","802","html-keyboard-response","162","763492","0.0-3.0-1.122","<span style=""font-size:30px; font-family: monospace"">A</span>"," ","","exp-sent","A","","",""
"","1260","html-keyboard-response","163","765009","0.0-3.0-1.123","<span style=""font-size:30px; font-family: monospace"">médica</span>"," ","","exp-sent","médica","","",""
"","1445","html-keyboard-response","164","766709","0.0-3.0-1.124","<span style=""font-size:30px; font-family: monospace"">ofereceu</span>"," ","","exp-sent","ofereceu","","",""
"","1289","html-keyboard-response","165","768250","0.0-3.0-1.125","<span style=""font-size:30px; font-family: monospace"">a</span>"," ","","exp-sent","a","","",""
"","1255","html-keyboard-response","166","769763","0.0-3.0-1.126","<span style=""font-size:30px; font-family: monospace"">pomada</span>"," ","","exp-sent","pomada","","",""
"","1277","html-keyboard-response","167","771302","0.0-3.0-1.127","<span style=""font-size:30px; font-family: monospace"">para</span>"," ","","exp-sent","para","","",""
"","1706","html-keyboard-response","168","773261","0.0-3.0-1.128","<span style=""font-size:30px; font-family: monospace"">o</span>"," ","","exp-sent","o","","",""
"","2955","html-keyboard-response","169","776473","0.0-3.0-1.129","<span style=""font-size:30px; font-family: monospace"">avô.</span>"," ","","exp-sent","avô.","","",""
"","null","html-keyboard-response","170","777734","0.0-3.0-0.130-0.130","<span style= ""font-size:30px; font-family: monospace"">+</span>","null","fixation","","","","",""
"","870","html-keyboard-response","171","778865","0.0-3.0-1.130","<span style=""font-size:30px; font-family: monospace"">Ele</span>"," ","","exp-sent","Ele","","",""
"","1360","html-keyboard-response","172","780478","0.0-3.0-1.131","<span style=""font-size:30px; font-family: monospace"">conversou</span>"," ","","exp-sent","conversou","","",""
"","995","html-keyboard-response","173","781726","0.0-3.0-1.132","<span style=""font-size:30px; font-family: monospace"">com</span>"," ","","exp-sent","com","","",""
"","1164","html-keyboard-response","174","783144","0.0-3.0-1.133","<span style=""font-size:30px; font-family: monospace"">o</span>"," ","","exp-sent","o","","",""
"","1497","html-keyboard-response","175","784903","0.0-3.0-1.134","<span style=""font-size:30px; font-family: monospace"">patrão</span>"," ","","exp-sent","patrão","","",""
"","1306","html-keyboard-response","176","786464","0.0-3.0-1.135","<span style=""font-size:30px; font-family: monospace"">durante</span>"," ","","exp-sent","durante","","",""
"","1128","html-keyboard-response","177","787846","0.0-3.0-1.136","<span style=""font-size:30px; font-family: monospace"">a</span>"," ","","exp-sent","a","","",""
"","1430","html-keyboard-response","178","789529","0.0-3.0-1.137","<span style=""font-size:30px; font-family: monospace"">tarde.</span>"," ","","exp-sent","tarde.","","",""
"","null","html-keyboard-response","179","790792","0.0-3.0-0.138-0.138","<span style= ""font-size:30px; font-family: monospace"">+</span>","null","fixation","","","","",""
"","1215","html-keyboard-response","180","792264","0.0-3.0-1.138","<span style=""font-size:30px; font-family: monospace"">Algumas</span>"," ","","exp-sent","Algumas","","",""
"","1326","html-keyboard-response","181","793849","0.0-3.0-1.139","<span style=""font-size:30px; font-family: monospace"">pessoas</span>"," ","","exp-sent","pessoas","","",""
"","1458","html-keyboard-response","182","795570","0.0-3.0-1.140","<span style=""font-size:30px; font-family: monospace"">acreditam</span>"," ","","exp-sent","acreditam","","",""
"","1350","html-keyboard-response","183","797176","0.0-3.0-1.141","<span style=""font-size:30px; font-family: monospace"">em</span>"," ","","exp-sent","em","","",""
"","2076","html-keyboard-response","184","799511","0.0-3.0-1.142","<span style=""font-size:30px; font-family: monospace"">espíritos</span>"," ","","exp-sent","espíritos","","",""
"","1656","html-keyboard-response","185","801420","0.0-3.0-1.143","<span style=""font-size:30px; font-family: monospace"">e</span>"," ","","exp-sent","e","","",""
"","1260","html-keyboard-response","186","802939","0.0-3.0-1.144","<span style=""font-size:30px; font-family: monospace"">em</span>"," ","","exp-sent","em","","",""
"","2086","html-keyboard-response","187","805280","0.0-3.0-1.145","<span style=""font-size:30px; font-family: monospace"">outras</span>"," ","","exp-sent","outras","","",""
"","1918","html-keyboard-response","188","807461","0.0-3.0-1.146","<span style=""font-size:30px; font-family: monospace"">vidas.</span>"," ","","exp-sent","vidas.","","",""
"","null","html-keyboard-response","189","808725","0.0-3.0-0.147-0.147","<span style= ""font-size:30px; font-family: monospace"">+</span>","null","fixation","","","","",""
"","1036","html-keyboard-response","190","810014","0.0-3.0-1.147","<span style=""font-size:30px; font-family: monospace"">Ela</span>"," ","","exp-sent","Ela","","",""
"","1061","html-keyboard-response","191","811330","0.0-3.0-1.148","<span style=""font-size:30px; font-family: monospace"">gosta</span>"," ","","exp-sent","gosta","","",""
"","1639","html-keyboard-response","192","813228","0.0-3.0-1.149","<span style=""font-size:30px; font-family: monospace"">de</span>"," ","","exp-sent","de","","",""
"","1923","html-keyboard-response","193","815405","0.0-3.0-1.150","<span style=""font-size:30px; font-family: monospace"">estudar</span>"," ","","exp-sent","estudar","","",""
"","1894","html-keyboard-response","194","817553","0.0-3.0-1.151","<span style=""font-size:30px; font-family: monospace"">matemática</span>"," ","","exp-sent","matemática","","",""
"","1310","html-keyboard-response","195","819117","0.0-3.0-1.152","<span style=""font-size:30px; font-family: monospace"">com</span>"," ","","exp-sent","com","","",""
"","1819","html-keyboard-response","196","821190","0.0-3.0-1.153","<span style=""font-size:30px; font-family: monospace"">colegas.</span>"," ","","comp","colegas.","","",""
"","7296","html-keyboard-response","197","828747","0.0-3.0-2.153-0.153","<span style=""font-size:30px; font-family: monospace"">Ela gosta de estudar física?</span>","n","","comp","","Ela gosta de estudar física?","não","false"
"","null","html-keyboard-response","198","830260","0.0-3.0-0.154-0.154","<span style= ""font-size:30px; font-family: monospace"">+</span>","null","fixation","","","","",""
"","3479","html-keyboard-response","199","834002","0.0-3.0-1.154","<span style=""font-size:30px; font-family: monospace"">Ursos</span>"," ","","exp-sent","Ursos","","",""
"","979","html-keyboard-response","200","835235","0.0-3.0-1.155","<span style=""font-size:30px; font-family: monospace"">têm</span>"," ","","exp-sent","têm","","",""
"","1126","html-keyboard-response","201","836615","0.0-3.0-1.156","<span style=""font-size:30px; font-family: monospace"">uma</span>"," ","","exp-sent","uma","","",""
"","2165","html-keyboard-response","202","839035","0.0-3.0-1.157","<span style=""font-size:30px; font-family: monospace"">patada</span>"," ","","exp-sent","patada","","",""
"","4126","html-keyboard-response","203","843418","0.0-3.0-1.158","<span style=""font-size:30px; font-family: monospace"">brutal</span>"," ","","exp-sent","brutal","","",""
"","1997","html-keyboard-response","204","845673","0.0-3.0-1.159","<span style=""font-size:30px; font-family: monospace"">e</span>"," ","","exp-sent","e","","",""
"","2122","html-keyboard-response","205","848055","0.0-3.0-1.160","<span style=""font-size:30px; font-family: monospace"">poderosa.</span>"," ","","exp-sent","poderosa.","","",""
"","null","html-keyboard-response","206","849316","0.0-3.0-0.161-0.161","<span style= ""font-size:30px; font-family: monospace"">+</span>","null","fixation","","","","",""
"","2602","html-keyboard-response","207","852182","0.0-3.0-1.161","<span style=""font-size:30px; font-family: monospace"">Eu</span>"," ","","exp-sent","Eu","","",""
"","2382","html-keyboard-response","208","854822","0.0-3.0-1.162","<span style=""font-size:30px; font-family: monospace"">fiz</span>"," ","","exp-sent","fiz","","",""
"","2119","html-keyboard-response","209","857205","0.0-3.0-1.163","<span style=""font-size:30px; font-family: monospace"">aulas</span>"," ","","exp-sent","aulas","","",""
"","1114","html-keyboard-response","210","858580","0.0-3.0-1.164","<span style=""font-size:30px; font-family: monospace"">de</span>"," ","","exp-sent","de","","",""
"","1532","html-keyboard-response","211","860370","0.0-3.0-1.165","<span style=""font-size:30px; font-family: monospace"">espanhol</span>"," ","","exp-sent","espanhol","","",""
"","1596","html-keyboard-response","212","862228","0.0-3.0-1.166","<span style=""font-size:30px; font-family: monospace"">nesta</span>"," ","","exp-sent","nesta","","",""
"","1440","html-keyboard-response","213","863924","0.0-3.0-1.167","<span style=""font-size:30px; font-family: monospace"">cidade.</span>"," ","","exp-sent","cidade.","","",""
"","null","html-keyboard-response","214","865188","0.0-3.0-0.168-0.168","<span style= ""font-size:30px; font-family: monospace"">+</span>","null","fixation","","","","",""
"","1130","html-keyboard-response","215","866586","0.0-3.0-1.168","<span style=""font-size:30px; font-family: monospace"">Ele</span>"," ","","exp-sent","Ele","","",""
"","1120","html-keyboard-response","216","867964","0.0-3.0-1.169","<span style=""font-size:30px; font-family: monospace"">comprou</span>"," ","","exp-sent","comprou","","",""
"","1281","html-keyboard-response","217","869501","0.0-3.0-1.170","<span style=""font-size:30px; font-family: monospace"">mais</span>"," ","","exp-sent","mais","","",""
"","1675","html-keyboard-response","218","871431","0.0-3.0-1.171","<span style=""font-size:30px; font-family: monospace"">uma</span>"," ","","exp-sent","uma","","",""
"","1497","html-keyboard-response","219","873184","0.0-3.0-1.172","<span style=""font-size:30px; font-family: monospace"">esponja</span>"," ","","exp-sent","esponja","","",""
"","1438","html-keyboard-response","220","874884","0.0-3.0-1.173","<span style=""font-size:30px; font-family: monospace"">para</span>"," ","","exp-sent","para","","",""
"","1398","html-keyboard-response","221","876542","0.0-3.0-1.174","<span style=""font-size:30px; font-family: monospace"">a</span>"," ","","exp-sent","a","","",""
"","2816","html-keyboard-response","222","879622","0.0-3.0-1.175","<span style=""font-size:30px; font-family: monospace"">cozinha.</span>"," ","","exp-sent","cozinha.","","",""
"","null","html-keyboard-response","223","880883","0.0-3.0-0.176-0.176","<span style= ""font-size:30px; font-family: monospace"">+</span>","null","fixation","","","","",""
"","974","html-keyboard-response","224","882114","0.0-3.0-1.176","<span style=""font-size:30px; font-family: monospace"">Ele</span>"," ","","exp-sent","Ele","","",""
"","1370","html-keyboard-response","225","883742","0.0-3.0-1.177","<span style=""font-size:30px; font-family: monospace"">teve</span>"," ","","exp-sent","teve","","",""
"","1630","html-keyboard-response","226","885633","0.0-3.0-1.178","<span style=""font-size:30px; font-family: monospace"">um</span>"," ","","exp-sent","um","","",""
"","1446","html-keyboard-response","227","887340","0.0-3.0-1.179","<span style=""font-size:30px; font-family: monospace"">sono</span>"," ","","exp-sent","sono","","",""
"","1986","html-keyboard-response","228","889584","0.0-3.0-1.180","<span style=""font-size:30px; font-family: monospace"">bizarro</span>"," ","","exp-sent","bizarro","","",""
"","1952","html-keyboard-response","229","891797","0.0-3.0-1.181","<span style=""font-size:30px; font-family: monospace"">sem</span>"," ","","exp-sent","sem","","",""
"","1225","html-keyboard-response","230","893277","0.0-3.0-1.182","<span style=""font-size:30px; font-family: monospace"">nenhum</span>"," ","","exp-sent","nenhum","","",""
"","1551","html-keyboard-response","231","895086","0.0-3.0-1.183","<span style=""font-size:30px; font-family: monospace"">motivo.</span>"," ","","exp-sent","motivo.","","",""
"","null","html-keyboard-response","232","896349","0.0-3.0-0.184-0.184","<span style= ""font-size:30px; font-family: monospace"">+</span>","null","fixation","","","","",""
"","1043","html-keyboard-response","233","897657","0.0-3.0-1.184","<span style=""font-size:30px; font-family: monospace"">A</span>"," ","","exp-sent","A","","",""
"","1527","html-keyboard-response","234","899454","0.0-3.0-1.185","<span style=""font-size:30px; font-family: monospace"">moça</span>"," ","","exp-sent","moça","","",""
"","1332","html-keyboard-response","235","901045","0.0-3.0-1.186","<span style=""font-size:30px; font-family: monospace"">comprou</span>"," ","","exp-sent","comprou","","",""
"","943","html-keyboard-response","236","902248","0.0-3.0-1.187","<span style=""font-size:30px; font-family: monospace"">um</span>"," ","","exp-sent","um","","",""
"","1960","html-keyboard-response","237","904470","0.0-3.0-1.188","<span style=""font-size:30px; font-family: monospace"">diamante</span>"," ","","exp-sent","diamante","","",""
"","1262","html-keyboard-response","238","905997","0.0-3.0-1.189","<span style=""font-size:30px; font-family: monospace"">para</span>"," ","","exp-sent","para","","",""
"","1153","html-keyboard-response","239","907408","0.0-3.0-1.190","<span style=""font-size:30px; font-family: monospace"">sua</span>"," ","","exp-sent","sua","","",""
"","1882","html-keyboard-response","240","909547","0.0-3.0-1.191","<span style=""font-size:30px; font-family: monospace"">prima.</span>"," ","","comp","prima.","","",""
"","15248","html-keyboard-response","241","925057","0.0-3.0-2.191-0.191","<span style=""font-size:30px; font-family: monospace"">A moça comprou um diamante?</span>","s","","comp","","A moça comprou um diamante?","sim","false"
"","null","html-keyboard-response","242","926580","0.0-3.0-0.192-0.192","<span style= ""font-size:30px; font-family: monospace"">+</span>","null","fixation","","","","",""
"","1089","html-keyboard-response","243","927928","0.0-3.0-1.192","<span style=""font-size:30px; font-family: monospace"">Eu</span>"," ","","exp-sent","Eu","","",""
"","1434","html-keyboard-response","244","929618","0.0-3.0-1.193","<span style=""font-size:30px; font-family: monospace"">gosto</span>"," ","","exp-sent","gosto","","",""
"","1848","html-keyboard-response","245","931723","0.0-3.0-1.194","<span style=""font-size:30px; font-family: monospace"">de</span>"," ","","exp-sent","de","","",""
"","1853","html-keyboard-response","246","933829","0.0-3.0-1.195","<span style=""font-size:30px; font-family: monospace"">molho</span>"," ","","exp-sent","molho","","",""
"","1678","html-keyboard-response","247","935761","0.0-3.0-1.196","<span style=""font-size:30px; font-family: monospace"">picante</span>"," ","","exp-sent","picante","","",""
"","1464","html-keyboard-response","248","937478","0.0-3.0-1.197","<span style=""font-size:30px; font-family: monospace"">nas</span>"," ","","exp-sent","nas","","",""
"","1608","html-keyboard-response","249","939342","0.0-3.0-1.198","<span style=""font-size:30px; font-family: monospace"">batatas.</span>"," ","","exp-sent","batatas.","","",""
"","null","html-keyboard-response","250","940608","0.0-3.0-0.199-0.199","<span style= ""font-size:30px; font-family: monospace"">+</span>","null","fixation","","","","",""
"","2480","html-keyboard-response","251","943343","0.0-3.0-1.199","<span style=""font-size:30px; font-family: monospace"">As</span>"," ","","exp-sent","As","","",""
"","1177","html-keyboard-response","252","944779","0.0-3.0-1.200","<span style=""font-size:30px; font-family: monospace"">pessoas</span>"," ","","exp-sent","pessoas","","",""
"","1555","html-keyboard-response","253","946589","0.0-3.0-1.201","<span style=""font-size:30px; font-family: monospace"">têm</span>"," ","","exp-sent","têm","","",""
"","1311","html-keyboard-response","254","948161","0.0-3.0-1.202","<span style=""font-size:30px; font-family: monospace"">sua</span>"," ","","exp-sent","sua","","",""
"","1461","html-keyboard-response","255","949874","0.0-3.0-1.203","<span style=""font-size:30px; font-family: monospace"">liberdade</span>"," ","","exp-sent","liberdade","","",""
"","1439","html-keyboard-response","256","951567","0.0-3.0-1.204","<span style=""font-size:30px; font-family: monospace"">até</span>"," ","","exp-sent","até","","",""
"","1896","html-keyboard-response","257","953720","0.0-3.0-1.205","<span style=""font-size:30px; font-family: monospace"">certo</span>"," ","","exp-sent","certo","","",""
"","3142","html-keyboard-response","258","957120","0.0-3.0-1.206","<span style=""font-size:30px; font-family: monospace"">ponto.</span>"," ","","exp-sent","ponto.","","",""
"","null","html-keyboard-response","259","958381","0.0-3.0-0.207-0.207","<span style= ""font-size:30px; font-family: monospace"">+</span>","null","fixation","","","","",""
"","1557","html-keyboard-response","260","960195","0.0-3.0-1.207","<span style=""font-size:30px; font-family: monospace"">A</span>"," ","","exp-sent","A","","",""
"","3730","html-keyboard-response","261","964182","0.0-3.0-1.208","<span style=""font-size:30px; font-family: monospace"">empresa</span>"," ","","exp-sent","empresa","","",""
"","1486","html-keyboard-response","262","965925","0.0-3.0-1.209","<span style=""font-size:30px; font-family: monospace"">enviou</span>"," ","","exp-sent","enviou","","",""
"","1785","html-keyboard-response","263","967964","0.0-3.0-1.210","<span style=""font-size:30px; font-family: monospace"">o</span>"," ","","exp-sent","o","","",""
"","2718","html-keyboard-response","264","970936","0.0-3.0-1.211","<span style=""font-size:30px; font-family: monospace"">aviso</span>"," ","","exp-sent","aviso","","",""
"","2603","html-keyboard-response","265","973799","0.0-3.0-1.212","<span style=""font-size:30px; font-family: monospace"">hoje</span>"," ","","exp-sent","hoje","","",""
"","1394","html-keyboard-response","266","975453","0.0-3.0-1.213","<span style=""font-size:30px; font-family: monospace"">de</span>"," ","","exp-sent","de","","",""
"","1802","html-keyboard-response","267","977510","0.0-3.0-1.214","<span style=""font-size:30px; font-family: monospace"">tarde.</span>"," ","","exp-sent","tarde.","","",""
"","null","html-keyboard-response","268","978774","0.0-3.0-0.215-0.215","<span style= ""font-size:30px; font-family: monospace"">+</span>","null","fixation","","","","",""
"","811","html-keyboard-response","269","979846","0.0-3.0-1.215","<span style=""font-size:30px; font-family: monospace"">A</span>"," ","","exp-sent","A","","",""
"","1222","html-keyboard-response","270","981321","0.0-3.0-1.216","<span style=""font-size:30px; font-family: monospace"">loja</span>"," ","","exp-sent","loja","","",""
"","1214","html-keyboard-response","271","982797","0.0-3.0-1.217","<span style=""font-size:30px; font-family: monospace"">vende</span>"," ","","exp-sent","vende","","",""
"","1175","html-keyboard-response","272","984229","0.0-3.0-1.218","<span style=""font-size:30px; font-family: monospace"">tanto</span>"," ","","exp-sent","tanto","","",""
"","2611","html-keyboard-response","273","987096","0.0-3.0-1.219","<span style=""font-size:30px; font-family: monospace"">frituras</span>"," ","","exp-sent","frituras","","",""
"","2112","html-keyboard-response","274","989466","0.0-3.0-1.220","<span style=""font-size:30px; font-family: monospace"">quanto</span>"," ","","exp-sent","quanto","","",""
"","1981","html-keyboard-response","275","991702","0.0-3.0-1.221","<span style=""font-size:30px; font-family: monospace"">comidas</span>"," ","","exp-sent","comidas","","",""
"","1992","html-keyboard-response","276","993950","0.0-3.0-1.222","<span style=""font-size:30px; font-family: monospace"">leves.</span>"," ","","exp-sent","leves.","","",""
"","null","html-keyboard-response","277","995212","0.0-3.0-0.223-0.223","<span style= ""font-size:30px; font-family: monospace"">+</span>","null","fixation","","","","",""
"","896","html-keyboard-response","278","996362","0.0-3.0-1.223","<span style=""font-size:30px; font-family: monospace"">As</span>"," ","","exp-sent","As","","",""
"","1830","html-keyboard-response","279","998449","0.0-3.0-1.224","<span style=""font-size:30px; font-family: monospace"">cadeiras</span>"," ","","exp-sent","cadeiras","","",""
"","2108","html-keyboard-response","280","1000819","0.0-3.0-1.225","<span style=""font-size:30px; font-family: monospace"">azuis</span>"," ","","exp-sent","azuis","","",""
"","2382","html-keyboard-response","281","1003461","0.0-3.0-1.226","<span style=""font-size:30px; font-family: monospace"">da</span>"," ","","exp-sent","da","","",""
"","2176","html-keyboard-response","282","1005895","0.0-3.0-1.227","<span style=""font-size:30px; font-family: monospace"">sala</span>"," ","","exp-sent","sala","","",""
"","1666","html-keyboard-response","283","1007816","0.0-3.0-1.228","<span style=""font-size:30px; font-family: monospace"">eram</span>"," ","","exp-sent","eram","","",""
"","1466","html-keyboard-response","284","1009545","0.0-3.0-1.229","<span style=""font-size:30px; font-family: monospace"">da</span>"," ","","exp-sent","da","","",""
"","1308","html-keyboard-response","285","1011107","0.0-3.0-1.230","<span style=""font-size:30px; font-family: monospace"">minha</span>"," ","","exp-sent","minha","","",""
"","1294","html-keyboard-response","286","1012658","0.0-3.0-1.231","<span style=""font-size:30px; font-family: monospace"">vó.</span>"," ","","comp","vó.","","",""
"","35395","html-keyboard-response","287","1048316","0.0-3.0-2.231-0.231","<span style=""font-size:30px; font-family: monospace"">As cadeiras eram da avó?</span>","s","","comp","","As cadeiras eram da avó?","sim","false"
"","null","html-keyboard-response","288","1049829","0.0-3.0-0.232-0.232","<span style= ""font-size:30px; font-family: monospace"">+</span>","null","fixation","","","","",""
"","2070","html-keyboard-response","289","1052161","0.0-3.0-1.232","<span style=""font-size:30px; font-family: monospace"">A</span>"," ","","exp-sent","A","","",""
"","3710","html-keyboard-response","290","1056131","0.0-3.0-1.233","<span style=""font-size:30px; font-family: monospace"">motorista</span>"," ","","exp-sent","motorista","","",""
"","1056","html-keyboard-response","291","1057444","0.0-3.0-1.234","<span style=""font-size:30px; font-family: monospace"">fez</span>"," ","","exp-sent","fez","","",""
"","1146","html-keyboard-response","292","1058848","0.0-3.0-1.235","<span style=""font-size:30px; font-family: monospace"">o</span>"," ","","exp-sent","o","","",""
"","1457","html-keyboard-response","293","1060569","0.0-3.0-1.236","<span style=""font-size:30px; font-family: monospace"">retorno</span>"," ","","exp-sent","retorno","","",""
"","1087","html-keyboard-response","294","1061913","0.0-3.0-1.237","<span style=""font-size:30px; font-family: monospace"">com</span>"," ","","exp-sent","com","","",""
"","1807","html-keyboard-response","295","1063980","0.0-3.0-1.238","<span style=""font-size:30px; font-family: monospace"">cuidado.</span>"," ","","exp-sent","cuidado.","","",""
"","null","html-keyboard-response","296","1065240","0.0-3.0-0.239-0.239","<span style= ""font-size:30px; font-family: monospace"">+</span>","null","fixation","","","","",""
"","934","html-keyboard-response","297","1066439","0.0-3.0-1.239","<span style=""font-size:30px; font-family: monospace"">Contos</span>"," ","","exp-sent","Contos","","",""
"","3206","html-keyboard-response","298","1069907","0.0-3.0-1.240","<span style=""font-size:30px; font-family: monospace"">de</span>"," ","","exp-sent","de","","",""
"","1936","html-keyboard-response","299","1072105","0.0-3.0-1.241","<span style=""font-size:30px; font-family: monospace"">ação</span>"," ","","exp-sent","ação","","",""
"","1580","html-keyboard-response","300","1073942","0.0-3.0-1.242","<span style=""font-size:30px; font-family: monospace"">têm</span>"," ","","exp-sent","têm","","",""
"","2770","html-keyboard-response","301","1076976","0.0-3.0-1.243","<span style=""font-size:30px; font-family: monospace"">chantagem</span>"," ","","exp-sent","chantagem","","",""
"","1386","html-keyboard-response","302","1078622","0.0-3.0-1.244","<span style=""font-size:30px; font-family: monospace"">e</span>"," ","","exp-sent","e","","",""
"","1505","html-keyboard-response","303","1080388","0.0-3.0-1.245","<span style=""font-size:30px; font-family: monospace"">muita</span>"," ","","exp-sent","muita","","",""
"","2467","html-keyboard-response","304","1083114","0.0-3.0-1.246","<span style=""font-size:30px; font-family: monospace"">luta.</span>"," ","","exp-sent","luta.","","",""
"","null","html-keyboard-response","305","1084379","0.0-3.0-0.247-0.247","<span style= ""font-size:30px; font-family: monospace"">+</span>","null","fixation","","","","",""
"","72","html-keyboard-response","306","1084712","0.0-3.0-1.247","<span style=""font-size:30px; font-family: monospace"">A</span>"," ","","exp-sent","A","","",""
"","3417","html-keyboard-response","307","1088394","0.0-3.0-1.248","<span style=""font-size:30px; font-family: monospace"">bisavó</span>"," ","","exp-sent","bisavó","","",""
"","1385","html-keyboard-response","308","1090038","0.0-3.0-1.249","<span style=""font-size:30px; font-family: monospace"">recebeu</span>"," ","","exp-sent","recebeu","","",""
"","1594","html-keyboard-response","309","1091894","0.0-3.0-1.250","<span style=""font-size:30px; font-family: monospace"">um</span>"," ","","exp-sent","um","","",""
"","2019","html-keyboard-response","310","1094173","0.0-3.0-1.251","<span style=""font-size:30px; font-family: monospace"">benefício</span>"," ","","exp-sent","benefício","","",""
"","2490","html-keyboard-response","311","1096924","0.0-3.0-1.252","<span style=""font-size:30px; font-family: monospace"">temporário</span>"," ","","exp-sent","temporário","","",""
"","1895","html-keyboard-response","312","1099084","0.0-3.0-1.253","<span style=""font-size:30px; font-family: monospace"">do</span>"," ","","exp-sent","do","","",""
"","2468","html-keyboard-response","313","1101811","0.0-3.0-1.254","<span style=""font-size:30px; font-family: monospace"">governo.</span>"," ","","exp-sent","governo.","","",""
"","null","html-keyboard-response","314","1103073","0.0-3.0-0.255-0.255","<span style= ""font-size:30px; font-family: monospace"">+</span>","null","fixation","","","","",""
"","879","html-keyboard-response","315","1104208","0.0-3.0-1.255","<span style=""font-size:30px; font-family: monospace"">As</span>"," ","","exp-sent","As","","",""
"","1455","html-keyboard-response","316","1105916","0.0-3.0-1.256","<span style=""font-size:30px; font-family: monospace"">crianças</span>"," ","","exp-sent","crianças","","",""
"","3428","html-keyboard-response","317","1109597","0.0-3.0-1.257","<span style=""font-size:30px; font-family: monospace"">brincaram</span>"," ","","exp-sent","brincaram","","",""
"","1826","html-keyboard-response","318","1111679","0.0-3.0-1.258","<span style=""font-size:30px; font-family: monospace"">no</span>"," ","","exp-sent","no","","",""
"","3046","html-keyboard-response","319","1114979","0.0-3.0-1.259","<span style=""font-size:30px; font-family: monospace"">balanço</span>"," ","","exp-sent","balanço","","",""
"","3565","html-keyboard-response","320","1118802","0.0-3.0-1.260","<span style=""font-size:30px; font-family: monospace"">a</span>"," ","","exp-sent","a","","",""
"","3707","html-keyboard-response","321","1122763","0.0-3.0-1.261","<span style=""font-size:30px; font-family: monospace"">tarde</span>"," ","","exp-sent","tarde","","",""
"","1773","html-keyboard-response","322","1124791","0.0-3.0-1.262","<span style=""font-size:30px; font-family: monospace"">toda.</span>"," ","","exp-sent","toda.","","",""
"","null","html-keyboard-response","323","1126046","0.0-3.0-0.263-0.263","<span style= ""font-size:30px; font-family: monospace"">+</span>","null","fixation","","","","",""
"","1394","html-keyboard-response","324","1127691","0.0-3.0-1.263","<span style=""font-size:30px; font-family: monospace"">Ela</span>"," ","","exp-sent","Ela","","",""
"","1177","html-keyboard-response","325","1129120","0.0-3.0-1.264","<span style=""font-size:30px; font-family: monospace"">gosta</span>"," ","","exp-sent","gosta","","",""
"","1810","html-keyboard-response","326","1131185","0.0-3.0-1.265","<span style=""font-size:30px; font-family: monospace"">de</span>"," ","","exp-sent","de","","",""
"","1919","html-keyboard-response","327","1133358","0.0-3.0-1.266","<span style=""font-size:30px; font-family: monospace"">comida</span>"," ","","exp-sent","comida","","",""
"","3525","html-keyboard-response","328","1137139","0.0-3.0-1.267","<span style=""font-size:30px; font-family: monospace"">natural</span>"," ","","exp-sent","natural","","",""
"","1671","html-keyboard-response","329","1139068","0.0-3.0-1.268","<span style=""font-size:30px; font-family: monospace"">no</span>"," ","","exp-sent","no","","",""
"","2153","html-keyboard-response","330","1141474","0.0-3.0-1.269","<span style=""font-size:30px; font-family: monospace"">almoço.</span>"," ","","comp","almoço.","","",""
"","7602","html-keyboard-response","331","1149337","0.0-3.0-2.269-0.269","<span style=""font-size:30px; font-family: monospace"">Ela gosta de comida natural no almoço?</span>","s","","comp","","Ela gosta de comida natural no almoço?","sim","false"
"","null","html-keyboard-response","332","1150855","0.0-3.0-0.270-0.270","<span style= ""font-size:30px; font-family: monospace"">+</span>","null","fixation","","","","",""
"","2187","html-keyboard-response","333","1153298","0.0-3.0-1.270","<span style=""font-size:30px; font-family: monospace"">Barulho</span>"," ","","exp-sent","Barulho","","",""
"","1348","html-keyboard-response","334","1154905","0.0-3.0-1.271","<span style=""font-size:30px; font-family: monospace"">de</span>"," ","","exp-sent","de","","",""
"","1285","html-keyboard-response","335","1156452","0.0-3.0-1.272","<span style=""font-size:30px; font-family: monospace"">carros</span>"," ","","exp-sent","carros","","",""
"","1183","html-keyboard-response","336","1157896","0.0-3.0-1.273","<span style=""font-size:30px; font-family: monospace"">é</span>"," ","","exp-sent","é","","",""
"","1930","html-keyboard-response","337","1160081","0.0-3.0-1.274","<span style=""font-size:30px; font-family: monospace"">irritante</span>"," ","","exp-sent","irritante","","",""
"","1375","html-keyboard-response","338","1161716","0.0-3.0-1.275","<span style=""font-size:30px; font-family: monospace"">para</span>"," ","","exp-sent","para","","",""
"","1770","html-keyboard-response","339","1163744","0.0-3.0-1.276","<span style=""font-size:30px; font-family: monospace"">a</span>"," ","","exp-sent","a","","",""
"","1745","html-keyboard-response","340","1165749","0.0-3.0-1.277","<span style=""font-size:30px; font-family: monospace"">moça.</span>"," ","","exp-sent","moça.","","",""
"","null","html-keyboard-response","341","1167014","0.0-3.0-0.278-0.278","<span style= ""font-size:30px; font-family: monospace"">+</span>","null","fixation","","","","",""
"","881","html-keyboard-response","342","1168151","0.0-3.0-1.278","<span style=""font-size:30px; font-family: monospace"">A</span>"," ","","exp-sent","A","","",""
"","5195","html-keyboard-response","343","1173600","0.0-3.0-1.279","<span style=""font-size:30px; font-family: monospace"">loja</span>"," ","","exp-sent","loja","","",""
"","4333","html-keyboard-response","344","1178190","0.0-3.0-1.280","<span style=""font-size:30px; font-family: monospace"">também</span>"," ","","exp-sent","também","","",""
"","1819","html-keyboard-response","345","1180269","0.0-3.0-1.281","<span style=""font-size:30px; font-family: monospace"">vende</span>"," ","","exp-sent","vende","","",""
"","1662","html-keyboard-response","346","1182193","0.0-3.0-1.282","<span style=""font-size:30px; font-family: monospace"">taça</span>"," ","","exp-sent","taça","","",""
"","1803","html-keyboard-response","347","1184255","0.0-3.0-1.283","<span style=""font-size:30px; font-family: monospace"">de</span>"," ","","exp-sent","de","","",""
"","2379","html-keyboard-response","348","1186894","0.0-3.0-1.284","<span style=""font-size:30px; font-family: monospace"">vinho</span>"," ","","exp-sent","vinho","","",""
"","1727","html-keyboard-response","349","1188882","0.0-3.0-1.285","<span style=""font-size:30px; font-family: monospace"">e</span>"," ","","exp-sent","e","","",""
"","8404","html-keyboard-response","350","1197545","0.0-3.0-1.286","<span style=""font-size:30px; font-family: monospace"">espumante.</span>"," ","","exp-sent","espumante.","","",""
"","null","html-keyboard-response","351","1198809","0.0-3.0-0.287-0.287","<span style= ""font-size:30px; font-family: monospace"">+</span>","null","fixation","","","","",""
"","1874","html-keyboard-response","352","1200945","0.0-3.0-1.287","<span style=""font-size:30px; font-family: monospace"">A</span>"," ","","exp-sent","A","","",""
"","1801","html-keyboard-response","353","1203002","0.0-3.0-1.288","<span style=""font-size:30px; font-family: monospace"">bruxa</span>"," ","","exp-sent","bruxa","","",""
"","2156","html-keyboard-response","354","1205421","0.0-3.0-1.289","<span style=""font-size:30px; font-family: monospace"">tinha</span>"," ","","exp-sent","tinha","","",""
"","2030","html-keyboard-response","355","1207710","0.0-3.0-1.290","<span style=""font-size:30px; font-family: monospace"">uma</span>"," ","","exp-sent","uma","","",""
"","3172","html-keyboard-response","356","1211146","0.0-3.0-1.291","<span style=""font-size:30px; font-family: monospace"">vassoura</span>"," ","","exp-sent","vassoura","","",""
"","1552","html-keyboard-response","357","1212957","0.0-3.0-1.292","<span style=""font-size:30px; font-family: monospace"">e</span>"," ","","exp-sent","e","","",""
"","1277","html-keyboard-response","358","1214494","0.0-3.0-1.293","<span style=""font-size:30px; font-family: monospace"">um</span>"," ","","exp-sent","um","","",""
"","1547","html-keyboard-response","359","1216297","0.0-3.0-1.294","<span style=""font-size:30px; font-family: monospace"">gato.</span>"," ","","exp-sent","gato.","","",""
"","null","html-keyboard-response","360","1217558","0.0-3.0-0.295-0.295","<span style= ""font-size:30px; font-family: monospace"">+</span>","null","fixation","","","","",""
"","1034","html-keyboard-response","361","1218851","0.0-3.0-1.295","<span style=""font-size:30px; font-family: monospace"">Eu</span>"," ","","exp-sent","Eu","","",""
"","1371","html-keyboard-response","362","1220479","0.0-3.0-1.296","<span style=""font-size:30px; font-family: monospace"">me</span>"," ","","exp-sent","me","","",""
"","3341","html-keyboard-response","363","1224087","0.0-3.0-1.297","<span style=""font-size:30px; font-family: monospace"">divirto</span>"," ","","exp-sent","divirto","","",""
"","1575","html-keyboard-response","364","1225916","0.0-3.0-1.298","<span style=""font-size:30px; font-family: monospace"">em</span>"," ","","exp-sent","em","","",""
"","2127","html-keyboard-response","365","1228304","0.0-3.0-1.299","<span style=""font-size:30px; font-family: monospace"">festas</span>"," ","","exp-sent","festas","","",""
"","1922","html-keyboard-response","366","1230489","0.0-3.0-1.300","<span style=""font-size:30px; font-family: monospace"">de</span>"," ","","exp-sent","de","","",""
"","3457","html-keyboard-response","367","1234205","0.0-3.0-1.301","<span style=""font-size:30px; font-family: monospace"">criança.</span>"," ","","exp-sent","criança.","","",""
"","null","html-keyboard-response","368","1235462","0.0-3.0-0.302-0.302","<span style= ""font-size:30px; font-family: monospace"">+</span>","null","fixation","","","","",""
"","1106","html-keyboard-response","369","1236831","0.0-3.0-1.302","<span style=""font-size:30px; font-family: monospace"">A</span>"," ","","exp-sent","A","","",""
"","1533","html-keyboard-response","370","1238621","0.0-3.0-1.303","<span style=""font-size:30px; font-family: monospace"">janela</span>"," ","","exp-sent","janela","","",""
"","1993","html-keyboard-response","371","1240871","0.0-3.0-1.304","<span style=""font-size:30px; font-family: monospace"">alta</span>"," ","","exp-sent","alta","","",""
"","1718","html-keyboard-response","372","1242851","0.0-3.0-1.305","<span style=""font-size:30px; font-family: monospace"">estava</span>"," ","","exp-sent","estava","","",""
"","1731","html-keyboard-response","373","1244846","0.0-3.0-1.306","<span style=""font-size:30px; font-family: monospace"">quebrada</span>"," ","","exp-sent","quebrada","","",""
"","1908","html-keyboard-response","374","1247020","0.0-3.0-1.307","<span style=""font-size:30px; font-family: monospace"">desde</span>"," ","","exp-sent","desde","","",""
"","2116","html-keyboard-response","375","1249397","0.0-3.0-1.308","<span style=""font-size:30px; font-family: monospace"">ontem.</span>"," ","","comp","ontem.","","",""
"","14776","html-keyboard-response","376","1264432","0.0-3.0-2.308-0.308","<span style=""font-size:30px; font-family: monospace"">A janela alta estava quebrada?</span>","s","","comp","","A janela alta estava quebrada?","sim","false"
"","null","html-keyboard-response","377","1265946","0.0-3.0-0.309-0.309","<span style= ""font-size:30px; font-family: monospace"">+</span>","null","fixation","","","","",""
"","2071","html-keyboard-response","378","1268274","0.0-3.0-1.309","<span style=""font-size:30px; font-family: monospace"">A</span>"," ","","exp-sent","A","","",""
"","4864","html-keyboard-response","379","1273398","0.0-3.0-1.310","<span style=""font-size:30px; font-family: monospace"">senhora</span>"," ","","exp-sent","senhora","","",""
"","3455","html-keyboard-response","380","1277114","0.0-3.0-1.311","<span style=""font-size:30px; font-family: monospace"">cumprimentou</span>"," ","","exp-sent","cumprimentou","","",""
"","1029","html-keyboard-response","381","1278402","0.0-3.0-1.312","<span style=""font-size:30px; font-family: monospace"">o</span>"," ","","exp-sent","o","","",""
"","1240","html-keyboard-response","382","1279901","0.0-3.0-1.313","<span style=""font-size:30px; font-family: monospace"">operador</span>"," ","","exp-sent","operador","","",""
"","966","html-keyboard-response","383","1281120","0.0-3.0-1.314","<span style=""font-size:30px; font-family: monospace"">de</span>"," ","","exp-sent","de","","",""
"","1207","html-keyboard-response","384","1282584","0.0-3.0-1.315","<span style=""font-size:30px; font-family: monospace"">caixa.</span>"," ","","exp-sent","caixa.","","",""
"","null","html-keyboard-response","385","1283851","0.0-3.0-0.316-0.316","<span style= ""font-size:30px; font-family: monospace"">+</span>","null","fixation","","","","",""
"","857","html-keyboard-response","386","1284964","0.0-3.0-1.316","<span style=""font-size:30px; font-family: monospace"">A</span>"," ","","exp-sent","A","","",""
"","1216","html-keyboard-response","387","1286438","0.0-3.0-1.317","<span style=""font-size:30px; font-family: monospace"">gente</span>"," ","","exp-sent","gente","","",""
"","1013","html-keyboard-response","388","1287708","0.0-3.0-1.318","<span style=""font-size:30px; font-family: monospace"">viu</span>"," ","","exp-sent","viu","","",""
"","1084","html-keyboard-response","389","1289044","0.0-3.0-1.319","<span style=""font-size:30px; font-family: monospace"">o</span>"," ","","exp-sent","o","","",""
"","2291","html-keyboard-response","390","1291590","0.0-3.0-1.320","<span style=""font-size:30px; font-family: monospace"">eclipse</span>"," ","","exp-sent","eclipse","","",""
"","1098","html-keyboard-response","391","1292943","0.0-3.0-1.321","<span style=""font-size:30px; font-family: monospace"">lunar</span>"," ","","exp-sent","lunar","","",""
"","969","html-keyboard-response","392","1294164","0.0-3.0-1.322","<span style=""font-size:30px; font-family: monospace"">durante</span>"," ","","exp-sent","durante","","",""
"","1250","html-keyboard-response","393","1295669","0.0-3.0-1.323","<span style=""font-size:30px; font-family: monospace"">o</span>"," ","","exp-sent","o","","",""
"","1234","html-keyboard-response","394","1297156","0.0-3.0-1.324","<span style=""font-size:30px; font-family: monospace"">dia.</span>"," ","","exp-sent","dia.","","",""
"","null","html-keyboard-response","395","1298418","0.0-3.0-0.325-0.325","<span style= ""font-size:30px; font-family: monospace"">+</span>","null","fixation","","","","",""
"","1857","html-keyboard-response","396","1300527","0.0-3.0-1.325","<span style=""font-size:30px; font-family: monospace"">A</span>"," ","","exp-sent","A","","",""
"","1939","html-keyboard-response","397","1302722","0.0-3.0-1.326","<span style=""font-size:30px; font-family: monospace"">mordida</span>"," ","","exp-sent","mordida","","",""
"","1492","html-keyboard-response","398","1304466","0.0-3.0-1.327","<span style=""font-size:30px; font-family: monospace"">do</span>"," ","","exp-sent","do","","",""
"","2506","html-keyboard-response","399","1307226","0.0-3.0-1.328","<span style=""font-size:30px; font-family: monospace"">cachorro</span>"," ","","exp-sent","cachorro","","",""
"","2462","html-keyboard-response","400","1309947","0.0-3.0-1.329","<span style=""font-size:30px; font-family: monospace"">voraz</span>"," ","","exp-sent","voraz","","",""
"","4388","html-keyboard-response","401","1314590","0.0-3.0-1.330","<span style=""font-size:30px; font-family: monospace"">causou</span>"," ","","exp-sent","causou","","",""
"","1822","html-keyboard-response","402","1316670","0.0-3.0-1.331","<span style=""font-size:30px; font-family: monospace"">uma</span>"," ","","exp-sent","uma","","",""
"","2877","html-keyboard-response","403","1319803","0.0-3.0-1.332","<span style=""font-size:30px; font-family: monospace"">cicatriz.</span>"," ","","exp-sent","cicatriz.","","",""
"","null","html-keyboard-response","404","1321064","0.0-3.0-0.333-0.333","<span style= ""font-size:30px; font-family: monospace"">+</span>","null","fixation","","","","",""
"","1152","html-keyboard-response","405","1322472","0.0-3.0-1.333","<span style=""font-size:30px; font-family: monospace"">Elas</span>"," ","","exp-sent","Elas","","",""
"","1297","html-keyboard-response","406","1324025","0.0-3.0-1.334","<span style=""font-size:30px; font-family: monospace"">não</span>"," ","","exp-sent","não","","",""
"","2380","html-keyboard-response","407","1326662","0.0-3.0-1.335","<span style=""font-size:30px; font-family: monospace"">viram</span>"," ","","exp-sent","viram","","",""
"","2334","html-keyboard-response","408","1329257","0.0-3.0-1.336","<span style=""font-size:30px; font-family: monospace"">nenhuma</span>"," ","","exp-sent","nenhuma","","",""
"","2503","html-keyboard-response","409","1332021","0.0-3.0-1.337","<span style=""font-size:30px; font-family: monospace"">diferença</span>"," ","","exp-sent","diferença","","",""
"","1137","html-keyboard-response","410","1333423","0.0-3.0-1.338","<span style=""font-size:30px; font-family: monospace"">entre</span>"," ","","exp-sent","entre","","",""
"","1339","html-keyboard-response","411","1335017","0.0-3.0-1.339","<span style=""font-size:30px; font-family: monospace"">os</span>"," ","","exp-sent","os","","",""
"","1860","html-keyboard-response","412","1337136","0.0-3.0-1.340","<span style=""font-size:30px; font-family: monospace"">textos.</span>"," ","","exp-sent","textos.","","",""
"","null","html-keyboard-response","413","1338404","0.0-3.0-0.341-0.341","<span style= ""font-size:30px; font-family: monospace"">+</span>","null","fixation","","","","",""
"","1273","html-keyboard-response","414","1339934","0.0-3.0-1.341","<span style=""font-size:30px; font-family: monospace"">Amanhã</span>"," ","","exp-sent","Amanhã","","",""
"","1010","html-keyboard-response","415","1341202","0.0-3.0-1.342","<span style=""font-size:30px; font-family: monospace"">vai</span>"," ","","exp-sent","vai","","",""
"","1073","html-keyboard-response","416","1342528","0.0-3.0-1.343","<span style=""font-size:30px; font-family: monospace"">ter</span>"," ","","exp-sent","ter","","",""
"","1188","html-keyboard-response","417","1343974","0.0-3.0-1.344","<span style=""font-size:30px; font-family: monospace"">um</span>"," ","","exp-sent","um","","",""
"","1811","html-keyboard-response","418","1346045","0.0-3.0-1.345","<span style=""font-size:30px; font-family: monospace"">bazar</span>"," ","","exp-sent","bazar","","",""
"","1781","html-keyboard-response","419","1348087","0.0-3.0-1.346","<span style=""font-size:30px; font-family: monospace"">no</span>"," ","","exp-sent","no","","",""
"","2252","html-keyboard-response","420","1350597","0.0-3.0-1.347","<span style=""font-size:30px; font-family: monospace"">bairro.</span>"," ","","comp","bairro.","","",""
"","50904","html-keyboard-response","421","1401763","0.0-3.0-2.347-0.347","<span style=""font-size:30px; font-family: monospace"">Amanhã vai acontecer um bazar no bairro?</span>","s","","comp","","Amanhã vai acontecer um bazar no bairro?","sim","false"
"","null","html-keyboard-response","422","1403274","0.0-3.0-0.348-0.348","<span style= ""font-size:30px; font-family: monospace"">+</span>","null","fixation","","","","",""
"","1630","html-keyboard-response","423","1405163","0.0-3.0-1.348","<span style=""font-size:30px; font-family: monospace"">Minha</span>"," ","","exp-sent","Minha","","",""
"","2352","html-keyboard-response","424","1407778","0.0-3.0-1.349","<span style=""font-size:30px; font-family: monospace"">prima</span>"," ","","exp-sent","prima","","",""
"","1271","html-keyboard-response","425","1409307","0.0-3.0-1.350","<span style=""font-size:30px; font-family: monospace"">trocou</span>"," ","","exp-sent","trocou","","",""
"","2080","html-keyboard-response","426","1411648","0.0-3.0-1.351","<span style=""font-size:30px; font-family: monospace"">a</span>"," ","","exp-sent","a","","",""
"","3601","html-keyboard-response","427","1415505","0.0-3.0-1.352","<span style=""font-size:30px; font-family: monospace"">tela</span>"," ","","exp-sent","tela","","",""
"","2376","html-keyboard-response","428","1418141","0.0-3.0-1.353","<span style=""font-size:30px; font-family: monospace"">do</span>"," ","","exp-sent","do","","",""
"","3463","html-keyboard-response","429","1421871","0.0-3.0-1.354","<span style=""font-size:30px; font-family: monospace"">celular</span>"," ","","exp-sent","celular","","",""
"","2424","html-keyboard-response","430","1424559","0.0-3.0-1.355","<span style=""font-size:30px; font-family: monospace"">duas</span>"," ","","exp-sent","duas","","",""
"","1660","html-keyboard-response","431","1426479","0.0-3.0-1.356","<span style=""font-size:30px; font-family: monospace"">vezes.</span>"," ","","exp-sent","vezes.","","",""
"","null","html-keyboard-response","432","1427746","0.0-3.0-0.357-0.357","<span style= ""font-size:30px; font-family: monospace"">+</span>","null","fixation","","","","",""
"","3357","html-keyboard-response","433","1431365","0.0-3.0-1.357","<span style=""font-size:30px; font-family: monospace"">Agora</span>"," ","","exp-sent","Agora","","",""
"","1450","html-keyboard-response","434","1433076","0.0-3.0-1.358","<span style=""font-size:30px; font-family: monospace"">a</span>"," ","","exp-sent","a","","",""
"","2091","html-keyboard-response","435","1435425","0.0-3.0-1.359","<span style=""font-size:30px; font-family: monospace"">minha</span>"," ","","exp-sent","minha","","",""
"","1413","html-keyboard-response","436","1437100","0.0-3.0-1.360","<span style=""font-size:30px; font-family: monospace"">única</span>"," ","","exp-sent","única","","",""
"","2239","html-keyboard-response","437","1439600","0.0-3.0-1.361","<span style=""font-size:30px; font-family: monospace"">preocupação</span>"," ","","exp-sent","preocupação","","",""
"","1485","html-keyboard-response","438","1441343","0.0-3.0-1.362","<span style=""font-size:30px; font-family: monospace"">é</span>"," ","","exp-sent","é","","",""
"","1283","html-keyboard-response","439","1442891","0.0-3.0-1.363","<span style=""font-size:30px; font-family: monospace"">um</span>"," ","","exp-sent","um","","",""
"","2176","html-keyboard-response","440","1445329","0.0-3.0-1.364","<span style=""font-size:30px; font-family: monospace"">descanso</span>"," ","","exp-sent","descanso","","",""
"","1579","html-keyboard-response","441","1447169","0.0-3.0-1.365","<span style=""font-size:30px; font-family: monospace"">tranquilo.</span>"," ","","exp-sent","tranquilo.","","",""
"","null","html-keyboard-response","442","1448434","0.0-3.0-0.366-0.366","<span style= ""font-size:30px; font-family: monospace"">+</span>","null","fixation","","","","",""
"","1667","html-keyboard-response","443","1450365","0.0-3.0-1.366","<span style=""font-size:30px; font-family: monospace"">A</span>"," ","","exp-sent","A","","",""
"","2920","html-keyboard-response","444","1453548","0.0-3.0-1.367","<span style=""font-size:30px; font-family: monospace"">criança</span>"," ","","exp-sent","criança","","",""
"","1331","html-keyboard-response","445","1455141","0.0-3.0-1.368","<span style=""font-size:30px; font-family: monospace"">ganhou</span>"," ","","exp-sent","ganhou","","",""
"","1689","html-keyboard-response","446","1457093","0.0-3.0-1.369","<span style=""font-size:30px; font-family: monospace"">um</span>"," ","","exp-sent","um","","",""
"","2500","html-keyboard-response","447","1459856","0.0-3.0-1.370","<span style=""font-size:30px; font-family: monospace"">presente</span>"," ","","exp-sent","presente","","",""
"","2655","html-keyboard-response","448","1462775","0.0-3.0-1.371","<span style=""font-size:30px; font-family: monospace"">maravilhoso.</span>"," ","","exp-sent","maravilhoso.","","",""
"","null","html-keyboard-response","449","1464034","0.0-3.0-0.372-0.372","<span style= ""font-size:30px; font-family: monospace"">+</span>","null","fixation","","","","",""
"","1210","html-keyboard-response","450","1465501","0.0-3.0-1.372","<span style=""font-size:30px; font-family: monospace"">Os</span>"," ","","exp-sent","Os","","",""
"","1980","html-keyboard-response","451","1467736","0.0-3.0-1.373","<span style=""font-size:30px; font-family: monospace"">bichos</span>"," ","","exp-sent","bichos","","",""
"","1759","html-keyboard-response","452","1469747","0.0-3.0-1.374","<span style=""font-size:30px; font-family: monospace"">têm</span>"," ","","exp-sent","têm","","",""
"","1811","html-keyboard-response","453","1471811","0.0-3.0-1.375","<span style=""font-size:30px; font-family: monospace"">um</span>"," ","","exp-sent","um","","",""
"","3989","html-keyboard-response","454","1476052","0.0-3.0-1.376","<span style=""font-size:30px; font-family: monospace"">instinto</span>"," ","","exp-sent","instinto","","",""
"","3129","html-keyboard-response","455","1479436","0.0-3.0-1.377","<span style=""font-size:30px; font-family: monospace"">de</span>"," ","","exp-sent","de","","",""
"","2631","html-keyboard-response","456","1482327","0.0-3.0-1.378","<span style=""font-size:30px; font-family: monospace"">sobrevivência</span>"," ","","exp-sent","sobrevivência","","",""
"","3343","html-keyboard-response","457","1485925","0.0-3.0-1.379","<span style=""font-size:30px; font-family: monospace"">forte.</span>"," ","","exp-sent","forte.","","",""
"","null","html-keyboard-response","458","1487184","0.0-3.0-0.380-0.380","<span style= ""font-size:30px; font-family: monospace"">+</span>","null","fixation","","","","",""
"","1698","html-keyboard-response","459","1489134","0.0-3.0-1.380","<span style=""font-size:30px; font-family: monospace"">Aquele</span>"," ","","exp-sent","Aquele","","",""
"","1968","html-keyboard-response","460","1491357","0.0-3.0-1.381","<span style=""font-size:30px; font-family: monospace"">menino</span>"," ","","exp-sent","menino","","",""
"","2607","html-keyboard-response","461","1494221","0.0-3.0-1.382","<span style=""font-size:30px; font-family: monospace"">alto</span>"," ","","exp-sent","alto","","",""
"","1703","html-keyboard-response","462","1496178","0.0-3.0-1.383","<span style=""font-size:30px; font-family: monospace"">é</span>"," ","","exp-sent","é","","",""
"","2631","html-keyboard-response","463","1499069","0.0-3.0-1.384","<span style=""font-size:30px; font-family: monospace"">exibido</span>"," ","","exp-sent","exibido","","",""
"","1659","html-keyboard-response","464","1500983","0.0-3.0-1.385","<span style=""font-size:30px; font-family: monospace"">e</span>"," ","","exp-sent","e","","",""
"","2080","html-keyboard-response","465","1503317","0.0-3.0-1.386","<span style=""font-size:30px; font-family: monospace"">sovina.</span>"," ","","comp","sovina.","","",""
"","17517","html-keyboard-response","466","1521096","0.0-3.0-2.386-0.386","<span style=""font-size:30px; font-family: monospace"">Aquele menino é humilde?</span>","n","","comp","","Aquele menino é humilde?","não","false"
"","null","html-keyboard-response","467","1522607","0.0-3.0-0.387-0.387","<span style= ""font-size:30px; font-family: monospace"">+</span>","null","fixation","","","","",""
"","1187","html-keyboard-response","468","1524055","0.0-3.0-1.387","<span style=""font-size:30px; font-family: monospace"">Ele</span>"," ","","exp-sent","Ele","","",""
"","1844","html-keyboard-response","469","1526161","0.0-3.0-1.388","<span style=""font-size:30px; font-family: monospace"">é</span>"," ","","exp-sent","é","","",""
"","1590","html-keyboard-response","470","1528010","0.0-3.0-1.389","<span style=""font-size:30px; font-family: monospace"">um</span>"," ","","exp-sent","um","","",""
"","1424","html-keyboard-response","471","1529691","0.0-3.0-1.390","<span style=""font-size:30px; font-family: monospace"">pai</span>"," ","","exp-sent","pai","","",""
"","2490","html-keyboard-response","472","1532438","0.0-3.0-1.391","<span style=""font-size:30px; font-family: monospace"">ausente</span>"," ","","exp-sent","ausente","","",""
"","1415","html-keyboard-response","473","1534109","0.0-3.0-1.392","<span style=""font-size:30px; font-family: monospace"">e</span>"," ","","exp-sent","e","","",""
"","1431","html-keyboard-response","474","1535799","0.0-3.0-1.393","<span style=""font-size:30px; font-family: monospace"">muito</span>"," ","","exp-sent","muito","","",""
"","2635","html-keyboard-response","475","1538691","0.0-3.0-1.394","<span style=""font-size:30px; font-family: monospace"">fofoqueiro.</span>"," ","","exp-sent","fofoqueiro.","","",""
"","null","html-keyboard-response","476","1539948","0.0-3.0-0.395-0.395","<span style= ""font-size:30px; font-family: monospace"">+</span>","null","fixation","","","","",""
"","1271","html-keyboard-response","477","1541483","0.0-3.0-1.395","<span style=""font-size:30px; font-family: monospace"">O</span>"," ","","exp-sent","O","","",""
"","2372","html-keyboard-response","478","1544114","0.0-3.0-1.396","<span style=""font-size:30px; font-family: monospace"">filho</span>"," ","","exp-sent","filho","","",""
"","2467","html-keyboard-response","479","1546839","0.0-3.0-1.397","<span style=""font-size:30px; font-family: monospace"">lavou</span>"," ","","exp-sent","lavou","","",""
"","1822","html-keyboard-response","480","1548924","0.0-3.0-1.398","<span style=""font-size:30px; font-family: monospace"">a</span>"," ","","exp-sent","a","","",""
"","2781","html-keyboard-response","481","1551963","0.0-3.0-1.399","<span style=""font-size:30px; font-family: monospace"">roupa</span>"," ","","exp-sent","roupa","","",""
"","1588","html-keyboard-response","482","1553805","0.0-3.0-1.400","<span style=""font-size:30px; font-family: monospace"">sem</span>"," ","","exp-sent","sem","","",""
"","1404","html-keyboard-response","483","1555467","0.0-3.0-1.401","<span style=""font-size:30px; font-family: monospace"">nenhuma</span>"," ","","exp-sent","nenhuma","","",""
"","1861","html-keyboard-response","484","1557588","0.0-3.0-1.402","<span style=""font-size:30px; font-family: monospace"">ajuda.</span>"," ","","exp-sent","ajuda.","","",""
"","null","html-keyboard-response","485","1558854","0.0-3.0-0.403-0.403","<span style= ""font-size:30px; font-family: monospace"">+</span>","null","fixation","","","","",""
"","882","html-keyboard-response","486","1560000","0.0-3.0-1.403","<span style=""font-size:30px; font-family: monospace"">O</span>"," ","","exp-sent","O","","",""
"","1274","html-keyboard-response","487","1561529","0.0-3.0-1.404","<span style=""font-size:30px; font-family: monospace"">menino</span>"," ","","exp-sent","menino","","",""
"","1602","html-keyboard-response","488","1563388","0.0-3.0-1.405","<span style=""font-size:30px; font-family: monospace"">quebrou</span>"," ","","exp-sent","quebrou","","",""
"","4763","html-keyboard-response","489","1568405","0.0-3.0-1.406","<span style=""font-size:30px; font-family: monospace"">a</span>"," ","","exp-sent","a","","",""
"","1866","html-keyboard-response","490","1570526","0.0-3.0-1.407","<span style=""font-size:30px; font-family: monospace"">perna</span>"," ","","exp-sent","perna","","",""
"","3028","html-keyboard-response","491","1573811","0.0-3.0-1.408","<span style=""font-size:30px; font-family: monospace"">nos</span>"," ","","exp-sent","nos","","",""
"","2235","html-keyboard-response","492","1576303","0.0-3.0-1.409","<span style=""font-size:30px; font-family: monospace"">esportes.</span>"," ","","exp-sent","esportes.","","",""
"","null","html-keyboard-response","493","1577570","0.0-3.0-0.410-0.410","<span style= ""font-size:30px; font-family: monospace"">+</span>","null","fixation","","","","",""
"","1012","html-keyboard-response","494","1578841","0.0-3.0-1.410","<span style=""font-size:30px; font-family: monospace"">Ela</span>"," ","","exp-sent","Ela","","",""
"","2459","html-keyboard-response","495","1581564","0.0-3.0-1.411","<span style=""font-size:30px; font-family: monospace"">brincou</span>"," ","","exp-sent","brincou","","",""
"","1663","html-keyboard-response","496","1583488","0.0-3.0-1.412","<span style=""font-size:30px; font-family: monospace"">com</span>"," ","","exp-sent","com","","",""
"","3400","html-keyboard-response","497","1587149","0.0-3.0-1.413","<span style=""font-size:30px; font-family: monospace"">uma</span>"," ","","exp-sent","uma","","",""
"","3636","html-keyboard-response","498","1591043","0.0-3.0-1.414","<span style=""font-size:30px; font-family: monospace"">menina</span>"," ","","exp-sent","menina","","",""
"","1356","html-keyboard-response","499","1592661","0.0-3.0-1.415","<span style=""font-size:30px; font-family: monospace"">da</span>"," ","","exp-sent","da","","",""
"","1768","html-keyboard-response","500","1594688","0.0-3.0-1.416","<span style=""font-size:30px; font-family: monospace"">turma.</span>"," ","","exp-sent","turma.","","",""
"","null","html-keyboard-response","501","1595952","0.0-3.0-0.417-0.417","<span style= ""font-size:30px; font-family: monospace"">+</span>","null","fixation","","","","",""
"","1135","html-keyboard-response","502","1597350","0.0-3.0-1.417","<span style=""font-size:30px; font-family: monospace"">Ele</span>"," ","","exp-sent","Ele","","",""
"","2262","html-keyboard-response","503","1599875","0.0-3.0-1.418","<span style=""font-size:30px; font-family: monospace"">esteve</span>"," ","","exp-sent","esteve","","",""
"","1597","html-keyboard-response","504","1601730","0.0-3.0-1.419","<span style=""font-size:30px; font-family: monospace"">no</span>"," ","","exp-sent","no","","",""
"","3177","html-keyboard-response","505","1605167","0.0-3.0-1.420","<span style=""font-size:30px; font-family: monospace"">escritório</span>"," ","","exp-sent","escritório","","",""
"","4529","html-keyboard-response","506","1609954","0.0-3.0-1.421","<span style=""font-size:30px; font-family: monospace"">o</span>"," ","","exp-sent","o","","",""
"","3937","html-keyboard-response","507","1614150","0.0-3.0-1.422","<span style=""font-size:30px; font-family: monospace"">dia</span>"," ","","exp-sent","dia","","",""
"","1690","html-keyboard-response","508","1616102","0.0-3.0-1.423","<span style=""font-size:30px; font-family: monospace"">inteiro.</span>"," ","","comp","inteiro.","","",""
"","11522","html-keyboard-response","509","1627881","0.0-3.0-2.423-0.423","<span style=""font-size:30px; font-family: monospace"">Ele esteve no parque o dia inteiro?</span>","n","","comp","","Ele esteve no parque o dia inteiro?","não","false"
"","null","html-keyboard-response","510","1629399","0.0-3.0-0.424-0.424","<span style= ""font-size:30px; font-family: monospace"">+</span>","null","fixation","","","","",""
"","1738","html-keyboard-response","511","1631395","0.0-3.0-1.424","<span style=""font-size:30px; font-family: monospace"">Ganhamos</span>"," ","","exp-sent","Ganhamos","","",""
"","7503","html-keyboard-response","512","1639156","0.0-3.0-1.425","<span style=""font-size:30px; font-family: monospace"">passagem</span>"," ","","exp-sent","passagem","","",""
"","956","html-keyboard-response","513","1640377","0.0-3.0-1.426","<span style=""font-size:30px; font-family: monospace"">para</span>"," ","","exp-sent","para","","",""
"","1191","html-keyboard-response","514","1641825","0.0-3.0-1.427","<span style=""font-size:30px; font-family: monospace"">uma</span>"," ","","exp-sent","uma","","",""
"","2911","html-keyboard-response","515","1645000","0.0-3.0-1.428","<span style=""font-size:30px; font-family: monospace"">viagem</span>"," ","","exp-sent","viagem","","",""
"","1674","html-keyboard-response","516","1646926","0.0-3.0-1.429","<span style=""font-size:30px; font-family: monospace"">de</span>"," ","","exp-sent","de","","",""
"","6885","html-keyboard-response","517","1654065","0.0-3.0-1.430","<span style=""font-size:30px; font-family: monospace"">férias.</span>"," ","","exp-sent","férias.","","",""
"","null","html-keyboard-response","518","1655330","0.0-3.0-0.431-0.431","<span style= ""font-size:30px; font-family: monospace"">+</span>","null","fixation","","","","",""
"","2586","html-keyboard-response","519","1658171","0.0-3.0-1.431","<span style=""font-size:30px; font-family: monospace"">Caiu</span>"," ","","exp-sent","Caiu","","",""
"","1486","html-keyboard-response","520","1659912","0.0-3.0-1.432","<span style=""font-size:30px; font-family: monospace"">algo</span>"," ","","exp-sent","algo","","",""
"","1240","html-keyboard-response","521","1661412","0.0-3.0-1.433","<span style=""font-size:30px; font-family: monospace"">no</span>"," ","","exp-sent","no","","",""
"","1194","html-keyboard-response","522","1662863","0.0-3.0-1.434","<span style=""font-size:30px; font-family: monospace"">meu</span>"," ","","exp-sent","meu","","",""
"","2893","html-keyboard-response","523","1666010","0.0-3.0-1.435","<span style=""font-size:30px; font-family: monospace"">olho</span>"," ","","exp-sent","olho","","",""
"","1321","html-keyboard-response","524","1667584","0.0-3.0-1.436","<span style=""font-size:30px; font-family: monospace"">ontem</span>"," ","","exp-sent","ontem","","",""
"","1454","html-keyboard-response","525","1669298","0.0-3.0-1.437","<span style=""font-size:30px; font-family: monospace"">de</span>"," ","","exp-sent","de","","",""
"","1574","html-keyboard-response","526","1671132","0.0-3.0-1.438","<span style=""font-size:30px; font-family: monospace"">tarde.</span>"," ","","exp-sent","tarde.","","",""
"","null","html-keyboard-response","527","1672393","0.0-3.0-0.439-0.439","<span style= ""font-size:30px; font-family: monospace"">+</span>","null","fixation","","","","",""
"","890","html-keyboard-response","528","1673535","0.0-3.0-1.439","<span style=""font-size:30px; font-family: monospace"">Não</span>"," ","","exp-sent","Não","","",""
"","2392","html-keyboard-response","529","1676183","0.0-3.0-1.440","<span style=""font-size:30px; font-family: monospace"">havia</span>"," ","","exp-sent","havia","","",""
"","2191","html-keyboard-response","530","1678629","0.0-3.0-1.441","<span style=""font-size:30px; font-family: monospace"">mais</span>"," ","","exp-sent","mais","","",""
"","1993","html-keyboard-response","531","1680877","0.0-3.0-1.442","<span style=""font-size:30px; font-family: monospace"">nenhum</span>"," ","","exp-sent","nenhum","","",""
"","1838","html-keyboard-response","532","1682969","0.0-3.0-1.443","<span style=""font-size:30px; font-family: monospace"">ingresso</span>"," ","","exp-sent","ingresso","","",""
"","1625","html-keyboard-response","533","1684847","0.0-3.0-1.444","<span style=""font-size:30px; font-family: monospace"">para</span>"," ","","exp-sent","para","","",""
"","1838","html-keyboard-response","534","1686942","0.0-3.0-1.445","<span style=""font-size:30px; font-family: monospace"">o</span>"," ","","exp-sent","o","","",""
"","1642","html-keyboard-response","535","1688843","0.0-3.0-1.446","<span style=""font-size:30px; font-family: monospace"">evento.</span>"," ","","exp-sent","evento.","","",""
"","null","html-keyboard-response","536","1690100","0.0-3.0-0.447-0.447","<span style= ""font-size:30px; font-family: monospace"">+</span>","null","fixation","","","","",""
"","675","html-keyboard-response","537","1691038","0.0-3.0-1.447","<span style=""font-size:30px; font-family: monospace"">A</span>"," ","","exp-sent","A","","",""
"","2197","html-keyboard-response","538","1693490","0.0-3.0-1.448","<span style=""font-size:30px; font-family: monospace"">médica</span>"," ","","exp-sent","médica","","",""
"","1654","html-keyboard-response","539","1695400","0.0-3.0-1.449","<span style=""font-size:30px; font-family: monospace"">descobriu</span>"," ","","exp-sent","descobriu","","",""
"","1849","html-keyboard-response","540","1697502","0.0-3.0-1.450","<span style=""font-size:30px; font-family: monospace"">uma</span>"," ","","exp-sent","uma","","",""
"","2615","html-keyboard-response","541","1700372","0.0-3.0-1.451","<span style=""font-size:30px; font-family: monospace"">cura</span>"," ","","exp-sent","cura","","",""
"","1615","html-keyboard-response","542","1702244","0.0-3.0-1.452","<span style=""font-size:30px; font-family: monospace"">para</span>"," ","","exp-sent","para","","",""
"","3176","html-keyboard-response","543","1705674","0.0-3.0-1.453","<span style=""font-size:30px; font-family: monospace"">a</span>"," ","","exp-sent","a","","",""
"","2449","html-keyboard-response","544","1708376","0.0-3.0-1.454","<span style=""font-size:30px; font-family: monospace"">doença.</span>"," ","","exp-sent","doença.","","",""
"","null","html-keyboard-response","545","1709636","0.0-3.0-0.455-0.455","<span style= ""font-size:30px; font-family: monospace"">+</span>","null","fixation","","","","",""
"","3513","html-keyboard-response","546","1713411","0.0-3.0-1.455","<span style=""font-size:30px; font-family: monospace"">O</span>"," ","","exp-sent","O","","",""
"","2105","html-keyboard-response","547","1715770","0.0-3.0-1.456","<span style=""font-size:30px; font-family: monospace"">menino</span>"," ","","exp-sent","menino","","",""
"","1779","html-keyboard-response","548","1717807","0.0-3.0-1.457","<span style=""font-size:30px; font-family: monospace"">riscou</span>"," ","","exp-sent","riscou","","",""
"","1486","html-keyboard-response","549","1719556","0.0-3.0-1.458","<span style=""font-size:30px; font-family: monospace"">o</span>"," ","","exp-sent","o","","",""
"","2326","html-keyboard-response","550","1722142","0.0-3.0-1.459","<span style=""font-size:30px; font-family: monospace"">caderno</span>"," ","","exp-sent","caderno","","",""
"","1144","html-keyboard-response","551","1723542","0.0-3.0-1.460","<span style=""font-size:30px; font-family: monospace"">com</span>"," ","","exp-sent","com","","",""
"","1407","html-keyboard-response","552","1725207","0.0-3.0-1.461","<span style=""font-size:30px; font-family: monospace"">a</span>"," ","","exp-sent","a","","",""
"","1818","html-keyboard-response","553","1727282","0.0-3.0-1.462","<span style=""font-size:30px; font-family: monospace"">caneta.</span>"," ","","comp","caneta.","","",""
"","18682","html-keyboard-response","554","1746217","0.0-3.0-2.462-0.462","<span style=""font-size:30px; font-family: monospace"">O menino riscou a parede com a caneta?</span>","n","","comp","","O menino riscou a parede com a caneta?","não","false"
"","null","html-keyboard-response","555","1747728","0.0-3.0-0.463-0.463","<span style= ""font-size:30px; font-family: monospace"">+</span>","null","fixation","","","","",""
"","1695","html-keyboard-response","556","1749675","0.0-3.0-1.463","<span style=""font-size:30px; font-family: monospace"">O</span>"," ","","exp-sent","O","","",""
"","2281","html-keyboard-response","557","1752218","0.0-3.0-1.464","<span style=""font-size:30px; font-family: monospace"">travesseiro</span>"," ","","exp-sent","travesseiro","","",""
"","1589","html-keyboard-response","558","1754061","0.0-3.0-1.465","<span style=""font-size:30px; font-family: monospace"">era</span>"," ","","exp-sent","era","","",""
"","1175","html-keyboard-response","559","1755495","0.0-3.0-1.466","<span style=""font-size:30px; font-family: monospace"">muito</span>"," ","","exp-sent","muito","","",""
"","2370","html-keyboard-response","560","1758122","0.0-3.0-1.467","<span style=""font-size:30px; font-family: monospace"">macio</span>"," ","","exp-sent","macio","","",""
"","4183","html-keyboard-response","561","1762570","0.0-3.0-1.468","<span style=""font-size:30px; font-family: monospace"">e</span>"," ","","exp-sent","e","","",""
"","4473","html-keyboard-response","562","1767296","0.0-3.0-1.469","<span style=""font-size:30px; font-family: monospace"">confortável.</span>"," ","","exp-sent","confortável.","","",""
"","null","html-keyboard-response","563","1768563","0.0-3.0-0.470-0.470","<span style= ""font-size:30px; font-family: monospace"">+</span>","null","fixation","","","","",""
"","590","html-keyboard-response","564","1769411","0.0-3.0-1.470","<span style=""font-size:30px; font-family: monospace"">Hoje</span>"," ","","exp-sent","Hoje","","",""
"","1802","html-keyboard-response","565","1771469","0.0-3.0-1.471","<span style=""font-size:30px; font-family: monospace"">a</span>"," ","","exp-sent","a","","",""
"","2317","html-keyboard-response","566","1774046","0.0-3.0-1.472","<span style=""font-size:30px; font-family: monospace"">atendente</span>"," ","","exp-sent","atendente","","",""
"","2040","html-keyboard-response","567","1776346","0.0-3.0-1.473","<span style=""font-size:30px; font-family: monospace"">estava</span>"," ","","exp-sent","estava","","",""
"","3214","html-keyboard-response","568","1779819","0.0-3.0-1.474","<span style=""font-size:30px; font-family: monospace"">furiosa</span>"," ","","exp-sent","furiosa","","",""
"","3096","html-keyboard-response","569","1783171","0.0-3.0-1.475","<span style=""font-size:30px; font-family: monospace"">com</span>"," ","","exp-sent","com","","",""
"","3184","html-keyboard-response","570","1786615","0.0-3.0-1.476","<span style=""font-size:30px; font-family: monospace"">o</span>"," ","","exp-sent","o","","",""
"","1523","html-keyboard-response","571","1788399","0.0-3.0-1.477","<span style=""font-size:30px; font-family: monospace"">cliente.</span>"," ","","exp-sent","cliente.","","",""
"","null","html-keyboard-response","572","1789659","0.0-3.0-0.478-0.478","<span style= ""font-size:30px; font-family: monospace"">+</span>","null","fixation","","","","",""
"","981","html-keyboard-response","573","1790902","0.0-3.0-1.478","<span style=""font-size:30px; font-family: monospace"">O</span>"," ","","exp-sent","O","","",""
"","1206","html-keyboard-response","574","1792366","0.0-3.0-1.479","<span style=""font-size:30px; font-family: monospace"">vizinho</span>"," ","","exp-sent","vizinho","","",""
"","1322","html-keyboard-response","575","1793946","0.0-3.0-1.480","<span style=""font-size:30px; font-family: monospace"">é</span>"," ","","exp-sent","é","","",""
"","1045","html-keyboard-response","576","1795250","0.0-3.0-1.481","<span style=""font-size:30px; font-family: monospace"">um</span>"," ","","exp-sent","um","","",""
"","2039","html-keyboard-response","577","1797553","0.0-3.0-1.482","<span style=""font-size:30px; font-family: monospace"">arquiteto</span>"," ","","exp-sent","arquiteto","","",""
"","1450","html-keyboard-response","578","1799260","0.0-3.0-1.483","<span style=""font-size:30px; font-family: monospace"">muito</span>"," ","","exp-sent","muito","","",""
"","2064","html-keyboard-response","579","1801589","0.0-3.0-1.484","<span style=""font-size:30px; font-family: monospace"">excêntrico.</span>"," ","","exp-sent","excêntrico.","","",""
"","null","html-keyboard-response","580","1802856","0.0-3.0-0.485-0.485","<span style= ""font-size:30px; font-family: monospace"">+</span>","null","fixation","","","","",""
