"view_history","rt","trial_type","trial_index","time_elapsed","internal_node_id","stimulus","response","class","status","answer","correct","trial","letters"
"[{""page_index"":0,""viewing_time"":90644}]","90648","instructions","0","90650","0.0-0.0","","","","","","","",""
"","null","html-keyboard-response","1","91265","0.0-1.0-0.0","+","null","","","","","",""
"","4043","html-keyboard-response","2","95312","0.0-1.0-1.0","daja","n","null","noncog","pseudo","N","prac","null"
"","null","html-keyboard-response","3","95820","0.0-1.0-0.1","+","null","","","","","",""
"","5652","html-keyboard-response","4","101474","0.0-1.0-1.1","órgão","s","null","noncog","word","S","prac","null"
"","null","html-keyboard-response","5","101983","0.0-1.0-0.2","+","null","","","","","",""
"","2445","html-keyboard-response","6","104430","0.0-1.0-1.2","plibar","n","null","noncog","pseudo","N","prac","null"
"","null","html-keyboard-response","7","104940","0.0-1.0-0.3","+","null","","","","","",""
"","2411","html-keyboard-response","8","107354","0.0-1.0-1.3","crante","n","null","noncog","pseudo","N","prac","null"
"","null","html-keyboard-response","9","107858","0.0-1.0-0.4","+","null","","","","","",""
"","3872","html-keyboard-response","10","111732","0.0-1.0-1.4","calmaria","s","null","noncog","word","S","prac","null"
"","null","html-keyboard-response","11","112245","0.0-1.0-0.5","+","null","","","","","",""
"","3677","html-keyboard-response","12","115924","0.0-1.0-1.5","oliva","s","null","cog","word","S","prac","null"
"","null","html-keyboard-response","13","116429","0.0-1.0-0.6","+","null","","","","","",""
"","3464","html-keyboard-response","14","119895","0.0-1.0-1.6","chassi","n","null","cog","word","S","prac","null"
"[{""page_index"":0,""viewing_time"":26674}]","26676","instructions","15","146575","0.0-2.0","","","","","","","",""
"","null","html-keyboard-response","16","147187","0.0-3.0-0.0","+","null","","","","","",""
"","2173","html-keyboard-response","17","149363","0.0-3.0-1.0","dipata","s","null","noncog","pseudo","N","exp","null"
"","null","html-keyboard-response","18","149867","0.0-3.0-0.1","+","null","","","","","",""
"","1912","html-keyboard-response","19","151781","0.0-3.0-1.1","salpicado","n","a","noncog","word","S","exp","9"
"","null","html-keyboard-response","20","152290","0.0-3.0-0.2","+","null","","","","","",""
"","1313","html-keyboard-response","21","153607","0.0-3.0-1.2","papai","s","n","cog","word","S","exp","5"
"","null","html-keyboard-response","22","154111","0.0-3.0-0.3","+","null","","","","","",""
"","2012","html-keyboard-response","23","156126","0.0-3.0-1.3","sintonizar","s","v","noncog","word","S","exp","10"
"","null","html-keyboard-response","24","156635","0.0-3.0-0.4","+","null","","","","","",""
"","2191","html-keyboard-response","25","158830","0.0-3.0-1.4","rédesa","n","null","noncog","pseudo","N","exp","null"
"","null","html-keyboard-response","26","159336","0.0-3.0-0.5","+","null","","","","","",""
"","1198","html-keyboard-response","27","160538","0.0-3.0-1.5","esperar","s","v","cog","word","S","exp","7"
"","null","html-keyboard-response","28","161046","0.0-3.0-0.6","+","null","","","","","",""
"","1393","html-keyboard-response","29","162442","0.0-3.0-1.6","chato","s","n","noncog","word","S","exp","5"
"","null","html-keyboard-response","30","162948","0.0-3.0-0.7","+","null","","","","","",""
"","1778","html-keyboard-response","31","164730","0.0-3.0-1.7","enxarto","s","null","noncog","pseudo","N","exp","null"
"","null","html-keyboard-response","32","165238","0.0-3.0-0.8","+","null","","","","","",""
"","1621","html-keyboard-response","33","166863","0.0-3.0-1.8","revear","s","null","noncog","pseudo","N","exp","null"
"","null","html-keyboard-response","34","167368","0.0-3.0-0.9","+","null","","","","","",""
"","1951","html-keyboard-response","35","169323","0.0-3.0-1.9","ronronar","n","v","cog","word","S","exp","8"
"","null","html-keyboard-response","36","169831","0.0-3.0-0.10","+","null","","","","","",""
"","1108","html-keyboard-response","37","170943","0.0-3.0-1.10","viver","s","v","cog","word","S","exp","5"
"","null","html-keyboard-response","38","171452","0.0-3.0-0.11","+","null","","","","","",""
"","1123","html-keyboard-response","39","172579","0.0-3.0-1.11","atrasar","s","v","noncog","word","S","exp","7"
"","null","html-keyboard-response","40","173083","0.0-3.0-0.12","+","null","","","","","",""
"","1587","html-keyboard-response","41","174674","0.0-3.0-1.12","costra","s","null","noncog","pseudo","N","exp","null"
"","null","html-keyboard-response","42","175180","0.0-3.0-0.13","+","null","","","","","",""
"","1405","html-keyboard-response","43","176589","0.0-3.0-1.13","árovre","s","null","noncog","pseudo","N","exp","null"
"","null","html-keyboard-response","44","177094","0.0-3.0-0.14","+","null","","","","","",""
"","1461","html-keyboard-response","45","178559","0.0-3.0-1.14","delirar","s","v","noncog","word","S","exp","7"
"","null","html-keyboard-response","46","179068","0.0-3.0-0.15","+","null","","","","","",""
"","1134","html-keyboard-response","47","180206","0.0-3.0-1.15","civil","s","a","cog","word","S","exp","5"
"","null","html-keyboard-response","48","180716","0.0-3.0-0.16","+","null","","","","","",""
"","2073","html-keyboard-response","49","182792","0.0-3.0-1.16","crolatário","s","null","noncog","pseudo","N","exp","null"
"","null","html-keyboard-response","50","183301","0.0-3.0-0.17","+","null","","","","","",""
"","1278","html-keyboard-response","51","184583","0.0-3.0-1.17","revista","s","n","cog","word","S","exp","7"
"","null","html-keyboard-response","52","185093","0.0-3.0-0.18","+","null","","","","","",""
"","1509","html-keyboard-response","53","186606","0.0-3.0-1.18","selir","s","null","noncog","pseudo","N","exp","null"
"","null","html-keyboard-response","54","187113","0.0-3.0-0.19","+","null","","","","","",""
"","1494","html-keyboard-response","55","188611","0.0-3.0-1.19","gilha","s","null","noncog","pseudo","N","exp","null"
"","null","html-keyboard-response","56","189116","0.0-3.0-0.20","+","null","","","","","",""
"","2018","html-keyboard-response","57","191139","0.0-3.0-1.20","aletiê","n","null","noncog","pseudo","N","exp","null"
"","null","html-keyboard-response","58","191646","0.0-3.0-0.21","+","null","","","","","",""
"","1260","html-keyboard-response","59","192910","0.0-3.0-1.21","alfabeto","s","n","cog","word","S","exp","8"
"","null","html-keyboard-response","60","193416","0.0-3.0-0.22","+","null","","","","","",""
"","1394","html-keyboard-response","61","194815","0.0-3.0-1.22","cápsula","s","n","noncog","word","S","exp","7"
"","null","html-keyboard-response","62","195324","0.0-3.0-0.23","+","null","","","","","",""
"","1330","html-keyboard-response","63","196658","0.0-3.0-1.23","motros","s","null","noncog","pseudo","N","exp","null"
"","null","html-keyboard-response","64","197173","0.0-3.0-0.24","+","null","","","","","",""
"","1826","html-keyboard-response","65","199003","0.0-3.0-1.24","macras","s","null","noncog","pseudo","N","exp","null"
"","null","html-keyboard-response","66","199507","0.0-3.0-0.25","+","null","","","","","",""
"","1132","html-keyboard-response","67","200641","0.0-3.0-1.25","mudança","s","n","noncog","word","S","exp","7"
"","null","html-keyboard-response","68","201148","0.0-3.0-0.26","+","null","","","","","",""
"","813","html-keyboard-response","69","201962","0.0-3.0-1.26","tio","s","n","noncog","word","S","exp","3"
"","null","html-keyboard-response","70","202468","0.0-3.0-0.27","+","null","","","","","",""
"","1878","html-keyboard-response","71","204347","0.0-3.0-1.27","bancada","s","n","noncog","word","S","exp","7"
"","null","html-keyboard-response","72","204850","0.0-3.0-0.28","+","null","","","","","",""
"","1454","html-keyboard-response","73","206305","0.0-3.0-1.28","carregar","s","v","noncog","word","S","exp","8"
"","null","html-keyboard-response","74","206812","0.0-3.0-0.29","+","null","","","","","",""
"","1065","html-keyboard-response","75","207878","0.0-3.0-1.29","nervoso","s","a","noncog","word","S","exp","7"
"","null","html-keyboard-response","76","208388","0.0-3.0-0.30","+","null","","","","","",""
"","1709","html-keyboard-response","77","210099","0.0-3.0-1.30","manais","n","null","noncog","pseudo","N","exp","null"
"","null","html-keyboard-response","78","210606","0.0-3.0-0.31","+","null","","","","","",""
"","1765","html-keyboard-response","79","212373","0.0-3.0-1.31","pulmão","s","n","noncog","word","S","exp","6"
"","null","html-keyboard-response","80","212881","0.0-3.0-0.32","+","null","","","","","",""
"","1290","html-keyboard-response","81","214173","0.0-3.0-1.32","fino","s","a","cog","word","S","exp","4"
"","null","html-keyboard-response","82","214677","0.0-3.0-0.33","+","null","","","","","",""
"","1586","html-keyboard-response","83","216265","0.0-3.0-1.33","sábio","s","n","noncog","word","S","exp","5"
"","null","html-keyboard-response","84","216774","0.0-3.0-0.34","+","null","","","","","",""
"","1596","html-keyboard-response","85","218372","0.0-3.0-1.34","esprotiar","s","null","noncog","pseudo","N","exp","null"
"","null","html-keyboard-response","86","218878","0.0-3.0-0.35","+","null","","","","","",""
"","1194","html-keyboard-response","87","220074","0.0-3.0-1.35","drama","s","n","cog","word","S","exp","5"
"","null","html-keyboard-response","88","220586","0.0-3.0-0.36","+","null","","","","","",""
"","1204","html-keyboard-response","89","221793","0.0-3.0-1.36","chorão","s","a","noncog","word","S","exp","6"
"","null","html-keyboard-response","90","222300","0.0-3.0-0.37","+","null","","","","","",""
"","889","html-keyboard-response","91","223191","0.0-3.0-1.37","tinta","s","n","cog","word","S","exp","5"
"","null","html-keyboard-response","92","223697","0.0-3.0-0.38","+","null","","","","","",""
"","1025","html-keyboard-response","93","224724","0.0-3.0-1.38","pimada","s","null","noncog","pseudo","N","exp","null"
"","null","html-keyboard-response","94","225230","0.0-3.0-0.39","+","null","","","","","",""
"","898","html-keyboard-response","95","226130","0.0-3.0-1.39","espaço","s","n","cog","word","S","exp","6"
"","null","html-keyboard-response","96","226633","0.0-3.0-0.40","+","null","","","","","",""
"","1511","html-keyboard-response","97","228146","0.0-3.0-1.40","cascata","s","n","noncog","word","S","exp","7"
"","null","html-keyboard-response","98","228657","0.0-3.0-0.41","+","null","","","","","",""
"","1257","html-keyboard-response","99","229916","0.0-3.0-1.41","farcas","s","null","noncog","pseudo","N","exp","null"
"","null","html-keyboard-response","100","230422","0.0-3.0-0.42","+","null","","","","","",""
"","1694","html-keyboard-response","101","232119","0.0-3.0-1.42","pega-pega","s","n","noncog","word","S","exp","8"
"","null","html-keyboard-response","102","232624","0.0-3.0-0.43","+","null","","","","","",""
"","1489","html-keyboard-response","103","234116","0.0-3.0-1.43","dilheira","n","null","noncog","pseudo","N","exp","null"
"","null","html-keyboard-response","104","234621","0.0-3.0-0.44","+","null","","","","","",""
"","1690","html-keyboard-response","105","236313","0.0-3.0-1.44","cenada","s","null","noncog","pseudo","N","exp","null"
"","null","html-keyboard-response","106","236818","0.0-3.0-0.45","+","null","","","","","",""
"","1506","html-keyboard-response","107","238326","0.0-3.0-1.45","convidado","s","n","noncog","word","S","exp","9"
"","null","html-keyboard-response","108","238832","0.0-3.0-0.46","+","null","","","","","",""
"","1169","html-keyboard-response","109","240003","0.0-3.0-1.46","ofreta","s","null","noncog","pseudo","N","exp","null"
"","null","html-keyboard-response","110","240508","0.0-3.0-0.47","+","null","","","","","",""
"","1179","html-keyboard-response","111","241689","0.0-3.0-1.47","mua","n","null","noncog","pseudo","N","exp","null"
"","null","html-keyboard-response","112","242194","0.0-3.0-0.48","+","null","","","","","",""
"","1338","html-keyboard-response","113","243535","0.0-3.0-1.48","memória","s","n","cog","word","S","exp","7"
"","null","html-keyboard-response","114","244041","0.0-3.0-0.49","+","null","","","","","",""
"","1189","html-keyboard-response","115","245232","0.0-3.0-1.49","usfiga","n","null","noncog","pseudo","N","exp","null"
"","null","html-keyboard-response","116","245738","0.0-3.0-0.50","+","null","","","","","",""
"","1031","html-keyboard-response","117","246772","0.0-3.0-1.50","avenas","s","null","noncog","pseudo","N","exp","null"
"","null","html-keyboard-response","118","247281","0.0-3.0-0.51","+","null","","","","","",""
"","1405","html-keyboard-response","119","248689","0.0-3.0-1.51","undivídio","n","null","noncog","pseudo","N","exp","null"
"","null","html-keyboard-response","120","249195","0.0-3.0-0.52","+","null","","","","","",""
"","1153","html-keyboard-response","121","250351","0.0-3.0-1.52","oricia","n","null","noncog","pseudo","N","exp","null"
"","null","html-keyboard-response","122","250860","0.0-3.0-0.53","+","null","","","","","",""
"","1291","html-keyboard-response","123","252154","0.0-3.0-1.53","parceter","s","null","noncog","pseudo","N","exp","null"
"","null","html-keyboard-response","124","252659","0.0-3.0-0.54","+","null","","","","","",""
"","892","html-keyboard-response","125","253553","0.0-3.0-1.54","bachir","s","null","noncog","pseudo","N","exp","null"
"","null","html-keyboard-response","126","254058","0.0-3.0-0.55","+","null","","","","","",""
"","866","html-keyboard-response","127","254927","0.0-3.0-1.55","agravar","s","v","cog","word","S","exp","7"
"","null","html-keyboard-response","128","255431","0.0-3.0-0.56","+","null","","","","","",""
"","1026","html-keyboard-response","129","256459","0.0-3.0-1.56","multiplicar","s","v","cog","word","S","exp","11"
"","null","html-keyboard-response","130","256970","0.0-3.0-0.57","+","null","","","","","",""
"","945","html-keyboard-response","131","257917","0.0-3.0-1.57","conjerto","s","null","noncog","pseudo","N","exp","null"
"","null","html-keyboard-response","132","258422","0.0-3.0-0.58","+","null","","","","","",""
"","780","html-keyboard-response","133","259205","0.0-3.0-1.58","apontar","s","v","noncog","word","S","exp","7"
"","null","html-keyboard-response","134","259713","0.0-3.0-0.59","+","null","","","","","",""
"","950","html-keyboard-response","135","260666","0.0-3.0-1.59","mania","s","n","cog","word","S","exp","5"
"","null","html-keyboard-response","136","261178","0.0-3.0-0.60","+","null","","","","","",""
"","2476","html-keyboard-response","137","263657","0.0-3.0-1.60","senareta","s","null","noncog","pseudo","N","exp","null"
"","null","html-keyboard-response","138","264163","0.0-3.0-0.61","+","null","","","","","",""
"","699","html-keyboard-response","139","264866","0.0-3.0-1.61","lagras","s","null","noncog","pseudo","N","exp","null"
"","null","html-keyboard-response","140","265374","0.0-3.0-0.62","+","null","","","","","",""
"","1167","html-keyboard-response","141","266544","0.0-3.0-1.62","gruja","n","null","noncog","pseudo","N","exp","null"
"","null","html-keyboard-response","142","267053","0.0-3.0-0.63","+","null","","","","","",""
"","830","html-keyboard-response","143","267887","0.0-3.0-1.63","nevela","s","null","noncog","pseudo","N","exp","null"
"","null","html-keyboard-response","144","268391","0.0-3.0-0.64","+","null","","","","","",""
"","1564","html-keyboard-response","145","269959","0.0-3.0-1.64","dobradiça","s","n","noncog","word","S","exp","9"
"","null","html-keyboard-response","146","270464","0.0-3.0-0.65","+","null","","","","","",""
"","1625","html-keyboard-response","147","272093","0.0-3.0-1.65","podilo","n","null","noncog","pseudo","N","exp","null"
"","null","html-keyboard-response","148","272601","0.0-3.0-0.66","+","null","","","","","",""
"","1137","html-keyboard-response","149","273742","0.0-3.0-1.66","fratos","n","null","noncog","pseudo","N","exp","null"
"","null","html-keyboard-response","150","274249","0.0-3.0-0.67","+","null","","","","","",""
"","776","html-keyboard-response","151","275029","0.0-3.0-1.67","verde","s","a","noncog","word","S","exp","5"
"","null","html-keyboard-response","152","275541","0.0-3.0-0.68","+","null","","","","","",""
"","1213","html-keyboard-response","153","276757","0.0-3.0-1.68","aparme","n","null","noncog","pseudo","N","exp","null"
"","null","html-keyboard-response","154","277261","0.0-3.0-0.69","+","null","","","","","",""
"","524","html-keyboard-response","155","277788","0.0-3.0-1.69","país","s","n","noncog","word","S","exp","4"
"","null","html-keyboard-response","156","278293","0.0-3.0-0.70","+","null","","","","","",""
"","1116","html-keyboard-response","157","279413","0.0-3.0-1.70","temperar","s","v","noncog","word","S","exp","8"
"","null","html-keyboard-response","158","279918","0.0-3.0-0.71","+","null","","","","","",""
"","892","html-keyboard-response","159","280813","0.0-3.0-1.71","gertas","s","null","noncog","pseudo","N","exp","null"
"","null","html-keyboard-response","160","281322","0.0-3.0-0.72","+","null","","","","","",""
"","699","html-keyboard-response","161","282024","0.0-3.0-1.72","adoçar","s","v","noncog","word","S","exp","6"
"","null","html-keyboard-response","162","282530","0.0-3.0-0.73","+","null","","","","","",""
"","743","html-keyboard-response","163","283277","0.0-3.0-1.73","brincar","s","v","noncog","word","S","exp","7"
"","null","html-keyboard-response","164","283785","0.0-3.0-0.74","+","null","","","","","",""
"","995","html-keyboard-response","165","284784","0.0-3.0-1.74","fusbão","n","null","noncog","pseudo","N","exp","null"
"","null","html-keyboard-response","166","285293","0.0-3.0-0.75","+","null","","","","","",""
"","1598","html-keyboard-response","167","286895","0.0-3.0-1.75","carona","s","n","noncog","word","S","exp","6"
"","null","html-keyboard-response","168","287406","0.0-3.0-0.76","+","null","","","","","",""
"","653","html-keyboard-response","169","288063","0.0-3.0-1.76","tela","s","n","noncog","word","S","exp","4"
"","null","html-keyboard-response","170","288571","0.0-3.0-0.77","+","null","","","","","",""
"","948","html-keyboard-response","171","289521","0.0-3.0-1.77","oper","s","null","noncog","pseudo","N","exp","null"
"","null","html-keyboard-response","172","290026","0.0-3.0-0.78","+","null","","","","","",""
"","618","html-keyboard-response","173","290648","0.0-3.0-1.78","livro","s","n","cog","word","S","exp","5"
"","null","html-keyboard-response","174","291153","0.0-3.0-0.79","+","null","","","","","",""
"","1074","html-keyboard-response","175","292230","0.0-3.0-1.79","fasdas","s","null","noncog","pseudo","N","exp","null"
"","null","html-keyboard-response","176","292738","0.0-3.0-0.80","+","null","","","","","",""
"","821","html-keyboard-response","177","293563","0.0-3.0-1.80","ilhure","n","null","noncog","pseudo","N","exp","null"
"","null","html-keyboard-response","178","294070","0.0-3.0-0.81","+","null","","","","","",""
"","768","html-keyboard-response","179","294842","0.0-3.0-1.81","trenos","s","null","noncog","pseudo","N","exp","null"
"","null","html-keyboard-response","180","295351","0.0-3.0-0.82","+","null","","","","","",""
"","2855","html-keyboard-response","181","298210","0.0-3.0-1.82","tatear","n","v","cog","word","S","exp","6"
"","null","html-keyboard-response","182","298715","0.0-3.0-0.83","+","null","","","","","",""
"","887","html-keyboard-response","183","299606","0.0-3.0-1.83","vervas","s","null","noncog","pseudo","N","exp","null"
"","null","html-keyboard-response","184","300111","0.0-3.0-0.84","+","null","","","","","",""
"","1208","html-keyboard-response","185","301323","0.0-3.0-1.84","franda","s","null","noncog","pseudo","N","exp","null"
"","null","html-keyboard-response","186","301836","0.0-3.0-0.85","+","null","","","","","",""
"","896","html-keyboard-response","187","302736","0.0-3.0-1.85","espionar","s","v","cog","word","S","exp","8"
"","null","html-keyboard-response","188","303250","0.0-3.0-0.86","+","null","","","","","",""
"","715","html-keyboard-response","189","303970","0.0-3.0-1.86","filme","s","n","cog","word","S","exp","5"
"","null","html-keyboard-response","190","304483","0.0-3.0-0.87","+","null","","","","","",""
"","875","html-keyboard-response","191","305363","0.0-3.0-1.87","trabalhar","s","v","noncog","word","S","exp","9"
"","null","html-keyboard-response","192","305869","0.0-3.0-0.88","+","null","","","","","",""
"","507","html-keyboard-response","193","306381","0.0-3.0-1.88","liso","s","n","noncog","word","S","exp","4"
"","null","html-keyboard-response","194","306886","0.0-3.0-0.89","+","null","","","","","",""
"","850","html-keyboard-response","195","307741","0.0-3.0-1.89","abieso","n","null","noncog","pseudo","N","exp","null"
"","null","html-keyboard-response","196","308249","0.0-3.0-0.90","+","null","","","","","",""
"","805","html-keyboard-response","197","309060","0.0-3.0-1.90","liberal","s","a","cog","word","S","exp","7"
"","null","html-keyboard-response","198","309565","0.0-3.0-0.91","+","null","","","","","",""
"","896","html-keyboard-response","199","310466","0.0-3.0-1.91","ejerro","n","null","noncog","pseudo","N","exp","null"
"","null","html-keyboard-response","200","310974","0.0-3.0-0.92","+","null","","","","","",""
"","823","html-keyboard-response","201","311805","0.0-3.0-1.92","pangos","s","null","noncog","pseudo","N","exp","null"
"","null","html-keyboard-response","202","312311","0.0-3.0-0.93","+","null","","","","","",""
"","1116","html-keyboard-response","203","313432","0.0-3.0-1.93","boreta","s","null","noncog","pseudo","N","exp","null"
"","null","html-keyboard-response","204","313940","0.0-3.0-0.94","+","null","","","","","",""
"","1628","html-keyboard-response","205","315572","0.0-3.0-1.94","berquesa","s","null","noncog","pseudo","N","exp","null"
"","null","html-keyboard-response","206","316083","0.0-3.0-0.95","+","null","","","","","",""
"","983","html-keyboard-response","207","317070","0.0-3.0-1.95","rovaz","s","null","noncog","pseudo","N","exp","null"
"","null","html-keyboard-response","208","317580","0.0-3.0-0.96","+","null","","","","","",""
"","806","html-keyboard-response","209","318391","0.0-3.0-1.96","trair","s","v","cog","word","S","exp","5"
"","null","html-keyboard-response","210","318896","0.0-3.0-0.97","+","null","","","","","",""
"","1031","html-keyboard-response","211","319932","0.0-3.0-1.97","raspar","n","v","noncog","word","S","exp","6"
"","null","html-keyboard-response","212","320444","0.0-3.0-0.98","+","null","","","","","",""
"","1832","html-keyboard-response","213","322280","0.0-3.0-1.98","vitrive","n","null","noncog","pseudo","N","exp","null"
"","null","html-keyboard-response","214","322790","0.0-3.0-0.99","+","null","","","","","",""
"","1017","html-keyboard-response","215","323812","0.0-3.0-1.99","pritas","n","null","noncog","pseudo","N","exp","null"
"","null","html-keyboard-response","216","324321","0.0-3.0-0.100","+","null","","","","","",""
"","1450","html-keyboard-response","217","325775","0.0-3.0-1.100","resmungar","n","v","noncog","word","S","exp","9"
"","null","html-keyboard-response","218","326286","0.0-3.0-0.101","+","null","","","","","",""
"","632","html-keyboard-response","219","326924","0.0-3.0-1.101","motre","s","null","noncog","pseudo","N","exp","null"
"","null","html-keyboard-response","220","327434","0.0-3.0-0.102","+","null","","","","","",""
"","999","html-keyboard-response","221","328438","0.0-3.0-1.102","beima","n","null","noncog","pseudo","N","exp","null"
"","null","html-keyboard-response","222","328948","0.0-3.0-0.103","+","null","","","","","",""
"","818","html-keyboard-response","223","329769","0.0-3.0-1.103","crutas","n","null","noncog","pseudo","N","exp","null"
"","null","html-keyboard-response","224","330278","0.0-3.0-0.104","+","null","","","","","",""
"","1152","html-keyboard-response","225","331432","0.0-3.0-1.104","escumo","s","null","noncog","pseudo","N","exp","null"
"","null","html-keyboard-response","226","331941","0.0-3.0-0.105","+","null","","","","","",""
"","1793","html-keyboard-response","227","333736","0.0-3.0-1.105","oecano","s","null","noncog","pseudo","N","exp","null"
"","null","html-keyboard-response","228","334239","0.0-3.0-0.106","+","null","","","","","",""
"","1070","html-keyboard-response","229","335311","0.0-3.0-1.106","independente","s","a","noncog","word","S","exp","12"
"","null","html-keyboard-response","230","335818","0.0-3.0-0.107","+","null","","","","","",""
"","749","html-keyboard-response","231","336570","0.0-3.0-1.107","melão","s","n","cog","word","S","exp","5"
"","null","html-keyboard-response","232","337073","0.0-3.0-0.108","+","null","","","","","",""
"","945","html-keyboard-response","233","338020","0.0-3.0-1.108","loaco","s","null","noncog","pseudo","N","exp","null"
"","null","html-keyboard-response","234","338522","0.0-3.0-0.109","+","null","","","","","",""
"","941","html-keyboard-response","235","339465","0.0-3.0-1.109","areia","s","n","noncog","word","S","exp","5"
"","null","html-keyboard-response","236","339969","0.0-3.0-0.110","+","null","","","","","",""
"","1108","html-keyboard-response","237","341079","0.0-3.0-1.110","perbas","s","null","noncog","pseudo","N","exp","null"
"","null","html-keyboard-response","238","341583","0.0-3.0-0.111","+","null","","","","","",""
"","871","html-keyboard-response","239","342456","0.0-3.0-1.111","grótis","s","null","noncog","pseudo","N","exp","null"
"","null","html-keyboard-response","240","342959","0.0-3.0-0.112","+","null","","","","","",""
"","836","html-keyboard-response","241","343797","0.0-3.0-1.112","lagoa","s","n","cog","word","S","exp","5"
"","null","html-keyboard-response","242","344306","0.0-3.0-0.113","+","null","","","","","",""
"","796","html-keyboard-response","243","345104","0.0-3.0-1.113","cravo","s","n","noncog","word","S","exp","5"
"","null","html-keyboard-response","244","345611","0.0-3.0-0.114","+","null","","","","","",""
"","1345","html-keyboard-response","245","346958","0.0-3.0-1.114","garastia","s","null","noncog","pseudo","N","exp","null"
"","null","html-keyboard-response","246","347468","0.0-3.0-0.115","+","null","","","","","",""
"","1283","html-keyboard-response","247","348753","0.0-3.0-1.115","hipócrita","s","a","noncog","word","S","exp","9"
"","null","html-keyboard-response","248","349255","0.0-3.0-0.116","+","null","","","","","",""
"","1165","html-keyboard-response","249","350422","0.0-3.0-1.116","casuas","s","null","noncog","pseudo","N","exp","null"
"","null","html-keyboard-response","250","350932","0.0-3.0-0.117","+","null","","","","","",""
"","837","html-keyboard-response","251","351771","0.0-3.0-1.117","bracos","s","null","noncog","pseudo","N","exp","null"
"","null","html-keyboard-response","252","352280","0.0-3.0-0.118","+","null","","","","","",""
"","1390","html-keyboard-response","253","353672","0.0-3.0-1.118","deselegante","s","a","noncog","word","S","exp","11"
"","null","html-keyboard-response","254","354176","0.0-3.0-0.119","+","null","","","","","",""
"","720","html-keyboard-response","255","354898","0.0-3.0-1.119","arranjar","s","v","cog","word","S","exp","8"
"","null","html-keyboard-response","256","355407","0.0-3.0-0.120","+","null","","","","","",""
"","520","html-keyboard-response","257","355930","0.0-3.0-1.120","anjo","s","n","cog","word","S","exp","4"
"","null","html-keyboard-response","258","356438","0.0-3.0-0.121","+","null","","","","","",""
"","1122","html-keyboard-response","259","357563","0.0-3.0-1.121","incomodar","s","v","noncog","word","S","exp","9"
"","null","html-keyboard-response","260","358069","0.0-3.0-0.122","+","null","","","","","",""
"","1005","html-keyboard-response","261","359076","0.0-3.0-1.122","detative","s","null","noncog","pseudo","N","exp","null"
"","null","html-keyboard-response","262","359586","0.0-3.0-0.123","+","null","","","","","",""
"","1158","html-keyboard-response","263","360746","0.0-3.0-1.123","afual","s","null","noncog","pseudo","N","exp","null"
"","null","html-keyboard-response","264","361248","0.0-3.0-0.124","+","null","","","","","",""
"","1288","html-keyboard-response","265","362539","0.0-3.0-1.124","ênclio","s","null","noncog","pseudo","N","exp","null"
"","null","html-keyboard-response","266","363046","0.0-3.0-0.125","+","null","","","","","",""
"","2777","html-keyboard-response","267","365825","0.0-3.0-1.125","bibarconato","s","null","noncog","pseudo","N","exp","null"
"","null","html-keyboard-response","268","366331","0.0-3.0-0.126","+","null","","","","","",""
"","818","html-keyboard-response","269","367152","0.0-3.0-1.126","verdade","s","n","cog","word","S","exp","7"
"","null","html-keyboard-response","270","367655","0.0-3.0-0.127","+","null","","","","","",""
"","954","html-keyboard-response","271","368612","0.0-3.0-1.127","promessa","s","n","noncog","word","S","exp","8"
"","null","html-keyboard-response","272","369123","0.0-3.0-0.128","+","null","","","","","",""
"","850","html-keyboard-response","273","369975","0.0-3.0-1.128","animado","s","a","noncog","word","S","exp","7"
"","null","html-keyboard-response","274","370479","0.0-3.0-0.129","+","null","","","","","",""
"","1579","html-keyboard-response","275","372061","0.0-3.0-1.129","grátis","s","a","cog","word","S","exp","6"
"","null","html-keyboard-response","276","372569","0.0-3.0-0.130","+","null","","","","","",""
"","557","html-keyboard-response","277","373129","0.0-3.0-1.130","cerca","s","n","noncog","word","S","exp","5"
"","null","html-keyboard-response","278","373635","0.0-3.0-0.131","+","null","","","","","",""
"","1332","html-keyboard-response","279","374970","0.0-3.0-1.131","morar","s","v","noncog","word","S","exp","5"
"","null","html-keyboard-response","280","375482","0.0-3.0-0.132","+","null","","","","","",""
"","859","html-keyboard-response","281","376344","0.0-3.0-1.132","verceja","s","null","noncog","pseudo","N","exp","null"
"","null","html-keyboard-response","282","376852","0.0-3.0-0.133","+","null","","","","","",""
"","1418","html-keyboard-response","283","378273","0.0-3.0-1.133","refletir","s","v","cog","word","S","exp","8"
"","null","html-keyboard-response","284","378781","0.0-3.0-0.134","+","null","","","","","",""
"","3072","html-keyboard-response","285","381856","0.0-3.0-1.134","aivões","s","null","noncog","pseudo","N","exp","null"
"","null","html-keyboard-response","286","382360","0.0-3.0-0.135","+","null","","","","","",""
"","897","html-keyboard-response","287","383261","0.0-3.0-1.135","prenas","s","null","noncog","pseudo","N","exp","null"
"","null","html-keyboard-response","288","383769","0.0-3.0-0.136","+","null","","","","","",""
"","1169","html-keyboard-response","289","384941","0.0-3.0-1.136","montanha","s","n","cog","word","S","exp","8"
"","null","html-keyboard-response","290","385449","0.0-3.0-0.137","+","null","","","","","",""
"","915","html-keyboard-response","291","386367","0.0-3.0-1.137","socorro","s","n","noncog","word","S","exp","7"
"","null","html-keyboard-response","292","386871","0.0-3.0-0.138","+","null","","","","","",""
"","1545","html-keyboard-response","293","388419","0.0-3.0-1.138","morno","s","a","noncog","word","S","exp","5"
"","null","html-keyboard-response","294","388928","0.0-3.0-0.139","+","null","","","","","",""
"","736","html-keyboard-response","295","389667","0.0-3.0-1.139","grave","n","a","cog","word","S","exp","5"
"","null","html-keyboard-response","296","390178","0.0-3.0-0.140","+","null","","","","","",""
"","751","html-keyboard-response","297","390932","0.0-3.0-1.140","jantar","s","v","noncog","word","S","exp","6"
"","null","html-keyboard-response","298","391443","0.0-3.0-0.141","+","null","","","","","",""
"","1170","html-keyboard-response","299","392615","0.0-3.0-1.141","quenzina","s","null","noncog","pseudo","N","exp","null"
"","null","html-keyboard-response","300","393124","0.0-3.0-0.142","+","null","","","","","",""
"","1139","html-keyboard-response","301","394266","0.0-3.0-1.142","matinal","s","a","cog","word","S","exp","7"
"","null","html-keyboard-response","302","394769","0.0-3.0-0.143","+","null","","","","","",""
"","1242","html-keyboard-response","303","396015","0.0-3.0-1.143","instruído","n","a","noncog","word","S","exp","9"
"","null","html-keyboard-response","304","396518","0.0-3.0-0.144","+","null","","","","","",""
"","1959","html-keyboard-response","305","398480","0.0-3.0-1.144","atitro","n","null","noncog","pseudo","N","exp","null"
"","null","html-keyboard-response","306","398986","0.0-3.0-0.145","+","null","","","","","",""
"","1504","html-keyboard-response","307","400493","0.0-3.0-1.145","sustentar","s","v","noncog","word","S","exp","9"
"","null","html-keyboard-response","308","401000","0.0-3.0-0.146","+","null","","","","","",""
"","518","html-keyboard-response","309","401521","0.0-3.0-1.146","mal","s","a","cog","word","S","exp","3"
"","null","html-keyboard-response","310","402028","0.0-3.0-0.147","+","null","","","","","",""
"","1369","html-keyboard-response","311","403401","0.0-3.0-1.147","frotes","n","null","noncog","pseudo","N","exp","null"
"","null","html-keyboard-response","312","403913","0.0-3.0-0.148","+","null","","","","","",""
"","1728","html-keyboard-response","313","405645","0.0-3.0-1.148","encelhor","s","null","noncog","pseudo","N","exp","null"
"","null","html-keyboard-response","314","406153","0.0-3.0-0.149","+","null","","","","","",""
"","836","html-keyboard-response","315","406993","0.0-3.0-1.149","fogão","s","n","noncog","word","S","exp","5"
"","null","html-keyboard-response","316","407503","0.0-3.0-0.150","+","null","","","","","",""
"","1007","html-keyboard-response","317","408512","0.0-3.0-1.150","ensuas","s","null","noncog","pseudo","N","exp","null"
"","null","html-keyboard-response","318","409016","0.0-3.0-0.151","+","null","","","","","",""
"","759","html-keyboard-response","319","409777","0.0-3.0-1.151","prever","s","v","cog","word","S","exp","6"
"","null","html-keyboard-response","320","410286","0.0-3.0-0.152","+","null","","","","","",""
"","1222","html-keyboard-response","321","411511","0.0-3.0-1.152","alpica","n","null","noncog","pseudo","N","exp","null"
"","null","html-keyboard-response","322","412017","0.0-3.0-0.153","+","null","","","","","",""
"","1135","html-keyboard-response","323","413156","0.0-3.0-1.153","ideisa","s","null","noncog","pseudo","N","exp","null"
"","null","html-keyboard-response","324","413665","0.0-3.0-0.154","+","null","","","","","",""
"","911","html-keyboard-response","325","414580","0.0-3.0-1.154","medalha","s","n","cog","word","S","exp","7"
"","null","html-keyboard-response","326","415090","0.0-3.0-0.155","+","null","","","","","",""
"","644","html-keyboard-response","327","415738","0.0-3.0-1.155","francês","s","a","cog","word","S","exp","7"
"","null","html-keyboard-response","328","416245","0.0-3.0-0.156","+","null","","","","","",""
"","1029","html-keyboard-response","329","417278","0.0-3.0-1.156","aemaça","s","null","noncog","pseudo","N","exp","null"
"","null","html-keyboard-response","330","417786","0.0-3.0-0.157","+","null","","","","","",""
"","735","html-keyboard-response","331","418525","0.0-3.0-1.157","uçar","s","null","noncog","pseudo","N","exp","null"
"","null","html-keyboard-response","332","419034","0.0-3.0-0.158","+","null","","","","","",""
"","819","html-keyboard-response","333","419857","0.0-3.0-1.158","agressivo","s","a","cog","word","S","exp","9"
"","null","html-keyboard-response","334","420367","0.0-3.0-0.159","+","null","","","","","",""
"","1140","html-keyboard-response","335","421511","0.0-3.0-1.159","tartos","s","null","noncog","pseudo","N","exp","null"
"","null","html-keyboard-response","336","422019","0.0-3.0-0.160","+","null","","","","","",""
"","1004","html-keyboard-response","337","423028","0.0-3.0-1.160","dacada","s","null","noncog","pseudo","N","exp","null"
"","null","html-keyboard-response","338","423534","0.0-3.0-0.161","+","null","","","","","",""
"","1539","html-keyboard-response","339","425078","0.0-3.0-1.161","enxerido","s","a","noncog","word","S","exp","8"
"","null","html-keyboard-response","340","425591","0.0-3.0-0.162","+","null","","","","","",""
"","1279","html-keyboard-response","341","426875","0.0-3.0-1.162","terdia","n","null","noncog","pseudo","N","exp","null"
"","null","html-keyboard-response","342","427389","0.0-3.0-0.163","+","null","","","","","",""
"","492","html-keyboard-response","343","427885","0.0-3.0-1.163","lorfaz","s","null","noncog","pseudo","N","exp","null"
"","null","html-keyboard-response","344","428394","0.0-3.0-0.164","+","null","","","","","",""
"","1584","html-keyboard-response","345","429979","0.0-3.0-1.164","suipestar","n","null","noncog","pseudo","N","exp","null"
"","null","html-keyboard-response","346","430487","0.0-3.0-0.165","+","null","","","","","",""
"","1728","html-keyboard-response","347","432219","0.0-3.0-1.165","irratinte","s","null","noncog","pseudo","N","exp","null"
"","null","html-keyboard-response","348","432728","0.0-3.0-0.166","+","null","","","","","",""
"","1031","html-keyboard-response","349","433764","0.0-3.0-1.166","imitar","s","v","cog","word","S","exp","6"
"","null","html-keyboard-response","350","434279","0.0-3.0-0.167","+","null","","","","","",""
"","679","html-keyboard-response","351","434961","0.0-3.0-1.167","ótimo","s","a","noncog","word","S","exp","5"
"","null","html-keyboard-response","352","435472","0.0-3.0-0.168","+","null","","","","","",""
"","826","html-keyboard-response","353","436302","0.0-3.0-1.168","pedaço","s","n","noncog","word","S","exp","6"
"","null","html-keyboard-response","354","436809","0.0-3.0-0.169","+","null","","","","","",""
"","678","html-keyboard-response","355","437492","0.0-3.0-1.169","telefone","s","n","cog","word","S","exp","8"
"","null","html-keyboard-response","356","438004","0.0-3.0-0.170","+","null","","","","","",""
"","944","html-keyboard-response","357","438952","0.0-3.0-1.170","sanque","s","null","noncog","pseudo","N","exp","null"
"","null","html-keyboard-response","358","439457","0.0-3.0-0.171","+","null","","","","","",""
"","3472","html-keyboard-response","359","442934","0.0-3.0-1.171","propaganda","s","n","cog","word","S","exp","10"
"","null","html-keyboard-response","360","443445","0.0-3.0-0.172","+","null","","","","","",""
"","1794","html-keyboard-response","361","445244","0.0-3.0-1.172","extravagante","s","a","cog","word","S","exp","12"
"","null","html-keyboard-response","362","445750","0.0-3.0-0.173","+","null","","","","","",""
"","855","html-keyboard-response","363","446609","0.0-3.0-1.173","orupas","s","null","noncog","pseudo","N","exp","null"
"","null","html-keyboard-response","364","447114","0.0-3.0-0.174","+","null","","","","","",""
"","2066","html-keyboard-response","365","449185","0.0-3.0-1.174","nivelado","s","a","cog","word","S","exp","8"
"","null","html-keyboard-response","366","449693","0.0-3.0-0.175","+","null","","","","","",""
"","1154","html-keyboard-response","367","450852","0.0-3.0-1.175","planalto","s","n","cog","word","S","exp","8"
"","null","html-keyboard-response","368","451357","0.0-3.0-0.176","+","null","","","","","",""
"","746","html-keyboard-response","369","452113","0.0-3.0-1.176","tronca","s","null","noncog","pseudo","N","exp","null"
"","null","html-keyboard-response","370","452622","0.0-3.0-0.177","+","null","","","","","",""
"","1022","html-keyboard-response","371","453649","0.0-3.0-1.177","perdão","s","n","noncog","word","S","exp","6"
"","null","html-keyboard-response","372","454154","0.0-3.0-0.178","+","null","","","","","",""
"","650","html-keyboard-response","373","454809","0.0-3.0-1.178","gordo","s","a","noncog","word","S","exp","5"
"","null","html-keyboard-response","374","455318","0.0-3.0-0.179","+","null","","","","","",""
"","1560","html-keyboard-response","375","456883","0.0-3.0-1.179","bagunceira","s","a","noncog","word","S","exp","10"
"","null","html-keyboard-response","376","457391","0.0-3.0-0.180","+","null","","","","","",""
"","721","html-keyboard-response","377","458117","0.0-3.0-1.180","aperor","s","null","noncog","pseudo","N","exp","null"
"","null","html-keyboard-response","378","458623","0.0-3.0-0.181","+","null","","","","","",""
"","2192","html-keyboard-response","379","460820","0.0-3.0-1.181","pitada","n","n","noncog","word","S","exp","6"
"","null","html-keyboard-response","380","461326","0.0-3.0-0.182","+","null","","","","","",""
"","657","html-keyboard-response","381","461988","0.0-3.0-1.182","carro","s","n","noncog","word","S","exp","5"
"","null","html-keyboard-response","382","462501","0.0-3.0-0.183","+","null","","","","","",""
"","613","html-keyboard-response","383","463118","0.0-3.0-1.183","nome","s","n","cog","word","S","exp","4"
"","null","html-keyboard-response","384","463620","0.0-3.0-0.184","+","null","","","","","",""
"","986","html-keyboard-response","385","464607","0.0-3.0-1.184","preferir","s","v","cog","word","S","exp","8"
"","null","html-keyboard-response","386","465113","0.0-3.0-0.185","+","null","","","","","",""
"","726","html-keyboard-response","387","465840","0.0-3.0-1.185","cristal","s","n","cog","word","S","exp","7"
"","null","html-keyboard-response","388","466343","0.0-3.0-0.186","+","null","","","","","",""
"","804","html-keyboard-response","389","467148","0.0-3.0-1.186","ocinto","s","null","noncog","pseudo","N","exp","null"
"","null","html-keyboard-response","390","467658","0.0-3.0-0.187","+","null","","","","","",""
"","1707","html-keyboard-response","391","469366","0.0-3.0-1.187","pantufa","s","n","cog","word","S","exp","7"
"","null","html-keyboard-response","392","469873","0.0-3.0-0.188","+","null","","","","","",""
"","1114","html-keyboard-response","393","470989","0.0-3.0-1.188","especial","s","a","cog","word","S","exp","8"
"","null","html-keyboard-response","394","471492","0.0-3.0-0.189","+","null","","","","","",""
"","980","html-keyboard-response","395","472474","0.0-3.0-1.189","traduzir","s","v","cog","word","S","exp","8"
"","null","html-keyboard-response","396","472984","0.0-3.0-0.190","+","null","","","","","",""
"","1416","html-keyboard-response","397","474401","0.0-3.0-1.190","faínas","s","null","noncog","pseudo","N","exp","null"
"","null","html-keyboard-response","398","474903","0.0-3.0-0.191","+","null","","","","","",""
"","836","html-keyboard-response","399","475741","0.0-3.0-1.191","manfa","s","null","noncog","pseudo","N","exp","null"
"","null","html-keyboard-response","400","476245","0.0-3.0-0.192","+","null","","","","","",""
"","769","html-keyboard-response","401","477016","0.0-3.0-1.192","barco","s","n","cog","word","S","exp","5"
"","null","html-keyboard-response","402","477526","0.0-3.0-0.193","+","null","","","","","",""
"","988","html-keyboard-response","403","478516","0.0-3.0-1.193","hedoru","n","null","noncog","pseudo","N","exp","null"
"","null","html-keyboard-response","404","479025","0.0-3.0-0.194","+","null","","","","","",""
"","1135","html-keyboard-response","405","480161","0.0-3.0-1.194","âgnulo","s","null","noncog","pseudo","N","exp","null"
"","null","html-keyboard-response","406","480673","0.0-3.0-0.195","+","null","","","","","",""
"","1716","html-keyboard-response","407","482391","0.0-3.0-1.195","distraído","s","a","cog","word","S","exp","9"
"","null","html-keyboard-response","408","482894","0.0-3.0-0.196","+","null","","","","","",""
"","591","html-keyboard-response","409","483486","0.0-3.0-1.196","nacional","s","a","cog","word","S","exp","8"
"","null","html-keyboard-response","410","483990","0.0-3.0-0.197","+","null","","","","","",""
"","960","html-keyboard-response","411","484953","0.0-3.0-1.197","tímido","s","a","cog","word","S","exp","6"
"","null","html-keyboard-response","412","485455","0.0-3.0-0.198","+","null","","","","","",""
"","1680","html-keyboard-response","413","487136","0.0-3.0-1.198","comércio","s","n","noncog","word","S","exp","8"
"","null","html-keyboard-response","414","487645","0.0-3.0-0.199","+","null","","","","","",""
"","836","html-keyboard-response","415","488484","0.0-3.0-1.199","cinema","s","n","cog","word","S","exp","6"
"","null","html-keyboard-response","416","488993","0.0-3.0-0.200","+","null","","","","","",""
"","1187","html-keyboard-response","417","490185","0.0-3.0-1.200","filosofia","s","n","cog","word","S","exp","9"
"","null","html-keyboard-response","418","490692","0.0-3.0-0.201","+","null","","","","","",""
"","1747","html-keyboard-response","419","492441","0.0-3.0-1.201","pneucania","n","null","noncog","pseudo","N","exp","null"
"","null","html-keyboard-response","420","492946","0.0-3.0-0.202","+","null","","","","","",""
"","1236","html-keyboard-response","421","494184","0.0-3.0-1.202","enedro","n","null","noncog","pseudo","N","exp","null"
"","null","html-keyboard-response","422","494687","0.0-3.0-0.203","+","null","","","","","",""
"","1658","html-keyboard-response","423","496348","0.0-3.0-1.203","prantal","n","null","noncog","pseudo","N","exp","null"
"","null","html-keyboard-response","424","496850","0.0-3.0-0.204","+","null","","","","","",""
"","1120","html-keyboard-response","425","497973","0.0-3.0-1.204","lapestra","s","null","noncog","pseudo","N","exp","null"
"","null","html-keyboard-response","426","498486","0.0-3.0-0.205","+","null","","","","","",""
"","766","html-keyboard-response","427","499254","0.0-3.0-1.205","jastor","s","null","noncog","pseudo","N","exp","null"
"","null","html-keyboard-response","428","499760","0.0-3.0-0.206","+","null","","","","","",""
"","748","html-keyboard-response","429","500511","0.0-3.0-1.206","dia","s","n","noncog","word","S","exp","3"
"","null","html-keyboard-response","430","501015","0.0-3.0-0.207","+","null","","","","","",""
"","1016","html-keyboard-response","431","502034","0.0-3.0-1.207","euorpa","s","null","noncog","pseudo","N","exp","null"
"","null","html-keyboard-response","432","502543","0.0-3.0-0.208","+","null","","","","","",""
"","1008","html-keyboard-response","433","503554","0.0-3.0-1.208","hébies","n","null","noncog","pseudo","N","exp","null"
"","null","html-keyboard-response","434","504057","0.0-3.0-0.209","+","null","","","","","",""
"","876","html-keyboard-response","435","504935","0.0-3.0-1.209","atapdar","s","null","noncog","pseudo","N","exp","null"
"","null","html-keyboard-response","436","505441","0.0-3.0-0.210","+","null","","","","","",""
"","747","html-keyboard-response","437","506191","0.0-3.0-1.210","glória","s","n","cog","word","S","exp","6"
"","null","html-keyboard-response","438","506695","0.0-3.0-0.211","+","null","","","","","",""
"","920","html-keyboard-response","439","507618","0.0-3.0-1.211","risbos","s","null","noncog","pseudo","N","exp","null"
"","null","html-keyboard-response","440","508124","0.0-3.0-0.212","+","null","","","","","",""
"","1011","html-keyboard-response","441","509138","0.0-3.0-1.212","taberia","s","null","noncog","pseudo","N","exp","null"
"","null","html-keyboard-response","442","509649","0.0-3.0-0.213","+","null","","","","","",""
"","1269","html-keyboard-response","443","510921","0.0-3.0-1.213","promeção","s","null","noncog","pseudo","N","exp","null"
"","null","html-keyboard-response","444","511430","0.0-3.0-0.214","+","null","","","","","",""
"","1141","html-keyboard-response","445","512573","0.0-3.0-1.214","bambu","s","n","cog","word","S","exp","5"
"","null","html-keyboard-response","446","513077","0.0-3.0-0.215","+","null","","","","","",""
"","1183","html-keyboard-response","447","514263","0.0-3.0-1.215","braras","n","null","noncog","pseudo","N","exp","null"
"","null","html-keyboard-response","448","514767","0.0-3.0-0.216","+","null","","","","","",""
"","724","html-keyboard-response","449","515493","0.0-3.0-1.216","protas","s","null","noncog","pseudo","N","exp","null"
"","null","html-keyboard-response","450","516008","0.0-3.0-0.217","+","null","","","","","",""
"","610","html-keyboard-response","451","516621","0.0-3.0-1.217","azul","s","n","noncog","word","S","exp","4"
"","null","html-keyboard-response","452","517128","0.0-3.0-0.218","+","null","","","","","",""
"","1346","html-keyboard-response","453","518476","0.0-3.0-1.218","afonher","s","null","noncog","pseudo","N","exp","null"
"","null","html-keyboard-response","454","518987","0.0-3.0-0.219","+","null","","","","","",""
"","1288","html-keyboard-response","455","520278","0.0-3.0-1.219","disbrituir","s","null","noncog","pseudo","N","exp","null"
"","null","html-keyboard-response","456","520785","0.0-3.0-0.220","+","null","","","","","",""
"","736","html-keyboard-response","457","521524","0.0-3.0-1.220","destino","s","n","cog","word","S","exp","7"
"","null","html-keyboard-response","458","522032","0.0-3.0-0.221","+","null","","","","","",""
"","1550","html-keyboard-response","459","523585","0.0-3.0-1.221","candifência","s","null","noncog","pseudo","N","exp","null"
"","null","html-keyboard-response","460","524095","0.0-3.0-0.222","+","null","","","","","",""
"","662","html-keyboard-response","461","524760","0.0-3.0-1.222","mabras","s","null","noncog","pseudo","N","exp","null"
"","null","html-keyboard-response","462","525266","0.0-3.0-0.223","+","null","","","","","",""
"","626","html-keyboard-response","463","525895","0.0-3.0-1.223","tênis","s","n","cog","word","S","exp","5"
"","null","html-keyboard-response","464","526399","0.0-3.0-0.224","+","null","","","","","",""
"","738","html-keyboard-response","465","527140","0.0-3.0-1.224","fofo","s","a","noncog","word","S","exp","4"
"","null","html-keyboard-response","466","527648","0.0-3.0-0.225","+","null","","","","","",""
"","1218","html-keyboard-response","467","528868","0.0-3.0-1.225","uchães","n","null","noncog","pseudo","N","exp","null"
"","null","html-keyboard-response","468","529375","0.0-3.0-0.226","+","null","","","","","",""
"","1423","html-keyboard-response","469","530802","0.0-3.0-1.226","espinho","s","n","noncog","word","S","exp","7"
"","null","html-keyboard-response","470","531307","0.0-3.0-0.227","+","null","","","","","",""
"","970","html-keyboard-response","471","532281","0.0-3.0-1.227","burtos","s","null","noncog","pseudo","N","exp","null"
"","null","html-keyboard-response","472","532787","0.0-3.0-0.228","+","null","","","","","",""
"","1573","html-keyboard-response","473","534364","0.0-3.0-1.228","aitrou","s","null","noncog","pseudo","N","exp","null"
"","null","html-keyboard-response","474","534868","0.0-3.0-0.229","+","null","","","","","",""
"","953","html-keyboard-response","475","535825","0.0-3.0-1.229","delomir","s","null","noncog","pseudo","N","exp","null"
"","null","html-keyboard-response","476","536333","0.0-3.0-0.230","+","null","","","","","",""
"","1587","html-keyboard-response","477","537923","0.0-3.0-1.230","telafonir","n","null","noncog","pseudo","N","exp","null"
"","null","html-keyboard-response","478","538430","0.0-3.0-0.231","+","null","","","","","",""
"","1019","html-keyboard-response","479","539452","0.0-3.0-1.231","açúcar","s","n","noncog","word","S","exp","6"
"","null","html-keyboard-response","480","539958","0.0-3.0-0.232","+","null","","","","","",""
"","1128","html-keyboard-response","481","541090","0.0-3.0-1.232","usnado","s","null","noncog","pseudo","N","exp","null"
"","null","html-keyboard-response","482","541602","0.0-3.0-0.233","+","null","","","","","",""
"","973","html-keyboard-response","483","542579","0.0-3.0-1.233","reduzir","s","v","cog","word","S","exp","7"
"","null","html-keyboard-response","484","543083","0.0-3.0-0.234","+","null","","","","","",""
"","898","html-keyboard-response","485","543985","0.0-3.0-1.234","bandido","s","n","cog","word","S","exp","7"
"","null","html-keyboard-response","486","544500","0.0-3.0-0.235","+","null","","","","","",""
"","3815","html-keyboard-response","487","548319","0.0-3.0-1.235","morija","n","null","noncog","pseudo","N","exp","null"
"","null","html-keyboard-response","488","548824","0.0-3.0-0.236","+","null","","","","","",""
"","2492","html-keyboard-response","489","551323","0.0-3.0-1.236","dencosto","s","null","noncog","pseudo","N","exp","null"
"","null","html-keyboard-response","490","551830","0.0-3.0-0.237","+","null","","","","","",""
"","810","html-keyboard-response","491","552644","0.0-3.0-1.237","esfoce","s","null","noncog","pseudo","N","exp","null"
"","null","html-keyboard-response","492","553154","0.0-3.0-0.238","+","null","","","","","",""
"","1201","html-keyboard-response","493","554358","0.0-3.0-1.238","cirado","s","null","noncog","pseudo","N","exp","null"
"","null","html-keyboard-response","494","554863","0.0-3.0-0.239","+","null","","","","","",""
"","1061","html-keyboard-response","495","555927","0.0-3.0-1.239","plinta","s","null","noncog","pseudo","N","exp","null"
