[
	{
		"view_history": [
			{
				"page_index": 0,
				"viewing_time": 120106
			},
			{
				"page_index": 1,
				"viewing_time": 18738
			}
		],
		"rt": 138847,
		"trial_type": "instructions",
		"trial_index": 0,
		"time_elapsed": 138845,
		"internal_node_id": "0.0-0.0"
	},
	{
		"rt": null,
		"stimulus": "<span style= \"font-size:30px; font-family: monospace\">+</span>",
		"response": null,
		"trial_part": "fixation",
		"trial_type": "html-keyboard-response",
		"trial_index": 1,
		"time_elapsed": 139954,
		"internal_node_id": "0.0-1.0-0.0-0.0"
	},
	{
		"rt": 15863,
		"stimulus": "<span style=\"font-size:30px; font-family: monospace\">O</span>",
		"response": " ",
		"trial": "prac-sent",
		"word": "O",
		"trial_type": "html-keyboard-response",
		"trial_index": 2,
		"time_elapsed": 156072,
		"internal_node_id": "0.0-1.0-1.0"
	},
	{
		"rt": 3233,
		"stimulus": "<span style=\"font-size:30px; font-family: monospace\">dia</span>",
		"response": " ",
		"trial": "prac-sent",
		"word": "dia",
		"trial_type": "html-keyboard-response",
		"trial_index": 3,
		"time_elapsed": 159561,
		"internal_node_id": "0.0-1.0-1.1"
	},
	{
		"rt": 2631,
		"stimulus": "<span style=\"font-size:30px; font-family: monospace\">estará</span>",
		"response": " ",
		"trial": "prac-sent",
		"word": "estará",
		"trial_type": "html-keyboard-response",
		"trial_index": 4,
		"time_elapsed": 162453,
		"internal_node_id": "0.0-1.0-1.2"
	},
	{
		"rt": 1763,
		"stimulus": "<span style=\"font-size:30px; font-family: monospace\">cheio</span>",
		"response": " ",
		"trial": "prac-sent",
		"word": "cheio",
		"trial_type": "html-keyboard-response",
		"trial_index": 5,
		"time_elapsed": 164471,
		"internal_node_id": "0.0-1.0-1.3"
	},
	{
		"rt": 1429,
		"stimulus": "<span style=\"font-size:30px; font-family: monospace\">de</span>",
		"response": " ",
		"trial": "prac-sent",
		"word": "de",
		"trial_type": "html-keyboard-response",
		"trial_index": 6,
		"time_elapsed": 166161,
		"internal_node_id": "0.0-1.0-1.4"
	},
	{
		"rt": 2557,
		"stimulus": "<span style=\"font-size:30px; font-family: monospace\">nuvens</span>",
		"response": " ",
		"trial": "prac-sent",
		"word": "nuvens",
		"trial_type": "html-keyboard-response",
		"trial_index": 7,
		"time_elapsed": 168976,
		"internal_node_id": "0.0-1.0-1.5"
	},
	{
		"rt": 5662,
		"stimulus": "<span style=\"font-size:30px; font-family: monospace\">hoje.</span>",
		"response": " ",
		"trial": "prac-sent",
		"word": "hoje.",
		"trial_type": "html-keyboard-response",
		"trial_index": 8,
		"time_elapsed": 174894,
		"internal_node_id": "0.0-1.0-1.6"
	},
	{
		"rt": null,
		"stimulus": "<span style= \"font-size:30px; font-family: monospace\">+</span>",
		"response": null,
		"trial_part": "fixation",
		"trial_type": "html-keyboard-response",
		"trial_index": 9,
		"time_elapsed": 176153,
		"internal_node_id": "0.0-1.0-0.7-0.7"
	},
	{
		"rt": 3117,
		"stimulus": "<span style=\"font-size:30px; font-family: monospace\">A</span>",
		"response": " ",
		"trial": "prac-sent",
		"word": "A",
		"trial_type": "html-keyboard-response",
		"trial_index": 10,
		"time_elapsed": 179532,
		"internal_node_id": "0.0-1.0-1.7"
	},
	{
		"rt": 2311,
		"stimulus": "<span style=\"font-size:30px; font-family: monospace\">caneca</span>",
		"response": " ",
		"trial": "prac-sent",
		"word": "caneca",
		"trial_type": "html-keyboard-response",
		"trial_index": 11,
		"time_elapsed": 182105,
		"internal_node_id": "0.0-1.0-1.8"
	},
	{
		"rt": 2116,
		"stimulus": "<span style=\"font-size:30px; font-family: monospace\">colorida</span>",
		"response": " ",
		"trial": "prac-sent",
		"word": "colorida",
		"trial_type": "html-keyboard-response",
		"trial_index": 12,
		"time_elapsed": 184478,
		"internal_node_id": "0.0-1.0-1.9"
	},
	{
		"rt": 1821,
		"stimulus": "<span style=\"font-size:30px; font-family: monospace\">caiu</span>",
		"response": " ",
		"trial": "prac-sent",
		"word": "caiu",
		"trial_type": "html-keyboard-response",
		"trial_index": 13,
		"time_elapsed": 186559,
		"internal_node_id": "0.0-1.0-1.10"
	},
	{
		"rt": 1664,
		"stimulus": "<span style=\"font-size:30px; font-family: monospace\">da</span>",
		"response": " ",
		"trial": "prac-sent",
		"word": "da",
		"trial_type": "html-keyboard-response",
		"trial_index": 14,
		"time_elapsed": 188483,
		"internal_node_id": "0.0-1.0-1.11"
	},
	{
		"rt": 1832,
		"stimulus": "<span style=\"font-size:30px; font-family: monospace\">mesa</span>",
		"response": " ",
		"trial": "prac-sent",
		"word": "mesa",
		"trial_type": "html-keyboard-response",
		"trial_index": 15,
		"time_elapsed": 190569,
		"internal_node_id": "0.0-1.0-1.12"
	},
	{
		"rt": 1231,
		"stimulus": "<span style=\"font-size:30px; font-family: monospace\">de</span>",
		"response": " ",
		"trial": "prac-sent",
		"word": "de",
		"trial_type": "html-keyboard-response",
		"trial_index": 16,
		"time_elapsed": 192058,
		"internal_node_id": "0.0-1.0-1.13"
	},
	{
		"rt": 3550,
		"stimulus": "<span style=\"font-size:30px; font-family: monospace\">jantar.</span>",
		"response": " ",
		"trial": "prac-comp",
		"word": "jantar.",
		"trial_type": "html-keyboard-response",
		"trial_index": 17,
		"time_elapsed": 195865,
		"internal_node_id": "0.0-1.0-1.14"
	},
	{
		"rt": 64369,
		"stimulus": "<span style=\"font-size:30px; font-family: monospace\">A caneca permaneceu na mesa?</span>",
		"response": "n",
		"question": "A caneca permaneceu na mesa?",
		"answer": "não",
		"trial": "prac-comp",
		"trial_type": "html-keyboard-response",
		"trial_index": 18,
		"time_elapsed": 260492,
		"internal_node_id": "0.0-1.0-2.14-0.14",
		"accuracy": false
	},
	{
		"view_history": [
			{
				"page_index": 0,
				"viewing_time": 70848
			}
		],
		"rt": 70852,
		"trial_type": "instructions",
		"trial_index": 19,
		"time_elapsed": 331851,
		"internal_node_id": "0.0-2.0"
	},
	{
		"rt": null,
		"stimulus": "<span style= \"font-size:30px; font-family: monospace\">+</span>",
		"response": null,
		"trial_part": "fixation",
		"trial_type": "html-keyboard-response",
		"trial_index": 20,
		"time_elapsed": 332961,
		"internal_node_id": "0.0-3.0-0.0-0.0"
	},
	{
		"rt": 5010,
		"stimulus": "<span style=\"font-size:30px; font-family: monospace\">As</span>",
		"response": " ",
		"trial": "exp-sent",
		"word": "As",
		"trial_type": "html-keyboard-response",
		"trial_index": 21,
		"time_elapsed": 338234,
		"internal_node_id": "0.0-3.0-1.0"
	},
	{
		"rt": 1607,
		"stimulus": "<span style=\"font-size:30px; font-family: monospace\">crianças</span>",
		"response": " ",
		"trial": "exp-sent",
		"word": "crianças",
		"trial_type": "html-keyboard-response",
		"trial_index": 22,
		"time_elapsed": 340098,
		"internal_node_id": "0.0-3.0-1.1"
	},
	{
		"rt": 1261,
		"stimulus": "<span style=\"font-size:30px; font-family: monospace\">viram</span>",
		"response": " ",
		"trial": "exp-sent",
		"word": "viram",
		"trial_type": "html-keyboard-response",
		"trial_index": 23,
		"time_elapsed": 341614,
		"internal_node_id": "0.0-3.0-1.2"
	},
	{
		"rt": 1240,
		"stimulus": "<span style=\"font-size:30px; font-family: monospace\">um</span>",
		"response": " ",
		"trial": "exp-sent",
		"word": "um",
		"trial_type": "html-keyboard-response",
		"trial_index": 24,
		"time_elapsed": 343109,
		"internal_node_id": "0.0-3.0-1.3"
	},
	{
		"rt": 2647,
		"stimulus": "<span style=\"font-size:30px; font-family: monospace\">vaga-lume</span>",
		"response": " ",
		"trial": "exp-sent",
		"word": "vaga-lume",
		"trial_type": "html-keyboard-response",
		"trial_index": 25,
		"time_elapsed": 346012,
		"internal_node_id": "0.0-3.0-1.4"
	},
	{
		"rt": 2864,
		"stimulus": "<span style=\"font-size:30px; font-family: monospace\">nos</span>",
		"response": " ",
		"trial": "exp-sent",
		"word": "nos",
		"trial_type": "html-keyboard-response",
		"trial_index": 26,
		"time_elapsed": 349137,
		"internal_node_id": "0.0-3.0-1.5"
	},
	{
		"rt": 3492,
		"stimulus": "<span style=\"font-size:30px; font-family: monospace\">arbustos.</span>",
		"response": " ",
		"trial": "exp-sent",
		"word": "arbustos.",
		"trial_type": "html-keyboard-response",
		"trial_index": 27,
		"time_elapsed": 352893,
		"internal_node_id": "0.0-3.0-1.6"
	},
	{
		"rt": null,
		"stimulus": "<span style= \"font-size:30px; font-family: monospace\">+</span>",
		"response": null,
		"trial_part": "fixation",
		"trial_type": "html-keyboard-response",
		"trial_index": 28,
		"time_elapsed": 354158,
		"internal_node_id": "0.0-3.0-0.7-0.7"
	},
	{
		"rt": 1757,
		"stimulus": "<span style=\"font-size:30px; font-family: monospace\">Ontem</span>",
		"response": " ",
		"trial": "exp-sent",
		"word": "Ontem",
		"trial_type": "html-keyboard-response",
		"trial_index": 29,
		"time_elapsed": 356173,
		"internal_node_id": "0.0-3.0-1.7"
	},
	{
		"rt": 1511,
		"stimulus": "<span style=\"font-size:30px; font-family: monospace\">o</span>",
		"response": " ",
		"trial": "exp-sent",
		"word": "o",
		"trial_type": "html-keyboard-response",
		"trial_index": 30,
		"time_elapsed": 357941,
		"internal_node_id": "0.0-3.0-1.8"
	},
	{
		"rt": 1714,
		"stimulus": "<span style=\"font-size:30px; font-family: monospace\">funcionário</span>",
		"response": " ",
		"trial": "exp-sent",
		"word": "funcionário",
		"trial_type": "html-keyboard-response",
		"trial_index": 31,
		"time_elapsed": 359919,
		"internal_node_id": "0.0-3.0-1.9"
	},
	{
		"rt": 1794,
		"stimulus": "<span style=\"font-size:30px; font-family: monospace\">pediu</span>",
		"response": " ",
		"trial": "exp-sent",
		"word": "pediu",
		"trial_type": "html-keyboard-response",
		"trial_index": 32,
		"time_elapsed": 361978,
		"internal_node_id": "0.0-3.0-1.10"
	},
	{
		"rt": 1788,
		"stimulus": "<span style=\"font-size:30px; font-family: monospace\">autorização</span>",
		"response": " ",
		"trial": "exp-sent",
		"word": "autorização",
		"trial_type": "html-keyboard-response",
		"trial_index": 33,
		"time_elapsed": 364025,
		"internal_node_id": "0.0-3.0-1.11"
	},
	{
		"rt": 1677,
		"stimulus": "<span style=\"font-size:30px; font-family: monospace\">para</span>",
		"response": " ",
		"trial": "exp-sent",
		"word": "para",
		"trial_type": "html-keyboard-response",
		"trial_index": 34,
		"time_elapsed": 365959,
		"internal_node_id": "0.0-3.0-1.12"
	},
	{
		"rt": 1706,
		"stimulus": "<span style=\"font-size:30px; font-family: monospace\">a</span>",
		"response": " ",
		"trial": "exp-sent",
		"word": "a",
		"trial_type": "html-keyboard-response",
		"trial_index": 35,
		"time_elapsed": 367923,
		"internal_node_id": "0.0-3.0-1.13"
	},
	{
		"rt": 2119,
		"stimulus": "<span style=\"font-size:30px; font-family: monospace\">colega.</span>",
		"response": " ",
		"trial": "exp-sent",
		"word": "colega.",
		"trial_type": "html-keyboard-response",
		"trial_index": 36,
		"time_elapsed": 370299,
		"internal_node_id": "0.0-3.0-1.14"
	},
	{
		"rt": null,
		"stimulus": "<span style= \"font-size:30px; font-family: monospace\">+</span>",
		"response": null,
		"trial_part": "fixation",
		"trial_type": "html-keyboard-response",
		"trial_index": 37,
		"time_elapsed": 371567,
		"internal_node_id": "0.0-3.0-0.15-0.15"
	},
	{
		"rt": 2171,
		"stimulus": "<span style=\"font-size:30px; font-family: monospace\">Eu</span>",
		"response": " ",
		"trial": "exp-sent",
		"word": "Eu",
		"trial_type": "html-keyboard-response",
		"trial_index": 38,
		"time_elapsed": 373996,
		"internal_node_id": "0.0-3.0-1.15"
	},
	{
		"rt": 1505,
		"stimulus": "<span style=\"font-size:30px; font-family: monospace\">sempre</span>",
		"response": " ",
		"trial": "exp-sent",
		"word": "sempre",
		"trial_type": "html-keyboard-response",
		"trial_index": 39,
		"time_elapsed": 375760,
		"internal_node_id": "0.0-3.0-1.16"
	},
	{
		"rt": 1695,
		"stimulus": "<span style=\"font-size:30px; font-family: monospace\">fujo</span>",
		"response": " ",
		"trial": "exp-sent",
		"word": "fujo",
		"trial_type": "html-keyboard-response",
		"trial_index": 40,
		"time_elapsed": 377714,
		"internal_node_id": "0.0-3.0-1.17"
	},
	{
		"rt": 1683,
		"stimulus": "<span style=\"font-size:30px; font-family: monospace\">de</span>",
		"response": " ",
		"trial": "exp-sent",
		"word": "de",
		"trial_type": "html-keyboard-response",
		"trial_index": 41,
		"time_elapsed": 379660,
		"internal_node_id": "0.0-3.0-1.18"
	},
	{
		"rt": 2112,
		"stimulus": "<span style=\"font-size:30px; font-family: monospace\">conflito</span>",
		"response": " ",
		"trial": "exp-sent",
		"word": "conflito",
		"trial_type": "html-keyboard-response",
		"trial_index": 42,
		"time_elapsed": 382038,
		"internal_node_id": "0.0-3.0-1.19"
	},
	{
		"rt": 1779,
		"stimulus": "<span style=\"font-size:30px; font-family: monospace\">com</span>",
		"response": " ",
		"trial": "exp-sent",
		"word": "com",
		"trial_type": "html-keyboard-response",
		"trial_index": 43,
		"time_elapsed": 384074,
		"internal_node_id": "0.0-3.0-1.20"
	},
	{
		"rt": 1467,
		"stimulus": "<span style=\"font-size:30px; font-family: monospace\">as</span>",
		"response": " ",
		"trial": "exp-sent",
		"word": "as",
		"trial_type": "html-keyboard-response",
		"trial_index": 44,
		"time_elapsed": 385805,
		"internal_node_id": "0.0-3.0-1.21"
	},
	{
		"rt": 2591,
		"stimulus": "<span style=\"font-size:30px; font-family: monospace\">pessoas.</span>",
		"response": " ",
		"trial": "exp-sent",
		"word": "pessoas.",
		"trial_type": "html-keyboard-response",
		"trial_index": 45,
		"time_elapsed": 388658,
		"internal_node_id": "0.0-3.0-1.22"
	},
	{
		"rt": null,
		"stimulus": "<span style= \"font-size:30px; font-family: monospace\">+</span>",
		"response": null,
		"trial_part": "fixation",
		"trial_type": "html-keyboard-response",
		"trial_index": 46,
		"time_elapsed": 389923,
		"internal_node_id": "0.0-3.0-0.23-0.23"
	},
	{
		"rt": 4271,
		"stimulus": "<span style=\"font-size:30px; font-family: monospace\">O</span>",
		"response": " ",
		"trial": "exp-sent",
		"word": "O",
		"trial_type": "html-keyboard-response",
		"trial_index": 47,
		"time_elapsed": 394452,
		"internal_node_id": "0.0-3.0-1.23"
	},
	{
		"rt": 2124,
		"stimulus": "<span style=\"font-size:30px; font-family: monospace\">bolo</span>",
		"response": " ",
		"trial": "exp-sent",
		"word": "bolo",
		"trial_type": "html-keyboard-response",
		"trial_index": 48,
		"time_elapsed": 396829,
		"internal_node_id": "0.0-3.0-1.24"
	},
	{
		"rt": 996,
		"stimulus": "<span style=\"font-size:30px; font-family: monospace\">era</span>",
		"response": " ",
		"trial": "exp-sent",
		"word": "era",
		"trial_type": "html-keyboard-response",
		"trial_index": 49,
		"time_elapsed": 398081,
		"internal_node_id": "0.0-3.0-1.25"
	},
	{
		"rt": 2026,
		"stimulus": "<span style=\"font-size:30px; font-family: monospace\">de</span>",
		"response": " ",
		"trial": "exp-sent",
		"word": "de",
		"trial_type": "html-keyboard-response",
		"trial_index": 50,
		"time_elapsed": 400359,
		"internal_node_id": "0.0-3.0-1.26"
	},
	{
		"rt": 2475,
		"stimulus": "<span style=\"font-size:30px; font-family: monospace\">abacaxi</span>",
		"response": " ",
		"trial": "exp-sent",
		"word": "abacaxi",
		"trial_type": "html-keyboard-response",
		"trial_index": 51,
		"time_elapsed": 403088,
		"internal_node_id": "0.0-3.0-1.27"
	},
	{
		"rt": 2796,
		"stimulus": "<span style=\"font-size:30px; font-family: monospace\">e</span>",
		"response": " ",
		"trial": "exp-sent",
		"word": "e",
		"trial_type": "html-keyboard-response",
		"trial_index": 52,
		"time_elapsed": 406138,
		"internal_node_id": "0.0-3.0-1.28"
	},
	{
		"rt": 1465,
		"stimulus": "<span style=\"font-size:30px; font-family: monospace\">creme</span>",
		"response": " ",
		"trial": "exp-sent",
		"word": "creme",
		"trial_type": "html-keyboard-response",
		"trial_index": 53,
		"time_elapsed": 407863,
		"internal_node_id": "0.0-3.0-1.29"
	},
	{
		"rt": 1313,
		"stimulus": "<span style=\"font-size:30px; font-family: monospace\">de</span>",
		"response": " ",
		"trial": "exp-sent",
		"word": "de",
		"trial_type": "html-keyboard-response",
		"trial_index": 54,
		"time_elapsed": 409431,
		"internal_node_id": "0.0-3.0-1.30"
	},
	{
		"rt": 3343,
		"stimulus": "<span style=\"font-size:30px; font-family: monospace\">coco.</span>",
		"response": " ",
		"trial": "exp-sent",
		"word": "coco.",
		"trial_type": "html-keyboard-response",
		"trial_index": 55,
		"time_elapsed": 413028,
		"internal_node_id": "0.0-3.0-1.31"
	},
	{
		"rt": null,
		"stimulus": "<span style= \"font-size:30px; font-family: monospace\">+</span>",
		"response": null,
		"trial_part": "fixation",
		"trial_type": "html-keyboard-response",
		"trial_index": 56,
		"time_elapsed": 414286,
		"internal_node_id": "0.0-3.0-0.32-0.32"
	},
	{
		"rt": 1691,
		"stimulus": "<span style=\"font-size:30px; font-family: monospace\">As</span>",
		"response": " ",
		"trial": "exp-sent",
		"word": "As",
		"trial_type": "html-keyboard-response",
		"trial_index": 57,
		"time_elapsed": 416234,
		"internal_node_id": "0.0-3.0-1.32"
	},
	{
		"rt": 1890,
		"stimulus": "<span style=\"font-size:30px; font-family: monospace\">crianças</span>",
		"response": " ",
		"trial": "exp-sent",
		"word": "crianças",
		"trial_type": "html-keyboard-response",
		"trial_index": 58,
		"time_elapsed": 418379,
		"internal_node_id": "0.0-3.0-1.33"
	},
	{
		"rt": 2450,
		"stimulus": "<span style=\"font-size:30px; font-family: monospace\">brincaram</span>",
		"response": " ",
		"trial": "exp-sent",
		"word": "brincaram",
		"trial_type": "html-keyboard-response",
		"trial_index": 59,
		"time_elapsed": 421087,
		"internal_node_id": "0.0-3.0-1.34"
	},
	{
		"rt": 1462,
		"stimulus": "<span style=\"font-size:30px; font-family: monospace\">com</span>",
		"response": " ",
		"trial": "exp-sent",
		"word": "com",
		"trial_type": "html-keyboard-response",
		"trial_index": 60,
		"time_elapsed": 422806,
		"internal_node_id": "0.0-3.0-1.35"
	},
	{
		"rt": 2796,
		"stimulus": "<span style=\"font-size:30px; font-family: monospace\">bolhas</span>",
		"response": " ",
		"trial": "exp-sent",
		"word": "bolhas",
		"trial_type": "html-keyboard-response",
		"trial_index": 61,
		"time_elapsed": 425854,
		"internal_node_id": "0.0-3.0-1.36"
	},
	{
		"rt": 1667,
		"stimulus": "<span style=\"font-size:30px; font-family: monospace\">no</span>",
		"response": " ",
		"trial": "exp-sent",
		"word": "no",
		"trial_type": "html-keyboard-response",
		"trial_index": 62,
		"time_elapsed": 427776,
		"internal_node_id": "0.0-3.0-1.37"
	},
	{
		"rt": 2311,
		"stimulus": "<span style=\"font-size:30px; font-family: monospace\">banho.</span>",
		"response": " ",
		"trial": "comp",
		"word": "banho.",
		"trial_type": "html-keyboard-response",
		"trial_index": 63,
		"time_elapsed": 430344,
		"internal_node_id": "0.0-3.0-1.38"
	},
	{
		"rt": 16846,
		"stimulus": "<span style=\"font-size:30px; font-family: monospace\">As crianças brincaram com bolhas?</span>",
		"response": "n",
		"question": "As crianças brincaram com bolhas?",
		"answer": "sim",
		"trial": "comp",
		"trial_type": "html-keyboard-response",
		"trial_index": 64,
		"time_elapsed": 447442,
		"internal_node_id": "0.0-3.0-2.38-0.38",
		"accuracy": false
	},
	{
		"rt": null,
		"stimulus": "<span style= \"font-size:30px; font-family: monospace\">+</span>",
		"response": null,
		"trial_part": "fixation",
		"trial_type": "html-keyboard-response",
		"trial_index": 65,
		"time_elapsed": 448955,
		"internal_node_id": "0.0-3.0-0.39-0.39"
	},
	{
		"rt": 3085,
		"stimulus": "<span style=\"font-size:30px; font-family: monospace\">O</span>",
		"response": " ",
		"trial": "exp-sent",
		"word": "O",
		"trial_type": "html-keyboard-response",
		"trial_index": 66,
		"time_elapsed": 452302,
		"internal_node_id": "0.0-3.0-1.39"
	},
	{
		"rt": 1330,
		"stimulus": "<span style=\"font-size:30px; font-family: monospace\">texto</span>",
		"response": " ",
		"trial": "exp-sent",
		"word": "texto",
		"trial_type": "html-keyboard-response",
		"trial_index": 67,
		"time_elapsed": 453892,
		"internal_node_id": "0.0-3.0-1.40"
	},
	{
		"rt": 2322,
		"stimulus": "<span style=\"font-size:30px; font-family: monospace\">trazia</span>",
		"response": " ",
		"trial": "exp-sent",
		"word": "trazia",
		"trial_type": "html-keyboard-response",
		"trial_index": 68,
		"time_elapsed": 456474,
		"internal_node_id": "0.0-3.0-1.41"
	},
	{
		"rt": 1079,
		"stimulus": "<span style=\"font-size:30px; font-family: monospace\">um</span>",
		"response": " ",
		"trial": "exp-sent",
		"word": "um",
		"trial_type": "html-keyboard-response",
		"trial_index": 69,
		"time_elapsed": 457808,
		"internal_node_id": "0.0-3.0-1.42"
	},
	{
		"rt": 1662,
		"stimulus": "<span style=\"font-size:30px; font-family: monospace\">argumento</span>",
		"response": " ",
		"trial": "exp-sent",
		"word": "argumento",
		"trial_type": "html-keyboard-response",
		"trial_index": 70,
		"time_elapsed": 459732,
		"internal_node_id": "0.0-3.0-1.43"
	},
	{
		"rt": 1597,
		"stimulus": "<span style=\"font-size:30px; font-family: monospace\">central</span>",
		"response": " ",
		"trial": "exp-sent",
		"word": "central",
		"trial_type": "html-keyboard-response",
		"trial_index": 71,
		"time_elapsed": 461583,
		"internal_node_id": "0.0-3.0-1.44"
	},
	{
		"rt": 1680,
		"stimulus": "<span style=\"font-size:30px; font-family: monospace\">para</span>",
		"response": " ",
		"trial": "exp-sent",
		"word": "para",
		"trial_type": "html-keyboard-response",
		"trial_index": 72,
		"time_elapsed": 463518,
		"internal_node_id": "0.0-3.0-1.45"
	},
	{
		"rt": 1077,
		"stimulus": "<span style=\"font-size:30px; font-family: monospace\">a</span>",
		"response": " ",
		"trial": "exp-sent",
		"word": "a",
		"trial_type": "html-keyboard-response",
		"trial_index": 73,
		"time_elapsed": 464854,
		"internal_node_id": "0.0-3.0-1.46"
	},
	{
		"rt": 1354,
		"stimulus": "<span style=\"font-size:30px; font-family: monospace\">conversa.</span>",
		"response": " ",
		"trial": "exp-sent",
		"word": "conversa.",
		"trial_type": "html-keyboard-response",
		"trial_index": 74,
		"time_elapsed": 466464,
		"internal_node_id": "0.0-3.0-1.47"
	},
	{
		"rt": null,
		"stimulus": "<span style= \"font-size:30px; font-family: monospace\">+</span>",
		"response": null,
		"trial_part": "fixation",
		"trial_type": "html-keyboard-response",
		"trial_index": 75,
		"time_elapsed": 467728,
		"internal_node_id": "0.0-3.0-0.48-0.48"
	},
	{
		"rt": 1711,
		"stimulus": "<span style=\"font-size:30px; font-family: monospace\">Ontem</span>",
		"response": " ",
		"trial": "exp-sent",
		"word": "Ontem",
		"trial_type": "html-keyboard-response",
		"trial_index": 76,
		"time_elapsed": 469702,
		"internal_node_id": "0.0-3.0-1.48"
	},
	{
		"rt": 1164,
		"stimulus": "<span style=\"font-size:30px; font-family: monospace\">a</span>",
		"response": " ",
		"trial": "exp-sent",
		"word": "a",
		"trial_type": "html-keyboard-response",
		"trial_index": 77,
		"time_elapsed": 471124,
		"internal_node_id": "0.0-3.0-1.49"
	},
	{
		"rt": 1574,
		"stimulus": "<span style=\"font-size:30px; font-family: monospace\">temperatura</span>",
		"response": " ",
		"trial": "exp-sent",
		"word": "temperatura",
		"trial_type": "html-keyboard-response",
		"trial_index": 78,
		"time_elapsed": 472961,
		"internal_node_id": "0.0-3.0-1.50"
	},
	{
		"rt": 1325,
		"stimulus": "<span style=\"font-size:30px; font-family: monospace\">estava</span>",
		"response": " ",
		"trial": "exp-sent",
		"word": "estava",
		"trial_type": "html-keyboard-response",
		"trial_index": 79,
		"time_elapsed": 474541,
		"internal_node_id": "0.0-3.0-1.51"
	},
	{
		"rt": 2511,
		"stimulus": "<span style=\"font-size:30px; font-family: monospace\">amena</span>",
		"response": " ",
		"trial": "exp-sent",
		"word": "amena",
		"trial_type": "html-keyboard-response",
		"trial_index": 80,
		"time_elapsed": 477308,
		"internal_node_id": "0.0-3.0-1.52"
	},
	{
		"rt": 1264,
		"stimulus": "<span style=\"font-size:30px; font-family: monospace\">durante</span>",
		"response": " ",
		"trial": "exp-sent",
		"word": "durante",
		"trial_type": "html-keyboard-response",
		"trial_index": 81,
		"time_elapsed": 478830,
		"internal_node_id": "0.0-3.0-1.53"
	},
	{
		"rt": 1381,
		"stimulus": "<span style=\"font-size:30px; font-family: monospace\">o</span>",
		"response": " ",
		"trial": "exp-sent",
		"word": "o",
		"trial_type": "html-keyboard-response",
		"trial_index": 82,
		"time_elapsed": 480472,
		"internal_node_id": "0.0-3.0-1.54"
	},
	{
		"rt": 1411,
		"stimulus": "<span style=\"font-size:30px; font-family: monospace\">dia.</span>",
		"response": " ",
		"trial": "exp-sent",
		"word": "dia.",
		"trial_type": "html-keyboard-response",
		"trial_index": 83,
		"time_elapsed": 482138,
		"internal_node_id": "0.0-3.0-1.55"
	},
	{
		"rt": null,
		"stimulus": "<span style= \"font-size:30px; font-family: monospace\">+</span>",
		"response": null,
		"trial_part": "fixation",
		"trial_type": "html-keyboard-response",
		"trial_index": 84,
		"time_elapsed": 483399,
		"internal_node_id": "0.0-3.0-0.56-0.56"
	},
	{
		"rt": 1490,
		"stimulus": "<span style=\"font-size:30px; font-family: monospace\">Havia</span>",
		"response": " ",
		"trial": "exp-sent",
		"word": "Havia",
		"trial_type": "html-keyboard-response",
		"trial_index": 85,
		"time_elapsed": 485147,
		"internal_node_id": "0.0-3.0-1.56"
	},
	{
		"rt": 1147,
		"stimulus": "<span style=\"font-size:30px; font-family: monospace\">um</span>",
		"response": " ",
		"trial": "exp-sent",
		"word": "um",
		"trial_type": "html-keyboard-response",
		"trial_index": 86,
		"time_elapsed": 486551,
		"internal_node_id": "0.0-3.0-1.57"
	},
	{
		"rt": 3141,
		"stimulus": "<span style=\"font-size:30px; font-family: monospace\">machucado</span>",
		"response": " ",
		"trial": "exp-sent",
		"word": "machucado",
		"trial_type": "html-keyboard-response",
		"trial_index": 87,
		"time_elapsed": 489954,
		"internal_node_id": "0.0-3.0-1.58"
	},
	{
		"rt": 1352,
		"stimulus": "<span style=\"font-size:30px; font-family: monospace\">no</span>",
		"response": " ",
		"trial": "exp-sent",
		"word": "no",
		"trial_type": "html-keyboard-response",
		"trial_index": 88,
		"time_elapsed": 491567,
		"internal_node_id": "0.0-3.0-1.59"
	},
	{
		"rt": 1244,
		"stimulus": "<span style=\"font-size:30px; font-family: monospace\">dedo</span>",
		"response": " ",
		"trial": "exp-sent",
		"word": "dedo",
		"trial_type": "html-keyboard-response",
		"trial_index": 89,
		"time_elapsed": 493068,
		"internal_node_id": "0.0-3.0-1.60"
	},
	{
		"rt": 1035,
		"stimulus": "<span style=\"font-size:30px; font-family: monospace\">da</span>",
		"response": " ",
		"trial": "exp-sent",
		"word": "da",
		"trial_type": "html-keyboard-response",
		"trial_index": 90,
		"time_elapsed": 494361,
		"internal_node_id": "0.0-3.0-1.61"
	},
	{
		"rt": 1482,
		"stimulus": "<span style=\"font-size:30px; font-family: monospace\">criança.</span>",
		"response": " ",
		"trial": "exp-sent",
		"word": "criança.",
		"trial_type": "html-keyboard-response",
		"trial_index": 91,
		"time_elapsed": 496100,
		"internal_node_id": "0.0-3.0-1.62"
	},
	{
		"rt": null,
		"stimulus": "<span style= \"font-size:30px; font-family: monospace\">+</span>",
		"response": null,
		"trial_part": "fixation",
		"trial_type": "html-keyboard-response",
		"trial_index": 92,
		"time_elapsed": 497364,
		"internal_node_id": "0.0-3.0-0.63-0.63"
	},
	{
		"rt": 1681,
		"stimulus": "<span style=\"font-size:30px; font-family: monospace\">A</span>",
		"response": " ",
		"trial": "exp-sent",
		"word": "A",
		"trial_type": "html-keyboard-response",
		"trial_index": 93,
		"time_elapsed": 499302,
		"internal_node_id": "0.0-3.0-1.63"
	},
	{
		"rt": 2636,
		"stimulus": "<span style=\"font-size:30px; font-family: monospace\">borboleta</span>",
		"response": " ",
		"trial": "exp-sent",
		"word": "borboleta",
		"trial_type": "html-keyboard-response",
		"trial_index": 94,
		"time_elapsed": 502205,
		"internal_node_id": "0.0-3.0-1.64"
	},
	{
		"rt": 2456,
		"stimulus": "<span style=\"font-size:30px; font-family: monospace\">pousou</span>",
		"response": " ",
		"trial": "exp-sent",
		"word": "pousou",
		"trial_type": "html-keyboard-response",
		"trial_index": 95,
		"time_elapsed": 504921,
		"internal_node_id": "0.0-3.0-1.65"
	},
	{
		"rt": 1215,
		"stimulus": "<span style=\"font-size:30px; font-family: monospace\">no</span>",
		"response": " ",
		"trial": "exp-sent",
		"word": "no",
		"trial_type": "html-keyboard-response",
		"trial_index": 96,
		"time_elapsed": 506392,
		"internal_node_id": "0.0-3.0-1.66"
	},
	{
		"rt": 2936,
		"stimulus": "<span style=\"font-size:30px; font-family: monospace\">ombro</span>",
		"response": " ",
		"trial": "exp-sent",
		"word": "ombro",
		"trial_type": "html-keyboard-response",
		"trial_index": 97,
		"time_elapsed": 509593,
		"internal_node_id": "0.0-3.0-1.67"
	},
	{
		"rt": 1566,
		"stimulus": "<span style=\"font-size:30px; font-family: monospace\">daquela</span>",
		"response": " ",
		"trial": "exp-sent",
		"word": "daquela",
		"trial_type": "html-keyboard-response",
		"trial_index": 98,
		"time_elapsed": 511420,
		"internal_node_id": "0.0-3.0-1.68"
	},
	{
		"rt": 1229,
		"stimulus": "<span style=\"font-size:30px; font-family: monospace\">moça.</span>",
		"response": " ",
		"trial": "exp-sent",
		"word": "moça.",
		"trial_type": "html-keyboard-response",
		"trial_index": 99,
		"time_elapsed": 512904,
		"internal_node_id": "0.0-3.0-1.69"
	},
	{
		"rt": null,
		"stimulus": "<span style= \"font-size:30px; font-family: monospace\">+</span>",
		"response": null,
		"trial_part": "fixation",
		"trial_type": "html-keyboard-response",
		"trial_index": 100,
		"time_elapsed": 514167,
		"internal_node_id": "0.0-3.0-0.70-0.70"
	},
	{
		"rt": 1581,
		"stimulus": "<span style=\"font-size:30px; font-family: monospace\">Eu</span>",
		"response": " ",
		"trial": "exp-sent",
		"word": "Eu",
		"trial_type": "html-keyboard-response",
		"trial_index": 101,
		"time_elapsed": 516010,
		"internal_node_id": "0.0-3.0-1.70"
	},
	{
		"rt": 1134,
		"stimulus": "<span style=\"font-size:30px; font-family: monospace\">quero</span>",
		"response": " ",
		"trial": "exp-sent",
		"word": "quero",
		"trial_type": "html-keyboard-response",
		"trial_index": 102,
		"time_elapsed": 517401,
		"internal_node_id": "0.0-3.0-1.71"
	},
	{
		"rt": 1278,
		"stimulus": "<span style=\"font-size:30px; font-family: monospace\">um</span>",
		"response": " ",
		"trial": "exp-sent",
		"word": "um",
		"trial_type": "html-keyboard-response",
		"trial_index": 103,
		"time_elapsed": 518936,
		"internal_node_id": "0.0-3.0-1.72"
	},
	{
		"rt": 2008,
		"stimulus": "<span style=\"font-size:30px; font-family: monospace\">namorado</span>",
		"response": " ",
		"trial": "exp-sent",
		"word": "namorado",
		"trial_type": "html-keyboard-response",
		"trial_index": 104,
		"time_elapsed": 521203,
		"internal_node_id": "0.0-3.0-1.73"
	},
	{
		"rt": 1380,
		"stimulus": "<span style=\"font-size:30px; font-family: monospace\">honesto</span>",
		"response": " ",
		"trial": "exp-sent",
		"word": "honesto",
		"trial_type": "html-keyboard-response",
		"trial_index": 105,
		"time_elapsed": 522839,
		"internal_node_id": "0.0-3.0-1.74"
	},
	{
		"rt": 1745,
		"stimulus": "<span style=\"font-size:30px; font-family: monospace\">e</span>",
		"response": " ",
		"trial": "exp-sent",
		"word": "e",
		"trial_type": "html-keyboard-response",
		"trial_index": 106,
		"time_elapsed": 524845,
		"internal_node_id": "0.0-3.0-1.75"
	},
	{
		"rt": 1795,
		"stimulus": "<span style=\"font-size:30px; font-family: monospace\">compreensivo.</span>",
		"response": " ",
		"trial": "comp",
		"word": "compreensivo.",
		"trial_type": "html-keyboard-response",
		"trial_index": 107,
		"time_elapsed": 526899,
		"internal_node_id": "0.0-3.0-1.76"
	},
	{
		"rt": 68270,
		"stimulus": "<span style=\"font-size:30px; font-family: monospace\">Eu quero um namorado honesto?</span>",
		"response": "s",
		"question": "Eu quero um namorado honesto?",
		"answer": "sim",
		"trial": "comp",
		"trial_type": "html-keyboard-response",
		"trial_index": 108,
		"time_elapsed": 595427,
		"internal_node_id": "0.0-3.0-2.76-0.76",
		"accuracy": false
	},
	{
		"rt": null,
		"stimulus": "<span style= \"font-size:30px; font-family: monospace\">+</span>",
		"response": null,
		"trial_part": "fixation",
		"trial_type": "html-keyboard-response",
		"trial_index": 109,
		"time_elapsed": 596941,
		"internal_node_id": "0.0-3.0-0.77-0.77"
	},
	{
		"rt": 2347,
		"stimulus": "<span style=\"font-size:30px; font-family: monospace\">Este</span>",
		"response": " ",
		"trial": "exp-sent",
		"word": "Este",
		"trial_type": "html-keyboard-response",
		"trial_index": 110,
		"time_elapsed": 599548,
		"internal_node_id": "0.0-3.0-1.77"
	},
	{
		"rt": 2503,
		"stimulus": "<span style=\"font-size:30px; font-family: monospace\">conto</span>",
		"response": " ",
		"trial": "exp-sent",
		"word": "conto",
		"trial_type": "html-keyboard-response",
		"trial_index": 111,
		"time_elapsed": 602307,
		"internal_node_id": "0.0-3.0-1.78"
	},
	{
		"rt": 2643,
		"stimulus": "<span style=\"font-size:30px; font-family: monospace\">tem</span>",
		"response": " ",
		"trial": "exp-sent",
		"word": "tem",
		"trial_type": "html-keyboard-response",
		"trial_index": 112,
		"time_elapsed": 605204,
		"internal_node_id": "0.0-3.0-1.79"
	},
	{
		"rt": 1016,
		"stimulus": "<span style=\"font-size:30px; font-family: monospace\">um</span>",
		"response": " ",
		"trial": "exp-sent",
		"word": "um",
		"trial_type": "html-keyboard-response",
		"trial_index": 113,
		"time_elapsed": 606474,
		"internal_node_id": "0.0-3.0-1.80"
	},
	{
		"rt": 1204,
		"stimulus": "<span style=\"font-size:30px; font-family: monospace\">final</span>",
		"response": " ",
		"trial": "exp-sent",
		"word": "final",
		"trial_type": "html-keyboard-response",
		"trial_index": 114,
		"time_elapsed": 607932,
		"internal_node_id": "0.0-3.0-1.81"
	},
	{
		"rt": 1407,
		"stimulus": "<span style=\"font-size:30px; font-family: monospace\">perfeito.</span>",
		"response": " ",
		"trial": "exp-sent",
		"word": "perfeito.",
		"trial_type": "html-keyboard-response",
		"trial_index": 115,
		"time_elapsed": 609595,
		"internal_node_id": "0.0-3.0-1.82"
	},
	{
		"rt": null,
		"stimulus": "<span style= \"font-size:30px; font-family: monospace\">+</span>",
		"response": null,
		"trial_part": "fixation",
		"trial_type": "html-keyboard-response",
		"trial_index": 116,
		"time_elapsed": 610854,
		"internal_node_id": "0.0-3.0-0.83-0.83"
	},
	{
		"rt": 851,
		"stimulus": "<span style=\"font-size:30px; font-family: monospace\">Ele</span>",
		"response": " ",
		"trial": "exp-sent",
		"word": "Ele",
		"trial_type": "html-keyboard-response",
		"trial_index": 117,
		"time_elapsed": 611967,
		"internal_node_id": "0.0-3.0-1.83"
	},
	{
		"rt": 1285,
		"stimulus": "<span style=\"font-size:30px; font-family: monospace\">precisa</span>",
		"response": " ",
		"trial": "exp-sent",
		"word": "precisa",
		"trial_type": "html-keyboard-response",
		"trial_index": 118,
		"time_elapsed": 613505,
		"internal_node_id": "0.0-3.0-1.84"
	},
	{
		"rt": 1148,
		"stimulus": "<span style=\"font-size:30px; font-family: monospace\">de</span>",
		"response": " ",
		"trial": "exp-sent",
		"word": "de",
		"trial_type": "html-keyboard-response",
		"trial_index": 119,
		"time_elapsed": 614911,
		"internal_node_id": "0.0-3.0-1.85"
	},
	{
		"rt": 1040,
		"stimulus": "<span style=\"font-size:30px; font-family: monospace\">um</span>",
		"response": " ",
		"trial": "exp-sent",
		"word": "um",
		"trial_type": "html-keyboard-response",
		"trial_index": 120,
		"time_elapsed": 616205,
		"internal_node_id": "0.0-3.0-1.86"
	},
	{
		"rt": 1617,
		"stimulus": "<span style=\"font-size:30px; font-family: monospace\">protetor</span>",
		"response": " ",
		"trial": "exp-sent",
		"word": "protetor",
		"trial_type": "html-keyboard-response",
		"trial_index": 121,
		"time_elapsed": 618076,
		"internal_node_id": "0.0-3.0-1.87"
	},
	{
		"rt": 1115,
		"stimulus": "<span style=\"font-size:30px; font-family: monospace\">de</span>",
		"response": " ",
		"trial": "exp-sent",
		"word": "de",
		"trial_type": "html-keyboard-response",
		"trial_index": 122,
		"time_elapsed": 619453,
		"internal_node_id": "0.0-3.0-1.88"
	},
	{
		"rt": 1457,
		"stimulus": "<span style=\"font-size:30px; font-family: monospace\">ouvido.</span>",
		"response": " ",
		"trial": "exp-sent",
		"word": "ouvido.",
		"trial_type": "html-keyboard-response",
		"trial_index": 123,
		"time_elapsed": 621166,
		"internal_node_id": "0.0-3.0-1.89"
	},
	{
		"rt": null,
		"stimulus": "<span style= \"font-size:30px; font-family: monospace\">+</span>",
		"response": null,
		"trial_part": "fixation",
		"trial_type": "html-keyboard-response",
		"trial_index": 124,
		"time_elapsed": 622437,
		"internal_node_id": "0.0-3.0-0.90-0.90"
	},
	{
		"rt": 761,
		"stimulus": "<span style=\"font-size:30px; font-family: monospace\">Os</span>",
		"response": " ",
		"trial": "exp-sent",
		"word": "Os",
		"trial_type": "html-keyboard-response",
		"trial_index": 125,
		"time_elapsed": 623455,
		"internal_node_id": "0.0-3.0-1.90"
	},
	{
		"rt": 4056,
		"stimulus": "<span style=\"font-size:30px; font-family: monospace\">hábitos</span>",
		"response": " ",
		"trial": "exp-sent",
		"word": "hábitos",
		"trial_type": "html-keyboard-response",
		"trial_index": 126,
		"time_elapsed": 627766,
		"internal_node_id": "0.0-3.0-1.91"
	},
	{
		"rt": 957,
		"stimulus": "<span style=\"font-size:30px; font-family: monospace\">de</span>",
		"response": " ",
		"trial": "exp-sent",
		"word": "de",
		"trial_type": "html-keyboard-response",
		"trial_index": 127,
		"time_elapsed": 628976,
		"internal_node_id": "0.0-3.0-1.92"
	},
	{
		"rt": 1492,
		"stimulus": "<span style=\"font-size:30px; font-family: monospace\">lugares</span>",
		"response": " ",
		"trial": "exp-sent",
		"word": "lugares",
		"trial_type": "html-keyboard-response",
		"trial_index": 128,
		"time_elapsed": 630727,
		"internal_node_id": "0.0-3.0-1.93"
	},
	{
		"rt": 2082,
		"stimulus": "<span style=\"font-size:30px; font-family: monospace\">diferentes</span>",
		"response": " ",
		"trial": "exp-sent",
		"word": "diferentes",
		"trial_type": "html-keyboard-response",
		"trial_index": 129,
		"time_elapsed": 633065,
		"internal_node_id": "0.0-3.0-1.94"
	},
	{
		"rt": 1005,
		"stimulus": "<span style=\"font-size:30px; font-family: monospace\">são</span>",
		"response": " ",
		"trial": "exp-sent",
		"word": "são",
		"trial_type": "html-keyboard-response",
		"trial_index": 130,
		"time_elapsed": 634329,
		"internal_node_id": "0.0-3.0-1.95"
	},
	{
		"rt": 1215,
		"stimulus": "<span style=\"font-size:30px; font-family: monospace\">muito</span>",
		"response": " ",
		"trial": "exp-sent",
		"word": "muito",
		"trial_type": "html-keyboard-response",
		"trial_index": 131,
		"time_elapsed": 635802,
		"internal_node_id": "0.0-3.0-1.96"
	},
	{
		"rt": 1132,
		"stimulus": "<span style=\"font-size:30px; font-family: monospace\">lindos.</span>",
		"response": " ",
		"trial": "exp-sent",
		"word": "lindos.",
		"trial_type": "html-keyboard-response",
		"trial_index": 132,
		"time_elapsed": 637191,
		"internal_node_id": "0.0-3.0-1.97"
	},
	{
		"rt": null,
		"stimulus": "<span style= \"font-size:30px; font-family: monospace\">+</span>",
		"response": null,
		"trial_part": "fixation",
		"trial_type": "html-keyboard-response",
		"trial_index": 133,
		"time_elapsed": 638454,
		"internal_node_id": "0.0-3.0-0.98-0.98"
	},
	{
		"rt": 679,
		"stimulus": "<span style=\"font-size:30px; font-family: monospace\">O</span>",
		"response": " ",
		"trial": "exp-sent",
		"word": "O",
		"trial_type": "html-keyboard-response",
		"trial_index": 134,
		"time_elapsed": 639395,
		"internal_node_id": "0.0-3.0-1.98"
	},
	{
		"rt": 1226,
		"stimulus": "<span style=\"font-size:30px; font-family: monospace\">médico</span>",
		"response": " ",
		"trial": "exp-sent",
		"word": "médico",
		"trial_type": "html-keyboard-response",
		"trial_index": 135,
		"time_elapsed": 640879,
		"internal_node_id": "0.0-3.0-1.99"
	},
	{
		"rt": 1553,
		"stimulus": "<span style=\"font-size:30px; font-family: monospace\">corrigiu</span>",
		"response": " ",
		"trial": "exp-sent",
		"word": "corrigiu",
		"trial_type": "html-keyboard-response",
		"trial_index": 136,
		"time_elapsed": 642687,
		"internal_node_id": "0.0-3.0-1.100"
	},
	{
		"rt": 1070,
		"stimulus": "<span style=\"font-size:30px; font-family: monospace\">a</span>",
		"response": " ",
		"trial": "exp-sent",
		"word": "a",
		"trial_type": "html-keyboard-response",
		"trial_index": 137,
		"time_elapsed": 644014,
		"internal_node_id": "0.0-3.0-1.101"
	},
	{
		"rt": 2298,
		"stimulus": "<span style=\"font-size:30px; font-family: monospace\">postura</span>",
		"response": " ",
		"trial": "exp-sent",
		"word": "postura",
		"trial_type": "html-keyboard-response",
		"trial_index": 138,
		"time_elapsed": 646573,
		"internal_node_id": "0.0-3.0-1.102"
	},
	{
		"rt": 1080,
		"stimulus": "<span style=\"font-size:30px; font-family: monospace\">das</span>",
		"response": " ",
		"trial": "exp-sent",
		"word": "das",
		"trial_type": "html-keyboard-response",
		"trial_index": 139,
		"time_elapsed": 647908,
		"internal_node_id": "0.0-3.0-1.103"
	},
	{
		"rt": 2072,
		"stimulus": "<span style=\"font-size:30px; font-family: monospace\">costas</span>",
		"response": " ",
		"trial": "exp-sent",
		"word": "costas",
		"trial_type": "html-keyboard-response",
		"trial_index": 140,
		"time_elapsed": 650240,
		"internal_node_id": "0.0-3.0-1.104"
	},
	{
		"rt": 848,
		"stimulus": "<span style=\"font-size:30px; font-family: monospace\">da</span>",
		"response": " ",
		"trial": "exp-sent",
		"word": "da",
		"trial_type": "html-keyboard-response",
		"trial_index": 141,
		"time_elapsed": 651346,
		"internal_node_id": "0.0-3.0-1.105"
	},
	{
		"rt": 1662,
		"stimulus": "<span style=\"font-size:30px; font-family: monospace\">pessoa.</span>",
		"response": " ",
		"trial": "exp-sent",
		"word": "pessoa.",
		"trial_type": "html-keyboard-response",
		"trial_index": 142,
		"time_elapsed": 653265,
		"internal_node_id": "0.0-3.0-1.106"
	},
	{
		"rt": null,
		"stimulus": "<span style= \"font-size:30px; font-family: monospace\">+</span>",
		"response": null,
		"trial_part": "fixation",
		"trial_type": "html-keyboard-response",
		"trial_index": 143,
		"time_elapsed": 654530,
		"internal_node_id": "0.0-3.0-0.107-0.107"
	},
	{
		"rt": 1485,
		"stimulus": "<span style=\"font-size:30px; font-family: monospace\">Aquele</span>",
		"response": " ",
		"trial": "exp-sent",
		"word": "Aquele",
		"trial_type": "html-keyboard-response",
		"trial_index": 144,
		"time_elapsed": 656279,
		"internal_node_id": "0.0-3.0-1.107"
	},
	{
		"rt": 2090,
		"stimulus": "<span style=\"font-size:30px; font-family: monospace\">era</span>",
		"response": " ",
		"trial": "exp-sent",
		"word": "era",
		"trial_type": "html-keyboard-response",
		"trial_index": 145,
		"time_elapsed": 658631,
		"internal_node_id": "0.0-3.0-1.108"
	},
	{
		"rt": 1316,
		"stimulus": "<span style=\"font-size:30px; font-family: monospace\">um</span>",
		"response": " ",
		"trial": "exp-sent",
		"word": "um",
		"trial_type": "html-keyboard-response",
		"trial_index": 146,
		"time_elapsed": 660202,
		"internal_node_id": "0.0-3.0-1.109"
	},
	{
		"rt": 2186,
		"stimulus": "<span style=\"font-size:30px; font-family: monospace\">caso</span>",
		"response": " ",
		"trial": "exp-sent",
		"word": "caso",
		"trial_type": "html-keyboard-response",
		"trial_index": 147,
		"time_elapsed": 662645,
		"internal_node_id": "0.0-3.0-1.110"
	},
	{
		"rt": 2076,
		"stimulus": "<span style=\"font-size:30px; font-family: monospace\">real</span>",
		"response": " ",
		"trial": "exp-sent",
		"word": "real",
		"trial_type": "html-keyboard-response",
		"trial_index": 148,
		"time_elapsed": 664979,
		"internal_node_id": "0.0-3.0-1.111"
	},
	{
		"rt": 1395,
		"stimulus": "<span style=\"font-size:30px; font-family: monospace\">de</span>",
		"response": " ",
		"trial": "exp-sent",
		"word": "de",
		"trial_type": "html-keyboard-response",
		"trial_index": 149,
		"time_elapsed": 666630,
		"internal_node_id": "0.0-3.0-1.112"
	},
	{
		"rt": 3677,
		"stimulus": "<span style=\"font-size:30px; font-family: monospace\">sequestro</span>",
		"response": " ",
		"trial": "exp-sent",
		"word": "sequestro",
		"trial_type": "html-keyboard-response",
		"trial_index": 150,
		"time_elapsed": 670569,
		"internal_node_id": "0.0-3.0-1.113"
	},
	{
		"rt": 5687,
		"stimulus": "<span style=\"font-size:30px; font-family: monospace\">premeditado.</span>",
		"response": " ",
		"trial": "comp",
		"word": "premeditado.",
		"trial_type": "html-keyboard-response",
		"trial_index": 151,
		"time_elapsed": 676513,
		"internal_node_id": "0.0-3.0-1.114"
	},
	{
		"rt": 68379,
		"stimulus": "<span style=\"font-size:30px; font-family: monospace\">Aquele era um caso real de roubo?</span>",
		"response": "n",
		"question": "Aquele era um caso real de roubo?",
		"answer": "não",
		"trial": "comp",
		"trial_type": "html-keyboard-response",
		"trial_index": 152,
		"time_elapsed": 745152,
		"internal_node_id": "0.0-3.0-2.114-0.114",
		"accuracy": false
	},
	{
		"rt": null,
		"stimulus": "<span style= \"font-size:30px; font-family: monospace\">+</span>",
		"response": null,
		"trial_part": "fixation",
		"trial_type": "html-keyboard-response",
		"trial_index": 153,
		"time_elapsed": 746666,
		"internal_node_id": "0.0-3.0-0.115-0.115"
	},
	{
		"rt": 4851,
		"stimulus": "<span style=\"font-size:30px; font-family: monospace\">A</span>",
		"response": " ",
		"trial": "exp-sent",
		"word": "A",
		"trial_type": "html-keyboard-response",
		"trial_index": 154,
		"time_elapsed": 751779,
		"internal_node_id": "0.0-3.0-1.115"
	},
	{
		"rt": 959,
		"stimulus": "<span style=\"font-size:30px; font-family: monospace\">força</span>",
		"response": " ",
		"trial": "exp-sent",
		"word": "força",
		"trial_type": "html-keyboard-response",
		"trial_index": 155,
		"time_elapsed": 752997,
		"internal_node_id": "0.0-3.0-1.116"
	},
	{
		"rt": 1093,
		"stimulus": "<span style=\"font-size:30px; font-family: monospace\">d'água</span>",
		"response": " ",
		"trial": "exp-sent",
		"word": "d'água",
		"trial_type": "html-keyboard-response",
		"trial_index": 156,
		"time_elapsed": 754354,
		"internal_node_id": "0.0-3.0-1.117"
	},
	{
		"rt": 1455,
		"stimulus": "<span style=\"font-size:30px; font-family: monospace\">estava</span>",
		"response": " ",
		"trial": "exp-sent",
		"word": "estava",
		"trial_type": "html-keyboard-response",
		"trial_index": 157,
		"time_elapsed": 756073,
		"internal_node_id": "0.0-3.0-1.118"
	},
	{
		"rt": 1781,
		"stimulus": "<span style=\"font-size:30px; font-family: monospace\">normal</span>",
		"response": " ",
		"trial": "exp-sent",
		"word": "normal",
		"trial_type": "html-keyboard-response",
		"trial_index": 158,
		"time_elapsed": 758114,
		"internal_node_id": "0.0-3.0-1.119"
	},
	{
		"rt": 1210,
		"stimulus": "<span style=\"font-size:30px; font-family: monospace\">naquele</span>",
		"response": " ",
		"trial": "exp-sent",
		"word": "naquele",
		"trial_type": "html-keyboard-response",
		"trial_index": 159,
		"time_elapsed": 759587,
		"internal_node_id": "0.0-3.0-1.120"
	},
	{
		"rt": 1332,
		"stimulus": "<span style=\"font-size:30px; font-family: monospace\">dia.</span>",
		"response": " ",
		"trial": "exp-sent",
		"word": "dia.",
		"trial_type": "html-keyboard-response",
		"trial_index": 160,
		"time_elapsed": 761170,
		"internal_node_id": "0.0-3.0-1.121"
	},
	{
		"rt": null,
		"stimulus": "<span style= \"font-size:30px; font-family: monospace\">+</span>",
		"response": null,
		"trial_part": "fixation",
		"trial_type": "html-keyboard-response",
		"trial_index": 161,
		"time_elapsed": 762435,
		"internal_node_id": "0.0-3.0-0.122-0.122"
	},
	{
		"rt": 802,
		"stimulus": "<span style=\"font-size:30px; font-family: monospace\">A</span>",
		"response": " ",
		"trial": "exp-sent",
		"word": "A",
		"trial_type": "html-keyboard-response",
		"trial_index": 162,
		"time_elapsed": 763492,
		"internal_node_id": "0.0-3.0-1.122"
	},
	{
		"rt": 1260,
		"stimulus": "<span style=\"font-size:30px; font-family: monospace\">médica</span>",
		"response": " ",
		"trial": "exp-sent",
		"word": "médica",
		"trial_type": "html-keyboard-response",
		"trial_index": 163,
		"time_elapsed": 765009,
		"internal_node_id": "0.0-3.0-1.123"
	},
	{
		"rt": 1445,
		"stimulus": "<span style=\"font-size:30px; font-family: monospace\">ofereceu</span>",
		"response": " ",
		"trial": "exp-sent",
		"word": "ofereceu",
		"trial_type": "html-keyboard-response",
		"trial_index": 164,
		"time_elapsed": 766709,
		"internal_node_id": "0.0-3.0-1.124"
	},
	{
		"rt": 1289,
		"stimulus": "<span style=\"font-size:30px; font-family: monospace\">a</span>",
		"response": " ",
		"trial": "exp-sent",
		"word": "a",
		"trial_type": "html-keyboard-response",
		"trial_index": 165,
		"time_elapsed": 768250,
		"internal_node_id": "0.0-3.0-1.125"
	},
	{
		"rt": 1255,
		"stimulus": "<span style=\"font-size:30px; font-family: monospace\">pomada</span>",
		"response": " ",
		"trial": "exp-sent",
		"word": "pomada",
		"trial_type": "html-keyboard-response",
		"trial_index": 166,
		"time_elapsed": 769763,
		"internal_node_id": "0.0-3.0-1.126"
	},
	{
		"rt": 1277,
		"stimulus": "<span style=\"font-size:30px; font-family: monospace\">para</span>",
		"response": " ",
		"trial": "exp-sent",
		"word": "para",
		"trial_type": "html-keyboard-response",
		"trial_index": 167,
		"time_elapsed": 771302,
		"internal_node_id": "0.0-3.0-1.127"
	},
	{
		"rt": 1706,
		"stimulus": "<span style=\"font-size:30px; font-family: monospace\">o</span>",
		"response": " ",
		"trial": "exp-sent",
		"word": "o",
		"trial_type": "html-keyboard-response",
		"trial_index": 168,
		"time_elapsed": 773261,
		"internal_node_id": "0.0-3.0-1.128"
	},
	{
		"rt": 2955,
		"stimulus": "<span style=\"font-size:30px; font-family: monospace\">avô.</span>",
		"response": " ",
		"trial": "exp-sent",
		"word": "avô.",
		"trial_type": "html-keyboard-response",
		"trial_index": 169,
		"time_elapsed": 776473,
		"internal_node_id": "0.0-3.0-1.129"
	},
	{
		"rt": null,
		"stimulus": "<span style= \"font-size:30px; font-family: monospace\">+</span>",
		"response": null,
		"trial_part": "fixation",
		"trial_type": "html-keyboard-response",
		"trial_index": 170,
		"time_elapsed": 777734,
		"internal_node_id": "0.0-3.0-0.130-0.130"
	},
	{
		"rt": 870,
		"stimulus": "<span style=\"font-size:30px; font-family: monospace\">Ele</span>",
		"response": " ",
		"trial": "exp-sent",
		"word": "Ele",
		"trial_type": "html-keyboard-response",
		"trial_index": 171,
		"time_elapsed": 778865,
		"internal_node_id": "0.0-3.0-1.130"
	},
	{
		"rt": 1360,
		"stimulus": "<span style=\"font-size:30px; font-family: monospace\">conversou</span>",
		"response": " ",
		"trial": "exp-sent",
		"word": "conversou",
		"trial_type": "html-keyboard-response",
		"trial_index": 172,
		"time_elapsed": 780478,
		"internal_node_id": "0.0-3.0-1.131"
	},
	{
		"rt": 995,
		"stimulus": "<span style=\"font-size:30px; font-family: monospace\">com</span>",
		"response": " ",
		"trial": "exp-sent",
		"word": "com",
		"trial_type": "html-keyboard-response",
		"trial_index": 173,
		"time_elapsed": 781726,
		"internal_node_id": "0.0-3.0-1.132"
	},
	{
		"rt": 1164,
		"stimulus": "<span style=\"font-size:30px; font-family: monospace\">o</span>",
		"response": " ",
		"trial": "exp-sent",
		"word": "o",
		"trial_type": "html-keyboard-response",
		"trial_index": 174,
		"time_elapsed": 783144,
		"internal_node_id": "0.0-3.0-1.133"
	},
	{
		"rt": 1497,
		"stimulus": "<span style=\"font-size:30px; font-family: monospace\">patrão</span>",
		"response": " ",
		"trial": "exp-sent",
		"word": "patrão",
		"trial_type": "html-keyboard-response",
		"trial_index": 175,
		"time_elapsed": 784903,
		"internal_node_id": "0.0-3.0-1.134"
	},
	{
		"rt": 1306,
		"stimulus": "<span style=\"font-size:30px; font-family: monospace\">durante</span>",
		"response": " ",
		"trial": "exp-sent",
		"word": "durante",
		"trial_type": "html-keyboard-response",
		"trial_index": 176,
		"time_elapsed": 786464,
		"internal_node_id": "0.0-3.0-1.135"
	},
	{
		"rt": 1128,
		"stimulus": "<span style=\"font-size:30px; font-family: monospace\">a</span>",
		"response": " ",
		"trial": "exp-sent",
		"word": "a",
		"trial_type": "html-keyboard-response",
		"trial_index": 177,
		"time_elapsed": 787846,
		"internal_node_id": "0.0-3.0-1.136"
	},
	{
		"rt": 1430,
		"stimulus": "<span style=\"font-size:30px; font-family: monospace\">tarde.</span>",
		"response": " ",
		"trial": "exp-sent",
		"word": "tarde.",
		"trial_type": "html-keyboard-response",
		"trial_index": 178,
		"time_elapsed": 789529,
		"internal_node_id": "0.0-3.0-1.137"
	},
	{
		"rt": null,
		"stimulus": "<span style= \"font-size:30px; font-family: monospace\">+</span>",
		"response": null,
		"trial_part": "fixation",
		"trial_type": "html-keyboard-response",
		"trial_index": 179,
		"time_elapsed": 790792,
		"internal_node_id": "0.0-3.0-0.138-0.138"
	},
	{
		"rt": 1215,
		"stimulus": "<span style=\"font-size:30px; font-family: monospace\">Algumas</span>",
		"response": " ",
		"trial": "exp-sent",
		"word": "Algumas",
		"trial_type": "html-keyboard-response",
		"trial_index": 180,
		"time_elapsed": 792264,
		"internal_node_id": "0.0-3.0-1.138"
	},
	{
		"rt": 1326,
		"stimulus": "<span style=\"font-size:30px; font-family: monospace\">pessoas</span>",
		"response": " ",
		"trial": "exp-sent",
		"word": "pessoas",
		"trial_type": "html-keyboard-response",
		"trial_index": 181,
		"time_elapsed": 793849,
		"internal_node_id": "0.0-3.0-1.139"
	},
	{
		"rt": 1458,
		"stimulus": "<span style=\"font-size:30px; font-family: monospace\">acreditam</span>",
		"response": " ",
		"trial": "exp-sent",
		"word": "acreditam",
		"trial_type": "html-keyboard-response",
		"trial_index": 182,
		"time_elapsed": 795570,
		"internal_node_id": "0.0-3.0-1.140"
	},
	{
		"rt": 1350,
		"stimulus": "<span style=\"font-size:30px; font-family: monospace\">em</span>",
		"response": " ",
		"trial": "exp-sent",
		"word": "em",
		"trial_type": "html-keyboard-response",
		"trial_index": 183,
		"time_elapsed": 797176,
		"internal_node_id": "0.0-3.0-1.141"
	},
	{
		"rt": 2076,
		"stimulus": "<span style=\"font-size:30px; font-family: monospace\">espíritos</span>",
		"response": " ",
		"trial": "exp-sent",
		"word": "espíritos",
		"trial_type": "html-keyboard-response",
		"trial_index": 184,
		"time_elapsed": 799511,
		"internal_node_id": "0.0-3.0-1.142"
	},
	{
		"rt": 1656,
		"stimulus": "<span style=\"font-size:30px; font-family: monospace\">e</span>",
		"response": " ",
		"trial": "exp-sent",
		"word": "e",
		"trial_type": "html-keyboard-response",
		"trial_index": 185,
		"time_elapsed": 801420,
		"internal_node_id": "0.0-3.0-1.143"
	},
	{
		"rt": 1260,
		"stimulus": "<span style=\"font-size:30px; font-family: monospace\">em</span>",
		"response": " ",
		"trial": "exp-sent",
		"word": "em",
		"trial_type": "html-keyboard-response",
		"trial_index": 186,
		"time_elapsed": 802939,
		"internal_node_id": "0.0-3.0-1.144"
	},
	{
		"rt": 2086,
		"stimulus": "<span style=\"font-size:30px; font-family: monospace\">outras</span>",
		"response": " ",
		"trial": "exp-sent",
		"word": "outras",
		"trial_type": "html-keyboard-response",
		"trial_index": 187,
		"time_elapsed": 805280,
		"internal_node_id": "0.0-3.0-1.145"
	},
	{
		"rt": 1918,
		"stimulus": "<span style=\"font-size:30px; font-family: monospace\">vidas.</span>",
		"response": " ",
		"trial": "exp-sent",
		"word": "vidas.",
		"trial_type": "html-keyboard-response",
		"trial_index": 188,
		"time_elapsed": 807461,
		"internal_node_id": "0.0-3.0-1.146"
	},
	{
		"rt": null,
		"stimulus": "<span style= \"font-size:30px; font-family: monospace\">+</span>",
		"response": null,
		"trial_part": "fixation",
		"trial_type": "html-keyboard-response",
		"trial_index": 189,
		"time_elapsed": 808725,
		"internal_node_id": "0.0-3.0-0.147-0.147"
	},
	{
		"rt": 1036,
		"stimulus": "<span style=\"font-size:30px; font-family: monospace\">Ela</span>",
		"response": " ",
		"trial": "exp-sent",
		"word": "Ela",
		"trial_type": "html-keyboard-response",
		"trial_index": 190,
		"time_elapsed": 810014,
		"internal_node_id": "0.0-3.0-1.147"
	},
	{
		"rt": 1061,
		"stimulus": "<span style=\"font-size:30px; font-family: monospace\">gosta</span>",
		"response": " ",
		"trial": "exp-sent",
		"word": "gosta",
		"trial_type": "html-keyboard-response",
		"trial_index": 191,
		"time_elapsed": 811330,
		"internal_node_id": "0.0-3.0-1.148"
	},
	{
		"rt": 1639,
		"stimulus": "<span style=\"font-size:30px; font-family: monospace\">de</span>",
		"response": " ",
		"trial": "exp-sent",
		"word": "de",
		"trial_type": "html-keyboard-response",
		"trial_index": 192,
		"time_elapsed": 813228,
		"internal_node_id": "0.0-3.0-1.149"
	},
	{
		"rt": 1923,
		"stimulus": "<span style=\"font-size:30px; font-family: monospace\">estudar</span>",
		"response": " ",
		"trial": "exp-sent",
		"word": "estudar",
		"trial_type": "html-keyboard-response",
		"trial_index": 193,
		"time_elapsed": 815405,
		"internal_node_id": "0.0-3.0-1.150"
	},
	{
		"rt": 1894,
		"stimulus": "<span style=\"font-size:30px; font-family: monospace\">matemática</span>",
		"response": " ",
		"trial": "exp-sent",
		"word": "matemática",
		"trial_type": "html-keyboard-response",
		"trial_index": 194,
		"time_elapsed": 817553,
		"internal_node_id": "0.0-3.0-1.151"
	},
	{
		"rt": 1310,
		"stimulus": "<span style=\"font-size:30px; font-family: monospace\">com</span>",
		"response": " ",
		"trial": "exp-sent",
		"word": "com",
		"trial_type": "html-keyboard-response",
		"trial_index": 195,
		"time_elapsed": 819117,
		"internal_node_id": "0.0-3.0-1.152"
	},
	{
		"rt": 1819,
		"stimulus": "<span style=\"font-size:30px; font-family: monospace\">colegas.</span>",
		"response": " ",
		"trial": "comp",
		"word": "colegas.",
		"trial_type": "html-keyboard-response",
		"trial_index": 196,
		"time_elapsed": 821190,
		"internal_node_id": "0.0-3.0-1.153"
	},
	{
		"rt": 7296,
		"stimulus": "<span style=\"font-size:30px; font-family: monospace\">Ela gosta de estudar física?</span>",
		"response": "n",
		"question": "Ela gosta de estudar física?",
		"answer": "não",
		"trial": "comp",
		"trial_type": "html-keyboard-response",
		"trial_index": 197,
		"time_elapsed": 828747,
		"internal_node_id": "0.0-3.0-2.153-0.153",
		"accuracy": false
	},
	{
		"rt": null,
		"stimulus": "<span style= \"font-size:30px; font-family: monospace\">+</span>",
		"response": null,
		"trial_part": "fixation",
		"trial_type": "html-keyboard-response",
		"trial_index": 198,
		"time_elapsed": 830260,
		"internal_node_id": "0.0-3.0-0.154-0.154"
	},
	{
		"rt": 3479,
		"stimulus": "<span style=\"font-size:30px; font-family: monospace\">Ursos</span>",
		"response": " ",
		"trial": "exp-sent",
		"word": "Ursos",
		"trial_type": "html-keyboard-response",
		"trial_index": 199,
		"time_elapsed": 834002,
		"internal_node_id": "0.0-3.0-1.154"
	},
	{
		"rt": 979,
		"stimulus": "<span style=\"font-size:30px; font-family: monospace\">têm</span>",
		"response": " ",
		"trial": "exp-sent",
		"word": "têm",
		"trial_type": "html-keyboard-response",
		"trial_index": 200,
		"time_elapsed": 835235,
		"internal_node_id": "0.0-3.0-1.155"
	},
	{
		"rt": 1126,
		"stimulus": "<span style=\"font-size:30px; font-family: monospace\">uma</span>",
		"response": " ",
		"trial": "exp-sent",
		"word": "uma",
		"trial_type": "html-keyboard-response",
		"trial_index": 201,
		"time_elapsed": 836615,
		"internal_node_id": "0.0-3.0-1.156"
	},
	{
		"rt": 2165,
		"stimulus": "<span style=\"font-size:30px; font-family: monospace\">patada</span>",
		"response": " ",
		"trial": "exp-sent",
		"word": "patada",
		"trial_type": "html-keyboard-response",
		"trial_index": 202,
		"time_elapsed": 839035,
		"internal_node_id": "0.0-3.0-1.157"
	},
	{
		"rt": 4126,
		"stimulus": "<span style=\"font-size:30px; font-family: monospace\">brutal</span>",
		"response": " ",
		"trial": "exp-sent",
		"word": "brutal",
		"trial_type": "html-keyboard-response",
		"trial_index": 203,
		"time_elapsed": 843418,
		"internal_node_id": "0.0-3.0-1.158"
	},
	{
		"rt": 1997,
		"stimulus": "<span style=\"font-size:30px; font-family: monospace\">e</span>",
		"response": " ",
		"trial": "exp-sent",
		"word": "e",
		"trial_type": "html-keyboard-response",
		"trial_index": 204,
		"time_elapsed": 845673,
		"internal_node_id": "0.0-3.0-1.159"
	},
	{
		"rt": 2122,
		"stimulus": "<span style=\"font-size:30px; font-family: monospace\">poderosa.</span>",
		"response": " ",
		"trial": "exp-sent",
		"word": "poderosa.",
		"trial_type": "html-keyboard-response",
		"trial_index": 205,
		"time_elapsed": 848055,
		"internal_node_id": "0.0-3.0-1.160"
	},
	{
		"rt": null,
		"stimulus": "<span style= \"font-size:30px; font-family: monospace\">+</span>",
		"response": null,
		"trial_part": "fixation",
		"trial_type": "html-keyboard-response",
		"trial_index": 206,
		"time_elapsed": 849316,
		"internal_node_id": "0.0-3.0-0.161-0.161"
	},
	{
		"rt": 2602,
		"stimulus": "<span style=\"font-size:30px; font-family: monospace\">Eu</span>",
		"response": " ",
		"trial": "exp-sent",
		"word": "Eu",
		"trial_type": "html-keyboard-response",
		"trial_index": 207,
		"time_elapsed": 852182,
		"internal_node_id": "0.0-3.0-1.161"
	},
	{
		"rt": 2382,
		"stimulus": "<span style=\"font-size:30px; font-family: monospace\">fiz</span>",
		"response": " ",
		"trial": "exp-sent",
		"word": "fiz",
		"trial_type": "html-keyboard-response",
		"trial_index": 208,
		"time_elapsed": 854822,
		"internal_node_id": "0.0-3.0-1.162"
	},
	{
		"rt": 2119,
		"stimulus": "<span style=\"font-size:30px; font-family: monospace\">aulas</span>",
		"response": " ",
		"trial": "exp-sent",
		"word": "aulas",
		"trial_type": "html-keyboard-response",
		"trial_index": 209,
		"time_elapsed": 857205,
		"internal_node_id": "0.0-3.0-1.163"
	},
	{
		"rt": 1114,
		"stimulus": "<span style=\"font-size:30px; font-family: monospace\">de</span>",
		"response": " ",
		"trial": "exp-sent",
		"word": "de",
		"trial_type": "html-keyboard-response",
		"trial_index": 210,
		"time_elapsed": 858580,
		"internal_node_id": "0.0-3.0-1.164"
	},
	{
		"rt": 1532,
		"stimulus": "<span style=\"font-size:30px; font-family: monospace\">espanhol</span>",
		"response": " ",
		"trial": "exp-sent",
		"word": "espanhol",
		"trial_type": "html-keyboard-response",
		"trial_index": 211,
		"time_elapsed": 860370,
		"internal_node_id": "0.0-3.0-1.165"
	},
	{
		"rt": 1596,
		"stimulus": "<span style=\"font-size:30px; font-family: monospace\">nesta</span>",
		"response": " ",
		"trial": "exp-sent",
		"word": "nesta",
		"trial_type": "html-keyboard-response",
		"trial_index": 212,
		"time_elapsed": 862228,
		"internal_node_id": "0.0-3.0-1.166"
	},
	{
		"rt": 1440,
		"stimulus": "<span style=\"font-size:30px; font-family: monospace\">cidade.</span>",
		"response": " ",
		"trial": "exp-sent",
		"word": "cidade.",
		"trial_type": "html-keyboard-response",
		"trial_index": 213,
		"time_elapsed": 863924,
		"internal_node_id": "0.0-3.0-1.167"
	},
	{
		"rt": null,
		"stimulus": "<span style= \"font-size:30px; font-family: monospace\">+</span>",
		"response": null,
		"trial_part": "fixation",
		"trial_type": "html-keyboard-response",
		"trial_index": 214,
		"time_elapsed": 865188,
		"internal_node_id": "0.0-3.0-0.168-0.168"
	},
	{
		"rt": 1130,
		"stimulus": "<span style=\"font-size:30px; font-family: monospace\">Ele</span>",
		"response": " ",
		"trial": "exp-sent",
		"word": "Ele",
		"trial_type": "html-keyboard-response",
		"trial_index": 215,
		"time_elapsed": 866586,
		"internal_node_id": "0.0-3.0-1.168"
	},
	{
		"rt": 1120,
		"stimulus": "<span style=\"font-size:30px; font-family: monospace\">comprou</span>",
		"response": " ",
		"trial": "exp-sent",
		"word": "comprou",
		"trial_type": "html-keyboard-response",
		"trial_index": 216,
		"time_elapsed": 867964,
		"internal_node_id": "0.0-3.0-1.169"
	},
	{
		"rt": 1281,
		"stimulus": "<span style=\"font-size:30px; font-family: monospace\">mais</span>",
		"response": " ",
		"trial": "exp-sent",
		"word": "mais",
		"trial_type": "html-keyboard-response",
		"trial_index": 217,
		"time_elapsed": 869501,
		"internal_node_id": "0.0-3.0-1.170"
	},
	{
		"rt": 1675,
		"stimulus": "<span style=\"font-size:30px; font-family: monospace\">uma</span>",
		"response": " ",
		"trial": "exp-sent",
		"word": "uma",
		"trial_type": "html-keyboard-response",
		"trial_index": 218,
		"time_elapsed": 871431,
		"internal_node_id": "0.0-3.0-1.171"
	},
	{
		"rt": 1497,
		"stimulus": "<span style=\"font-size:30px; font-family: monospace\">esponja</span>",
		"response": " ",
		"trial": "exp-sent",
		"word": "esponja",
		"trial_type": "html-keyboard-response",
		"trial_index": 219,
		"time_elapsed": 873184,
		"internal_node_id": "0.0-3.0-1.172"
	},
	{
		"rt": 1438,
		"stimulus": "<span style=\"font-size:30px; font-family: monospace\">para</span>",
		"response": " ",
		"trial": "exp-sent",
		"word": "para",
		"trial_type": "html-keyboard-response",
		"trial_index": 220,
		"time_elapsed": 874884,
		"internal_node_id": "0.0-3.0-1.173"
	},
	{
		"rt": 1398,
		"stimulus": "<span style=\"font-size:30px; font-family: monospace\">a</span>",
		"response": " ",
		"trial": "exp-sent",
		"word": "a",
		"trial_type": "html-keyboard-response",
		"trial_index": 221,
		"time_elapsed": 876542,
		"internal_node_id": "0.0-3.0-1.174"
	},
	{
		"rt": 2816,
		"stimulus": "<span style=\"font-size:30px; font-family: monospace\">cozinha.</span>",
		"response": " ",
		"trial": "exp-sent",
		"word": "cozinha.",
		"trial_type": "html-keyboard-response",
		"trial_index": 222,
		"time_elapsed": 879622,
		"internal_node_id": "0.0-3.0-1.175"
	},
	{
		"rt": null,
		"stimulus": "<span style= \"font-size:30px; font-family: monospace\">+</span>",
		"response": null,
		"trial_part": "fixation",
		"trial_type": "html-keyboard-response",
		"trial_index": 223,
		"time_elapsed": 880883,
		"internal_node_id": "0.0-3.0-0.176-0.176"
	},
	{
		"rt": 974,
		"stimulus": "<span style=\"font-size:30px; font-family: monospace\">Ele</span>",
		"response": " ",
		"trial": "exp-sent",
		"word": "Ele",
		"trial_type": "html-keyboard-response",
		"trial_index": 224,
		"time_elapsed": 882114,
		"internal_node_id": "0.0-3.0-1.176"
	},
	{
		"rt": 1370,
		"stimulus": "<span style=\"font-size:30px; font-family: monospace\">teve</span>",
		"response": " ",
		"trial": "exp-sent",
		"word": "teve",
		"trial_type": "html-keyboard-response",
		"trial_index": 225,
		"time_elapsed": 883742,
		"internal_node_id": "0.0-3.0-1.177"
	},
	{
		"rt": 1630,
		"stimulus": "<span style=\"font-size:30px; font-family: monospace\">um</span>",
		"response": " ",
		"trial": "exp-sent",
		"word": "um",
		"trial_type": "html-keyboard-response",
		"trial_index": 226,
		"time_elapsed": 885633,
		"internal_node_id": "0.0-3.0-1.178"
	},
	{
		"rt": 1446,
		"stimulus": "<span style=\"font-size:30px; font-family: monospace\">sono</span>",
		"response": " ",
		"trial": "exp-sent",
		"word": "sono",
		"trial_type": "html-keyboard-response",
		"trial_index": 227,
		"time_elapsed": 887340,
		"internal_node_id": "0.0-3.0-1.179"
	},
	{
		"rt": 1986,
		"stimulus": "<span style=\"font-size:30px; font-family: monospace\">bizarro</span>",
		"response": " ",
		"trial": "exp-sent",
		"word": "bizarro",
		"trial_type": "html-keyboard-response",
		"trial_index": 228,
		"time_elapsed": 889584,
		"internal_node_id": "0.0-3.0-1.180"
	},
	{
		"rt": 1952,
		"stimulus": "<span style=\"font-size:30px; font-family: monospace\">sem</span>",
		"response": " ",
		"trial": "exp-sent",
		"word": "sem",
		"trial_type": "html-keyboard-response",
		"trial_index": 229,
		"time_elapsed": 891797,
		"internal_node_id": "0.0-3.0-1.181"
	},
	{
		"rt": 1225,
		"stimulus": "<span style=\"font-size:30px; font-family: monospace\">nenhum</span>",
		"response": " ",
		"trial": "exp-sent",
		"word": "nenhum",
		"trial_type": "html-keyboard-response",
		"trial_index": 230,
		"time_elapsed": 893277,
		"internal_node_id": "0.0-3.0-1.182"
	},
	{
		"rt": 1551,
		"stimulus": "<span style=\"font-size:30px; font-family: monospace\">motivo.</span>",
		"response": " ",
		"trial": "exp-sent",
		"word": "motivo.",
		"trial_type": "html-keyboard-response",
		"trial_index": 231,
		"time_elapsed": 895086,
		"internal_node_id": "0.0-3.0-1.183"
	},
	{
		"rt": null,
		"stimulus": "<span style= \"font-size:30px; font-family: monospace\">+</span>",
		"response": null,
		"trial_part": "fixation",
		"trial_type": "html-keyboard-response",
		"trial_index": 232,
		"time_elapsed": 896349,
		"internal_node_id": "0.0-3.0-0.184-0.184"
	},
	{
		"rt": 1043,
		"stimulus": "<span style=\"font-size:30px; font-family: monospace\">A</span>",
		"response": " ",
		"trial": "exp-sent",
		"word": "A",
		"trial_type": "html-keyboard-response",
		"trial_index": 233,
		"time_elapsed": 897657,
		"internal_node_id": "0.0-3.0-1.184"
	},
	{
		"rt": 1527,
		"stimulus": "<span style=\"font-size:30px; font-family: monospace\">moça</span>",
		"response": " ",
		"trial": "exp-sent",
		"word": "moça",
		"trial_type": "html-keyboard-response",
		"trial_index": 234,
		"time_elapsed": 899454,
		"internal_node_id": "0.0-3.0-1.185"
	},
	{
		"rt": 1332,
		"stimulus": "<span style=\"font-size:30px; font-family: monospace\">comprou</span>",
		"response": " ",
		"trial": "exp-sent",
		"word": "comprou",
		"trial_type": "html-keyboard-response",
		"trial_index": 235,
		"time_elapsed": 901045,
		"internal_node_id": "0.0-3.0-1.186"
	},
	{
		"rt": 943,
		"stimulus": "<span style=\"font-size:30px; font-family: monospace\">um</span>",
		"response": " ",
		"trial": "exp-sent",
		"word": "um",
		"trial_type": "html-keyboard-response",
		"trial_index": 236,
		"time_elapsed": 902248,
		"internal_node_id": "0.0-3.0-1.187"
	},
	{
		"rt": 1960,
		"stimulus": "<span style=\"font-size:30px; font-family: monospace\">diamante</span>",
		"response": " ",
		"trial": "exp-sent",
		"word": "diamante",
		"trial_type": "html-keyboard-response",
		"trial_index": 237,
		"time_elapsed": 904470,
		"internal_node_id": "0.0-3.0-1.188"
	},
	{
		"rt": 1262,
		"stimulus": "<span style=\"font-size:30px; font-family: monospace\">para</span>",
		"response": " ",
		"trial": "exp-sent",
		"word": "para",
		"trial_type": "html-keyboard-response",
		"trial_index": 238,
		"time_elapsed": 905997,
		"internal_node_id": "0.0-3.0-1.189"
	},
	{
		"rt": 1153,
		"stimulus": "<span style=\"font-size:30px; font-family: monospace\">sua</span>",
		"response": " ",
		"trial": "exp-sent",
		"word": "sua",
		"trial_type": "html-keyboard-response",
		"trial_index": 239,
		"time_elapsed": 907408,
		"internal_node_id": "0.0-3.0-1.190"
	},
	{
		"rt": 1882,
		"stimulus": "<span style=\"font-size:30px; font-family: monospace\">prima.</span>",
		"response": " ",
		"trial": "comp",
		"word": "prima.",
		"trial_type": "html-keyboard-response",
		"trial_index": 240,
		"time_elapsed": 909547,
		"internal_node_id": "0.0-3.0-1.191"
	},
	{
		"rt": 15248,
		"stimulus": "<span style=\"font-size:30px; font-family: monospace\">A moça comprou um diamante?</span>",
		"response": "s",
		"question": "A moça comprou um diamante?",
		"answer": "sim",
		"trial": "comp",
		"trial_type": "html-keyboard-response",
		"trial_index": 241,
		"time_elapsed": 925057,
		"internal_node_id": "0.0-3.0-2.191-0.191",
		"accuracy": false
	},
	{
		"rt": null,
		"stimulus": "<span style= \"font-size:30px; font-family: monospace\">+</span>",
		"response": null,
		"trial_part": "fixation",
		"trial_type": "html-keyboard-response",
		"trial_index": 242,
		"time_elapsed": 926580,
		"internal_node_id": "0.0-3.0-0.192-0.192"
	},
	{
		"rt": 1089,
		"stimulus": "<span style=\"font-size:30px; font-family: monospace\">Eu</span>",
		"response": " ",
		"trial": "exp-sent",
		"word": "Eu",
		"trial_type": "html-keyboard-response",
		"trial_index": 243,
		"time_elapsed": 927928,
		"internal_node_id": "0.0-3.0-1.192"
	},
	{
		"rt": 1434,
		"stimulus": "<span style=\"font-size:30px; font-family: monospace\">gosto</span>",
		"response": " ",
		"trial": "exp-sent",
		"word": "gosto",
		"trial_type": "html-keyboard-response",
		"trial_index": 244,
		"time_elapsed": 929618,
		"internal_node_id": "0.0-3.0-1.193"
	},
	{
		"rt": 1848,
		"stimulus": "<span style=\"font-size:30px; font-family: monospace\">de</span>",
		"response": " ",
		"trial": "exp-sent",
		"word": "de",
		"trial_type": "html-keyboard-response",
		"trial_index": 245,
		"time_elapsed": 931723,
		"internal_node_id": "0.0-3.0-1.194"
	},
	{
		"rt": 1853,
		"stimulus": "<span style=\"font-size:30px; font-family: monospace\">molho</span>",
		"response": " ",
		"trial": "exp-sent",
		"word": "molho",
		"trial_type": "html-keyboard-response",
		"trial_index": 246,
		"time_elapsed": 933829,
		"internal_node_id": "0.0-3.0-1.195"
	},
	{
		"rt": 1678,
		"stimulus": "<span style=\"font-size:30px; font-family: monospace\">picante</span>",
		"response": " ",
		"trial": "exp-sent",
		"word": "picante",
		"trial_type": "html-keyboard-response",
		"trial_index": 247,
		"time_elapsed": 935761,
		"internal_node_id": "0.0-3.0-1.196"
	},
	{
		"rt": 1464,
		"stimulus": "<span style=\"font-size:30px; font-family: monospace\">nas</span>",
		"response": " ",
		"trial": "exp-sent",
		"word": "nas",
		"trial_type": "html-keyboard-response",
		"trial_index": 248,
		"time_elapsed": 937478,
		"internal_node_id": "0.0-3.0-1.197"
	},
	{
		"rt": 1608,
		"stimulus": "<span style=\"font-size:30px; font-family: monospace\">batatas.</span>",
		"response": " ",
		"trial": "exp-sent",
		"word": "batatas.",
		"trial_type": "html-keyboard-response",
		"trial_index": 249,
		"time_elapsed": 939342,
		"internal_node_id": "0.0-3.0-1.198"
	},
	{
		"rt": null,
		"stimulus": "<span style= \"font-size:30px; font-family: monospace\">+</span>",
		"response": null,
		"trial_part": "fixation",
		"trial_type": "html-keyboard-response",
		"trial_index": 250,
		"time_elapsed": 940608,
		"internal_node_id": "0.0-3.0-0.199-0.199"
	},
	{
		"rt": 2480,
		"stimulus": "<span style=\"font-size:30px; font-family: monospace\">As</span>",
		"response": " ",
		"trial": "exp-sent",
		"word": "As",
		"trial_type": "html-keyboard-response",
		"trial_index": 251,
		"time_elapsed": 943343,
		"internal_node_id": "0.0-3.0-1.199"
	},
	{
		"rt": 1177,
		"stimulus": "<span style=\"font-size:30px; font-family: monospace\">pessoas</span>",
		"response": " ",
		"trial": "exp-sent",
		"word": "pessoas",
		"trial_type": "html-keyboard-response",
		"trial_index": 252,
		"time_elapsed": 944779,
		"internal_node_id": "0.0-3.0-1.200"
	},
	{
		"rt": 1555,
		"stimulus": "<span style=\"font-size:30px; font-family: monospace\">têm</span>",
		"response": " ",
		"trial": "exp-sent",
		"word": "têm",
		"trial_type": "html-keyboard-response",
		"trial_index": 253,
		"time_elapsed": 946589,
		"internal_node_id": "0.0-3.0-1.201"
	},
	{
		"rt": 1311,
		"stimulus": "<span style=\"font-size:30px; font-family: monospace\">sua</span>",
		"response": " ",
		"trial": "exp-sent",
		"word": "sua",
		"trial_type": "html-keyboard-response",
		"trial_index": 254,
		"time_elapsed": 948161,
		"internal_node_id": "0.0-3.0-1.202"
	},
	{
		"rt": 1461,
		"stimulus": "<span style=\"font-size:30px; font-family: monospace\">liberdade</span>",
		"response": " ",
		"trial": "exp-sent",
		"word": "liberdade",
		"trial_type": "html-keyboard-response",
		"trial_index": 255,
		"time_elapsed": 949874,
		"internal_node_id": "0.0-3.0-1.203"
	},
	{
		"rt": 1439,
		"stimulus": "<span style=\"font-size:30px; font-family: monospace\">até</span>",
		"response": " ",
		"trial": "exp-sent",
		"word": "até",
		"trial_type": "html-keyboard-response",
		"trial_index": 256,
		"time_elapsed": 951567,
		"internal_node_id": "0.0-3.0-1.204"
	},
	{
		"rt": 1896,
		"stimulus": "<span style=\"font-size:30px; font-family: monospace\">certo</span>",
		"response": " ",
		"trial": "exp-sent",
		"word": "certo",
		"trial_type": "html-keyboard-response",
		"trial_index": 257,
		"time_elapsed": 953720,
		"internal_node_id": "0.0-3.0-1.205"
	},
	{
		"rt": 3142,
		"stimulus": "<span style=\"font-size:30px; font-family: monospace\">ponto.</span>",
		"response": " ",
		"trial": "exp-sent",
		"word": "ponto.",
		"trial_type": "html-keyboard-response",
		"trial_index": 258,
		"time_elapsed": 957120,
		"internal_node_id": "0.0-3.0-1.206"
	},
	{
		"rt": null,
		"stimulus": "<span style= \"font-size:30px; font-family: monospace\">+</span>",
		"response": null,
		"trial_part": "fixation",
		"trial_type": "html-keyboard-response",
		"trial_index": 259,
		"time_elapsed": 958381,
		"internal_node_id": "0.0-3.0-0.207-0.207"
	},
	{
		"rt": 1557,
		"stimulus": "<span style=\"font-size:30px; font-family: monospace\">A</span>",
		"response": " ",
		"trial": "exp-sent",
		"word": "A",
		"trial_type": "html-keyboard-response",
		"trial_index": 260,
		"time_elapsed": 960195,
		"internal_node_id": "0.0-3.0-1.207"
	},
	{
		"rt": 3730,
		"stimulus": "<span style=\"font-size:30px; font-family: monospace\">empresa</span>",
		"response": " ",
		"trial": "exp-sent",
		"word": "empresa",
		"trial_type": "html-keyboard-response",
		"trial_index": 261,
		"time_elapsed": 964182,
		"internal_node_id": "0.0-3.0-1.208"
	},
	{
		"rt": 1486,
		"stimulus": "<span style=\"font-size:30px; font-family: monospace\">enviou</span>",
		"response": " ",
		"trial": "exp-sent",
		"word": "enviou",
		"trial_type": "html-keyboard-response",
		"trial_index": 262,
		"time_elapsed": 965925,
		"internal_node_id": "0.0-3.0-1.209"
	},
	{
		"rt": 1785,
		"stimulus": "<span style=\"font-size:30px; font-family: monospace\">o</span>",
		"response": " ",
		"trial": "exp-sent",
		"word": "o",
		"trial_type": "html-keyboard-response",
		"trial_index": 263,
		"time_elapsed": 967964,
		"internal_node_id": "0.0-3.0-1.210"
	},
	{
		"rt": 2718,
		"stimulus": "<span style=\"font-size:30px; font-family: monospace\">aviso</span>",
		"response": " ",
		"trial": "exp-sent",
		"word": "aviso",
		"trial_type": "html-keyboard-response",
		"trial_index": 264,
		"time_elapsed": 970936,
		"internal_node_id": "0.0-3.0-1.211"
	},
	{
		"rt": 2603,
		"stimulus": "<span style=\"font-size:30px; font-family: monospace\">hoje</span>",
		"response": " ",
		"trial": "exp-sent",
		"word": "hoje",
		"trial_type": "html-keyboard-response",
		"trial_index": 265,
		"time_elapsed": 973799,
		"internal_node_id": "0.0-3.0-1.212"
	},
	{
		"rt": 1394,
		"stimulus": "<span style=\"font-size:30px; font-family: monospace\">de</span>",
		"response": " ",
		"trial": "exp-sent",
		"word": "de",
		"trial_type": "html-keyboard-response",
		"trial_index": 266,
		"time_elapsed": 975453,
		"internal_node_id": "0.0-3.0-1.213"
	},
	{
		"rt": 1802,
		"stimulus": "<span style=\"font-size:30px; font-family: monospace\">tarde.</span>",
		"response": " ",
		"trial": "exp-sent",
		"word": "tarde.",
		"trial_type": "html-keyboard-response",
		"trial_index": 267,
		"time_elapsed": 977510,
		"internal_node_id": "0.0-3.0-1.214"
	},
	{
		"rt": null,
		"stimulus": "<span style= \"font-size:30px; font-family: monospace\">+</span>",
		"response": null,
		"trial_part": "fixation",
		"trial_type": "html-keyboard-response",
		"trial_index": 268,
		"time_elapsed": 978774,
		"internal_node_id": "0.0-3.0-0.215-0.215"
	},
	{
		"rt": 811,
		"stimulus": "<span style=\"font-size:30px; font-family: monospace\">A</span>",
		"response": " ",
		"trial": "exp-sent",
		"word": "A",
		"trial_type": "html-keyboard-response",
		"trial_index": 269,
		"time_elapsed": 979846,
		"internal_node_id": "0.0-3.0-1.215"
	},
	{
		"rt": 1222,
		"stimulus": "<span style=\"font-size:30px; font-family: monospace\">loja</span>",
		"response": " ",
		"trial": "exp-sent",
		"word": "loja",
		"trial_type": "html-keyboard-response",
		"trial_index": 270,
		"time_elapsed": 981321,
		"internal_node_id": "0.0-3.0-1.216"
	},
	{
		"rt": 1214,
		"stimulus": "<span style=\"font-size:30px; font-family: monospace\">vende</span>",
		"response": " ",
		"trial": "exp-sent",
		"word": "vende",
		"trial_type": "html-keyboard-response",
		"trial_index": 271,
		"time_elapsed": 982797,
		"internal_node_id": "0.0-3.0-1.217"
	},
	{
		"rt": 1175,
		"stimulus": "<span style=\"font-size:30px; font-family: monospace\">tanto</span>",
		"response": " ",
		"trial": "exp-sent",
		"word": "tanto",
		"trial_type": "html-keyboard-response",
		"trial_index": 272,
		"time_elapsed": 984229,
		"internal_node_id": "0.0-3.0-1.218"
	},
	{
		"rt": 2611,
		"stimulus": "<span style=\"font-size:30px; font-family: monospace\">frituras</span>",
		"response": " ",
		"trial": "exp-sent",
		"word": "frituras",
		"trial_type": "html-keyboard-response",
		"trial_index": 273,
		"time_elapsed": 987096,
		"internal_node_id": "0.0-3.0-1.219"
	},
	{
		"rt": 2112,
		"stimulus": "<span style=\"font-size:30px; font-family: monospace\">quanto</span>",
		"response": " ",
		"trial": "exp-sent",
		"word": "quanto",
		"trial_type": "html-keyboard-response",
		"trial_index": 274,
		"time_elapsed": 989466,
		"internal_node_id": "0.0-3.0-1.220"
	},
	{
		"rt": 1981,
		"stimulus": "<span style=\"font-size:30px; font-family: monospace\">comidas</span>",
		"response": " ",
		"trial": "exp-sent",
		"word": "comidas",
		"trial_type": "html-keyboard-response",
		"trial_index": 275,
		"time_elapsed": 991702,
		"internal_node_id": "0.0-3.0-1.221"
	},
	{
		"rt": 1992,
		"stimulus": "<span style=\"font-size:30px; font-family: monospace\">leves.</span>",
		"response": " ",
		"trial": "exp-sent",
		"word": "leves.",
		"trial_type": "html-keyboard-response",
		"trial_index": 276,
		"time_elapsed": 993950,
		"internal_node_id": "0.0-3.0-1.222"
	},
	{
		"rt": null,
		"stimulus": "<span style= \"font-size:30px; font-family: monospace\">+</span>",
		"response": null,
		"trial_part": "fixation",
		"trial_type": "html-keyboard-response",
		"trial_index": 277,
		"time_elapsed": 995212,
		"internal_node_id": "0.0-3.0-0.223-0.223"
	},
	{
		"rt": 896,
		"stimulus": "<span style=\"font-size:30px; font-family: monospace\">As</span>",
		"response": " ",
		"trial": "exp-sent",
		"word": "As",
		"trial_type": "html-keyboard-response",
		"trial_index": 278,
		"time_elapsed": 996362,
		"internal_node_id": "0.0-3.0-1.223"
	},
	{
		"rt": 1830,
		"stimulus": "<span style=\"font-size:30px; font-family: monospace\">cadeiras</span>",
		"response": " ",
		"trial": "exp-sent",
		"word": "cadeiras",
		"trial_type": "html-keyboard-response",
		"trial_index": 279,
		"time_elapsed": 998449,
		"internal_node_id": "0.0-3.0-1.224"
	},
	{
		"rt": 2108,
		"stimulus": "<span style=\"font-size:30px; font-family: monospace\">azuis</span>",
		"response": " ",
		"trial": "exp-sent",
		"word": "azuis",
		"trial_type": "html-keyboard-response",
		"trial_index": 280,
		"time_elapsed": 1000819,
		"internal_node_id": "0.0-3.0-1.225"
	},
	{
		"rt": 2382,
		"stimulus": "<span style=\"font-size:30px; font-family: monospace\">da</span>",
		"response": " ",
		"trial": "exp-sent",
		"word": "da",
		"trial_type": "html-keyboard-response",
		"trial_index": 281,
		"time_elapsed": 1003461,
		"internal_node_id": "0.0-3.0-1.226"
	},
	{
		"rt": 2176,
		"stimulus": "<span style=\"font-size:30px; font-family: monospace\">sala</span>",
		"response": " ",
		"trial": "exp-sent",
		"word": "sala",
		"trial_type": "html-keyboard-response",
		"trial_index": 282,
		"time_elapsed": 1005895,
		"internal_node_id": "0.0-3.0-1.227"
	},
	{
		"rt": 1666,
		"stimulus": "<span style=\"font-size:30px; font-family: monospace\">eram</span>",
		"response": " ",
		"trial": "exp-sent",
		"word": "eram",
		"trial_type": "html-keyboard-response",
		"trial_index": 283,
		"time_elapsed": 1007816,
		"internal_node_id": "0.0-3.0-1.228"
	},
	{
		"rt": 1466,
		"stimulus": "<span style=\"font-size:30px; font-family: monospace\">da</span>",
		"response": " ",
		"trial": "exp-sent",
		"word": "da",
		"trial_type": "html-keyboard-response",
		"trial_index": 284,
		"time_elapsed": 1009545,
		"internal_node_id": "0.0-3.0-1.229"
	},
	{
		"rt": 1308,
		"stimulus": "<span style=\"font-size:30px; font-family: monospace\">minha</span>",
		"response": " ",
		"trial": "exp-sent",
		"word": "minha",
		"trial_type": "html-keyboard-response",
		"trial_index": 285,
		"time_elapsed": 1011107,
		"internal_node_id": "0.0-3.0-1.230"
	},
	{
		"rt": 1294,
		"stimulus": "<span style=\"font-size:30px; font-family: monospace\">vó.</span>",
		"response": " ",
		"trial": "comp",
		"word": "vó.",
		"trial_type": "html-keyboard-response",
		"trial_index": 286,
		"time_elapsed": 1012658,
		"internal_node_id": "0.0-3.0-1.231"
	},
	{
		"rt": 35395,
		"stimulus": "<span style=\"font-size:30px; font-family: monospace\">As cadeiras eram da avó?</span>",
		"response": "s",
		"question": "As cadeiras eram da avó?",
		"answer": "sim",
		"trial": "comp",
		"trial_type": "html-keyboard-response",
		"trial_index": 287,
		"time_elapsed": 1048316,
		"internal_node_id": "0.0-3.0-2.231-0.231",
		"accuracy": false
	},
	{
		"rt": null,
		"stimulus": "<span style= \"font-size:30px; font-family: monospace\">+</span>",
		"response": null,
		"trial_part": "fixation",
		"trial_type": "html-keyboard-response",
		"trial_index": 288,
		"time_elapsed": 1049829,
		"internal_node_id": "0.0-3.0-0.232-0.232"
	},
	{
		"rt": 2070,
		"stimulus": "<span style=\"font-size:30px; font-family: monospace\">A</span>",
		"response": " ",
		"trial": "exp-sent",
		"word": "A",
		"trial_type": "html-keyboard-response",
		"trial_index": 289,
		"time_elapsed": 1052161,
		"internal_node_id": "0.0-3.0-1.232"
	},
	{
		"rt": 3710,
		"stimulus": "<span style=\"font-size:30px; font-family: monospace\">motorista</span>",
		"response": " ",
		"trial": "exp-sent",
		"word": "motorista",
		"trial_type": "html-keyboard-response",
		"trial_index": 290,
		"time_elapsed": 1056131,
		"internal_node_id": "0.0-3.0-1.233"
	},
	{
		"rt": 1056,
		"stimulus": "<span style=\"font-size:30px; font-family: monospace\">fez</span>",
		"response": " ",
		"trial": "exp-sent",
		"word": "fez",
		"trial_type": "html-keyboard-response",
		"trial_index": 291,
		"time_elapsed": 1057444,
		"internal_node_id": "0.0-3.0-1.234"
	},
	{
		"rt": 1146,
		"stimulus": "<span style=\"font-size:30px; font-family: monospace\">o</span>",
		"response": " ",
		"trial": "exp-sent",
		"word": "o",
		"trial_type": "html-keyboard-response",
		"trial_index": 292,
		"time_elapsed": 1058848,
		"internal_node_id": "0.0-3.0-1.235"
	},
	{
		"rt": 1457,
		"stimulus": "<span style=\"font-size:30px; font-family: monospace\">retorno</span>",
		"response": " ",
		"trial": "exp-sent",
		"word": "retorno",
		"trial_type": "html-keyboard-response",
		"trial_index": 293,
		"time_elapsed": 1060569,
		"internal_node_id": "0.0-3.0-1.236"
	},
	{
		"rt": 1087,
		"stimulus": "<span style=\"font-size:30px; font-family: monospace\">com</span>",
		"response": " ",
		"trial": "exp-sent",
		"word": "com",
		"trial_type": "html-keyboard-response",
		"trial_index": 294,
		"time_elapsed": 1061913,
		"internal_node_id": "0.0-3.0-1.237"
	},
	{
		"rt": 1807,
		"stimulus": "<span style=\"font-size:30px; font-family: monospace\">cuidado.</span>",
		"response": " ",
		"trial": "exp-sent",
		"word": "cuidado.",
		"trial_type": "html-keyboard-response",
		"trial_index": 295,
		"time_elapsed": 1063980,
		"internal_node_id": "0.0-3.0-1.238"
	},
	{
		"rt": null,
		"stimulus": "<span style= \"font-size:30px; font-family: monospace\">+</span>",
		"response": null,
		"trial_part": "fixation",
		"trial_type": "html-keyboard-response",
		"trial_index": 296,
		"time_elapsed": 1065240,
		"internal_node_id": "0.0-3.0-0.239-0.239"
	},
	{
		"rt": 934,
		"stimulus": "<span style=\"font-size:30px; font-family: monospace\">Contos</span>",
		"response": " ",
		"trial": "exp-sent",
		"word": "Contos",
		"trial_type": "html-keyboard-response",
		"trial_index": 297,
		"time_elapsed": 1066439,
		"internal_node_id": "0.0-3.0-1.239"
	},
	{
		"rt": 3206,
		"stimulus": "<span style=\"font-size:30px; font-family: monospace\">de</span>",
		"response": " ",
		"trial": "exp-sent",
		"word": "de",
		"trial_type": "html-keyboard-response",
		"trial_index": 298,
		"time_elapsed": 1069907,
		"internal_node_id": "0.0-3.0-1.240"
	},
	{
		"rt": 1936,
		"stimulus": "<span style=\"font-size:30px; font-family: monospace\">ação</span>",
		"response": " ",
		"trial": "exp-sent",
		"word": "ação",
		"trial_type": "html-keyboard-response",
		"trial_index": 299,
		"time_elapsed": 1072105,
		"internal_node_id": "0.0-3.0-1.241"
	},
	{
		"rt": 1580,
		"stimulus": "<span style=\"font-size:30px; font-family: monospace\">têm</span>",
		"response": " ",
		"trial": "exp-sent",
		"word": "têm",
		"trial_type": "html-keyboard-response",
		"trial_index": 300,
		"time_elapsed": 1073942,
		"internal_node_id": "0.0-3.0-1.242"
	},
	{
		"rt": 2770,
		"stimulus": "<span style=\"font-size:30px; font-family: monospace\">chantagem</span>",
		"response": " ",
		"trial": "exp-sent",
		"word": "chantagem",
		"trial_type": "html-keyboard-response",
		"trial_index": 301,
		"time_elapsed": 1076976,
		"internal_node_id": "0.0-3.0-1.243"
	},
	{
		"rt": 1386,
		"stimulus": "<span style=\"font-size:30px; font-family: monospace\">e</span>",
		"response": " ",
		"trial": "exp-sent",
		"word": "e",
		"trial_type": "html-keyboard-response",
		"trial_index": 302,
		"time_elapsed": 1078622,
		"internal_node_id": "0.0-3.0-1.244"
	},
	{
		"rt": 1505,
		"stimulus": "<span style=\"font-size:30px; font-family: monospace\">muita</span>",
		"response": " ",
		"trial": "exp-sent",
		"word": "muita",
		"trial_type": "html-keyboard-response",
		"trial_index": 303,
		"time_elapsed": 1080388,
		"internal_node_id": "0.0-3.0-1.245"
	},
	{
		"rt": 2467,
		"stimulus": "<span style=\"font-size:30px; font-family: monospace\">luta.</span>",
		"response": " ",
		"trial": "exp-sent",
		"word": "luta.",
		"trial_type": "html-keyboard-response",
		"trial_index": 304,
		"time_elapsed": 1083114,
		"internal_node_id": "0.0-3.0-1.246"
	},
	{
		"rt": null,
		"stimulus": "<span style= \"font-size:30px; font-family: monospace\">+</span>",
		"response": null,
		"trial_part": "fixation",
		"trial_type": "html-keyboard-response",
		"trial_index": 305,
		"time_elapsed": 1084379,
		"internal_node_id": "0.0-3.0-0.247-0.247"
	},
	{
		"rt": 72,
		"stimulus": "<span style=\"font-size:30px; font-family: monospace\">A</span>",
		"response": " ",
		"trial": "exp-sent",
		"word": "A",
		"trial_type": "html-keyboard-response",
		"trial_index": 306,
		"time_elapsed": 1084712,
		"internal_node_id": "0.0-3.0-1.247"
	},
	{
		"rt": 3417,
		"stimulus": "<span style=\"font-size:30px; font-family: monospace\">bisavó</span>",
		"response": " ",
		"trial": "exp-sent",
		"word": "bisavó",
		"trial_type": "html-keyboard-response",
		"trial_index": 307,
		"time_elapsed": 1088394,
		"internal_node_id": "0.0-3.0-1.248"
	},
	{
		"rt": 1385,
		"stimulus": "<span style=\"font-size:30px; font-family: monospace\">recebeu</span>",
		"response": " ",
		"trial": "exp-sent",
		"word": "recebeu",
		"trial_type": "html-keyboard-response",
		"trial_index": 308,
		"time_elapsed": 1090038,
		"internal_node_id": "0.0-3.0-1.249"
	},
	{
		"rt": 1594,
		"stimulus": "<span style=\"font-size:30px; font-family: monospace\">um</span>",
		"response": " ",
		"trial": "exp-sent",
		"word": "um",
		"trial_type": "html-keyboard-response",
		"trial_index": 309,
		"time_elapsed": 1091894,
		"internal_node_id": "0.0-3.0-1.250"
	},
	{
		"rt": 2019,
		"stimulus": "<span style=\"font-size:30px; font-family: monospace\">benefício</span>",
		"response": " ",
		"trial": "exp-sent",
		"word": "benefício",
		"trial_type": "html-keyboard-response",
		"trial_index": 310,
		"time_elapsed": 1094173,
		"internal_node_id": "0.0-3.0-1.251"
	},
	{
		"rt": 2490,
		"stimulus": "<span style=\"font-size:30px; font-family: monospace\">temporário</span>",
		"response": " ",
		"trial": "exp-sent",
		"word": "temporário",
		"trial_type": "html-keyboard-response",
		"trial_index": 311,
		"time_elapsed": 1096924,
		"internal_node_id": "0.0-3.0-1.252"
	},
	{
		"rt": 1895,
		"stimulus": "<span style=\"font-size:30px; font-family: monospace\">do</span>",
		"response": " ",
		"trial": "exp-sent",
		"word": "do",
		"trial_type": "html-keyboard-response",
		"trial_index": 312,
		"time_elapsed": 1099084,
		"internal_node_id": "0.0-3.0-1.253"
	},
	{
		"rt": 2468,
		"stimulus": "<span style=\"font-size:30px; font-family: monospace\">governo.</span>",
		"response": " ",
		"trial": "exp-sent",
		"word": "governo.",
		"trial_type": "html-keyboard-response",
		"trial_index": 313,
		"time_elapsed": 1101811,
		"internal_node_id": "0.0-3.0-1.254"
	},
	{
		"rt": null,
		"stimulus": "<span style= \"font-size:30px; font-family: monospace\">+</span>",
		"response": null,
		"trial_part": "fixation",
		"trial_type": "html-keyboard-response",
		"trial_index": 314,
		"time_elapsed": 1103073,
		"internal_node_id": "0.0-3.0-0.255-0.255"
	},
	{
		"rt": 879,
		"stimulus": "<span style=\"font-size:30px; font-family: monospace\">As</span>",
		"response": " ",
		"trial": "exp-sent",
		"word": "As",
		"trial_type": "html-keyboard-response",
		"trial_index": 315,
		"time_elapsed": 1104208,
		"internal_node_id": "0.0-3.0-1.255"
	},
	{
		"rt": 1455,
		"stimulus": "<span style=\"font-size:30px; font-family: monospace\">crianças</span>",
		"response": " ",
		"trial": "exp-sent",
		"word": "crianças",
		"trial_type": "html-keyboard-response",
		"trial_index": 316,
		"time_elapsed": 1105916,
		"internal_node_id": "0.0-3.0-1.256"
	},
	{
		"rt": 3428,
		"stimulus": "<span style=\"font-size:30px; font-family: monospace\">brincaram</span>",
		"response": " ",
		"trial": "exp-sent",
		"word": "brincaram",
		"trial_type": "html-keyboard-response",
		"trial_index": 317,
		"time_elapsed": 1109597,
		"internal_node_id": "0.0-3.0-1.257"
	},
	{
		"rt": 1826,
		"stimulus": "<span style=\"font-size:30px; font-family: monospace\">no</span>",
		"response": " ",
		"trial": "exp-sent",
		"word": "no",
		"trial_type": "html-keyboard-response",
		"trial_index": 318,
		"time_elapsed": 1111679,
		"internal_node_id": "0.0-3.0-1.258"
	},
	{
		"rt": 3046,
		"stimulus": "<span style=\"font-size:30px; font-family: monospace\">balanço</span>",
		"response": " ",
		"trial": "exp-sent",
		"word": "balanço",
		"trial_type": "html-keyboard-response",
		"trial_index": 319,
		"time_elapsed": 1114979,
		"internal_node_id": "0.0-3.0-1.259"
	},
	{
		"rt": 3565,
		"stimulus": "<span style=\"font-size:30px; font-family: monospace\">a</span>",
		"response": " ",
		"trial": "exp-sent",
		"word": "a",
		"trial_type": "html-keyboard-response",
		"trial_index": 320,
		"time_elapsed": 1118802,
		"internal_node_id": "0.0-3.0-1.260"
	},
	{
		"rt": 3707,
		"stimulus": "<span style=\"font-size:30px; font-family: monospace\">tarde</span>",
		"response": " ",
		"trial": "exp-sent",
		"word": "tarde",
		"trial_type": "html-keyboard-response",
		"trial_index": 321,
		"time_elapsed": 1122763,
		"internal_node_id": "0.0-3.0-1.261"
	},
	{
		"rt": 1773,
		"stimulus": "<span style=\"font-size:30px; font-family: monospace\">toda.</span>",
		"response": " ",
		"trial": "exp-sent",
		"word": "toda.",
		"trial_type": "html-keyboard-response",
		"trial_index": 322,
		"time_elapsed": 1124791,
		"internal_node_id": "0.0-3.0-1.262"
	},
	{
		"rt": null,
		"stimulus": "<span style= \"font-size:30px; font-family: monospace\">+</span>",
		"response": null,
		"trial_part": "fixation",
		"trial_type": "html-keyboard-response",
		"trial_index": 323,
		"time_elapsed": 1126046,
		"internal_node_id": "0.0-3.0-0.263-0.263"
	},
	{
		"rt": 1394,
		"stimulus": "<span style=\"font-size:30px; font-family: monospace\">Ela</span>",
		"response": " ",
		"trial": "exp-sent",
		"word": "Ela",
		"trial_type": "html-keyboard-response",
		"trial_index": 324,
		"time_elapsed": 1127691,
		"internal_node_id": "0.0-3.0-1.263"
	},
	{
		"rt": 1177,
		"stimulus": "<span style=\"font-size:30px; font-family: monospace\">gosta</span>",
		"response": " ",
		"trial": "exp-sent",
		"word": "gosta",
		"trial_type": "html-keyboard-response",
		"trial_index": 325,
		"time_elapsed": 1129120,
		"internal_node_id": "0.0-3.0-1.264"
	},
	{
		"rt": 1810,
		"stimulus": "<span style=\"font-size:30px; font-family: monospace\">de</span>",
		"response": " ",
		"trial": "exp-sent",
		"word": "de",
		"trial_type": "html-keyboard-response",
		"trial_index": 326,
		"time_elapsed": 1131185,
		"internal_node_id": "0.0-3.0-1.265"
	},
	{
		"rt": 1919,
		"stimulus": "<span style=\"font-size:30px; font-family: monospace\">comida</span>",
		"response": " ",
		"trial": "exp-sent",
		"word": "comida",
		"trial_type": "html-keyboard-response",
		"trial_index": 327,
		"time_elapsed": 1133358,
		"internal_node_id": "0.0-3.0-1.266"
	},
	{
		"rt": 3525,
		"stimulus": "<span style=\"font-size:30px; font-family: monospace\">natural</span>",
		"response": " ",
		"trial": "exp-sent",
		"word": "natural",
		"trial_type": "html-keyboard-response",
		"trial_index": 328,
		"time_elapsed": 1137139,
		"internal_node_id": "0.0-3.0-1.267"
	},
	{
		"rt": 1671,
		"stimulus": "<span style=\"font-size:30px; font-family: monospace\">no</span>",
		"response": " ",
		"trial": "exp-sent",
		"word": "no",
		"trial_type": "html-keyboard-response",
		"trial_index": 329,
		"time_elapsed": 1139068,
		"internal_node_id": "0.0-3.0-1.268"
	},
	{
		"rt": 2153,
		"stimulus": "<span style=\"font-size:30px; font-family: monospace\">almoço.</span>",
		"response": " ",
		"trial": "comp",
		"word": "almoço.",
		"trial_type": "html-keyboard-response",
		"trial_index": 330,
		"time_elapsed": 1141474,
		"internal_node_id": "0.0-3.0-1.269"
	},
	{
		"rt": 7602,
		"stimulus": "<span style=\"font-size:30px; font-family: monospace\">Ela gosta de comida natural no almoço?</span>",
		"response": "s",
		"question": "Ela gosta de comida natural no almoço?",
		"answer": "sim",
		"trial": "comp",
		"trial_type": "html-keyboard-response",
		"trial_index": 331,
		"time_elapsed": 1149337,
		"internal_node_id": "0.0-3.0-2.269-0.269",
		"accuracy": false
	},
	{
		"rt": null,
		"stimulus": "<span style= \"font-size:30px; font-family: monospace\">+</span>",
		"response": null,
		"trial_part": "fixation",
		"trial_type": "html-keyboard-response",
		"trial_index": 332,
		"time_elapsed": 1150855,
		"internal_node_id": "0.0-3.0-0.270-0.270"
	},
	{
		"rt": 2187,
		"stimulus": "<span style=\"font-size:30px; font-family: monospace\">Barulho</span>",
		"response": " ",
		"trial": "exp-sent",
		"word": "Barulho",
		"trial_type": "html-keyboard-response",
		"trial_index": 333,
		"time_elapsed": 1153298,
		"internal_node_id": "0.0-3.0-1.270"
	},
	{
		"rt": 1348,
		"stimulus": "<span style=\"font-size:30px; font-family: monospace\">de</span>",
		"response": " ",
		"trial": "exp-sent",
		"word": "de",
		"trial_type": "html-keyboard-response",
		"trial_index": 334,
		"time_elapsed": 1154905,
		"internal_node_id": "0.0-3.0-1.271"
	},
	{
		"rt": 1285,
		"stimulus": "<span style=\"font-size:30px; font-family: monospace\">carros</span>",
		"response": " ",
		"trial": "exp-sent",
		"word": "carros",
		"trial_type": "html-keyboard-response",
		"trial_index": 335,
		"time_elapsed": 1156452,
		"internal_node_id": "0.0-3.0-1.272"
	},
	{
		"rt": 1183,
		"stimulus": "<span style=\"font-size:30px; font-family: monospace\">é</span>",
		"response": " ",
		"trial": "exp-sent",
		"word": "é",
		"trial_type": "html-keyboard-response",
		"trial_index": 336,
		"time_elapsed": 1157896,
		"internal_node_id": "0.0-3.0-1.273"
	},
	{
		"rt": 1930,
		"stimulus": "<span style=\"font-size:30px; font-family: monospace\">irritante</span>",
		"response": " ",
		"trial": "exp-sent",
		"word": "irritante",
		"trial_type": "html-keyboard-response",
		"trial_index": 337,
		"time_elapsed": 1160081,
		"internal_node_id": "0.0-3.0-1.274"
	},
	{
		"rt": 1375,
		"stimulus": "<span style=\"font-size:30px; font-family: monospace\">para</span>",
		"response": " ",
		"trial": "exp-sent",
		"word": "para",
		"trial_type": "html-keyboard-response",
		"trial_index": 338,
		"time_elapsed": 1161716,
		"internal_node_id": "0.0-3.0-1.275"
	},
	{
		"rt": 1770,
		"stimulus": "<span style=\"font-size:30px; font-family: monospace\">a</span>",
		"response": " ",
