[
	{
		"view_history": [
			{
				"page_index": 0,
				"viewing_time": 13706
			},
			{
				"page_index": 1,
				"viewing_time": 2791
			}
		],
		"rt": 16498,
		"trial_type": "instructions",
		"trial_index": 0,
		"time_elapsed": 16499,
		"internal_node_id": "0.0-0.0"
	},
	{
		"rt": null,
		"stimulus": "<span style= \"font-size:30px; font-family: monospace\">+</span>",
		"response": null,
		"trial_part": "fixation",
		"trial_type": "html-keyboard-response",
		"trial_index": 1,
		"time_elapsed": 17606,
		"internal_node_id": "0.0-1.0-0.0-0.0"
	},
	{
		"rt": 8040,
		"stimulus": "../audio/prac-question-1-1.mp3",
		"response": " ",
		"word": "O",
		"trial_type": "audio-keyboard-response",
		"trial_index": 2,
		"time_elapsed": 25992,
		"internal_node_id": "0.0-1.0-1.0"
	},
	{
		"rt": 3181,
		"stimulus": "../audio/prac-question-1-2.mp3",
		"response": " ",
		"word": "dia",
		"trial_type": "audio-keyboard-response",
		"trial_index": 3,
		"time_elapsed": 29468,
		"internal_node_id": "0.0-1.0-1.1"
	},
	{
		"rt": 3200,
		"stimulus": "../audio/prac-question-1-3.mp3",
		"response": " ",
		"word": "estará",
		"trial_type": "audio-keyboard-response",
		"trial_index": 4,
		"time_elapsed": 32995,
		"internal_node_id": "0.0-1.0-1.2"
	},
	{
		"rt": 3299,
		"stimulus": "../audio/prac-question-1-4.mp3",
		"response": " ",
		"word": "cheio",
		"trial_type": "audio-keyboard-response",
		"trial_index": 5,
		"time_elapsed": 36612,
		"internal_node_id": "0.0-1.0-1.3"
	},
	{
		"rt": 2080,
		"stimulus": "../audio/prac-question-1-5.mp3",
		"response": " ",
		"word": "de",
		"trial_type": "audio-keyboard-response",
		"trial_index": 6,
		"time_elapsed": 38995,
		"internal_node_id": "0.0-1.0-1.4"
	},
	{
		"rt": 1949,
		"stimulus": "../audio/prac-question-1-6.mp3",
		"response": " ",
		"word": "nuvens",
		"trial_type": "audio-keyboard-response",
		"trial_index": 7,
		"time_elapsed": 41255,
		"internal_node_id": "0.0-1.0-1.5"
	},
	{
		"rt": 2200,
		"stimulus": "../audio/prac-question-1-7.mp3",
		"response": " ",
		"word": "hoje.",
		"trial_type": "audio-keyboard-response",
		"trial_index": 8,
		"time_elapsed": 43754,
		"internal_node_id": "0.0-1.0-1.6"
	},
	{
		"rt": null,
		"stimulus": "<span style= \"font-size:30px; font-family: monospace\">+</span>",
		"response": null,
		"trial_part": "fixation",
		"trial_type": "html-keyboard-response",
		"trial_index": 9,
		"time_elapsed": 45011,
		"internal_node_id": "0.0-1.0-0.7-0.7"
	},
	{
		"rt": 1360,
		"stimulus": "../audio/prac-question-2-1.mp3",
		"response": " ",
		"word": "A",
		"trial_type": "audio-keyboard-response",
		"trial_index": 10,
		"time_elapsed": 47033,
		"internal_node_id": "0.0-1.0-1.7"
	},
	{
		"rt": 1600,
		"stimulus": "../audio/prac-question-2-2.mp3",
		"response": " ",
		"word": "caneca",
		"trial_type": "audio-keyboard-response",
		"trial_index": 11,
		"time_elapsed": 48953,
		"internal_node_id": "0.0-1.0-1.8"
	},
	{
		"rt": 1661,
		"stimulus": "../audio/prac-question-2-3.mp3",
		"response": " ",
		"word": "colorida",
		"trial_type": "audio-keyboard-response",
		"trial_index": 12,
		"time_elapsed": 50916,
		"internal_node_id": "0.0-1.0-1.9"
	},
	{
		"rt": 2240,
		"stimulus": "../audio/prac-question-2-4.mp3",
		"response": " ",
		"word": "caiu",
		"trial_type": "audio-keyboard-response",
		"trial_index": 13,
		"time_elapsed": 53445,
		"internal_node_id": "0.0-1.0-1.10"
	},
	{
		"rt": 1549,
		"stimulus": "../audio/prac-question-2-5.mp3",
		"response": " ",
		"word": "da",
		"trial_type": "audio-keyboard-response",
		"trial_index": 14,
		"time_elapsed": 55293,
		"internal_node_id": "0.0-1.0-1.11"
	},
	{
		"rt": 1669,
		"stimulus": "../audio/prac-question-2-6.mp3",
		"response": " ",
		"word": "mesa",
		"trial_type": "audio-keyboard-response",
		"trial_index": 15,
		"time_elapsed": 57257,
		"internal_node_id": "0.0-1.0-1.12"
	},
	{
		"rt": 1461,
		"stimulus": "../audio/prac-question-2-7.mp3",
		"response": " ",
		"word": "de",
		"trial_type": "audio-keyboard-response",
		"trial_index": 16,
		"time_elapsed": 58999,
		"internal_node_id": "0.0-1.0-1.13"
	},
	{
		"rt": 3109,
		"stimulus": "../audio/prac-question-2-8.mp3",
		"response": " ",
		"word": "jantar.",
		"trial_type": "audio-keyboard-response",
		"trial_index": 17,
		"time_elapsed": 62409,
		"internal_node_id": "0.0-1.0-1.14"
	},
	{
		"rt": 37990,
		"stimulus": "<span style=\"font-size:25px; font-family: monospace\">A caneca era colorida?</span>",
		"response": "s",
		"question": "A caneca era colorida?",
		"answer": "null",
		"trial": "prac-sent",
		"trial_type": "html-keyboard-response",
		"trial_index": 18,
		"time_elapsed": 100656,
		"internal_node_id": "0.0-1.0-2.14-0.14",
		"accuracy": false
	},
	{
		"view_history": [
			{
				"page_index": 0,
				"viewing_time": 12201
			}
		],
		"rt": 12204,
		"trial_type": "instructions",
		"trial_index": 19,
		"time_elapsed": 113363,
		"internal_node_id": "0.0-2.0"
	},
	{
		"rt": null,
		"stimulus": "<span style= \"font-size:30px; font-family: monospace\">+</span>",
		"response": null,
		"trial_part": "fixation",
		"trial_type": "html-keyboard-response",
		"trial_index": 20,
		"time_elapsed": 114474,
		"internal_node_id": "0.0-3.0-0.0-0.0"
	},
	{
		"rt": 5819,
		"stimulus": "../audio/62-1-masc.mp3",
		"response": " ",
		"word": "As",
		"trial_type": "audio-keyboard-response",
		"trial_index": 21,
		"time_elapsed": 121579,
		"internal_node_id": "0.0-3.0-1.0"
	},
	{
		"rt": 2779,
		"stimulus": "../audio/62-2-masc.mp3",
		"response": " ",
		"word": "artesãs",
		"trial_type": "audio-keyboard-response",
		"trial_index": 22,
		"time_elapsed": 124675,
		"internal_node_id": "0.0-3.0-1.1"
	},
	{
		"rt": 2000,
		"stimulus": "../audio/62-3-masc.mp3",
		"response": " ",
		"word": "gostam",
		"trial_type": "audio-keyboard-response",
		"trial_index": 23,
		"time_elapsed": 126976,
		"internal_node_id": "0.0-3.0-1.2"
	},
	{
		"rt": 1571,
		"stimulus": "../audio/62-4-masc.mp3",
		"response": " ",
		"word": "de",
		"trial_type": "audio-keyboard-response",
		"trial_index": 24,
		"time_elapsed": 128853,
		"internal_node_id": "0.0-3.0-1.3"
	},
	{
		"rt": 6560,
		"stimulus": "../audio/62-5-masc.mp3",
		"response": " ",
		"word": "maquiagem",
		"trial_type": "audio-keyboard-response",
		"trial_index": 25,
		"time_elapsed": 135725,
		"internal_node_id": "0.0-3.0-1.4"
	},
	{
		"rt": 1389,
		"stimulus": "../audio/62-6-masc.mp3",
		"response": " ",
		"word": "e",
		"trial_type": "audio-keyboard-response",
		"trial_index": 26,
		"time_elapsed": 137419,
		"internal_node_id": "0.0-3.0-1.5"
	},
	{
		"rt": 1309,
		"stimulus": "../audio/62-7-masc.mp3",
		"response": " ",
		"word": "de",
		"trial_type": "audio-keyboard-response",
		"trial_index": 27,
		"time_elapsed": 139207,
		"internal_node_id": "0.0-3.0-1.6"
	},
	{
		"rt": 1979,
		"stimulus": "../audio/62-8-masc.mp3",
		"response": " ",
		"word": "crochê.",
		"trial_type": "audio-keyboard-response",
		"trial_index": 28,
		"time_elapsed": 142266,
		"internal_node_id": "0.0-3.0-1.7"
	},
	{
		"rt": null,
		"stimulus": "<span style= \"font-size:30px; font-family: monospace\">+</span>",
		"response": null,
		"trial_part": "fixation",
		"trial_type": "html-keyboard-response",
		"trial_index": 29,
		"time_elapsed": 143538,
		"internal_node_id": "0.0-3.0-0.8-0.8"
	},
	{
		"rt": 1659,
		"stimulus": "../audio/64-1-masc.mp3",
		"response": " ",
		"word": "O",
		"trial_type": "audio-keyboard-response",
		"trial_index": 30,
		"time_elapsed": 145499,
		"internal_node_id": "0.0-3.0-1.8"
	},
	{
		"rt": 1171,
		"stimulus": "../audio/64-2-masc.mp3",
		"response": " ",
		"word": "dia",
		"trial_type": "audio-keyboard-response",
		"trial_index": 31,
		"time_elapsed": 146961,
		"internal_node_id": "0.0-3.0-1.9"
	},
	{
		"rt": 1411,
		"stimulus": "../audio/64-3-masc.mp3",
		"response": " ",
		"word": "começou",
		"trial_type": "audio-keyboard-response",
		"trial_index": 32,
		"time_elapsed": 148675,
		"internal_node_id": "0.0-3.0-1.10"
	},
	{
		"rt": 1080,
		"stimulus": "../audio/64-4-masc.mp3",
		"response": " ",
		"word": "com",
		"trial_type": "audio-keyboard-response",
		"trial_index": 33,
		"time_elapsed": 150042,
		"internal_node_id": "0.0-3.0-1.11"
	},
	{
		"rt": 1461,
		"stimulus": "../audio/64-5-masc.mp3",
		"response": " ",
		"word": "garoa",
		"trial_type": "audio-keyboard-response",
		"trial_index": 34,
		"time_elapsed": 151801,
		"internal_node_id": "0.0-3.0-1.12"
	},
	{
		"rt": 1352,
		"stimulus": "../audio/64-6-masc.mp3",
		"response": " ",
		"word": "gelada",
		"trial_type": "audio-keyboard-response",
		"trial_index": 35,
		"time_elapsed": 153455,
		"internal_node_id": "0.0-3.0-1.13"
	},
	{
		"rt": 1131,
		"stimulus": "../audio/64-7-masc.mp3",
		"response": " ",
		"word": "e",
		"trial_type": "audio-keyboard-response",
		"trial_index": 36,
		"time_elapsed": 154876,
		"internal_node_id": "0.0-3.0-1.14"
	},
	{
		"rt": 1789,
		"stimulus": "../audio/64-8-masc.mp3",
		"response": " ",
		"word": "leve.",
		"trial_type": "audio-keyboard-response",
		"trial_index": 37,
		"time_elapsed": 156960,
		"internal_node_id": "0.0-3.0-1.15"
	},
	{
		"rt": null,
		"stimulus": "<span style= \"font-size:30px; font-family: monospace\">+</span>",
		"response": null,
		"trial_part": "fixation",
		"trial_type": "html-keyboard-response",
		"trial_index": 38,
		"time_elapsed": 158231,
		"internal_node_id": "0.0-3.0-0.16-0.16"
	},
	{
		"rt": 2269,
		"stimulus": "../audio/61-1-fem.mp3",
		"response": " ",
		"word": "Aquele",
		"trial_type": "audio-keyboard-response",
		"trial_index": 39,
		"time_elapsed": 160804,
		"internal_node_id": "0.0-3.0-1.16"
	},
	{
		"rt": 1221,
		"stimulus": "../audio/61-2-fem.mp3",
		"response": " ",
		"word": "senhor",
		"trial_type": "audio-keyboard-response",
		"trial_index": 40,
		"time_elapsed": 162327,
		"internal_node_id": "0.0-3.0-1.17"
	},
	{
		"rt": 949,
		"stimulus": "../audio/61-3-fem.mp3",
		"response": " ",
		"word": "é",
		"trial_type": "audio-keyboard-response",
		"trial_index": 41,
		"time_elapsed": 163567,
		"internal_node_id": "0.0-3.0-1.18"
	},
	{
		"rt": 1120,
		"stimulus": "../audio/61-4-fem.mp3",
		"response": " ",
		"word": "muito",
		"trial_type": "audio-keyboard-response",
		"trial_index": 42,
		"time_elapsed": 164979,
		"internal_node_id": "0.0-3.0-1.19"
	},
	{
		"rt": 1571,
		"stimulus": "../audio/61-5-fem.mp3",
		"response": " ",
		"word": "sovina",
		"trial_type": "audio-keyboard-response",
		"trial_index": 43,
		"time_elapsed": 166843,
		"internal_node_id": "0.0-3.0-1.20"
	},
	{
		"rt": 840,
		"stimulus": "../audio/61-6-fem.mp3",
		"response": " ",
		"word": "e",
		"trial_type": "audio-keyboard-response",
		"trial_index": 44,
		"time_elapsed": 168116,
		"internal_node_id": "0.0-3.0-1.21"
	},
	{
		"rt": 3291,
		"stimulus": "../audio/61-7-fem.mp3",
		"response": " ",
		"word": "inflexível.",
		"trial_type": "audio-keyboard-response",
		"trial_index": 45,
		"time_elapsed": 172085,
		"internal_node_id": "0.0-3.0-1.22"
	},
	{
		"rt": null,
		"stimulus": "<span style= \"font-size:30px; font-family: monospace\">+</span>",
		"response": null,
		"trial_part": "fixation",
		"trial_type": "html-keyboard-response",
		"trial_index": 46,
		"time_elapsed": 173355,
		"internal_node_id": "0.0-3.0-0.23-0.23"
	},
	{
		"rt": 1179,
		"stimulus": "../audio/63-1-fem.mp3",
		"response": " ",
		"word": "A",
		"trial_type": "audio-keyboard-response",
		"trial_index": 47,
		"time_elapsed": 174831,
		"internal_node_id": "0.0-3.0-1.23"
	},
	{
		"rt": 1200,
		"stimulus": "../audio/63-2-fem.mp3",
		"response": " ",
		"word": "chuva",
		"trial_type": "audio-keyboard-response",
		"trial_index": 48,
		"time_elapsed": 176329,
		"internal_node_id": "0.0-3.0-1.24"
	},
	{
		"rt": 1240,
		"stimulus": "../audio/63-3-fem.mp3",
		"response": " ",
		"word": "entrou",
		"trial_type": "audio-keyboard-response",
		"trial_index": 49,
		"time_elapsed": 177859,
		"internal_node_id": "0.0-3.0-1.25"
	},
	{
		"rt": 1120,
		"stimulus": "../audio/63-4-fem.mp3",
		"response": " ",
		"word": "pela",
		"trial_type": "audio-keyboard-response",
		"trial_index": 50,
		"time_elapsed": 179272,
		"internal_node_id": "0.0-3.0-1.26"
	},
	{
		"rt": 1331,
		"stimulus": "../audio/63-5-fem.mp3",
		"response": " ",
		"word": "abertura",
		"trial_type": "audio-keyboard-response",
		"trial_index": 51,
		"time_elapsed": 180918,
		"internal_node_id": "0.0-3.0-1.27"
	},
	{
		"rt": 989,
		"stimulus": "../audio/63-6-fem.mp3",
		"response": " ",
		"word": "na",
		"trial_type": "audio-keyboard-response",
		"trial_index": 52,
		"time_elapsed": 182194,
		"internal_node_id": "0.0-3.0-1.28"
	},
	{
		"rt": 2288,
		"stimulus": "../audio/63-7-fem.mp3",
		"response": " ",
		"word": "janela.",
		"trial_type": "audio-keyboard-response",
		"trial_index": 53,
		"time_elapsed": 184788,
		"internal_node_id": "0.0-3.0-1.29"
	},
	{
		"rt": null,
		"stimulus": "<span style= \"font-size:30px; font-family: monospace\">+</span>",
		"response": null,
		"trial_part": "fixation",
		"trial_type": "html-keyboard-response",
		"trial_index": 54,
		"time_elapsed": 186055,
		"internal_node_id": "0.0-3.0-0.30-0.30"
	},
	{
		"rt": 939,
		"stimulus": "../audio/65-1-fem.mp3",
		"response": " ",
		"word": "O",
		"trial_type": "audio-keyboard-response",
		"trial_index": 55,
		"time_elapsed": 187307,
		"internal_node_id": "0.0-3.0-1.30"
	},
	{
		"rt": 1419,
		"stimulus": "../audio/65-2-fem.mp3",
		"response": " ",
		"word": "fantasma",
		"trial_type": "audio-keyboard-response",
		"trial_index": 56,
		"time_elapsed": 189028,
		"internal_node_id": "0.0-3.0-1.31"
	},
	{
		"rt": 1501,
		"stimulus": "../audio/65-3-fem.mp3",
		"response": " ",
		"word": "veio",
		"trial_type": "audio-keyboard-response",
		"trial_index": 57,
		"time_elapsed": 190814,
		"internal_node_id": "0.0-3.0-1.32"
	},
	{
		"rt": 1032,
		"stimulus": "../audio/65-4-fem.mp3",
		"response": " ",
		"word": "da",
		"trial_type": "audio-keyboard-response",
		"trial_index": 58,
		"time_elapsed": 192140,
		"internal_node_id": "0.0-3.0-1.33"
	},
	{
		"rt": 2091,
		"stimulus": "../audio/65-5-fem.mp3",
		"response": " ",
		"word": "escuridão",
		"trial_type": "audio-keyboard-response",
		"trial_index": 59,
		"time_elapsed": 194524,
		"internal_node_id": "0.0-3.0-1.34"
	},
	{
		"rt": 1299,
		"stimulus": "../audio/65-6-fem.mp3",
		"response": " ",
		"word": "do",
		"trial_type": "audio-keyboard-response",
		"trial_index": 60,
		"time_elapsed": 196119,
		"internal_node_id": "0.0-3.0-1.35"
	},
	{
		"rt": 1869,
		"stimulus": "../audio/65-7-fem.mp3",
		"response": " ",
		"word": "armário.",
		"trial_type": "audio-keyboard-response",
		"trial_index": 61,
		"time_elapsed": 198284,
		"internal_node_id": "0.0-3.0-1.36"
	},
	{
		"rt": 9661,
		"stimulus": "<span style=\"font-size:25px; font-family: monospace\">O fantasma veio da escuridão do armário?</span>",
		"response": "s",
		"question": "O fantasma veio da escuridão do armário?",
		"answer": "null",
		"trial": "exp-sent",
		"trial_type": "html-keyboard-response",
		"trial_index": 62,
		"time_elapsed": 208200,
		"internal_node_id": "0.0-3.0-2.36-0.36",
		"accuracy": false
	},
	{
		"rt": null,
		"stimulus": "<span style= \"font-size:30px; font-family: monospace\">+</span>",
		"response": null,
		"trial_part": "fixation",
		"trial_type": "html-keyboard-response",
		"trial_index": 63,
		"time_elapsed": 209703,
		"internal_node_id": "0.0-3.0-0.37-0.37"
	},
	{
		"rt": 1640,
		"stimulus": "../audio/51-1-fem.mp3",
		"response": " ",
		"word": "Suco",
		"trial_type": "audio-keyboard-response",
		"trial_index": 64,
		"time_elapsed": 211649,
		"internal_node_id": "0.0-3.0-1.37"
	},
	{
		"rt": 968,
		"stimulus": "../audio/51-2-fem.mp3",
		"response": " ",
		"word": "de",
		"trial_type": "audio-keyboard-response",
		"trial_index": 65,
		"time_elapsed": 212906,
		"internal_node_id": "0.0-3.0-1.38"
	},
	{
		"rt": 1651,
		"stimulus": "../audio/51-3-fem.mp3",
		"response": " ",
		"word": "acerola",
		"trial_type": "audio-keyboard-response",
		"trial_index": 66,
		"time_elapsed": 214855,
		"internal_node_id": "0.0-3.0-1.39"
	},
	{
		"rt": 981,
		"stimulus": "../audio/51-4-fem.mp3",
		"response": " ",
		"word": "é",
		"trial_type": "audio-keyboard-response",
		"trial_index": 67,
		"time_elapsed": 216128,
		"internal_node_id": "0.0-3.0-1.40"
	},
	{
		"rt": 2229,
		"stimulus": "../audio/51-5-fem.mp3",
		"response": " ",
		"word": "azedo",
		"trial_type": "audio-keyboard-response",
		"trial_index": 68,
		"time_elapsed": 218667,
		"internal_node_id": "0.0-3.0-1.41"
	},
	{
		"rt": 1320,
		"stimulus": "../audio/51-6-fem.mp3",
		"response": " ",
		"word": "e",
		"trial_type": "audio-keyboard-response",
		"trial_index": 69,
		"time_elapsed": 220284,
		"internal_node_id": "0.0-3.0-1.42"
	},
	{
		"rt": 1968,
		"stimulus": "../audio/51-7-fem.mp3",
		"response": " ",
		"word": "até",
		"trial_type": "audio-keyboard-response",
		"trial_index": 70,
		"time_elapsed": 222554,
		"internal_node_id": "0.0-3.0-1.43"
	},
	{
		"rt": 2131,
		"stimulus": "../audio/51-8-fem.mp3",
		"response": " ",
		"word": "barato.",
		"trial_type": "audio-keyboard-response",
		"trial_index": 71,
		"time_elapsed": 224971,
		"internal_node_id": "0.0-3.0-1.44"
	},
	{
		"rt": null,
		"stimulus": "<span style= \"font-size:30px; font-family: monospace\">+</span>",
		"response": null,
		"trial_part": "fixation",
		"trial_type": "html-keyboard-response",
		"trial_index": 72,
		"time_elapsed": 226231,
		"internal_node_id": "0.0-3.0-0.45-0.45"
	},
	{
		"rt": 1251,
		"stimulus": "../audio/53-1-masc.mp3",
		"response": " ",
		"word": "O",
		"trial_type": "audio-keyboard-response",
		"trial_index": 73,
		"time_elapsed": 227765,
		"internal_node_id": "0.0-3.0-1.45"
	},
	{
		"rt": 1312,
		"stimulus": "../audio/53-2-masc.mp3",
		"response": " ",
		"word": "médico",
		"trial_type": "audio-keyboard-response",
		"trial_index": 74,
		"time_elapsed": 229376,
		"internal_node_id": "0.0-3.0-1.46"
	},
	{
		"rt": 952,
		"stimulus": "../audio/53-3-masc.mp3",
		"response": " ",
		"word": "foi",
		"trial_type": "audio-keyboard-response",
		"trial_index": 75,
		"time_elapsed": 230624,
		"internal_node_id": "0.0-3.0-1.47"
	},
	{
		"rt": 1139,
		"stimulus": "../audio/53-4-masc.mp3",
		"response": " ",
		"word": "bastante",
		"trial_type": "audio-keyboard-response",
		"trial_index": 76,
		"time_elapsed": 232074,
		"internal_node_id": "0.0-3.0-1.48"
	},
	{
		"rt": 1120,
		"stimulus": "../audio/53-5-masc.mp3",
		"response": " ",
		"word": "preciso",
		"trial_type": "audio-keyboard-response",
		"trial_index": 77,
		"time_elapsed": 233487,
		"internal_node_id": "0.0-3.0-1.49"
	},
	{
		"rt": 1128,
		"stimulus": "../audio/53-6-masc.mp3",
		"response": " ",
		"word": "durante",
		"trial_type": "audio-keyboard-response",
		"trial_index": 78,
		"time_elapsed": 234908,
		"internal_node_id": "0.0-3.0-1.50"
	},
	{
		"rt": 949,
		"stimulus": "../audio/53-7-masc.mp3",
		"response": " ",
		"word": "a",
		"trial_type": "audio-keyboard-response",
		"trial_index": 79,
		"time_elapsed": 236147,
		"internal_node_id": "0.0-3.0-1.51"
	},
	{
		"rt": 2400,
		"stimulus": "../audio/53-8-masc.mp3",
		"response": " ",
		"word": "cirurgia.",
		"trial_type": "audio-keyboard-response",
		"trial_index": 80,
		"time_elapsed": 238853,
		"internal_node_id": "0.0-3.0-1.52"
	},
	{
		"rt": null,
		"stimulus": "<span style= \"font-size:30px; font-family: monospace\">+</span>",
		"response": null,
		"trial_part": "fixation",
		"trial_type": "html-keyboard-response",
		"trial_index": 81,
		"time_elapsed": 240124,
		"internal_node_id": "0.0-3.0-0.53-0.53"
	},
	{
		"rt": 1312,
		"stimulus": "../audio/54-1-fem.mp3",
		"response": " ",
		"word": "Estou",
		"trial_type": "audio-keyboard-response",
		"trial_index": 82,
		"time_elapsed": 241742,
		"internal_node_id": "0.0-3.0-1.53"
	},
	{
		"rt": 779,
		"stimulus": "../audio/54-2-fem.mp3",
		"response": " ",
		"word": "com",
		"trial_type": "audio-keyboard-response",
		"trial_index": 83,
		"time_elapsed": 242795,
		"internal_node_id": "0.0-3.0-1.54"
	},
	{
		"rt": 1080,
		"stimulus": "../audio/54-3-fem.mp3",
		"response": " ",
		"word": "medo",
		"trial_type": "audio-keyboard-response",
		"trial_index": 84,
		"time_elapsed": 244171,
		"internal_node_id": "0.0-3.0-1.55"
	},
	{
		"rt": 888,
		"stimulus": "../audio/54-4-fem.mp3",
		"response": " ",
		"word": "da",
		"trial_type": "audio-keyboard-response",
		"trial_index": 85,
		"time_elapsed": 245352,
		"internal_node_id": "0.0-3.0-1.56"
	},
	{
		"rt": 1179,
		"stimulus": "../audio/54-5-fem.mp3",
		"response": " ",
		"word": "atual",
		"trial_type": "audio-keyboard-response",
		"trial_index": 86,
		"time_elapsed": 246830,
		"internal_node_id": "0.0-3.0-1.57"
	},
	{
		"rt": 1880,
		"stimulus": "../audio/54-6-fem.mp3",
		"response": " ",
		"word": "organização",
		"trial_type": "audio-keyboard-response",
		"trial_index": 87,
		"time_elapsed": 249015,
		"internal_node_id": "0.0-3.0-1.58"
	},
	{
		"rt": 1240,
		"stimulus": "../audio/54-7-fem.mp3",
		"response": " ",
		"word": "do",
		"trial_type": "audio-keyboard-response",
		"trial_index": 88,
		"time_elapsed": 250566,
		"internal_node_id": "0.0-3.0-1.59"
	},
	{
		"rt": 2360,
		"stimulus": "../audio/54-8-fem.mp3",
		"response": " ",
		"word": "país.",
		"trial_type": "audio-keyboard-response",
		"trial_index": 89,
		"time_elapsed": 253222,
		"internal_node_id": "0.0-3.0-1.60"
	},
	{
		"rt": null,
		"stimulus": "<span style= \"font-size:30px; font-family: monospace\">+</span>",
		"response": null,
		"trial_part": "fixation",
		"trial_type": "html-keyboard-response",
		"trial_index": 90,
		"time_elapsed": 254484,
		"internal_node_id": "0.0-3.0-0.61-0.61"
	},
	{
		"rt": 1128,
		"stimulus": "../audio/52-1-fem.mp3",
		"response": " ",
		"word": "Às",
		"trial_type": "audio-keyboard-response",
		"trial_index": 91,
		"time_elapsed": 255912,
		"internal_node_id": "0.0-3.0-1.61"
	},
	{
		"rt": 1120,
		"stimulus": "../audio/52-2-fem.mp3",
		"response": " ",
		"word": "vezes",
		"trial_type": "audio-keyboard-response",
		"trial_index": 92,
		"time_elapsed": 257340,
		"internal_node_id": "0.0-3.0-1.62"
	},
	{
		"rt": 1011,
		"stimulus": "../audio/52-3-fem.mp3",
		"response": " ",
		"word": "eu",
		"trial_type": "audio-keyboard-response",
		"trial_index": 93,
		"time_elapsed": 258634,
		"internal_node_id": "0.0-3.0-1.63"
	},
	{
		"rt": 1168,
		"stimulus": "../audio/52-4-fem.mp3",
		"response": " ",
		"word": "tenho",
		"trial_type": "audio-keyboard-response",
		"trial_index": 94,
		"time_elapsed": 260109,
		"internal_node_id": "0.0-3.0-1.64"
	},
	{
		"rt": 1240,
		"stimulus": "../audio/52-5-fem.mp3",
		"response": " ",
		"word": "azia",
		"trial_type": "audio-keyboard-response",
		"trial_index": 95,
		"time_elapsed": 261647,
		"internal_node_id": "0.0-3.0-1.65"
	},
	{
		"rt": 1160,
		"stimulus": "../audio/52-6-fem.mp3",
		"response": " ",
		"word": "depois",
		"trial_type": "audio-keyboard-response",
		"trial_index": 96,
		"time_elapsed": 263099,
		"internal_node_id": "0.0-3.0-1.66"
	},
	{
		"rt": 1051,
		"stimulus": "../audio/52-7-fem.mp3",
		"response": " ",
		"word": "da",
		"trial_type": "audio-keyboard-response",
		"trial_index": 97,
		"time_elapsed": 264443,
		"internal_node_id": "0.0-3.0-1.67"
	},
	{
		"rt": 2381,
		"stimulus": "../audio/52-8-fem.mp3",
		"response": " ",
		"word": "janta.",
		"trial_type": "audio-keyboard-response",
		"trial_index": 98,
		"time_elapsed": 267132,
		"internal_node_id": "0.0-3.0-1.68"
	},
	{
		"rt": null,
		"stimulus": "<span style= \"font-size:30px; font-family: monospace\">+</span>",
		"response": null,
		"trial_part": "fixation",
		"trial_type": "html-keyboard-response",
		"trial_index": 99,
		"time_elapsed": 268394,
		"internal_node_id": "0.0-3.0-0.69-0.69"
	},
	{
		"rt": 1000,
		"stimulus": "../audio/55-1-masc.mp3",
		"response": " ",
		"word": "O",
		"trial_type": "audio-keyboard-response",
		"trial_index": 100,
		"time_elapsed": 269694,
		"internal_node_id": "0.0-3.0-1.69"
	},
	{
		"rt": 1392,
		"stimulus": "../audio/55-2-masc.mp3",
		"response": " ",
		"word": "insulto",
		"trial_type": "audio-keyboard-response",
		"trial_index": 101,
		"time_elapsed": 271384,
		"internal_node_id": "0.0-3.0-1.70"
	},
	{
		"rt": 4040,
		"stimulus": "../audio/55-3-masc.mp3",
		"response": " ",
		"word": "recente",
		"trial_type": "audio-keyboard-response",
		"trial_index": 102,
		"time_elapsed": 275739,
		"internal_node_id": "0.0-3.0-1.71"
	},
	{
		"rt": 2411,
		"stimulus": "../audio/55-4-masc.mp3",
		"response": " ",
		"word": "causou",
		"trial_type": "audio-keyboard-response",
		"trial_index": 103,
		"time_elapsed": 278442,
		"internal_node_id": "0.0-3.0-1.72"
	},
	{
		"rt": 2901,
		"stimulus": "../audio/55-5-masc.mp3",
		"response": " ",
		"word": "indignação",
		"trial_type": "audio-keyboard-response",
		"trial_index": 104,
		"time_elapsed": 281653,
		"internal_node_id": "0.0-3.0-1.73"
	},
	{
		"rt": 1411,
		"stimulus": "../audio/55-6-masc.mp3",
		"response": " ",
		"word": "em",
		"trial_type": "audio-keyboard-response",
		"trial_index": 105,
		"time_elapsed": 283367,
		"internal_node_id": "0.0-3.0-1.74"
	},
	{
		"rt": 1560,
		"stimulus": "../audio/55-7-masc.mp3",
		"response": " ",
		"word": "todos.",
		"trial_type": "audio-keyboard-response",
		"trial_index": 106,
		"time_elapsed": 285219,
		"internal_node_id": "0.0-3.0-1.75"
	},
	{
		"rt": 12703,
		"stimulus": "<span style=\"font-size:25px; font-family: monospace\">O insulto causou calmaria?</span>",
		"response": "n",
		"question": "O insulto causou calmaria?",
		"answer": "null",
		"trial": "exp-sent",
		"trial_type": "html-keyboard-response",
		"trial_index": 107,
		"time_elapsed": 298177,
		"internal_node_id": "0.0-3.0-2.75-0.75",
		"accuracy": false
	},
	{
		"rt": null,
		"stimulus": "<span style= \"font-size:30px; font-family: monospace\">+</span>",
		"response": null,
		"trial_part": "fixation",
		"trial_type": "html-keyboard-response",
		"trial_index": 108,
		"time_elapsed": 299698,
		"internal_node_id": "0.0-3.0-0.76-0.76"
	},
	{
		"rt": 4539,
		"stimulus": "../audio/46-1-fem.mp3",
		"response": " ",
		"word": "Meu",
		"trial_type": "audio-keyboard-response",
		"trial_index": 109,
		"time_elapsed": 304538,
		"internal_node_id": "0.0-3.0-1.76"
	},
	{
		"rt": 1019,
		"stimulus": "../audio/46-2-fem.mp3",
		"response": " ",
		"word": "primo",
		"trial_type": "audio-keyboard-response",
		"trial_index": 110,
		"time_elapsed": 305867,
		"internal_node_id": "0.0-3.0-1.77"
	},
	{
		"rt": 1112,
		"stimulus": "../audio/46-3-fem.mp3",
		"response": " ",
		"word": "estava",
		"trial_type": "audio-keyboard-response",
		"trial_index": 111,
		"time_elapsed": 307289,
		"internal_node_id": "0.0-3.0-1.78"
	},
	{
		"rt": 1072,
		"stimulus": "../audio/46-4-fem.mp3",
		"response": " ",
		"word": "muito",
		"trial_type": "audio-keyboard-response",
		"trial_index": 112,
		"time_elapsed": 308655,
		"internal_node_id": "0.0-3.0-1.79"
	},
	{
		"rt": 1960,
		"stimulus": "../audio/46-5-fem.mp3",
		"response": " ",
		"word": "deprimido",
		"trial_type": "audio-keyboard-response",
		"trial_index": 113,
		"time_elapsed": 310913,
		"internal_node_id": "0.0-3.0-1.80"
	},
	{
		"rt": 1131,
		"stimulus": "../audio/46-6-fem.mp3",
		"response": " ",
		"word": "no",
		"trial_type": "audio-keyboard-response",
		"trial_index": 114,
		"time_elapsed": 312333,
		"internal_node_id": "0.0-3.0-1.81"
	},
	{
		"rt": 1909,
		"stimulus": "../audio/46-7-fem.mp3",
		"response": " ",
		"word": "inverno.",
		"trial_type": "audio-keyboard-response",
		"trial_index": 115,
		"time_elapsed": 314539,
		"internal_node_id": "0.0-3.0-1.82"
	},
	{
		"rt": null,
		"stimulus": "<span style= \"font-size:30px; font-family: monospace\">+</span>",
		"response": null,
		"trial_part": "fixation",
		"trial_type": "html-keyboard-response",
		"trial_index": 116,
		"time_elapsed": 315798,
		"internal_node_id": "0.0-3.0-0.83-0.83"
	},
	{
		"rt": 1491,
		"stimulus": "../audio/47-1-fem.mp3",
		"response": " ",
		"word": "O",
		"trial_type": "audio-keyboard-response",
		"trial_index": 117,
		"time_elapsed": 317573,
		"internal_node_id": "0.0-3.0-1.83"
	},
	{
		"rt": 979,
		"stimulus": "../audio/47-2-fem.mp3",
		"response": " ",
		"word": "tio",
		"trial_type": "audio-keyboard-response",
		"trial_index": 118,
		"time_elapsed": 318831,
		"internal_node_id": "0.0-3.0-1.84"
	},
	{
		"rt": 1168,
		"stimulus": "../audio/47-3-fem.mp3",
		"response": " ",
		"word": "recusou",
		"trial_type": "audio-keyboard-response",
		"trial_index": 119,
		"time_elapsed": 320301,
		"internal_node_id": "0.0-3.0-1.85"
	},
	{
		"rt": 1051,
		"stimulus": "../audio/47-4-fem.mp3",
		"response": " ",
		"word": "a",
		"trial_type": "audio-keyboard-response",
		"trial_index": 120,
		"time_elapsed": 321632,
		"internal_node_id": "0.0-3.0-1.86"
	},
	{
		"rt": 1848,
		"stimulus": "../audio/47-5-fem.mp3",
		"response": " ",
		"word": "sobremesa",
		"trial_type": "audio-keyboard-response",
		"trial_index": 121,
		"time_elapsed": 323780,
		"internal_node_id": "0.0-3.0-1.87"
	},
	{
		"rt": 1149,
		"stimulus": "../audio/47-6-fem.mp3",
		"response": " ",
		"word": "no",
		"trial_type": "audio-keyboard-response",
		"trial_index": 122,
		"time_elapsed": 325232,
		"internal_node_id": "0.0-3.0-1.88"
	},
	{
		"rt": 1709,
		"stimulus": "../audio/47-7-fem.mp3",
		"response": " ",
		"word": "almoço.",
		"trial_type": "audio-keyboard-response",
		"trial_index": 123,
		"time_elapsed": 327247,
		"internal_node_id": "0.0-3.0-1.89"
	},
	{
		"rt": null,
		"stimulus": "<span style= \"font-size:30px; font-family: monospace\">+</span>",
		"response": null,
		"trial_part": "fixation",
		"trial_type": "html-keyboard-response",
		"trial_index": 124,
		"time_elapsed": 328519,
		"internal_node_id": "0.0-3.0-0.90-0.90"
	},
	{
		"rt": 1091,
		"stimulus": "../audio/48-1-fem.mp3",
		"response": " ",
		"word": "Ela",
		"trial_type": "audio-keyboard-response",
		"trial_index": 125,
		"time_elapsed": 329911,
		"internal_node_id": "0.0-3.0-1.90"
	},
	{
		"rt": 909,
		"stimulus": "../audio/48-2-fem.mp3",
		"response": " ",
		"word": "come",
		"trial_type": "audio-keyboard-response",
		"trial_index": 126,
		"time_elapsed": 331122,
		"internal_node_id": "0.0-3.0-1.91"
	},
	{
		"rt": 829,
		"stimulus": "../audio/48-3-fem.mp3",
		"response": " ",
		"word": "feijão",
		"trial_type": "audio-keyboard-response",
		"trial_index": 127,
		"time_elapsed": 332427,
		"internal_node_id": "0.0-3.0-1.92"
	},
	{
		"rt": 1029,
		"stimulus": "../audio/48-4-fem.mp3",
		"response": " ",
		"word": "com",
		"trial_type": "audio-keyboard-response",
		"trial_index": 128,
		"time_elapsed": 333780,
		"internal_node_id": "0.0-3.0-1.93"
	},
	{
		"rt": 989,
		"stimulus": "../audio/48-5-fem.mp3",
		"response": " ",
		"word": "arroz",
		"trial_type": "audio-keyboard-response",
		"trial_index": 129,
		"time_elapsed": 335064,
		"internal_node_id": "0.0-3.0-1.94"
	},
	{
		"rt": 949,
		"stimulus": "../audio/48-6-fem.mp3",
		"response": " ",
		"word": "todos",
		"trial_type": "audio-keyboard-response",
		"trial_index": 130,
		"time_elapsed": 336301,
		"internal_node_id": "0.0-3.0-1.95"
	},
	{
		"rt": 960,
		"stimulus": "../audio/48-7-fem.mp3",
		"response": " ",
		"word": "os",
		"trial_type": "audio-keyboard-response",
		"trial_index": 131,
		"time_elapsed": 337563,
		"internal_node_id": "0.0-3.0-1.96"
	},
	{
		"rt": 3251,
		"stimulus": "../audio/48-8-fem.mp3",
		"response": " ",
		"word": "dias.",
		"trial_type": "audio-keyboard-response",
		"trial_index": 132,
		"time_elapsed": 341120,
		"internal_node_id": "0.0-3.0-1.97"
	},
	{
		"rt": null,
		"stimulus": "<span style= \"font-size:30px; font-family: monospace\">+</span>",
		"response": null,
		"trial_part": "fixation",
		"trial_type": "html-keyboard-response",
		"trial_index": 133,
		"time_elapsed": 342378,
		"internal_node_id": "0.0-3.0-0.98-0.98"
	},
	{
		"rt": 1019,
		"stimulus": "../audio/49-1-masc.mp3",
		"response": " ",
		"word": "Eu",
		"trial_type": "audio-keyboard-response",
		"trial_index": 134,
		"time_elapsed": 343715,
		"internal_node_id": "0.0-3.0-1.98"
	},
	{
		"rt": 920,
		"stimulus": "../audio/49-2-masc.mp3",
		"response": " ",
		"word": "quero",
		"trial_type": "audio-keyboard-response",
		"trial_index": 135,
		"time_elapsed": 344935,
		"internal_node_id": "0.0-3.0-1.99"
	},
	{
		"rt": 880,
		"stimulus": "../audio/49-3-masc.mp3",
		"response": " ",
		"word": "um",
		"trial_type": "audio-keyboard-response",
		"trial_index": 136,
		"time_elapsed": 346106,
		"internal_node_id": "0.0-3.0-1.100"
	},
	{
		"rt": 979,
		"stimulus": "../audio/49-4-masc.mp3",
		"response": " ",
		"word": "lanche",
		"trial_type": "audio-keyboard-response",
		"trial_index": 137,
		"time_elapsed": 347389,
		"internal_node_id": "0.0-3.0-1.101"
	},
	{
		"rt": 1299,
		"stimulus": "../audio/49-5-masc.mp3",
		"response": " ",
		"word": "duplo",
		"trial_type": "audio-keyboard-response",
		"trial_index": 138,
		"time_elapsed": 348991,
		"internal_node_id": "0.0-3.0-1.102"
	},
	{
		"rt": 1051,
		"stimulus": "../audio/49-6-masc.mp3",
		"response": " ",
		"word": "e",
		"trial_type": "audio-keyboard-response",
		"trial_index": 139,
		"time_elapsed": 350334,
		"internal_node_id": "0.0-3.0-1.103"
	},
	{
		"rt": 931,
		"stimulus": "../audio/49-7-masc.mp3",
		"response": " ",
		"word": "um",
		"trial_type": "audio-keyboard-response",
		"trial_index": 140,
		"time_elapsed": 351566,
		"internal_node_id": "0.0-3.0-1.104"
	},
	{
		"rt": 1688,
		"stimulus": "../audio/49-8-masc.mp3",
		"response": " ",
		"word": "suco.",
		"trial_type": "audio-keyboard-response",
		"trial_index": 141,
		"time_elapsed": 353546,
		"internal_node_id": "0.0-3.0-1.105"
	},
	{
		"rt": null,
		"stimulus": "<span style= \"font-size:30px; font-family: monospace\">+</span>",
		"response": null,
		"trial_part": "fixation",
		"trial_type": "html-keyboard-response",
		"trial_index": 142,
		"time_elapsed": 354813,
		"internal_node_id": "0.0-3.0-0.106-0.106"
	},
	{
		"rt": 1219,
		"stimulus": "../audio/50-1-fem.mp3",
		"response": " ",
		"word": "O",
		"trial_type": "audio-keyboard-response",
		"trial_index": 143,
		"time_elapsed": 356325,
		"internal_node_id": "0.0-3.0-1.106"
	},
	{
		"rt": 1579,
		"stimulus": "../audio/50-2-fem.mp3",
		"response": " ",
		"word": "pássaro",
		"trial_type": "audio-keyboard-response",
		"trial_index": 144,
		"time_elapsed": 358204,
		"internal_node_id": "0.0-3.0-1.107"
	},
	{
		"rt": 1099,
		"stimulus": "../audio/50-3-fem.mp3",
		"response": " ",
		"word": "fugiu",
		"trial_type": "audio-keyboard-response",
		"trial_index": 145,
		"time_elapsed": 359598,
		"internal_node_id": "0.0-3.0-1.108"
	},
	{
		"rt": 1040,
		"stimulus": "../audio/50-4-fem.mp3",
		"response": " ",
		"word": "da",
		"trial_type": "audio-keyboard-response",
		"trial_index": 146,
		"time_elapsed": 360927,
		"internal_node_id": "0.0-3.0-1.109"
	},
	{
		"rt": 1400,
		"stimulus": "../audio/50-5-fem.mp3",
		"response": " ",
		"word": "gaiola",
		"trial_type": "audio-keyboard-response",
		"trial_index": 147,
		"time_elapsed": 362636,
		"internal_node_id": "0.0-3.0-1.110"
	},
	{
		"rt": 1080,
		"stimulus": "../audio/50-6-fem.mp3",
		"response": " ",
		"word": "pela",
		"trial_type": "audio-keyboard-response",
		"trial_index": 148,
		"time_elapsed": 364015,
		"internal_node_id": "0.0-3.0-1.111"
	},
	{
		"rt": 2211,
		"stimulus": "../audio/50-7-fem.mp3",
		"response": " ",
		"word": "portinhola.",
		"trial_type": "audio-keyboard-response",
		"trial_index": 149,
		"time_elapsed": 366535,
		"internal_node_id": "0.0-3.0-1.112"
	},
	{
		"rt": 4849,
		"stimulus": "<span style=\"font-size:25px; font-family: monospace\">O pássaro fugiu da gaiola?</span>",
		"response": "s",
		"question": "O pássaro fugiu da gaiola?",
		"answer": "null",
		"trial": "exp-sent",
		"trial_type": "html-keyboard-response",
		"trial_index": 150,
		"time_elapsed": 371648,
		"internal_node_id": "0.0-3.0-2.112-0.112",
		"accuracy": false
	},
	{
		"rt": null,
		"stimulus": "<span style= \"font-size:30px; font-family: monospace\">+</span>",
		"response": null,
		"trial_part": "fixation",
		"trial_type": "html-keyboard-response",
		"trial_index": 151,
		"time_elapsed": 373159,
		"internal_node_id": "0.0-3.0-0.113-0.113"
	},
	{
		"rt": 1392,
		"stimulus": "../audio/73-1-fem.mp3",
		"response": " ",
		"word": "O",
		"trial_type": "audio-keyboard-response",
		"trial_index": 152,
		"time_elapsed": 374857,
		"internal_node_id": "0.0-3.0-1.113"
	},
	{
		"rt": 1531,
		"stimulus": "../audio/73-2-fem.mp3",
		"response": " ",
		"word": "cliente",
		"trial_type": "audio-keyboard-response",
		"trial_index": 153,
		"time_elapsed": 376692,
		"internal_node_id": "0.0-3.0-1.114"
	},
	{
		"rt": 2040,
		"stimulus": "../audio/73-3-fem.mp3",
		"response": " ",
		"word": "era",
		"trial_type": "audio-keyboard-response",
		"trial_index": 154,
		"time_elapsed": 379020,
		"internal_node_id": "0.0-3.0-1.115"
	},
	{
		"rt": 1211,
		"stimulus": "../audio/73-4-fem.mp3",
		"response": " ",
		"word": "um",
		"trial_type": "audio-keyboard-response",
		"trial_index": 155,
		"time_elapsed": 380530,
		"internal_node_id": "0.0-3.0-1.116"
	},
	{
		"rt": 2440,
		"stimulus": "../audio/73-5-fem.mp3",
		"response": " ",
		"word": "homem",
		"trial_type": "audio-keyboard-response",
		"trial_index": 156,
		"time_elapsed": 383276,
		"internal_node_id": "0.0-3.0-1.117"
	},
	{
		"rt": 2560,
		"stimulus": "../audio/73-6-fem.mp3",
		"response": " ",
		"word": "muito",
		"trial_type": "audio-keyboard-response",
		"trial_index": 157,
		"time_elapsed": 386147,
		"internal_node_id": "0.0-3.0-1.118"
	},
	{
		"rt": 3560,
		"stimulus": "../audio/73-7-fem.mp3",
		"response": " ",
		"word": "educado.",
		"trial_type": "audio-keyboard-response",
		"trial_index": 158,
		"time_elapsed": 390024,
		"internal_node_id": "0.0-3.0-1.119"
	},
	{
		"rt": null,
		"stimulus": "<span style= \"font-size:30px; font-family: monospace\">+</span>",
		"response": null,
		"trial_part": "fixation",
		"trial_type": "html-keyboard-response",
		"trial_index": 159,
		"time_elapsed": 391288,
		"internal_node_id": "0.0-3.0-0.120-0.120"
	},
	{
		"rt": 2400,
		"stimulus": "../audio/74-1-fem.mp3",
		"response": " ",
		"word": "Este",
		"trial_type": "audio-keyboard-response",
		"trial_index": 160,
		"time_elapsed": 393986,
		"internal_node_id": "0.0-3.0-1.120"
	},
	{
		"rt": 1829,
		"stimulus": "../audio/74-2-fem.mp3",
		"response": " ",
		"word": "emprego",
		"trial_type": "audio-keyboard-response",
		"trial_index": 161,
		"time_elapsed": 396127,
		"internal_node_id": "0.0-3.0-1.121"
	},
	{
		"rt": 1160,
		"stimulus": "../audio/74-3-fem.mp3",
		"response": " ",
		"word": "é",
		"trial_type": "audio-keyboard-response",
		"trial_index": 162,
		"time_elapsed": 397577,
		"internal_node_id": "0.0-3.0-1.122"
	},
	{
		"rt": 1219,
		"stimulus": "../audio/74-4-fem.mp3",
		"response": " ",
		"word": "muito",
		"trial_type": "audio-keyboard-response",
		"trial_index": 163,
		"time_elapsed": 399080,
		"internal_node_id": "0.0-3.0-1.123"
	},
	{
		"rt": 1920,
		"stimulus": "../audio/74-5-fem.mp3",
		"response": " ",
		"word": "cansativo",
		"trial_type": "audio-keyboard-response",
		"trial_index": 164,
		"time_elapsed": 401308,
		"internal_node_id": "0.0-3.0-1.124"
	},
	{
		"rt": 1211,
		"stimulus": "../audio/74-6-fem.mp3",
		"response": " ",
		"word": "a",
		"trial_type": "audio-keyboard-response",
		"trial_index": 165,
		"time_elapsed": 402813,
		"internal_node_id": "0.0-3.0-1.125"
	},
	{
		"rt": 1349,
		"stimulus": "../audio/74-7-fem.mp3",
		"response": " ",
		"word": "longo",
		"trial_type": "audio-keyboard-response",
		"trial_index": 166,
		"time_elapsed": 404455,
		"internal_node_id": "0.0-3.0-1.126"
	},
	{
		"rt": 1211,
		"stimulus": "../audio/74-8-fem.mp3",
		"response": " ",
		"word": "prazo.",
		"trial_type": "audio-keyboard-response",
		"trial_index": 167,
		"time_elapsed": 405976,
		"internal_node_id": "0.0-3.0-1.127"
	},
	{
		"rt": null,
		"stimulus": "<span style= \"font-size:30px; font-family: monospace\">+</span>",
		"response": null,
		"trial_part": "fixation",
		"trial_type": "html-keyboard-response",
		"trial_index": 168,
		"time_elapsed": 407246,
		"internal_node_id": "0.0-3.0-0.128-0.128"
	},
	{
		"rt": 1101,
		"stimulus": "../audio/72-1-masc.mp3",
		"response": " ",
		"word": "A",
		"trial_type": "audio-keyboard-response",
		"trial_index": 169,
		"time_elapsed": 408657,
		"internal_node_id": "0.0-3.0-1.128"
	},
	{
		"rt": 1669,
		"stimulus": "../audio/72-2-masc.mp3",
		"response": " ",
		"word": "vencedora",
		"trial_type": "audio-keyboard-response",
		"trial_index": 170,
		"time_elapsed": 410633,
		"internal_node_id": "0.0-3.0-1.129"
	},
	{
		"rt": 1221,
		"stimulus": "../audio/72-3-masc.mp3",
		"response": " ",
		"word": "recebeu",
		"trial_type": "audio-keyboard-response",
		"trial_index": 171,
		"time_elapsed": 412141,
		"internal_node_id": "0.0-3.0-1.130"
	},
	{
		"rt": 891,
		"stimulus": "../audio/72-4-masc.mp3",
		"response": " ",
		"word": "um",
		"trial_type": "audio-keyboard-response",
		"trial_index": 172,
		"time_elapsed": 413320,
		"internal_node_id": "0.0-3.0-1.131"
	},
	{
		"rt": 1051,
		"stimulus": "../audio/72-5-masc.mp3",
		"response": " ",
		"word": "prêmio",
		"trial_type": "audio-keyboard-response",
		"trial_index": 173,
		"time_elapsed": 414820,
		"internal_node_id": "0.0-3.0-1.132"
	},
	{
		"rt": 920,
		"stimulus": "../audio/72-6-masc.mp3",
		"response": " ",
		"word": "em",
		"trial_type": "audio-keyboard-response",
		"trial_index": 174,
		"time_elapsed": 416034,
		"internal_node_id": "0.0-3.0-1.133"
	},
	{
		"rt": 1469,
		"stimulus": "../audio/72-7-masc.mp3",
		"response": " ",
		"word": "dinheiro.",
		"trial_type": "audio-keyboard-response",
		"trial_index": 175,
		"time_elapsed": 417796,
		"internal_node_id": "0.0-3.0-1.134"
	},
	{
		"rt": null,
		"stimulus": "<span style= \"font-size:30px; font-family: monospace\">+</span>",
		"response": null,
		"trial_part": "fixation",
		"trial_type": "html-keyboard-response",
		"trial_index": 176,
		"time_elapsed": 419056,
		"internal_node_id": "0.0-3.0-0.135-0.135"
	},
	{
		"rt": 2069,
		"stimulus": "../audio/71-1-fem.mp3",
		"response": " ",
		"word": "Minhas",
		"trial_type": "audio-keyboard-response",
		"trial_index": 177,
		"time_elapsed": 421429,
		"internal_node_id": "0.0-3.0-1.135"
	},
	{
		"rt": 1141,
		"stimulus": "../audio/71-2-fem.mp3",
		"response": " ",
		"word": "comidas",
		"trial_type": "audio-keyboard-response",
		"trial_index": 178,
		"time_elapsed": 423453,
		"internal_node_id": "0.0-3.0-1.136"
	},
	{
		"rt": 1371,
		"stimulus": "../audio/71-3-fem.mp3",
		"response": " ",
		"word": "favoritas",
		"trial_type": "audio-keyboard-response",
		"trial_index": 179,
		"time_elapsed": 425281,
		"internal_node_id": "0.0-3.0-1.137"
	},
	{
		"rt": 989,
		"stimulus": "../audio/71-4-fem.mp3",
		"response": " ",
		"word": "são",
		"trial_type": "audio-keyboard-response",
		"trial_index": 180,
		"time_elapsed": 426558,
		"internal_node_id": "0.0-3.0-1.138"
	},
	{
		"rt": 1240,
		"stimulus": "../audio/71-5-fem.mp3",
		"response": " ",
		"word": "morango",
		"trial_type": "audio-keyboard-response",
		"trial_index": 181,
		"time_elapsed": 428106,
		"internal_node_id": "0.0-3.0-1.139"
	},
	{
		"rt": 981,
		"stimulus": "../audio/71-6-fem.mp3",
		"response": " ",
		"word": "e",
		"trial_type": "audio-keyboard-response",
		"trial_index": 182,
		"time_elapsed": 429377,
		"internal_node_id": "0.0-3.0-1.140"
	},
	{
		"rt": 2531,
		"stimulus": "../audio/71-7-fem.mp3",
		"response": " ",
		"word": "uva.",
		"trial_type": "audio-keyboard-response",
		"trial_index": 183,
		"time_elapsed": 432203,
		"internal_node_id": "0.0-3.0-1.141"
	},
	{
		"rt": null,
		"stimulus": "<span style= \"font-size:30px; font-family: monospace\">+</span>",
		"response": null,
		"trial_part": "fixation",
		"trial_type": "html-keyboard-response",
		"trial_index": 184,
		"time_elapsed": 433458,
		"internal_node_id": "0.0-3.0-0.142-0.142"
	},
	{
		"rt": 1621,
		"stimulus": "../audio/75-1-fem.mp3",
		"response": " ",
		"word": "Só",
		"trial_type": "audio-keyboard-response",
		"trial_index": 185,
		"time_elapsed": 435372,
		"internal_node_id": "0.0-3.0-1.142"
	},
	{
		"rt": 1760,
		"stimulus": "../audio/75-2-fem.mp3",
		"response": " ",
		"word": "existe",
		"trial_type": "audio-keyboard-response",
		"trial_index": 186,
		"time_elapsed": 437435,
		"internal_node_id": "0.0-3.0-1.143"
	},
	{
		"rt": 1051,
		"stimulus": "../audio/75-3-fem.mp3",
		"response": " ",
		"word": "uma",
		"trial_type": "audio-keyboard-response",
		"trial_index": 187,
		"time_elapsed": 438759,
		"internal_node_id": "0.0-3.0-1.144"
	},
	{
		"rt": 979,
		"stimulus": "../audio/75-4-fem.mp3",
		"response": " ",
		"word": "pessoa",
		"trial_type": "audio-keyboard-response",
		"trial_index": 188,
		"time_elapsed": 440079,
		"internal_node_id": "0.0-3.0-1.145"
	},
	{
		"rt": 1499,
		"stimulus": "../audio/75-5-fem.mp3",
		"response": " ",
		"word": "canhota",
		"trial_type": "audio-keyboard-response",
		"trial_index": 189,
		"time_elapsed": 441877,
		"internal_node_id": "0.0-3.0-1.146"
	},
	{
		"rt": 1120,
		"stimulus": "../audio/75-6-fem.mp3",
		"response": " ",
		"word": "nesta",
		"trial_type": "audio-keyboard-response",
		"trial_index": 190,
		"time_elapsed": 443298,
		"internal_node_id": "0.0-3.0-1.147"
	},
	{
		"rt": 1541,
		"stimulus": "../audio/75-7-fem.mp3",
		"response": " ",
		"word": "cidade.",
		"trial_type": "audio-keyboard-response",
		"trial_index": 191,
		"time_elapsed": 445137,
		"internal_node_id": "0.0-3.0-1.148"
	},
	{
		"rt": 7085,
		"stimulus": "<span style=\"font-size:25px; font-family: monospace\">Só existe uma pessoa canhota na cidade?</span>",
		"response": "s",
		"question": "Só existe uma pessoa canhota na cidade?",
		"answer": "null",
		"trial": "exp-sent",
		"trial_type": "html-keyboard-response",
		"trial_index": 192,
		"time_elapsed": 452482,
		"internal_node_id": "0.0-3.0-2.148-0.148",
		"accuracy": false
	},
	{
		"rt": null,
		"stimulus": "<span style= \"font-size:30px; font-family: monospace\">+</span>",
		"response": null,
		"trial_part": "fixation",
		"trial_type": "html-keyboard-response",
		"trial_index": 193,
		"time_elapsed": 453997,
		"internal_node_id": "0.0-3.0-0.149-0.149"
	},
	{
		"rt": 1880,
		"stimulus": "../audio/58-1-fem.mp3",
		"response": " ",
		"word": "Havia",
		"trial_type": "audio-keyboard-response",
		"trial_index": 194,
		"time_elapsed": 456179,
		"internal_node_id": "0.0-3.0-1.149"
	},
	{
		"rt": 1160,
		"stimulus": "../audio/58-2-fem.mp3",
		"response": " ",
		"word": "apenas",
		"trial_type": "audio-keyboard-response",
		"trial_index": 195,
		"time_elapsed": 457649,
		"internal_node_id": "0.0-3.0-1.150"
	},
	{
		"rt": 1349,
		"stimulus": "../audio/58-3-fem.mp3",
		"response": " ",
		"word": "um",
		"trial_type": "audio-keyboard-response",
		"trial_index": 196,
		"time_elapsed": 459291,
		"internal_node_id": "0.0-3.0-1.151"
	},
	{
		"rt": 1629,
		"stimulus": "../audio/58-4-fem.mp3",
		"response": " ",
		"word": "último",
		"trial_type": "audio-keyboard-response",
		"trial_index": 197,
		"time_elapsed": 461211,
		"internal_node_id": "0.0-3.0-1.152"
	},
	{
		"rt": 1600,
		"stimulus": "../audio/58-5-fem.mp3",
		"response": " ",
		"word": "herdeiro",
		"trial_type": "audio-keyboard-response",
		"trial_index": 198,
		"time_elapsed": 463108,
		"internal_node_id": "0.0-3.0-1.153"
	},
	{
		"rt": 1669,
		"stimulus": "../audio/58-6-fem.mp3",
		"response": " ",
		"word": "do",
		"trial_type": "audio-keyboard-response",
		"trial_index": 199,
		"time_elapsed": 465075,
		"internal_node_id": "0.0-3.0-1.154"
	},
	{
		"rt": 1499,
		"stimulus": "../audio/58-7-fem.mp3",
		"response": " ",
		"word": "dinheiro.",
		"trial_type": "audio-keyboard-response",
		"trial_index": 200,
		"time_elapsed": 466880,
		"internal_node_id": "0.0-3.0-1.155"
	},
	{
		"rt": null,
		"stimulus": "<span style= \"font-size:30px; font-family: monospace\">+</span>",
		"response": null,
		"trial_part": "fixation",
		"trial_type": "html-keyboard-response",
		"trial_index": 201,
		"time_elapsed": 468146,
		"internal_node_id": "0.0-3.0-0.156-0.156"
	},
	{
		"rt": 1909,
		"stimulus": "../audio/57-1-fem.mp3",
		"response": " ",
		"word": "O",
		"trial_type": "audio-keyboard-response",
		"trial_index": 202,
		"time_elapsed": 470405,
		"internal_node_id": "0.0-3.0-1.156"
	},
	{
		"rt": 1469,
		"stimulus": "../audio/57-2-fem.mp3",
		"response": " ",
		"word": "capitão",
		"trial_type": "audio-keyboard-response",
		"trial_index": 203,
		"time_elapsed": 472172,
		"internal_node_id": "0.0-3.0-1.157"
	},
	{
		"rt": 1080,
		"stimulus": "../audio/57-3-fem.mp3",
		"response": " ",
		"word": "deu",
		"trial_type": "audio-keyboard-response",
		"trial_index": 204,
		"time_elapsed": 473543,
		"internal_node_id": "0.0-3.0-1.158"
	},
	{
		"rt": 1040,
		"stimulus": "../audio/57-4-fem.mp3",
		"response": " ",
		"word": "uma",
		"trial_type": "audio-keyboard-response",
		"trial_index": 205,
		"time_elapsed": 474873,
		"internal_node_id": "0.0-3.0-1.159"
	},
	{
		"rt": 1589,
		"stimulus": "../audio/57-5-fem.mp3",
		"response": " ",
		"word": "instrução",
		"trial_type": "audio-keyboard-response",
		"trial_index": 206,
		"time_elapsed": 476763,
		"internal_node_id": "0.0-3.0-1.160"
	},
	{
		"rt": 1320,
		"stimulus": "../audio/57-6-fem.mp3",
		"response": " ",
		"word": "para",
		"trial_type": "audio-keyboard-response",
		"trial_index": 207,
		"time_elapsed": 478374,
		"internal_node_id": "0.0-3.0-1.161"
	},
	{
		"rt": 2440,
		"stimulus": "../audio/57-7-fem.mp3",
		"response": " ",
		"word": "as",
		"trial_type": "audio-keyboard-response",
		"trial_index": 208,
		"time_elapsed": 481104,
		"internal_node_id": "0.0-3.0-1.162"
	},
	{
		"rt": 1339,
		"stimulus": "../audio/57-8-fem.mp3",
		"response": " ",
		"word": "pessoas.",
		"trial_type": "audio-keyboard-response",
		"trial_index": 209,
		"time_elapsed": 482753,
		"internal_node_id": "0.0-3.0-1.163"
	},
	{
		"rt": null,
		"stimulus": "<span style= \"font-size:30px; font-family: monospace\">+</span>",
		"response": null,
		"trial_part": "fixation",
		"trial_type": "html-keyboard-response",
		"trial_index": 210,
		"time_elapsed": 484011,
		"internal_node_id": "0.0-3.0-0.164-0.164"
	},
	{
		"rt": 2328,
		"stimulus": "../audio/59-1-fem.mp3",
		"response": " ",
		"word": "O",
		"trial_type": "audio-keyboard-response",
		"trial_index": 211,
		"time_elapsed": 486629,
		"internal_node_id": "0.0-3.0-1.164"
	},
	{
		"rt": 1459,
		"stimulus": "../audio/59-2-fem.mp3",
		"response": " ",
		"word": "carteiro",
		"trial_type": "audio-keyboard-response",
		"trial_index": 212,
		"time_elapsed": 488397,
		"internal_node_id": "0.0-3.0-1.165"
	},
	{
		"rt": 1120,
		"stimulus": "../audio/59-3-fem.mp3",
		"response": " ",
		"word": "fez",
		"trial_type": "audio-keyboard-response",
		"trial_index": 213,
		"time_elapsed": 490096,
		"internal_node_id": "0.0-3.0-1.166"
	},
	{
		"rt": 1032,
		"stimulus": "../audio/59-4-fem.mp3",
		"response": " ",
		"word": "uma",
		"trial_type": "audio-keyboard-response",
		"trial_index": 214,
		"time_elapsed": 491426,
		"internal_node_id": "0.0-3.0-1.167"
	},
	{
		"rt": 1891,
		"stimulus": "../audio/59-5-fem.mp3",
		"response": " ",
		"word": "tentativa",
		"trial_type": "audio-keyboard-response",
		"trial_index": 215,
		"time_elapsed": 493619,
		"internal_node_id": "0.0-3.0-1.168"
	},
	{
		"rt": 1120,
		"stimulus": "../audio/59-6-fem.mp3",
		"response": " ",
		"word": "de",
		"trial_type": "audio-keyboard-response",
		"trial_index": 216,
		"time_elapsed": 495045,
		"internal_node_id": "0.0-3.0-1.169"
	},
	{
		"rt": 1352,
		"stimulus": "../audio/59-7-fem.mp3",
		"response": " ",
		"word": "entrega.",
		"trial_type": "audio-keyboard-response",
		"trial_index": 217,
		"time_elapsed": 496705,
		"internal_node_id": "0.0-3.0-1.170"
	},
	{
		"rt": null,
		"stimulus": "<span style= \"font-size:30px; font-family: monospace\">+</span>",
		"response": null,
		"trial_part": "fixation",
		"trial_type": "html-keyboard-response",
		"trial_index": 218,
		"time_elapsed": 497978,
		"internal_node_id": "0.0-3.0-0.171-0.171"
	},
	{
		"rt": 1192,
		"stimulus": "../audio/56-1-fem.mp3",
		"response": " ",
		"word": "A",
		"trial_type": "audio-keyboard-response",
		"trial_index": 219,
		"time_elapsed": 499458,
		"internal_node_id": "0.0-3.0-1.171"
	},
	{
		"rt": 1152,
		"stimulus": "../audio/56-2-fem.mp3",
		"response": " ",
		"word": "moça",
		"trial_type": "audio-keyboard-response",
		"trial_index": 220,
		"time_elapsed": 500897,
		"internal_node_id": "0.0-3.0-1.172"
	},
	{
		"rt": 901,
		"stimulus": "../audio/56-3-fem.mp3",
		"response": " ",
		"word": "foi",
		"trial_type": "audio-keyboard-response",
		"trial_index": 221,
		"time_elapsed": 502107,
		"internal_node_id": "0.0-3.0-1.173"
	},
	{
		"rt": 971,
		"stimulus": "../audio/56-4-fem.mp3",
		"response": " ",
		"word": "à",
		"trial_type": "audio-keyboard-response",
		"trial_index": 222,
		"time_elapsed": 503362,
		"internal_node_id": "0.0-3.0-1.174"
	},
	{
		"rt": 1429,
		"stimulus": "../audio/56-5-fem.mp3",
		"response": " ",
		"word": "agência",
		"trial_type": "audio-keyboard-response",
		"trial_index": 223,
		"time_elapsed": 505091,
		"internal_node_id": "0.0-3.0-1.175"
	},
	{
		"rt": 1301,
		"stimulus": "../audio/56-6-fem.mp3",
		"response": " ",
		"word": "bancária",
		"trial_type": "audio-keyboard-response",
		"trial_index": 224,
		"time_elapsed": 506689,
		"internal_node_id": "0.0-3.0-1.176"
	},
	{
		"rt": 971,
		"stimulus": "../audio/56-7-fem.mp3",
		"response": " ",
		"word": "ontem",
		"trial_type": "audio-keyboard-response",
		"trial_index": 225,
		"time_elapsed": 507966,
		"internal_node_id": "0.0-3.0-1.177"
	},
	{
		"rt": 1019,
		"stimulus": "../audio/56-8-fem.mp3",
		"response": " ",
		"word": "de",
		"trial_type": "audio-keyboard-response",
		"trial_index": 226,
		"time_elapsed": 509272,
		"internal_node_id": "0.0-3.0-1.178"
	},
	{
		"rt": 1701,
		"stimulus": "../audio/56-9-fem.mp3",
		"response": " ",
		"word": "tarde.",
		"trial_type": "audio-keyboard-response",
		"trial_index": 227,
		"time_elapsed": 511267,
		"internal_node_id": "0.0-3.0-1.179"
	},
	{
		"rt": null,
		"stimulus": "<span style= \"font-size:30px; font-family: monospace\">+</span>",
		"response": null,
		"trial_part": "fixation",
		"trial_type": "html-keyboard-response",
		"trial_index": 228,
		"time_elapsed": 512539,
		"internal_node_id": "0.0-3.0-0.180-0.180"
	},
	{
		"rt": 1429,
		"stimulus": "../audio/60-1-fem.mp3",
		"response": " ",
		"word": "Ondas",
		"trial_type": "audio-keyboard-response",
		"trial_index": 229,
		"time_elapsed": 514271,
		"internal_node_id": "0.0-3.0-1.180"
	},
	{
		"rt": 1091,
		"stimulus": "../audio/60-2-fem.mp3",
		"response": " ",
		"word": "têm",
		"trial_type": "audio-keyboard-response",
		"trial_index": 230,
		"time_elapsed": 515638,
		"internal_node_id": "0.0-3.0-1.181"
	},
	{
		"rt": 1211,
		"stimulus": "../audio/60-3-fem.mp3",
		"response": " ",
		"word": "um",
		"trial_type": "audio-keyboard-response",
		"trial_index": 231,
		"time_elapsed": 517135,
		"internal_node_id": "0.0-3.0-1.182"
	},
	{
		"rt": 1371,
		"stimulus": "../audio/60-4-fem.mp3",
		"response": " ",
		"word": "impacto",
		"trial_type": "audio-keyboard-response",
		"trial_index": 232,
		"time_elapsed": 518800,
		"internal_node_id": "0.0-3.0-1.183"
	},
	{
		"rt": 1731,
		"stimulus": "../audio/60-5-fem.mp3",
		"response": " ",
		"word": "destrutivo",
		"trial_type": "audio-keyboard-response",
		"trial_index": 233,
		"time_elapsed": 520840,
		"internal_node_id": "0.0-3.0-1.184"
	},
	{
		"rt": 1000,
		"stimulus": "../audio/60-6-fem.mp3",
		"response": " ",
		"word": "no",
		"trial_type": "audio-keyboard-response",
		"trial_index": 234,
		"time_elapsed": 522145,
		"internal_node_id": "0.0-3.0-1.185"
	},
	{
		"rt": 2061,
		"stimulus": "../audio/60-7-fem.mp3",
		"response": " ",
		"word": "litoral.",
		"trial_type": "audio-keyboard-response",
		"trial_index": 235,
		"time_elapsed": 524504,
		"internal_node_id": "0.0-3.0-1.186"
	},
	{
		"rt": 7402,
		"stimulus": "<span style=\"font-size:25px; font-family: monospace\">Ondas têm um impacto destrutivo?</span>",
		"response": "s",
		"question": "Ondas têm um impacto destrutivo?",
		"answer": "null",
		"trial": "exp-sent",
		"trial_type": "html-keyboard-response",
		"trial_index": 236,
		"time_elapsed": 532164,
		"internal_node_id": "0.0-3.0-2.186-0.186",
		"accuracy": false
	},
	{
		"rt": null,
		"stimulus": "<span style= \"font-size:30px; font-family: monospace\">+</span>",
		"response": null,
		"trial_part": "fixation",
		"trial_type": "html-keyboard-response",
		"trial_index": 237,
		"time_elapsed": 533680,
		"internal_node_id": "0.0-3.0-0.187-0.187"
	},
	{
		"rt": 989,
		"stimulus": "../audio/69-1-fem.mp3",
		"response": " ",
		"word": "A",
		"trial_type": "audio-keyboard-response",
		"trial_index": 238,
		"time_elapsed": 534963,
		"internal_node_id": "0.0-3.0-1.187"
	},
	{
		"rt": 1109,
		"stimulus": "../audio/69-2-fem.mp3",
		"response": " ",
		"word": "loja",
		"trial_type": "audio-keyboard-response",
		"trial_index": 239,
		"time_elapsed": 536371,
		"internal_node_id": "0.0-3.0-1.188"
	},
	{
		"rt": 1192,
		"stimulus": "../audio/69-3-fem.mp3",
		"response": " ",
		"word": "recebeu",
		"trial_type": "audio-keyboard-response",
		"trial_index": 240,
		"time_elapsed": 537867,
		"internal_node_id": "0.0-3.0-1.189"
	},
	{
		"rt": 891,
		"stimulus": "../audio/69-4-fem.mp3",
		"response": " ",
		"word": "uma",
		"trial_type": "audio-keyboard-response",
		"trial_index": 241,
		"time_elapsed": 539049,
		"internal_node_id": "0.0-3.0-1.190"
	},
	{
		"rt": 1301,
		"stimulus": "../audio/69-5-fem.mp3",
		"response": " ",
		"word": "poltrona",
		"trial_type": "audio-keyboard-response",
		"trial_index": 242,
		"time_elapsed": 540656,
		"internal_node_id": "0.0-3.0-1.191"
	},
	{
		"rt": 840,
		"stimulus": "../audio/69-6-fem.mp3",
		"response": " ",
		"word": "de",
		"trial_type": "audio-keyboard-response",
		"trial_index": 243,
		"time_elapsed": 541791,
		"internal_node_id": "0.0-3.0-1.192"
	},
	{
		"rt": 901,
		"stimulus": "../audio/69-7-fem.mp3",
		"response": " ",
		"word": "couro",
		"trial_type": "audio-keyboard-response",
		"trial_index": 244,
		"time_elapsed": 542985,
		"internal_node_id": "0.0-3.0-1.193"
	},
	{
		"rt": 1211,
		"stimulus": "../audio/69-8-fem.mp3",
		"response": " ",
		"word": "preto.",
		"trial_type": "audio-keyboard-response",
		"trial_index": 245,
		"time_elapsed": 544491,
		"internal_node_id": "0.0-3.0-1.194"
	},
	{
		"rt": null,
		"stimulus": "<span style= \"font-size:30px; font-family: monospace\">+</span>",
		"response": null,
		"trial_part": "fixation",
		"trial_type": "html-keyboard-response",
		"trial_index": 246,
		"time_elapsed": 545760,
		"internal_node_id": "0.0-3.0-0.195-0.195"
	},
	{
		"rt": 1059,
		"stimulus": "../audio/68-1-fem.mp3",
		"response": " ",
		"word": "Meu",
		"trial_type": "audio-keyboard-response",
		"trial_index": 247,
		"time_elapsed": 547109,
		"internal_node_id": "0.0-3.0-1.195"
	},
	{
		"rt": 1000,
		"stimulus": "../audio/68-2-fem.mp3",
		"response": " ",
		"word": "irmão",
		"trial_type": "audio-keyboard-response",
		"trial_index": 248,
		"time_elapsed": 548407,
		"internal_node_id": "0.0-3.0-1.196"
	},
	{
		"rt": 979,
		"stimulus": "../audio/68-3-fem.mp3",
		"response": " ",
		"word": "teve",
		"trial_type": "audio-keyboard-response",
		"trial_index": 249,
		"time_elapsed": 549685,
		"internal_node_id": "0.0-3.0-1.197"
	},
	{
		"rt": 869,
		"stimulus": "../audio/68-4-fem.mp3",
		"response": " ",
		"word": "um",
		"trial_type": "audio-keyboard-response",
		"trial_index": 250,
		"time_elapsed": 550846,
		"internal_node_id": "0.0-3.0-1.198"
	},
	{
		"rt": 1709,
		"stimulus": "../audio/68-5-fem.mp3",
		"response": " ",
		"word": "noivado",
		"trial_type": "audio-keyboard-response",
		"trial_index": 251,
		"time_elapsed": 552849,
		"internal_node_id": "0.0-3.0-1.199"
	},
	{
		"rt": 1629,
		"stimulus": "../audio/68-6-fem.mp3",
		"response": " ",
		"word": "longo",
		"trial_type": "audio-keyboard-response",
		"trial_index": 252,
		"time_elapsed": 554771,
		"internal_node_id": "0.0-3.0-1.200"
	},
	{
		"rt": 1240,
		"stimulus": "../audio/68-7-fem.mp3",
		"response": " ",
		"word": "e",
		"trial_type": "audio-keyboard-response",
		"trial_index": 253,
		"time_elapsed": 556299,
		"internal_node_id": "0.0-3.0-1.201"
	},
	{
		"rt": 1989,
		"stimulus": "../audio/68-8-fem.mp3",
		"response": " ",
		"word": "maravilhoso.",
		"trial_type": "audio-keyboard-response",
		"trial_index": 254,
		"time_elapsed": 558601,
		"internal_node_id": "0.0-3.0-1.202"
	},
	{
		"rt": null,
		"stimulus": "<span style= \"font-size:30px; font-family: monospace\">+</span>",
		"response": null,
		"trial_part": "fixation",
		"trial_type": "html-keyboard-response",
		"trial_index": 255,
		"time_elapsed": 559860,
		"internal_node_id": "0.0-3.0-0.203-0.203"
	},
	{
		"rt": 1520,
		"stimulus": "../audio/67-1-fem.mp3",
		"response": " ",
		"word": "Minha",
		"trial_type": "audio-keyboard-response",
		"trial_index": 256,
		"time_elapsed": 561700,
		"internal_node_id": "0.0-3.0-1.203"
	},
	{
		"rt": 1392,
		"stimulus": "../audio/67-2-fem.mp3",
		"response": " ",
		"word": "tia",
		"trial_type": "audio-keyboard-response",
		"trial_index": 257,
		"time_elapsed": 563380,
		"internal_node_id": "0.0-3.0-1.204"
	},
	{
		"rt": 1221,
		"stimulus": "../audio/67-3-fem.mp3",
		"response": " ",
		"word": "comprou",
		"trial_type": "audio-keyboard-response",
		"trial_index": 258,
		"time_elapsed": 565588,
		"internal_node_id": "0.0-3.0-1.205"
	},
	{
		"rt": 1131,
		"stimulus": "../audio/67-4-fem.mp3",
		"response": " ",
		"word": "um",
		"trial_type": "audio-keyboard-response",
		"trial_index": 259,
		"time_elapsed": 567574,
		"internal_node_id": "0.0-3.0-1.206"
	},
	{
		"rt": 1408,
		"stimulus": "../audio/67-5-fem.mp3",
		"response": " ",
		"word": "cordão",
		"trial_type": "audio-keyboard-response",
		"trial_index": 260,
		"time_elapsed": 569274,
		"internal_node_id": "0.0-3.0-1.207"
	},
	{
		"rt": 1200,
		"stimulus": "../audio/67-6-fem.mp3",
		"response": " ",
		"word": "para",
		"trial_type": "audio-keyboard-response",
		"trial_index": 261,
		"time_elapsed": 570760,
		"internal_node_id": "0.0-3.0-1.208"
	},
	{
		"rt": 1211,
		"stimulus": "../audio/67-7-fem.mp3",
		"response": " ",
		"word": "o",
		"trial_type": "audio-keyboard-response",
		"trial_index": 262,
		"time_elapsed": 572249,
		"internal_node_id": "0.0-3.0-1.209"
	},
	{
		"rt": 1560,
		"stimulus": "../audio/67-8-fem.mp3",
		"response": " ",
		"word": "varal.",
		"trial_type": "audio-keyboard-response",
		"trial_index": 263,
		"time_elapsed": 574125,
		"internal_node_id": "0.0-3.0-1.210"
	},
	{
		"rt": null,
		"stimulus": "<span style= \"font-size:30px; font-family: monospace\">+</span>",
		"response": null,
		"trial_part": "fixation",
		"trial_type": "html-keyboard-response",
		"trial_index": 264,
		"time_elapsed": 575387,
		"internal_node_id": "0.0-3.0-0.211-0.211"
	},
	{
		"rt": 1219,
		"stimulus": "../audio/66-1-fem.mp3",
		"response": " ",
		"word": "Não",
		"trial_type": "audio-keyboard-response",
		"trial_index": 265,
		"time_elapsed": 576915,
		"internal_node_id": "0.0-3.0-1.211"
	},
	{
		"rt": 1341,
		"stimulus": "../audio/66-2-fem.mp3",
		"response": " ",
		"word": "gosto",
		"trial_type": "audio-keyboard-response",
		"trial_index": 266,
		"time_elapsed": 578539,
		"internal_node_id": "0.0-3.0-1.212"
	},
	{
		"rt": 781,
		"stimulus": "../audio/66-3-fem.mp3",
		"response": " ",
		"word": "de",
		"trial_type": "audio-keyboard-response",
		"trial_index": 267,
		"time_elapsed": 579613,
		"internal_node_id": "0.0-3.0-1.213"
	},
	{
		"rt": 1120,
		"stimulus": "../audio/66-4-fem.mp3",
		"response": " ",
		"word": "gente",
		"trial_type": "audio-keyboard-response",
		"trial_index": 268,
		"time_elapsed": 581019,
		"internal_node_id": "0.0-3.0-1.214"
	},
	{
		"rt": 1440,
		"stimulus": "../audio/66-5-fem.mp3",
		"response": " ",
		"word": "egoísta",
		"trial_type": "audio-keyboard-response",
		"trial_index": 269,
		"time_elapsed": 582762,
		"internal_node_id": "0.0-3.0-1.215"
	},
	{
		"rt": 1029,
		"stimulus": "../audio/66-6-fem.mp3",
		"response": " ",
		"word": "nem",
		"trial_type": "audio-keyboard-response",
		"trial_index": 270,
		"time_elapsed": 584086,
		"internal_node_id": "0.0-3.0-1.216"
	},
	{
		"rt": 1389,
		"stimulus": "../audio/66-7-fem.mp3",
		"response": " ",
		"word": "chata.",
		"trial_type": "audio-keyboard-response",
		"trial_index": 271,
		"time_elapsed": 585771,
		"internal_node_id": "0.0-3.0-1.217"
	},
	{
		"rt": null,
		"stimulus": "<span style= \"font-size:30px; font-family: monospace\">+</span>",
		"response": null,
		"trial_part": "fixation",
		"trial_type": "html-keyboard-response",
		"trial_index": 272,
		"time_elapsed": 587036,
		"internal_node_id": "0.0-3.0-0.218-0.218"
	},
	{
		"rt": 1128,
		"stimulus": "../audio/70-1-masc.mp3",
		"response": " ",
		"word": "O",
		"trial_type": "audio-keyboard-response",
		"trial_index": 273,
		"time_elapsed": 588473,
		"internal_node_id": "0.0-3.0-1.218"
	},
	{
		"rt": 971,
		"stimulus": "../audio/70-2-masc.mp3",
		"response": " ",
		"word": "meu",
		"trial_type": "audio-keyboard-response",
		"trial_index": 274,
		"time_elapsed": 589731,
		"internal_node_id": "0.0-3.0-1.219"
	},
	{
		"rt": 939,
		"stimulus": "../audio/70-3-masc.mp3",
		"response": " ",
		"word": "filho",
		"trial_type": "audio-keyboard-response",
		"trial_index": 275,
		"time_elapsed": 590966,
		"internal_node_id": "0.0-3.0-1.220"
	},
	{
		"rt": 869,
		"stimulus": "../audio/70-4-masc.mp3",
		"response": " ",
		"word": "tem",
		"trial_type": "audio-keyboard-response",
		"trial_index": 276,
		"time_elapsed": 592127,
		"internal_node_id": "0.0-3.0-1.221"
	},
	{
		"rt": 1099,
		"stimulus": "../audio/70-5-masc.mp3",
		"response": " ",
		"word": "medo",
		"trial_type": "audio-keyboard-response",
		"trial_index": 277,
		"time_elapsed": 593526,
		"internal_node_id": "0.0-3.0-1.222"
	},
	{
		"rt": 739,
		"stimulus": "../audio/70-6-masc.mp3",
		"response": " ",
		"word": "de",
		"trial_type": "audio-keyboard-response",
		"trial_index": 278,
		"time_elapsed": 594559,
		"internal_node_id": "0.0-3.0-1.223"
	},
	{
		"rt": 1539,
		"stimulus": "../audio/70-7-masc.mp3",
		"response": " ",
		"word": "enguia",
		"trial_type": "audio-keyboard-response",
		"trial_index": 279,
		"time_elapsed": 596398,
		"internal_node_id": "0.0-3.0-1.224"
	},
	{
		"rt": 939,
		"stimulus": "../audio/70-8-masc.mp3",
		"response": " ",
		"word": "e",
		"trial_type": "audio-keyboard-response",
		"trial_index": 280,
		"time_elapsed": 597631,
		"internal_node_id": "0.0-3.0-1.225"
	},
	{
		"rt": 1709,
		"stimulus": "../audio/70-9-masc.mp3",
		"response": " ",
		"word": "beija-flor.",
		"trial_type": "audio-keyboard-response",
		"trial_index": 281,
		"time_elapsed": 599639,
		"internal_node_id": "0.0-3.0-1.226"
	},
	{
		"rt": 6843,
		"stimulus": "<span style=\"font-size:25px; font-family: monospace\">O filho tem medo de tigre?</span>",
		"response": "n",
		"question": "O filho tem medo de tigre?",
		"answer": "null",
		"trial": "exp-sent",
		"trial_type": "html-keyboard-response",
		"trial_index": 282,
		"time_elapsed": 606741,
		"internal_node_id": "0.0-3.0-2.226-0.226",
		"accuracy": false
	},
	{
		"rt": null,
		"stimulus": "<span style= \"font-size:30px; font-family: monospace\">+</span>",
		"response": null,
		"trial_part": "fixation",
		"trial_type": "html-keyboard-response",
		"trial_index": 283,
		"time_elapsed": 608255,
		"internal_node_id": "0.0-3.0-0.227-0.227"
	},
	{
		"rt": 1651,
		"stimulus": "../audio/33-1-fem.mp3",
		"response": " ",
		"word": "Eles",
		"trial_type": "audio-keyboard-response",
		"trial_index": 284,
		"time_elapsed": 610225,
		"internal_node_id": "0.0-3.0-1.227"
	},
	{
		"rt": 1219,
		"stimulus": "../audio/33-2-fem.mp3",
		"response": " ",
		"word": "sabem",
		"trial_type": "audio-keyboard-response",
		"trial_index": 285,
		"time_elapsed": 611752,
		"internal_node_id": "0.0-3.0-1.228"
	},
	{
		"rt": 880,
		"stimulus": "../audio/33-3-fem.mp3",
		"response": " ",
		"word": "do",
		"trial_type": "audio-keyboard-response",
		"trial_index": 286,
		"time_elapsed": 612922,
		"internal_node_id": "0.0-3.0-1.229"
	},
	{
		"rt": 1600,
		"stimulus": "../audio/33-4-fem.mp3",
		"response": " ",
		"word": "seu",
		"trial_type": "audio-keyboard-response",
		"trial_index": 287,
		"time_elapsed": 614813,
		"internal_node_id": "0.0-3.0-1.230"
	},
	{
		"rt": 1789,
		"stimulus": "../audio/33-5-fem.mp3",
		"response": " ",
		"word": "privilégio",
		"trial_type": "audio-keyboard-response",
		"trial_index": 288,
		"time_elapsed": 616912,
		"internal_node_id": "0.0-3.0-1.231"
	},
	{
		"rt": 1579,
		"stimulus": "../audio/33-6-fem.mp3",
		"response": " ",
		"word": "nessa",
		"trial_type": "audio-keyboard-response",
		"trial_index": 289,
		"time_elapsed": 618804,
		"internal_node_id": "0.0-3.0-1.232"
	},
	{
		"rt": 1459,
		"stimulus": "../audio/33-7-fem.mp3",
		"response": " ",
		"word": "confusão.",
		"trial_type": "audio-keyboard-response",
		"trial_index": 290,
		"time_elapsed": 620562,
		"internal_node_id": "0.0-3.0-1.233"
	},
	{
		"rt": null,
		"stimulus": "<span style= \"font-size:30px; font-family: monospace\">+</span>",
		"response": null,
		"trial_part": "fixation",
		"trial_type": "html-keyboard-response",
		"trial_index": 291,
		"time_elapsed": 621819,
		"internal_node_id": "0.0-3.0-0.234-0.234"
	},
	{
		"rt": 1189,
		"stimulus": "../audio/32-1-fem.mp3",
		"response": " ",
		"word": "A",
		"trial_type": "audio-keyboard-response",
		"trial_index": 292,
		"time_elapsed": 623314,
		"internal_node_id": "0.0-3.0-1.234"
	},
	{
		"rt": 1040,
		"stimulus": "../audio/32-2-fem.mp3",
		"response": " ",
		"word": "tia",
		"trial_type": "audio-keyboard-response",
		"trial_index": 293,
		"time_elapsed": 624637,
		"internal_node_id": "0.0-3.0-1.235"
	},
	{
		"rt": 1099,
		"stimulus": "../audio/32-3-fem.mp3",
		"response": " ",
		"word": "comprou",
		"trial_type": "audio-keyboard-response",
		"trial_index": 294,
		"time_elapsed": 626031,
		"internal_node_id": "0.0-3.0-1.236"
	},
	{
		"rt": 1011,
		"stimulus": "../audio/32-4-fem.mp3",
		"response": " ",
		"word": "um",
		"trial_type": "audio-keyboard-response",
		"trial_index": 295,
		"time_elapsed": 627327,
		"internal_node_id": "0.0-3.0-1.237"
	},
	{
		"rt": 1072,
		"stimulus": "../audio/32-5-fem.mp3",
		"response": " ",
		"word": "pilão",
		"trial_type": "audio-keyboard-response",
		"trial_index": 296,
		"time_elapsed": 628705,
		"internal_node_id": "0.0-3.0-1.238"
	},
	{
		"rt": 1160,
		"stimulus": "../audio/32-6-fem.mp3",
		"response": " ",
		"word": "para",
		"trial_type": "audio-keyboard-response",
		"trial_index": 297,
		"time_elapsed": 630423,
		"internal_node_id": "0.0-3.0-1.239"
	},
	{
		"rt": 1152,
		"stimulus": "../audio/32-7-fem.mp3",
		"response": " ",
		"word": "a",
		"trial_type": "audio-keyboard-response",
		"trial_index": 298,
		"time_elapsed": 631865,
		"internal_node_id": "0.0-3.0-1.240"
	},
	{
		"rt": 2011,
		"stimulus": "../audio/32-8-fem.mp3",
		"response": " ",
		"word": "cozinha.",
		"trial_type": "audio-keyboard-response",
		"trial_index": 299,
		"time_elapsed": 634173,
		"internal_node_id": "0.0-3.0-1.241"
	},
	{
		"rt": null,
		"stimulus": "<span style= \"font-size:30px; font-family: monospace\">+</span>",
		"response": null,
		"trial_part": "fixation",
		"trial_type": "html-keyboard-response",
		"trial_index": 300,
		"time_elapsed": 635432,
		"internal_node_id": "0.0-3.0-0.242-0.242"
	},
	{
		"rt": 1299,
		"stimulus": "../audio/31-1-masc.mp3",
		"response": " ",
		"word": "O",
		"trial_type": "audio-keyboard-response",
		"trial_index": 301,
		"time_elapsed": 637034,
		"internal_node_id": "0.0-3.0-1.242"
	},
	{
		"rt": 1240,
		"stimulus": "../audio/31-2-masc.mp3",
		"response": " ",
		"word": "padeiro",
		"trial_type": "audio-keyboard-response",
		"trial_index": 302,
		"time_elapsed": 638563,
		"internal_node_id": "0.0-3.0-1.243"
	},
	{
		"rt": 1149,
		"stimulus": "../audio/31-3-masc.mp3",
		"response": " ",
		"word": "usou",
		"trial_type": "audio-keyboard-response",
		"trial_index": 303,
		"time_elapsed": 640009,
		"internal_node_id": "0.0-3.0-1.244"
	},
	{
		"rt": 920,
		"stimulus": "../audio/31-4-masc.mp3",
		"response": " ",
		"word": "a",
		"trial_type": "audio-keyboard-response",
		"trial_index": 304,
		"time_elapsed": 641220,
		"internal_node_id": "0.0-3.0-1.245"
	},
	{
		"rt": 1029,
		"stimulus": "../audio/31-5-masc.mp3",
		"response": " ",
		"word": "balança",
		"trial_type": "audio-keyboard-response",
		"trial_index": 305,
		"time_elapsed": 642559,
		"internal_node_id": "0.0-3.0-1.246"
	},
	{
		"rt": 1611,
		"stimulus": "../audio/31-6-masc.mp3",
		"response": " ",
		"word": "o",
		"trial_type": "audio-keyboard-response",
		"trial_index": 306,
		"time_elapsed": 644466,
		"internal_node_id": "0.0-3.0-1.247"
	},
	{
		"rt": 1381,
		"stimulus": "../audio/31-7-masc.mp3",
		"response": " ",
		"word": "dia",
		"trial_type": "audio-keyboard-response",
		"trial_index": 307,
		"time_elapsed": 646134,
		"internal_node_id": "0.0-3.0-1.248"
	},
	{
		"rt": 1869,
		"stimulus": "../audio/31-8-masc.mp3",
		"response": " ",
		"word": "inteiro.",
		"trial_type": "audio-keyboard-response",
		"trial_index": 308,
		"time_elapsed": 648292,
		"internal_node_id": "0.0-3.0-1.249"
	},
	{
		"rt": null,
		"stimulus": "<span style= \"font-size:30px; font-family: monospace\">+</span>",
		"response": null,
		"trial_part": "fixation",
		"trial_type": "html-keyboard-response",
		"trial_index": 309,
		"time_elapsed": 649561,
		"internal_node_id": "0.0-3.0-0.250-0.250"
	},
	{
		"rt": 1459,
		"stimulus": "../audio/34-1-fem.mp3",
		"response": " ",
		"word": "Cobrança",
		"trial_type": "audio-keyboard-response",
		"trial_index": 310,
		"time_elapsed": 651476,
		"internal_node_id": "0.0-3.0-1.250"
	},
	{
		"rt": 1459,
		"stimulus": "../audio/34-2-fem.mp3",
		"response": " ",
		"word": "excessiva",
		"trial_type": "audio-keyboard-response",
		"trial_index": 311,
		"time_elapsed": 653231,
		"internal_node_id": "0.0-3.0-1.251"
	},
	{
		"rt": 941,
		"stimulus": "../audio/34-3-fem.mp3",
		"response": " ",
		"word": "é",
		"trial_type": "audio-keyboard-response",
		"trial_index": 312,
		"time_elapsed": 654470,
		"internal_node_id": "0.0-3.0-1.252"
	},
	{
		"rt": 1101,
		"stimulus": "../audio/34-4-fem.mp3",
		"response": " ",
		"word": "um",
		"trial_type": "audio-keyboard-response",
		"trial_index": 313,
		"time_elapsed": 655853,
		"internal_node_id": "0.0-3.0-1.253"
	},
	{
		"rt": 1099,
		"stimulus": "../audio/34-5-fem.mp3",
		"response": " ",
		"word": "fardo",
		"trial_type": "audio-keyboard-response",
		"trial_index": 314,
		"time_elapsed": 657249,
		"internal_node_id": "0.0-3.0-1.254"
	},
	{
		"rt": 1429,
		"stimulus": "../audio/34-6-fem.mp3",
		"response": " ",
		"word": "para",
		"trial_type": "audio-keyboard-response",
		"trial_index": 315,
		"time_elapsed": 658961,
		"internal_node_id": "0.0-3.0-1.255"
	},
	{
		"rt": 1051,
		"stimulus": "../audio/34-7-fem.mp3",
		"response": " ",
		"word": "a",
		"trial_type": "audio-keyboard-response",
		"trial_index": 316,
		"time_elapsed": 660306,
		"internal_node_id": "0.0-3.0-1.256"
	},
	{
		"rt": 2091,
		"stimulus": "../audio/34-8-fem.mp3",
		"response": " ",
		"word": "cabeça.",
		"trial_type": "audio-keyboard-response",
		"trial_index": 317,
		"time_elapsed": 662699,
		"internal_node_id": "0.0-3.0-1.257"
	},
	{
		"rt": null,
		"stimulus": "<span style= \"font-size:30px; font-family: monospace\">+</span>",
		"response": null,
		"trial_part": "fixation",
		"trial_type": "html-keyboard-response",
		"trial_index": 318,
		"time_elapsed": 663971,
		"internal_node_id": "0.0-3.0-0.258-0.258"
	},
	{
		"rt": 1139,
		"stimulus": "../audio/35-1-fem.mp3",
		"response": " ",
		"word": "A",
		"trial_type": "audio-keyboard-response",
		"trial_index": 319,
		"time_elapsed": 665405,
		"internal_node_id": "0.0-3.0-1.258"
	},
	{
		"rt": 1499,
		"stimulus": "../audio/35-2-fem.mp3",
		"response": " ",
		"word": "receita",
		"trial_type": "audio-keyboard-response",
		"trial_index": 320,
		"time_elapsed": 667201,
		"internal_node_id": "0.0-3.0-1.259"
	},
	{
		"rt": 1061,
		"stimulus": "../audio/35-3-fem.mp3",
		"response": " ",
		"word": "para",
		"trial_type": "audio-keyboard-response",
		"trial_index": 321,
		"time_elapsed": 668550,
		"internal_node_id": "0.0-3.0-1.260"
	},
	{
		"rt": 1120,
		"stimulus": "../audio/35-4-fem.mp3",
		"response": " ",
		"word": "a",
		"trial_type": "audio-keyboard-response",
		"trial_index": 322,
		"time_elapsed": 669952,
		"internal_node_id": "0.0-3.0-1.261"
	},
	{
		"rt": 1600,
		"stimulus": "../audio/35-5-fem.mp3",
		"response": " ",
		"word": "preparação",
		"trial_type": "audio-keyboard-response",
		"trial_index": 323,
		"time_elapsed": 671866,
		"internal_node_id": "0.0-3.0-1.262"
	},
	{
		"rt": 1251,
		"stimulus": "../audio/35-6-fem.mp3",
		"response": " ",
		"word": "do",
		"trial_type": "audio-keyboard-response",
		"trial_index": 324,
		"time_elapsed": 673408,
		"internal_node_id": "0.0-3.0-1.263"
	},
	{
		"rt": 1531,
		"stimulus": "../audio/35-7-fem.mp3",
		"response": " ",
		"word": "bolo",
		"trial_type": "audio-keyboard-response",
		"trial_index": 325,
		"time_elapsed": 675221,
		"internal_node_id": "0.0-3.0-1.264"
	},
	{
		"rt": 1509,
		"stimulus": "../audio/35-8-fem.mp3",
		"response": " ",
		"word": "é",
		"trial_type": "audio-keyboard-response",
		"trial_index": 326,
		"time_elapsed": 677013,
		"internal_node_id": "0.0-3.0-1.265"
	},
	{
		"rt": 1691,
		"stimulus": "../audio/35-9-fem.mp3",
		"response": " ",
		"word": "leve.",
		"trial_type": "audio-keyboard-response",
		"trial_index": 327,
		"time_elapsed": 679001,
		"internal_node_id": "0.0-3.0-1.266"
	},
	{
		"rt": 4621,
		"stimulus": "<span style=\"font-size:25px; font-family: monospace\">A receita do bolo é pesada?</span>",
		"response": "n",
		"question": "A receita do bolo é pesada?",
		"answer": "null",
		"trial": "exp-sent",
		"trial_type": "html-keyboard-response",
		"trial_index": 328,
		"time_elapsed": 683879,
		"internal_node_id": "0.0-3.0-2.266-0.266",
		"accuracy": false
	},
	{
		"rt": null,
		"stimulus": "<span style= \"font-size:30px; font-family: monospace\">+</span>",
		"response": null,
		"trial_part": "fixation",
		"trial_type": "html-keyboard-response",
		"trial_index": 329,
		"time_elapsed": 685396,
		"internal_node_id": "0.0-3.0-0.267-0.267"
	},
	{
		"rt": 1259,
		"stimulus": "../audio/22-1-masc.mp3",
		"response": " ",
		"word": "Eu",
		"trial_type": "audio-keyboard-response",
		"trial_index": 330,
		"time_elapsed": 686962,
		"internal_node_id": "0.0-3.0-1.267"
	},
	{
		"rt": 1299,
		"stimulus": "../audio/22-2-masc.mp3",
		"response": " ",
		"word": "detesto",
		"trial_type": "audio-keyboard-response",
		"trial_index": 331,
		"time_elapsed": 688568,
		"internal_node_id": "0.0-3.0-1.268"
	},
	{
		"rt": 1059,
		"stimulus": "../audio/22-3-masc.mp3",
		"response": " ",
		"word": "fumaça",
		"trial_type": "audio-keyboard-response",
		"trial_index": 332,
		"time_elapsed": 689929,
		"internal_node_id": "0.0-3.0-1.269"
	},
	{
		"rt": 848,
		"stimulus": "../audio/22-4-masc.mp3",
		"response": " ",
		"word": "de",
		"trial_type": "audio-keyboard-response",
		"trial_index": 333,
		"time_elapsed": 691071,
		"internal_node_id": "0.0-3.0-1.270"
	},
	{
		"rt": 1059,
		"stimulus": "../audio/22-5-masc.mp3",
		"response": " ",
		"word": "cachimbo",
		"trial_type": "audio-keyboard-response",
		"trial_index": 334,
		"time_elapsed": 692445,
		"internal_node_id": "0.0-3.0-1.271"
	},
	{
		"rt": 840,
		"stimulus": "../audio/22-6-masc.mp3",
		"response": " ",
		"word": "e",
		"trial_type": "audio-keyboard-response",
		"trial_index": 335,
		"time_elapsed": 693570,
		"internal_node_id": "0.0-3.0-1.272"
	},
	{
		"rt": 859,
		"stimulus": "../audio/22-7-masc.mp3",
		"response": " ",
		"word": "de",
		"trial_type": "audio-keyboard-response",
		"trial_index": 336,
		"time_elapsed": 694728,
		"internal_node_id": "0.0-3.0-1.273"
	},
	{
		"rt": 2029,
		"stimulus": "../audio/22-8-masc.mp3",
		"response": " ",
		"word": "cigarro.",
		"trial_type": "audio-keyboard-response",
		"trial_index": 337,
		"time_elapsed": 697053,
		"internal_node_id": "0.0-3.0-1.274"
	},
	{
		"rt": null,
		"stimulus": "<span style= \"font-size:30px; font-family: monospace\">+</span>",
		"response": null,
		"trial_part": "fixation",
		"trial_type": "html-keyboard-response",
		"trial_index": 338,
		"time_elapsed": 698323,
		"internal_node_id": "0.0-3.0-0.275-0.275"
	},
	{
		"rt": 1539,
		"stimulus": "../audio/24-1-masc.mp3",
		"response": " ",
		"word": "As",
		"trial_type": "audio-keyboard-response",
		"trial_index": 339,
		"time_elapsed": 700171,
		"internal_node_id": "0.0-3.0-1.275"
	},
	{
		"rt": 1019,
		"stimulus": "../audio/24-2-masc.mp3",
		"response": " ",
		"word": "crianças",
		"trial_type": "audio-keyboard-response",
		"trial_index": 340,
		"time_elapsed": 701486,
		"internal_node_id": "0.0-3.0-1.276"
	},
	{
		"rt": 891,
		"stimulus": "../audio/24-3-masc.mp3",
		"response": " ",
		"word": "vão",
		"trial_type": "audio-keyboard-response",
		"trial_index": 341,
		"time_elapsed": 702663,
		"internal_node_id": "0.0-3.0-1.277"
	},
	{
		"rt": 821,
		"stimulus": "../audio/24-4-masc.mp3",
		"response": " ",
		"word": "ao",
		"trial_type": "audio-keyboard-response",
		"trial_index": 342,
		"time_elapsed": 703774,
		"internal_node_id": "0.0-3.0-1.278"
	},
	{
		"rt": 931,
		"stimulus": "../audio/24-5-masc.mp3",
		"response": " ",
		"word": "cinema",
		"trial_type": "audio-keyboard-response",
		"trial_index": 343,
		"time_elapsed": 705007,
		"internal_node_id": "0.0-3.0-1.279"
	},
	{
		"rt": 1029,
		"stimulus": "../audio/24-6-masc.mp3",
		"response": " ",
		"word": "mais",
		"trial_type": "audio-keyboard-response",
		"trial_index": 344,
		"time_elapsed": 706334,
		"internal_node_id": "0.0-3.0-1.280"
	},
	{
		"rt": 1139,
		"stimulus": "../audio/24-7-masc.mp3",
		"response": " ",
		"word": "tarde.",
		"trial_type": "audio-keyboard-response",
		"trial_index": 345,
		"time_elapsed": 707764,
		"internal_node_id": "0.0-3.0-1.281"
	},
	{
		"rt": null,
		"stimulus": "<span style= \"font-size:30px; font-family: monospace\">+</span>",
		"response": null,
		"trial_part": "fixation",
		"trial_type": "html-keyboard-response",
		"trial_index": 346,
		"time_elapsed": 709030,
		"internal_node_id": "0.0-3.0-0.282-0.282"
	},
	{
		"rt": 2029,
		"stimulus": "../audio/21-1-fem.mp3",
		"response": " ",
		"word": "Precisamos",
		"trial_type": "audio-keyboard-response",
		"trial_index": 347,
		"time_elapsed": 711398,
		"internal_node_id": "0.0-3.0-1.282"
	},
	{
		"rt": 1120,
		"stimulus": "../audio/21-2-fem.mp3",
		"response": " ",
		"word": "de",
		"trial_type": "audio-keyboard-response",
		"trial_index": 348,
		"time_elapsed": 712811,
		"internal_node_id": "0.0-3.0-1.283"
	},
	{
		"rt": 1312,
		"stimulus": "../audio/21-3-fem.mp3",
		"response": " ",
		"word": "paciência",
		"trial_type": "audio-keyboard-response",
		"trial_index": 349,
		"time_elapsed": 714423,
		"internal_node_id": "0.0-3.0-1.284"
	},
	{
		"rt": 1261,
		"stimulus": "../audio/21-4-fem.mp3",
		"response": " ",
		"word": "e",
		"trial_type": "audio-keyboard-response",
		"trial_index": 350,
		"time_elapsed": 715981,
		"internal_node_id": "0.0-3.0-1.285"
	},
	{
		"rt": 1229,
		"stimulus": "../audio/21-5-fem.mp3",
		"response": " ",
		"word": "bondade",
		"trial_type": "audio-keyboard-response",
		"trial_index": 351,
		"time_elapsed": 717512,
		"internal_node_id": "0.0-3.0-1.286"
	},
	{
		"rt": 1141,
		"stimulus": "../audio/21-6-fem.mp3",
		"response": " ",
		"word": "para",
		"trial_type": "audio-keyboard-response",
		"trial_index": 352,
		"time_elapsed": 718942,
		"internal_node_id": "0.0-3.0-1.287"
	},
	{
		"rt": 1141,
		"stimulus": "../audio/21-7-fem.mp3",
		"response": " ",
		"word": "um",
		"trial_type": "audio-keyboard-response",
		"trial_index": 353,
		"time_elapsed": 720378,
		"internal_node_id": "0.0-3.0-1.288"
	},
	{
		"rt": 1579,
		"stimulus": "../audio/21-8-fem.mp3",
		"response": " ",
		"word": "mundo",
		"trial_type": "audio-keyboard-response",
		"trial_index": 354,
		"time_elapsed": 722249,
		"internal_node_id": "0.0-3.0-1.289"
	},
	{
		"rt": 1568,
		"stimulus": "../audio/21-9-fem.mp3",
		"response": " ",
		"word": "melhor.",
		"trial_type": "audio-keyboard-response",
		"trial_index": 355,
		"time_elapsed": 724118,
		"internal_node_id": "0.0-3.0-1.290"
	},
	{
		"rt": null,
		"stimulus": "<span style= \"font-size:30px; font-family: monospace\">+</span>",
		"response": null,
		"trial_part": "fixation",
		"trial_type": "html-keyboard-response",
		"trial_index": 356,
		"time_elapsed": 725383,
		"internal_node_id": "0.0-3.0-0.291-0.291"
	},
	{
		"rt": 1440,
		"stimulus": "../audio/23-1-fem.mp3",
		"response": " ",
		"word": "Português",
		"trial_type": "audio-keyboard-response",
		"trial_index": 357,
		"time_elapsed": 727137,
		"internal_node_id": "0.0-3.0-1.291"
	},
	{
		"rt": 1128,
		"stimulus": "../audio/23-2-fem.mp3",
		"response": " ",
		"word": "é",
		"trial_type": "audio-keyboard-response",
		"trial_index": 358,
		"time_elapsed": 728553,
		"internal_node_id": "0.0-3.0-1.292"
	},
	{
		"rt": 1600,
		"stimulus": "../audio/23-3-fem.mp3",
		"response": " ",
		"word": "um",
		"trial_type": "audio-keyboard-response",
		"trial_index": 359,
		"time_elapsed": 730452,
		"internal_node_id": "0.0-3.0-1.293"
	},
	{
		"rt": 1232,
		"stimulus": "../audio/23-4-fem.mp3",
		"response": " ",
		"word": "assunto",
		"trial_type": "audio-keyboard-response",
		"trial_index": 360,
		"time_elapsed": 731988,
		"internal_node_id": "0.0-3.0-1.294"
	},
	{
		"rt": 1659,
		"stimulus": "../audio/23-5-fem.mp3",
		"response": " ",
		"word": "elementar",
		"trial_type": "audio-keyboard-response",
		"trial_index": 361,
		"time_elapsed": 734232,
		"internal_node_id": "0.0-3.0-1.295"
	},
	{
		"rt": 1011,
		"stimulus": "../audio/23-6-fem.mp3",
		"response": " ",
		"word": "para",
		"trial_type": "audio-keyboard-response",
		"trial_index": 362,
		"time_elapsed": 735550,
		"internal_node_id": "0.0-3.0-1.296"
	},
	{
		"rt": 1069,
		"stimulus": "../audio/23-7-fem.mp3",
		"response": " ",
		"word": "os",
		"trial_type": "audio-keyboard-response",
		"trial_index": 363,
		"time_elapsed": 736912,
		"internal_node_id": "0.0-3.0-1.297"
	},
	{
		"rt": 1539,
		"stimulus": "../audio/23-8-fem.mp3",
		"response": " ",
		"word": "alunos.",
		"trial_type": "audio-keyboard-response",
		"trial_index": 364,
		"time_elapsed": 738752,
		"internal_node_id": "0.0-3.0-1.298"
	},
	{
		"rt": null,
		"stimulus": "<span style= \"font-size:30px; font-family: monospace\">+</span>",
		"response": null,
		"trial_part": "fixation",
		"trial_type": "html-keyboard-response",
		"trial_index": 365,
		"time_elapsed": 740015,
		"internal_node_id": "0.0-3.0-0.299-0.299"
	},
	{
		"rt": 1040,
		"stimulus": "../audio/25-1-masc.mp3",
		"response": " ",
		"word": "Ela",
		"trial_type": "audio-keyboard-response",
		"trial_index": 366,
		"time_elapsed": 741354,
		"internal_node_id": "0.0-3.0-1.299"
	},
	{
		"rt": 1061,
		"stimulus": "../audio/25-2-masc.mp3",
		"response": " ",
		"word": "faz",
		"trial_type": "audio-keyboard-response",
		"trial_index": 367,
		"time_elapsed": 742707,
		"internal_node_id": "0.0-3.0-1.300"
	},
	{
		"rt": 901,
		"stimulus": "../audio/25-3-masc.mp3",
		"response": " ",
		"word": "tanto",
		"trial_type": "audio-keyboard-response",
		"trial_index": 368,
		"time_elapsed": 743894,
		"internal_node_id": "0.0-3.0-1.301"
	},
	{
		"rt": 960,
		"stimulus": "../audio/25-4-masc.mp3",
		"response": " ",
		"word": "cabelo",
		"trial_type": "audio-keyboard-response",
		"trial_index": 369,
		"time_elapsed": 745152,
		"internal_node_id": "0.0-3.0-1.302"
	},
	{
		"rt": 989,
		"stimulus": "../audio/25-5-masc.mp3",
		"response": " ",
		"word": "liso",
		"trial_type": "audio-keyboard-response",
		"trial_index": 370,
		"time_elapsed": 746435,
		"internal_node_id": "0.0-3.0-1.303"
	},
	{
		"rt": 1000,
		"stimulus": "../audio/25-6-masc.mp3",
		"response": " ",
		"word": "quanto",
		"trial_type": "audio-keyboard-response",
		"trial_index": 371,
		"time_elapsed": 747730,
		"internal_node_id": "0.0-3.0-1.304"
	},
	{
		"rt": 1240,
		"stimulus": "../audio/25-7-masc.mp3",
		"response": " ",
		"word": "cacheado.",
		"trial_type": "audio-keyboard-response",
		"trial_index": 372,
		"time_elapsed": 749267,
		"internal_node_id": "0.0-3.0-1.305"
	},
	{
		"rt": 22156,
		"stimulus": "<span style=\"font-size:25px; font-family: monospace\">Ela só faz cabelo cacheado?</span>",
		"response": "n",
		"question": "Ela só faz cabelo cacheado?",
		"answer": "null",
		"trial": "exp-sent",
		"trial_type": "html-keyboard-response",
		"trial_index": 373,
		"time_elapsed": 771676,
		"internal_node_id": "0.0-3.0-2.305-0.305",
		"accuracy": false
	},
	{
		"rt": null,
		"stimulus": "<span style= \"font-size:30px; font-family: monospace\">+</span>",
		"response": null,
		"trial_part": "fixation",
		"trial_type": "html-keyboard-response",
		"trial_index": 374,
		"time_elapsed": 773184,
		"internal_node_id": "0.0-3.0-0.306-0.306"
	},
	{
		"rt": 1691,
		"stimulus": "../audio/12-1-masc.mp3",
		"response": " ",
		"word": "O",
		"trial_type": "audio-keyboard-response",
		"trial_index": 375,
		"time_elapsed": 775191,
		"internal_node_id": "0.0-3.0-1.306"
	},
	{
		"rt": 1112,
		"stimulus": "../audio/12-2-masc.mp3",
		"response": " ",
		"word": "dia",
		"trial_type": "audio-keyboard-response",
		"trial_index": 376,
		"time_elapsed": 776587,
		"internal_node_id": "0.0-3.0-1.307"
	},
	{
		"rt": 880,
		"stimulus": "../audio/12-3-masc.mp3",
		"response": " ",
		"word": "estava",
		"trial_type": "audio-keyboard-response",
		"trial_index": 377,
		"time_elapsed": 777762,
		"internal_node_id": "0.0-3.0-1.308"
	},
	{
		"rt": 1029,
		"stimulus": "../audio/12-4-masc.mp3",
		"response": " ",
		"word": "quente,",
		"trial_type": "audio-keyboard-response",
		"trial_index": 378,
		"time_elapsed": 779091,
		"internal_node_id": "0.0-3.0-1.309"
	},
	{
		"rt": 1320,
		"stimulus": "../audio/12-5-masc.mp3",
		"response": " ",
		"word": "tranquilo",
		"trial_type": "audio-keyboard-response",
		"trial_index": 379,
		"time_elapsed": 780702,
		"internal_node_id": "0.0-3.0-1.310"
	},
	{
		"rt": 928,
		"stimulus": "../audio/12-6-masc.mp3",
		"response": " ",
		"word": "e",
		"trial_type": "audio-keyboard-response",
		"trial_index": 380,
		"time_elapsed": 781913,
		"internal_node_id": "0.0-3.0-1.311"
	},
	{
		"rt": 1379,
		"stimulus": "../audio/12-7-masc.mp3",
		"response": " ",
		"word": "ensolarado.",
		"trial_type": "audio-keyboard-response",
		"trial_index": 381,
		"time_elapsed": 783596,
		"internal_node_id": "0.0-3.0-1.312"
	},
	{
		"rt": null,
		"stimulus": "<span style= \"font-size:30px; font-family: monospace\">+</span>",
		"response": null,
		"trial_part": "fixation",
		"trial_type": "html-keyboard-response",
		"trial_index": 382,
		"time_elapsed": 784862,
		"internal_node_id": "0.0-3.0-0.313-0.313"
	},
	{
		"rt": 1131,
		"stimulus": "../audio/13-1-fem.mp3",
		"response": " ",
		"word": "Para",
		"trial_type": "audio-keyboard-response",
		"trial_index": 383,
		"time_elapsed": 786290,
		"internal_node_id": "0.0-3.0-1.313"
	},
	{
		"rt": 1059,
		"stimulus": "../audio/13-2-fem.mp3",
		"response": " ",
		"word": "mim",
		"trial_type": "audio-keyboard-response",
		"trial_index": 384,
		"time_elapsed": 787632,
		"internal_node_id": "0.0-3.0-1.314"
	},
	{
		"rt": 800,
		"stimulus": "../audio/13-3-fem.mp3",
		"response": " ",
		"word": "é",
		"trial_type": "audio-keyboard-response",
		"trial_index": 385,
		"time_elapsed": 788731,
		"internal_node_id": "0.0-3.0-1.315"
	},
	{
		"rt": 1008,
		"stimulus": "../audio/13-4-fem.mp3",
		"response": " ",
		"word": "muito",
		"trial_type": "audio-keyboard-response",
		"trial_index": 386,
		"time_elapsed": 790040,
		"internal_node_id": "0.0-3.0-1.316"
	},
	{
		"rt": 1109,
		"stimulus": "../audio/13-5-fem.mp3",
		"response": " ",
		"word": "difícil",
		"trial_type": "audio-keyboard-response",
		"trial_index": 387,
		"time_elapsed": 791443,
		"internal_node_id": "0.0-3.0-1.317"
	},
	{
		"rt": 1139,
		"stimulus": "../audio/13-6-fem.mp3",
		"response": " ",
		"word": "acordar",
		"trial_type": "audio-keyboard-response",
		"trial_index": 388,
		"time_elapsed": 792885,
		"internal_node_id": "0.0-3.0-1.318"
	},
	{
		"rt": 1200,
		"stimulus": "../audio/13-7-fem.mp3",
		"response": " ",
		"word": "cedo.",
		"trial_type": "audio-keyboard-response",
		"trial_index": 389,
		"time_elapsed": 794375,
		"internal_node_id": "0.0-3.0-1.319"
	},
	{
		"rt": null,
		"stimulus": "<span style= \"font-size:30px; font-family: monospace\">+</span>",
		"response": null,
		"trial_part": "fixation",
		"trial_type": "html-keyboard-response",
		"trial_index": 390,
		"time_elapsed": 795635,
		"internal_node_id": "0.0-3.0-0.320-0.320"
	},
	{
		"rt": 1949,
		"stimulus": "../audio/14-1-fem.mp3",
		"response": " ",
		"word": "O",
		"trial_type": "audio-keyboard-response",
		"trial_index": 391,
		"time_elapsed": 797880,
		"internal_node_id": "0.0-3.0-1.320"
	},
	{
		"rt": 1160,
		"stimulus": "../audio/14-2-fem.mp3",
		"response": " ",
		"word": "cachorro",
		"trial_type": "audio-keyboard-response",
		"trial_index": 392,
		"time_elapsed": 799344,
		"internal_node_id": "0.0-3.0-1.321"
	},
	{
		"rt": 819,
		"stimulus": "../audio/14-3-fem.mp3",
		"response": " ",
		"word": "é",
		"trial_type": "audio-keyboard-response",
		"trial_index": 393,
		"time_elapsed": 800445,
		"internal_node_id": "0.0-3.0-1.322"
	},
	{
		"rt": 829,
		"stimulus": "../audio/14-4-fem.mp3",
		"response": " ",
		"word": "muito",
		"trial_type": "audio-keyboard-response",
		"trial_index": 394,
		"time_elapsed": 801570,
		"internal_node_id": "0.0-3.0-1.323"
	},
	{
		"rt": 949,
		"stimulus": "../audio/14-5-fem.mp3",
		"response": " ",
		"word": "fiel",
		"trial_type": "audio-keyboard-response",
		"trial_index": 395,
		"time_elapsed": 802820,
		"internal_node_id": "0.0-3.0-1.324"
	},
	{
		"rt": 680,
		"stimulus": "../audio/14-6-fem.mp3",
		"response": " ",
		"word": "a",
		"trial_type": "audio-keyboard-response",
		"trial_index": 396,
		"time_elapsed": 803791,
		"internal_node_id": "0.0-3.0-1.325"
	},
	{
		"rt": 1219,
		"stimulus": "../audio/14-7-fem.mp3",
		"response": " ",
		"word": "seus",
		"trial_type": "audio-keyboard-response",
		"trial_index": 397,
		"time_elapsed": 805312,
		"internal_node_id": "0.0-3.0-1.326"
	},
	{
		"rt": 1029,
		"stimulus": "../audio/14-8-fem.mp3",
		"response": " ",
		"word": "donos.",
		"trial_type": "audio-keyboard-response",
		"trial_index": 398,
		"time_elapsed": 806632,
		"internal_node_id": "0.0-3.0-1.327"
	},
	{
		"rt": null,
		"stimulus": "<span style= \"font-size:30px; font-family: monospace\">+</span>",
		"response": null,
		"trial_part": "fixation",
		"trial_type": "html-keyboard-response",
		"trial_index": 399,
		"time_elapsed": 807892,
		"internal_node_id": "0.0-3.0-0.328-0.328"
	},
	{
		"rt": 1000,
		"stimulus": "../audio/11-1-masc.mp3",
		"response": " ",
		"word": "Elas",
		"trial_type": "audio-keyboard-response",
		"trial_index": 400,
		"time_elapsed": 809193,
		"internal_node_id": "0.0-3.0-1.328"
	},
	{
		"rt": 989,
		"stimulus": "../audio/11-2-masc.mp3",
		"response": " ",
		"word": "gostam",
		"trial_type": "audio-keyboard-response",
		"trial_index": 401,
		"time_elapsed": 810479,
		"internal_node_id": "0.0-3.0-1.329"
	},
	{
		"rt": 941,
		"stimulus": "../audio/11-3-masc.mp3",
		"response": " ",
		"word": "muito",
		"trial_type": "audio-keyboard-response",
		"trial_index": 402,
		"time_elapsed": 811707,
		"internal_node_id": "0.0-3.0-1.330"
	},
	{
		"rt": 781,
		"stimulus": "../audio/11-4-masc.mp3",
		"response": " ",
		"word": "de",
		"trial_type": "audio-keyboard-response",
		"trial_index": 403,
		"time_elapsed": 812776,
		"internal_node_id": "0.0-3.0-1.331"
	},
	{
		"rt": 1680,
		"stimulus": "../audio/11-5-masc.mp3",
		"response": " ",
		"word": "aritmética",
		"trial_type": "audio-keyboard-response",
		"trial_index": 404,
		"time_elapsed": 814765,
		"internal_node_id": "0.0-3.0-1.332"
	},
	{
		"rt": 869,
		"stimulus": "../audio/11-6-masc.mp3",
		"response": " ",
		"word": "e",
		"trial_type": "audio-keyboard-response",
		"trial_index": 405,
		"time_elapsed": 816128,
		"internal_node_id": "0.0-3.0-1.333"
	},
	{
		"rt": 811,
		"stimulus": "../audio/11-7-masc.mp3",
		"response": " ",
		"word": "de",
		"trial_type": "audio-keyboard-response",
		"trial_index": 406,
		"time_elapsed": 817228,
		"internal_node_id": "0.0-3.0-1.334"
	},
	{
		"rt": 1840,
		"stimulus": "../audio/11-8-masc.mp3",
		"response": " ",
		"word": "leitura.",
		"trial_type": "audio-keyboard-response",
		"trial_index": 407,
		"time_elapsed": 819364,
		"internal_node_id": "0.0-3.0-1.335"
	},
	{
		"rt": null,
		"stimulus": "<span style= \"font-size:30px; font-family: monospace\">+</span>",
		"response": null,
		"trial_part": "fixation",
		"trial_type": "html-keyboard-response",
		"trial_index": 408,
		"time_elapsed": 820623,
		"internal_node_id": "0.0-3.0-0.336-0.336"
	},
	{
		"rt": 909,
		"stimulus": "../audio/15-1-fem.mp3",
		"response": " ",
		"word": "Meu",
		"trial_type": "audio-keyboard-response",
		"trial_index": 409,
		"time_elapsed": 821836,
		"internal_node_id": "0.0-3.0-1.336"
	},
	{
		"rt": 960,
		"stimulus": "../audio/15-2-fem.mp3",
		"response": " ",
		"word": "primo",
		"trial_type": "audio-keyboard-response",
		"trial_index": 410,
		"time_elapsed": 823083,
		"internal_node_id": "0.0-3.0-1.337"
	},
	{
		"rt": 829,
		"stimulus": "../audio/15-3-fem.mp3",
		"response": " ",
		"word": "é",
		"trial_type": "audio-keyboard-response",
		"trial_index": 411,
		"time_elapsed": 824206,
		"internal_node_id": "0.0-3.0-1.338"
	},
	{
		"rt": 869,
		"stimulus": "../audio/15-4-fem.mp3",
		"response": " ",
		"word": "um",
		"trial_type": "audio-keyboard-response",
		"trial_index": 412,
		"time_elapsed": 825364,
		"internal_node_id": "0.0-3.0-1.339"
	},
	{
		"rt": 1149,
		"stimulus": "../audio/15-5-fem.mp3",
		"response": " ",
		"word": "grande",
		"trial_type": "audio-keyboard-response",
		"trial_index": 413,
		"time_elapsed": 826820,
		"internal_node_id": "0.0-3.0-1.340"
	},
	{
		"rt": 1480,
		"stimulus": "../audio/15-6-fem.mp3",
		"response": " ",
		"word": "vendedor",
		"trial_type": "audio-keyboard-response",
		"trial_index": 414,
		"time_elapsed": 828600,
		"internal_node_id": "0.0-3.0-1.341"
	},
	{
		"rt": 1160,
		"stimulus": "../audio/15-7-fem.mp3",
		"response": " ",
		"word": "de",
		"trial_type": "audio-keyboard-response",
		"trial_index": 415,
		"time_elapsed": 830044,
		"internal_node_id": "0.0-3.0-1.342"
	},
	{
		"rt": 2800,
		"stimulus": "../audio/15-8-fem.mp3",
		"response": " ",
		"word": "carros.",
		"trial_type": "audio-keyboard-response",
		"trial_index": 416,
		"time_elapsed": 833153,
		"internal_node_id": "0.0-3.0-1.343"
	},
	{
		"rt": 4584,
		"stimulus": "<span style=\"font-size:25px; font-family: monospace\">O primo é um vendedor de carros?</span>",
		"response": "s",
		"question": "O primo é um vendedor de carros?",
		"answer": "null",
		"trial": "exp-sent",
		"trial_type": "html-keyboard-response",
		"trial_index": 417,
		"time_elapsed": 837999,
		"internal_node_id": "0.0-3.0-2.343-0.343",
		"accuracy": false
	},
	{
		"rt": null,
		"stimulus": "<span style= \"font-size:30px; font-family: monospace\">+</span>",
		"response": null,
		"trial_part": "fixation",
		"trial_type": "html-keyboard-response",
		"trial_index": 418,
		"time_elapsed": 839514,
		"internal_node_id": "0.0-3.0-0.344-0.344"
	},
	{
		"rt": 1128,
		"stimulus": "../audio/36-1-fem.mp3",
		"response": " ",
		"word": "Meu",
		"trial_type": "audio-keyboard-response",
		"trial_index": 419,
		"time_elapsed": 840956,
		"internal_node_id": "0.0-3.0-1.344"
	},
	{
		"rt": 1600,
		"stimulus": "../audio/36-2-fem.mp3",
		"response": " ",
		"word": "tio",
		"trial_type": "audio-keyboard-response",
		"trial_index": 420,
		"time_elapsed": 842850,
		"internal_node_id": "0.0-3.0-1.345"
	},
	{
		"rt": 1400,
		"stimulus": "../audio/36-3-fem.mp3",
		"response": " ",
		"word": "comprou",
		"trial_type": "audio-keyboard-response",
		"trial_index": 421,
		"time_elapsed": 844547,
