[
	{
		"view_history": [
			{
				"page_index": 0,
				"viewing_time": 1367
			}
		],
		"rt": 1367,
		"trial_type": "instructions",
		"trial_index": 0,
		"time_elapsed": 1371,
		"internal_node_id": "0.0-0.0"
	},
	{
		"rt": 137902,
		"response": {
			"reading_habits_printed_magazines": "Nunca",
			"reading_habits_printed_newspapers": "Nunca",
			"reading_habits_books": "Uma vez por semana",
			"reading_habits_printed_socialmedias": "Todos os dias"
		},
		"question_order": [
			0,
			1,
			2,
			3
		],
		"trial_type": "survey-multi-choice",
		"trial_index": 1,
		"time_elapsed": 139388,
		"internal_node_id": "0.0-1.0"
	},
	{
		"rt": 36698,
		"response": {
			"reading_habits_virtual_magazines": "Todos os dias",
			"reading_habits_virtual_newspapers": "Uma vez por semana",
			"reading_habits_books": "Uma vez por semana",
			"reading_habits_virtual_socialmedias": "Todos os dias"
		},
		"question_order": [
			0,
			1,
			2,
			3
		],
		"trial_type": "survey-multi-choice",
		"trial_index": 2,
		"time_elapsed": 176197,
		"internal_node_id": "0.0-2.0"
	},
	{
		"rt": 42335,
		"response": {
			"reading_habits_other_which": "dicionário (virtual)",
			"reading_habits_other_frequency": "todos os dias"
		},
		"trial_type": "survey-text",
		"trial_index": 3,
		"time_elapsed": 218652,
		"internal_node_id": "0.0-3.0"
	}
]