"view_history","rt","trial_type","trial_index","time_elapsed","internal_node_id","stimulus","response","trial_part","word","question","answer","trial","accuracy"
"[{""page_index"":0,""viewing_time"":13706},{""page_index"":1,""viewing_time"":2791}]","16498","instructions","0","16499","0.0-0.0","","","","","","","",""
"","null","html-keyboard-response","1","17606","0.0-1.0-0.0-0.0","<span style= ""font-size:30px; font-family: monospace"">+</span>","null","fixation","","","","",""
"","8040","audio-keyboard-response","2","25992","0.0-1.0-1.0","../audio/prac-question-1-1.mp3"," ","","O","","","",""
"","3181","audio-keyboard-response","3","29468","0.0-1.0-1.1","../audio/prac-question-1-2.mp3"," ","","dia","","","",""
"","3200","audio-keyboard-response","4","32995","0.0-1.0-1.2","../audio/prac-question-1-3.mp3"," ","","estará","","","",""
"","3299","audio-keyboard-response","5","36612","0.0-1.0-1.3","../audio/prac-question-1-4.mp3"," ","","cheio","","","",""
"","2080","audio-keyboard-response","6","38995","0.0-1.0-1.4","../audio/prac-question-1-5.mp3"," ","","de","","","",""
"","1949","audio-keyboard-response","7","41255","0.0-1.0-1.5","../audio/prac-question-1-6.mp3"," ","","nuvens","","","",""
"","2200","audio-keyboard-response","8","43754","0.0-1.0-1.6","../audio/prac-question-1-7.mp3"," ","","hoje.","","","",""
"","null","html-keyboard-response","9","45011","0.0-1.0-0.7-0.7","<span style= ""font-size:30px; font-family: monospace"">+</span>","null","fixation","","","","",""
"","1360","audio-keyboard-response","10","47033","0.0-1.0-1.7","../audio/prac-question-2-1.mp3"," ","","A","","","",""
"","1600","audio-keyboard-response","11","48953","0.0-1.0-1.8","../audio/prac-question-2-2.mp3"," ","","caneca","","","",""
"","1661","audio-keyboard-response","12","50916","0.0-1.0-1.9","../audio/prac-question-2-3.mp3"," ","","colorida","","","",""
"","2240","audio-keyboard-response","13","53445","0.0-1.0-1.10","../audio/prac-question-2-4.mp3"," ","","caiu","","","",""
"","1549","audio-keyboard-response","14","55293","0.0-1.0-1.11","../audio/prac-question-2-5.mp3"," ","","da","","","",""
"","1669","audio-keyboard-response","15","57257","0.0-1.0-1.12","../audio/prac-question-2-6.mp3"," ","","mesa","","","",""
"","1461","audio-keyboard-response","16","58999","0.0-1.0-1.13","../audio/prac-question-2-7.mp3"," ","","de","","","",""
"","3109","audio-keyboard-response","17","62409","0.0-1.0-1.14","../audio/prac-question-2-8.mp3"," ","","jantar.","","","",""
"","37990","html-keyboard-response","18","100656","0.0-1.0-2.14-0.14","<span style=""font-size:25px; font-family: monospace"">A caneca era colorida?</span>","s","","","A caneca era colorida?","null","prac-sent","false"
"[{""page_index"":0,""viewing_time"":12201}]","12204","instructions","19","113363","0.0-2.0","","","","","","","",""
"","null","html-keyboard-response","20","114474","0.0-3.0-0.0-0.0","<span style= ""font-size:30px; font-family: monospace"">+</span>","null","fixation","","","","",""
"","5819","audio-keyboard-response","21","121579","0.0-3.0-1.0","../audio/62-1-masc.mp3"," ","","As","","","",""
"","2779","audio-keyboard-response","22","124675","0.0-3.0-1.1","../audio/62-2-masc.mp3"," ","","artesãs","","","",""
"","2000","audio-keyboard-response","23","126976","0.0-3.0-1.2","../audio/62-3-masc.mp3"," ","","gostam","","","",""
"","1571","audio-keyboard-response","24","128853","0.0-3.0-1.3","../audio/62-4-masc.mp3"," ","","de","","","",""
"","6560","audio-keyboard-response","25","135725","0.0-3.0-1.4","../audio/62-5-masc.mp3"," ","","maquiagem","","","",""
"","1389","audio-keyboard-response","26","137419","0.0-3.0-1.5","../audio/62-6-masc.mp3"," ","","e","","","",""
"","1309","audio-keyboard-response","27","139207","0.0-3.0-1.6","../audio/62-7-masc.mp3"," ","","de","","","",""
"","1979","audio-keyboard-response","28","142266","0.0-3.0-1.7","../audio/62-8-masc.mp3"," ","","crochê.","","","",""
"","null","html-keyboard-response","29","143538","0.0-3.0-0.8-0.8","<span style= ""font-size:30px; font-family: monospace"">+</span>","null","fixation","","","","",""
"","1659","audio-keyboard-response","30","145499","0.0-3.0-1.8","../audio/64-1-masc.mp3"," ","","O","","","",""
"","1171","audio-keyboard-response","31","146961","0.0-3.0-1.9","../audio/64-2-masc.mp3"," ","","dia","","","",""
"","1411","audio-keyboard-response","32","148675","0.0-3.0-1.10","../audio/64-3-masc.mp3"," ","","começou","","","",""
"","1080","audio-keyboard-response","33","150042","0.0-3.0-1.11","../audio/64-4-masc.mp3"," ","","com","","","",""
"","1461","audio-keyboard-response","34","151801","0.0-3.0-1.12","../audio/64-5-masc.mp3"," ","","garoa","","","",""
"","1352","audio-keyboard-response","35","153455","0.0-3.0-1.13","../audio/64-6-masc.mp3"," ","","gelada","","","",""
"","1131","audio-keyboard-response","36","154876","0.0-3.0-1.14","../audio/64-7-masc.mp3"," ","","e","","","",""
"","1789","audio-keyboard-response","37","156960","0.0-3.0-1.15","../audio/64-8-masc.mp3"," ","","leve.","","","",""
"","null","html-keyboard-response","38","158231","0.0-3.0-0.16-0.16","<span style= ""font-size:30px; font-family: monospace"">+</span>","null","fixation","","","","",""
"","2269","audio-keyboard-response","39","160804","0.0-3.0-1.16","../audio/61-1-fem.mp3"," ","","Aquele","","","",""
"","1221","audio-keyboard-response","40","162327","0.0-3.0-1.17","../audio/61-2-fem.mp3"," ","","senhor","","","",""
"","949","audio-keyboard-response","41","163567","0.0-3.0-1.18","../audio/61-3-fem.mp3"," ","","é","","","",""
"","1120","audio-keyboard-response","42","164979","0.0-3.0-1.19","../audio/61-4-fem.mp3"," ","","muito","","","",""
"","1571","audio-keyboard-response","43","166843","0.0-3.0-1.20","../audio/61-5-fem.mp3"," ","","sovina","","","",""
"","840","audio-keyboard-response","44","168116","0.0-3.0-1.21","../audio/61-6-fem.mp3"," ","","e","","","",""
"","3291","audio-keyboard-response","45","172085","0.0-3.0-1.22","../audio/61-7-fem.mp3"," ","","inflexível.","","","",""
"","null","html-keyboard-response","46","173355","0.0-3.0-0.23-0.23","<span style= ""font-size:30px; font-family: monospace"">+</span>","null","fixation","","","","",""
"","1179","audio-keyboard-response","47","174831","0.0-3.0-1.23","../audio/63-1-fem.mp3"," ","","A","","","",""
"","1200","audio-keyboard-response","48","176329","0.0-3.0-1.24","../audio/63-2-fem.mp3"," ","","chuva","","","",""
"","1240","audio-keyboard-response","49","177859","0.0-3.0-1.25","../audio/63-3-fem.mp3"," ","","entrou","","","",""
"","1120","audio-keyboard-response","50","179272","0.0-3.0-1.26","../audio/63-4-fem.mp3"," ","","pela","","","",""
"","1331","audio-keyboard-response","51","180918","0.0-3.0-1.27","../audio/63-5-fem.mp3"," ","","abertura","","","",""
"","989","audio-keyboard-response","52","182194","0.0-3.0-1.28","../audio/63-6-fem.mp3"," ","","na","","","",""
"","2288","audio-keyboard-response","53","184788","0.0-3.0-1.29","../audio/63-7-fem.mp3"," ","","janela.","","","",""
"","null","html-keyboard-response","54","186055","0.0-3.0-0.30-0.30","<span style= ""font-size:30px; font-family: monospace"">+</span>","null","fixation","","","","",""
"","939","audio-keyboard-response","55","187307","0.0-3.0-1.30","../audio/65-1-fem.mp3"," ","","O","","","",""
"","1419","audio-keyboard-response","56","189028","0.0-3.0-1.31","../audio/65-2-fem.mp3"," ","","fantasma","","","",""
"","1501","audio-keyboard-response","57","190814","0.0-3.0-1.32","../audio/65-3-fem.mp3"," ","","veio","","","",""
"","1032","audio-keyboard-response","58","192140","0.0-3.0-1.33","../audio/65-4-fem.mp3"," ","","da","","","",""
"","2091","audio-keyboard-response","59","194524","0.0-3.0-1.34","../audio/65-5-fem.mp3"," ","","escuridão","","","",""
"","1299","audio-keyboard-response","60","196119","0.0-3.0-1.35","../audio/65-6-fem.mp3"," ","","do","","","",""
"","1869","audio-keyboard-response","61","198284","0.0-3.0-1.36","../audio/65-7-fem.mp3"," ","","armário.","","","",""
"","9661","html-keyboard-response","62","208200","0.0-3.0-2.36-0.36","<span style=""font-size:25px; font-family: monospace"">O fantasma veio da escuridão do armário?</span>","s","","","O fantasma veio da escuridão do armário?","null","exp-sent","false"
"","null","html-keyboard-response","63","209703","0.0-3.0-0.37-0.37","<span style= ""font-size:30px; font-family: monospace"">+</span>","null","fixation","","","","",""
"","1640","audio-keyboard-response","64","211649","0.0-3.0-1.37","../audio/51-1-fem.mp3"," ","","Suco","","","",""
"","968","audio-keyboard-response","65","212906","0.0-3.0-1.38","../audio/51-2-fem.mp3"," ","","de","","","",""
"","1651","audio-keyboard-response","66","214855","0.0-3.0-1.39","../audio/51-3-fem.mp3"," ","","acerola","","","",""
"","981","audio-keyboard-response","67","216128","0.0-3.0-1.40","../audio/51-4-fem.mp3"," ","","é","","","",""
"","2229","audio-keyboard-response","68","218667","0.0-3.0-1.41","../audio/51-5-fem.mp3"," ","","azedo","","","",""
"","1320","audio-keyboard-response","69","220284","0.0-3.0-1.42","../audio/51-6-fem.mp3"," ","","e","","","",""
"","1968","audio-keyboard-response","70","222554","0.0-3.0-1.43","../audio/51-7-fem.mp3"," ","","até","","","",""
"","2131","audio-keyboard-response","71","224971","0.0-3.0-1.44","../audio/51-8-fem.mp3"," ","","barato.","","","",""
"","null","html-keyboard-response","72","226231","0.0-3.0-0.45-0.45","<span style= ""font-size:30px; font-family: monospace"">+</span>","null","fixation","","","","",""
"","1251","audio-keyboard-response","73","227765","0.0-3.0-1.45","../audio/53-1-masc.mp3"," ","","O","","","",""
"","1312","audio-keyboard-response","74","229376","0.0-3.0-1.46","../audio/53-2-masc.mp3"," ","","médico","","","",""
"","952","audio-keyboard-response","75","230624","0.0-3.0-1.47","../audio/53-3-masc.mp3"," ","","foi","","","",""
"","1139","audio-keyboard-response","76","232074","0.0-3.0-1.48","../audio/53-4-masc.mp3"," ","","bastante","","","",""
"","1120","audio-keyboard-response","77","233487","0.0-3.0-1.49","../audio/53-5-masc.mp3"," ","","preciso","","","",""
"","1128","audio-keyboard-response","78","234908","0.0-3.0-1.50","../audio/53-6-masc.mp3"," ","","durante","","","",""
"","949","audio-keyboard-response","79","236147","0.0-3.0-1.51","../audio/53-7-masc.mp3"," ","","a","","","",""
"","2400","audio-keyboard-response","80","238853","0.0-3.0-1.52","../audio/53-8-masc.mp3"," ","","cirurgia.","","","",""
"","null","html-keyboard-response","81","240124","0.0-3.0-0.53-0.53","<span style= ""font-size:30px; font-family: monospace"">+</span>","null","fixation","","","","",""
"","1312","audio-keyboard-response","82","241742","0.0-3.0-1.53","../audio/54-1-fem.mp3"," ","","Estou","","","",""
"","779","audio-keyboard-response","83","242795","0.0-3.0-1.54","../audio/54-2-fem.mp3"," ","","com","","","",""
"","1080","audio-keyboard-response","84","244171","0.0-3.0-1.55","../audio/54-3-fem.mp3"," ","","medo","","","",""
"","888","audio-keyboard-response","85","245352","0.0-3.0-1.56","../audio/54-4-fem.mp3"," ","","da","","","",""
"","1179","audio-keyboard-response","86","246830","0.0-3.0-1.57","../audio/54-5-fem.mp3"," ","","atual","","","",""
"","1880","audio-keyboard-response","87","249015","0.0-3.0-1.58","../audio/54-6-fem.mp3"," ","","organização","","","",""
"","1240","audio-keyboard-response","88","250566","0.0-3.0-1.59","../audio/54-7-fem.mp3"," ","","do","","","",""
"","2360","audio-keyboard-response","89","253222","0.0-3.0-1.60","../audio/54-8-fem.mp3"," ","","país.","","","",""
"","null","html-keyboard-response","90","254484","0.0-3.0-0.61-0.61","<span style= ""font-size:30px; font-family: monospace"">+</span>","null","fixation","","","","",""
"","1128","audio-keyboard-response","91","255912","0.0-3.0-1.61","../audio/52-1-fem.mp3"," ","","Às","","","",""
"","1120","audio-keyboard-response","92","257340","0.0-3.0-1.62","../audio/52-2-fem.mp3"," ","","vezes","","","",""
"","1011","audio-keyboard-response","93","258634","0.0-3.0-1.63","../audio/52-3-fem.mp3"," ","","eu","","","",""
"","1168","audio-keyboard-response","94","260109","0.0-3.0-1.64","../audio/52-4-fem.mp3"," ","","tenho","","","",""
"","1240","audio-keyboard-response","95","261647","0.0-3.0-1.65","../audio/52-5-fem.mp3"," ","","azia","","","",""
"","1160","audio-keyboard-response","96","263099","0.0-3.0-1.66","../audio/52-6-fem.mp3"," ","","depois","","","",""
"","1051","audio-keyboard-response","97","264443","0.0-3.0-1.67","../audio/52-7-fem.mp3"," ","","da","","","",""
"","2381","audio-keyboard-response","98","267132","0.0-3.0-1.68","../audio/52-8-fem.mp3"," ","","janta.","","","",""
"","null","html-keyboard-response","99","268394","0.0-3.0-0.69-0.69","<span style= ""font-size:30px; font-family: monospace"">+</span>","null","fixation","","","","",""
"","1000","audio-keyboard-response","100","269694","0.0-3.0-1.69","../audio/55-1-masc.mp3"," ","","O","","","",""
"","1392","audio-keyboard-response","101","271384","0.0-3.0-1.70","../audio/55-2-masc.mp3"," ","","insulto","","","",""
"","4040","audio-keyboard-response","102","275739","0.0-3.0-1.71","../audio/55-3-masc.mp3"," ","","recente","","","",""
"","2411","audio-keyboard-response","103","278442","0.0-3.0-1.72","../audio/55-4-masc.mp3"," ","","causou","","","",""
"","2901","audio-keyboard-response","104","281653","0.0-3.0-1.73","../audio/55-5-masc.mp3"," ","","indignação","","","",""
"","1411","audio-keyboard-response","105","283367","0.0-3.0-1.74","../audio/55-6-masc.mp3"," ","","em","","","",""
"","1560","audio-keyboard-response","106","285219","0.0-3.0-1.75","../audio/55-7-masc.mp3"," ","","todos.","","","",""
"","12703","html-keyboard-response","107","298177","0.0-3.0-2.75-0.75","<span style=""font-size:25px; font-family: monospace"">O insulto causou calmaria?</span>","n","","","O insulto causou calmaria?","null","exp-sent","false"
"","null","html-keyboard-response","108","299698","0.0-3.0-0.76-0.76","<span style= ""font-size:30px; font-family: monospace"">+</span>","null","fixation","","","","",""
"","4539","audio-keyboard-response","109","304538","0.0-3.0-1.76","../audio/46-1-fem.mp3"," ","","Meu","","","",""
"","1019","audio-keyboard-response","110","305867","0.0-3.0-1.77","../audio/46-2-fem.mp3"," ","","primo","","","",""
"","1112","audio-keyboard-response","111","307289","0.0-3.0-1.78","../audio/46-3-fem.mp3"," ","","estava","","","",""
"","1072","audio-keyboard-response","112","308655","0.0-3.0-1.79","../audio/46-4-fem.mp3"," ","","muito","","","",""
"","1960","audio-keyboard-response","113","310913","0.0-3.0-1.80","../audio/46-5-fem.mp3"," ","","deprimido","","","",""
"","1131","audio-keyboard-response","114","312333","0.0-3.0-1.81","../audio/46-6-fem.mp3"," ","","no","","","",""
"","1909","audio-keyboard-response","115","314539","0.0-3.0-1.82","../audio/46-7-fem.mp3"," ","","inverno.","","","",""
"","null","html-keyboard-response","116","315798","0.0-3.0-0.83-0.83","<span style= ""font-size:30px; font-family: monospace"">+</span>","null","fixation","","","","",""
"","1491","audio-keyboard-response","117","317573","0.0-3.0-1.83","../audio/47-1-fem.mp3"," ","","O","","","",""
"","979","audio-keyboard-response","118","318831","0.0-3.0-1.84","../audio/47-2-fem.mp3"," ","","tio","","","",""
"","1168","audio-keyboard-response","119","320301","0.0-3.0-1.85","../audio/47-3-fem.mp3"," ","","recusou","","","",""
"","1051","audio-keyboard-response","120","321632","0.0-3.0-1.86","../audio/47-4-fem.mp3"," ","","a","","","",""
"","1848","audio-keyboard-response","121","323780","0.0-3.0-1.87","../audio/47-5-fem.mp3"," ","","sobremesa","","","",""
"","1149","audio-keyboard-response","122","325232","0.0-3.0-1.88","../audio/47-6-fem.mp3"," ","","no","","","",""
"","1709","audio-keyboard-response","123","327247","0.0-3.0-1.89","../audio/47-7-fem.mp3"," ","","almoço.","","","",""
"","null","html-keyboard-response","124","328519","0.0-3.0-0.90-0.90","<span style= ""font-size:30px; font-family: monospace"">+</span>","null","fixation","","","","",""
"","1091","audio-keyboard-response","125","329911","0.0-3.0-1.90","../audio/48-1-fem.mp3"," ","","Ela","","","",""
"","909","audio-keyboard-response","126","331122","0.0-3.0-1.91","../audio/48-2-fem.mp3"," ","","come","","","",""
"","829","audio-keyboard-response","127","332427","0.0-3.0-1.92","../audio/48-3-fem.mp3"," ","","feijão","","","",""
"","1029","audio-keyboard-response","128","333780","0.0-3.0-1.93","../audio/48-4-fem.mp3"," ","","com","","","",""
"","989","audio-keyboard-response","129","335064","0.0-3.0-1.94","../audio/48-5-fem.mp3"," ","","arroz","","","",""
"","949","audio-keyboard-response","130","336301","0.0-3.0-1.95","../audio/48-6-fem.mp3"," ","","todos","","","",""
"","960","audio-keyboard-response","131","337563","0.0-3.0-1.96","../audio/48-7-fem.mp3"," ","","os","","","",""
"","3251","audio-keyboard-response","132","341120","0.0-3.0-1.97","../audio/48-8-fem.mp3"," ","","dias.","","","",""
"","null","html-keyboard-response","133","342378","0.0-3.0-0.98-0.98","<span style= ""font-size:30px; font-family: monospace"">+</span>","null","fixation","","","","",""
"","1019","audio-keyboard-response","134","343715","0.0-3.0-1.98","../audio/49-1-masc.mp3"," ","","Eu","","","",""
"","920","audio-keyboard-response","135","344935","0.0-3.0-1.99","../audio/49-2-masc.mp3"," ","","quero","","","",""
"","880","audio-keyboard-response","136","346106","0.0-3.0-1.100","../audio/49-3-masc.mp3"," ","","um","","","",""
"","979","audio-keyboard-response","137","347389","0.0-3.0-1.101","../audio/49-4-masc.mp3"," ","","lanche","","","",""
"","1299","audio-keyboard-response","138","348991","0.0-3.0-1.102","../audio/49-5-masc.mp3"," ","","duplo","","","",""
"","1051","audio-keyboard-response","139","350334","0.0-3.0-1.103","../audio/49-6-masc.mp3"," ","","e","","","",""
"","931","audio-keyboard-response","140","351566","0.0-3.0-1.104","../audio/49-7-masc.mp3"," ","","um","","","",""
"","1688","audio-keyboard-response","141","353546","0.0-3.0-1.105","../audio/49-8-masc.mp3"," ","","suco.","","","",""
"","null","html-keyboard-response","142","354813","0.0-3.0-0.106-0.106","<span style= ""font-size:30px; font-family: monospace"">+</span>","null","fixation","","","","",""
"","1219","audio-keyboard-response","143","356325","0.0-3.0-1.106","../audio/50-1-fem.mp3"," ","","O","","","",""
"","1579","audio-keyboard-response","144","358204","0.0-3.0-1.107","../audio/50-2-fem.mp3"," ","","pássaro","","","",""
"","1099","audio-keyboard-response","145","359598","0.0-3.0-1.108","../audio/50-3-fem.mp3"," ","","fugiu","","","",""
"","1040","audio-keyboard-response","146","360927","0.0-3.0-1.109","../audio/50-4-fem.mp3"," ","","da","","","",""
"","1400","audio-keyboard-response","147","362636","0.0-3.0-1.110","../audio/50-5-fem.mp3"," ","","gaiola","","","",""
"","1080","audio-keyboard-response","148","364015","0.0-3.0-1.111","../audio/50-6-fem.mp3"," ","","pela","","","",""
"","2211","audio-keyboard-response","149","366535","0.0-3.0-1.112","../audio/50-7-fem.mp3"," ","","portinhola.","","","",""
"","4849","html-keyboard-response","150","371648","0.0-3.0-2.112-0.112","<span style=""font-size:25px; font-family: monospace"">O pássaro fugiu da gaiola?</span>","s","","","O pássaro fugiu da gaiola?","null","exp-sent","false"
"","null","html-keyboard-response","151","373159","0.0-3.0-0.113-0.113","<span style= ""font-size:30px; font-family: monospace"">+</span>","null","fixation","","","","",""
"","1392","audio-keyboard-response","152","374857","0.0-3.0-1.113","../audio/73-1-fem.mp3"," ","","O","","","",""
"","1531","audio-keyboard-response","153","376692","0.0-3.0-1.114","../audio/73-2-fem.mp3"," ","","cliente","","","",""
"","2040","audio-keyboard-response","154","379020","0.0-3.0-1.115","../audio/73-3-fem.mp3"," ","","era","","","",""
"","1211","audio-keyboard-response","155","380530","0.0-3.0-1.116","../audio/73-4-fem.mp3"," ","","um","","","",""
"","2440","audio-keyboard-response","156","383276","0.0-3.0-1.117","../audio/73-5-fem.mp3"," ","","homem","","","",""
"","2560","audio-keyboard-response","157","386147","0.0-3.0-1.118","../audio/73-6-fem.mp3"," ","","muito","","","",""
"","3560","audio-keyboard-response","158","390024","0.0-3.0-1.119","../audio/73-7-fem.mp3"," ","","educado.","","","",""
"","null","html-keyboard-response","159","391288","0.0-3.0-0.120-0.120","<span style= ""font-size:30px; font-family: monospace"">+</span>","null","fixation","","","","",""
"","2400","audio-keyboard-response","160","393986","0.0-3.0-1.120","../audio/74-1-fem.mp3"," ","","Este","","","",""
"","1829","audio-keyboard-response","161","396127","0.0-3.0-1.121","../audio/74-2-fem.mp3"," ","","emprego","","","",""
"","1160","audio-keyboard-response","162","397577","0.0-3.0-1.122","../audio/74-3-fem.mp3"," ","","é","","","",""
"","1219","audio-keyboard-response","163","399080","0.0-3.0-1.123","../audio/74-4-fem.mp3"," ","","muito","","","",""
"","1920","audio-keyboard-response","164","401308","0.0-3.0-1.124","../audio/74-5-fem.mp3"," ","","cansativo","","","",""
"","1211","audio-keyboard-response","165","402813","0.0-3.0-1.125","../audio/74-6-fem.mp3"," ","","a","","","",""
"","1349","audio-keyboard-response","166","404455","0.0-3.0-1.126","../audio/74-7-fem.mp3"," ","","longo","","","",""
"","1211","audio-keyboard-response","167","405976","0.0-3.0-1.127","../audio/74-8-fem.mp3"," ","","prazo.","","","",""
"","null","html-keyboard-response","168","407246","0.0-3.0-0.128-0.128","<span style= ""font-size:30px; font-family: monospace"">+</span>","null","fixation","","","","",""
"","1101","audio-keyboard-response","169","408657","0.0-3.0-1.128","../audio/72-1-masc.mp3"," ","","A","","","",""
"","1669","audio-keyboard-response","170","410633","0.0-3.0-1.129","../audio/72-2-masc.mp3"," ","","vencedora","","","",""
"","1221","audio-keyboard-response","171","412141","0.0-3.0-1.130","../audio/72-3-masc.mp3"," ","","recebeu","","","",""
"","891","audio-keyboard-response","172","413320","0.0-3.0-1.131","../audio/72-4-masc.mp3"," ","","um","","","",""
"","1051","audio-keyboard-response","173","414820","0.0-3.0-1.132","../audio/72-5-masc.mp3"," ","","prêmio","","","",""
"","920","audio-keyboard-response","174","416034","0.0-3.0-1.133","../audio/72-6-masc.mp3"," ","","em","","","",""
"","1469","audio-keyboard-response","175","417796","0.0-3.0-1.134","../audio/72-7-masc.mp3"," ","","dinheiro.","","","",""
"","null","html-keyboard-response","176","419056","0.0-3.0-0.135-0.135","<span style= ""font-size:30px; font-family: monospace"">+</span>","null","fixation","","","","",""
"","2069","audio-keyboard-response","177","421429","0.0-3.0-1.135","../audio/71-1-fem.mp3"," ","","Minhas","","","",""
"","1141","audio-keyboard-response","178","423453","0.0-3.0-1.136","../audio/71-2-fem.mp3"," ","","comidas","","","",""
"","1371","audio-keyboard-response","179","425281","0.0-3.0-1.137","../audio/71-3-fem.mp3"," ","","favoritas","","","",""
"","989","audio-keyboard-response","180","426558","0.0-3.0-1.138","../audio/71-4-fem.mp3"," ","","são","","","",""
"","1240","audio-keyboard-response","181","428106","0.0-3.0-1.139","../audio/71-5-fem.mp3"," ","","morango","","","",""
"","981","audio-keyboard-response","182","429377","0.0-3.0-1.140","../audio/71-6-fem.mp3"," ","","e","","","",""
"","2531","audio-keyboard-response","183","432203","0.0-3.0-1.141","../audio/71-7-fem.mp3"," ","","uva.","","","",""
"","null","html-keyboard-response","184","433458","0.0-3.0-0.142-0.142","<span style= ""font-size:30px; font-family: monospace"">+</span>","null","fixation","","","","",""
"","1621","audio-keyboard-response","185","435372","0.0-3.0-1.142","../audio/75-1-fem.mp3"," ","","Só","","","",""
"","1760","audio-keyboard-response","186","437435","0.0-3.0-1.143","../audio/75-2-fem.mp3"," ","","existe","","","",""
"","1051","audio-keyboard-response","187","438759","0.0-3.0-1.144","../audio/75-3-fem.mp3"," ","","uma","","","",""
"","979","audio-keyboard-response","188","440079","0.0-3.0-1.145","../audio/75-4-fem.mp3"," ","","pessoa","","","",""
"","1499","audio-keyboard-response","189","441877","0.0-3.0-1.146","../audio/75-5-fem.mp3"," ","","canhota","","","",""
"","1120","audio-keyboard-response","190","443298","0.0-3.0-1.147","../audio/75-6-fem.mp3"," ","","nesta","","","",""
"","1541","audio-keyboard-response","191","445137","0.0-3.0-1.148","../audio/75-7-fem.mp3"," ","","cidade.","","","",""
"","7085","html-keyboard-response","192","452482","0.0-3.0-2.148-0.148","<span style=""font-size:25px; font-family: monospace"">Só existe uma pessoa canhota na cidade?</span>","s","","","Só existe uma pessoa canhota na cidade?","null","exp-sent","false"
"","null","html-keyboard-response","193","453997","0.0-3.0-0.149-0.149","<span style= ""font-size:30px; font-family: monospace"">+</span>","null","fixation","","","","",""
"","1880","audio-keyboard-response","194","456179","0.0-3.0-1.149","../audio/58-1-fem.mp3"," ","","Havia","","","",""
"","1160","audio-keyboard-response","195","457649","0.0-3.0-1.150","../audio/58-2-fem.mp3"," ","","apenas","","","",""
"","1349","audio-keyboard-response","196","459291","0.0-3.0-1.151","../audio/58-3-fem.mp3"," ","","um","","","",""
"","1629","audio-keyboard-response","197","461211","0.0-3.0-1.152","../audio/58-4-fem.mp3"," ","","último","","","",""
"","1600","audio-keyboard-response","198","463108","0.0-3.0-1.153","../audio/58-5-fem.mp3"," ","","herdeiro","","","",""
"","1669","audio-keyboard-response","199","465075","0.0-3.0-1.154","../audio/58-6-fem.mp3"," ","","do","","","",""
"","1499","audio-keyboard-response","200","466880","0.0-3.0-1.155","../audio/58-7-fem.mp3"," ","","dinheiro.","","","",""
"","null","html-keyboard-response","201","468146","0.0-3.0-0.156-0.156","<span style= ""font-size:30px; font-family: monospace"">+</span>","null","fixation","","","","",""
"","1909","audio-keyboard-response","202","470405","0.0-3.0-1.156","../audio/57-1-fem.mp3"," ","","O","","","",""
"","1469","audio-keyboard-response","203","472172","0.0-3.0-1.157","../audio/57-2-fem.mp3"," ","","capitão","","","",""
"","1080","audio-keyboard-response","204","473543","0.0-3.0-1.158","../audio/57-3-fem.mp3"," ","","deu","","","",""
"","1040","audio-keyboard-response","205","474873","0.0-3.0-1.159","../audio/57-4-fem.mp3"," ","","uma","","","",""
"","1589","audio-keyboard-response","206","476763","0.0-3.0-1.160","../audio/57-5-fem.mp3"," ","","instrução","","","",""
"","1320","audio-keyboard-response","207","478374","0.0-3.0-1.161","../audio/57-6-fem.mp3"," ","","para","","","",""
"","2440","audio-keyboard-response","208","481104","0.0-3.0-1.162","../audio/57-7-fem.mp3"," ","","as","","","",""
"","1339","audio-keyboard-response","209","482753","0.0-3.0-1.163","../audio/57-8-fem.mp3"," ","","pessoas.","","","",""
"","null","html-keyboard-response","210","484011","0.0-3.0-0.164-0.164","<span style= ""font-size:30px; font-family: monospace"">+</span>","null","fixation","","","","",""
"","2328","audio-keyboard-response","211","486629","0.0-3.0-1.164","../audio/59-1-fem.mp3"," ","","O","","","",""
"","1459","audio-keyboard-response","212","488397","0.0-3.0-1.165","../audio/59-2-fem.mp3"," ","","carteiro","","","",""
"","1120","audio-keyboard-response","213","490096","0.0-3.0-1.166","../audio/59-3-fem.mp3"," ","","fez","","","",""
"","1032","audio-keyboard-response","214","491426","0.0-3.0-1.167","../audio/59-4-fem.mp3"," ","","uma","","","",""
"","1891","audio-keyboard-response","215","493619","0.0-3.0-1.168","../audio/59-5-fem.mp3"," ","","tentativa","","","",""
"","1120","audio-keyboard-response","216","495045","0.0-3.0-1.169","../audio/59-6-fem.mp3"," ","","de","","","",""
"","1352","audio-keyboard-response","217","496705","0.0-3.0-1.170","../audio/59-7-fem.mp3"," ","","entrega.","","","",""
"","null","html-keyboard-response","218","497978","0.0-3.0-0.171-0.171","<span style= ""font-size:30px; font-family: monospace"">+</span>","null","fixation","","","","",""
"","1192","audio-keyboard-response","219","499458","0.0-3.0-1.171","../audio/56-1-fem.mp3"," ","","A","","","",""
"","1152","audio-keyboard-response","220","500897","0.0-3.0-1.172","../audio/56-2-fem.mp3"," ","","moça","","","",""
"","901","audio-keyboard-response","221","502107","0.0-3.0-1.173","../audio/56-3-fem.mp3"," ","","foi","","","",""
"","971","audio-keyboard-response","222","503362","0.0-3.0-1.174","../audio/56-4-fem.mp3"," ","","à","","","",""
"","1429","audio-keyboard-response","223","505091","0.0-3.0-1.175","../audio/56-5-fem.mp3"," ","","agência","","","",""
"","1301","audio-keyboard-response","224","506689","0.0-3.0-1.176","../audio/56-6-fem.mp3"," ","","bancária","","","",""
"","971","audio-keyboard-response","225","507966","0.0-3.0-1.177","../audio/56-7-fem.mp3"," ","","ontem","","","",""
"","1019","audio-keyboard-response","226","509272","0.0-3.0-1.178","../audio/56-8-fem.mp3"," ","","de","","","",""
"","1701","audio-keyboard-response","227","511267","0.0-3.0-1.179","../audio/56-9-fem.mp3"," ","","tarde.","","","",""
"","null","html-keyboard-response","228","512539","0.0-3.0-0.180-0.180","<span style= ""font-size:30px; font-family: monospace"">+</span>","null","fixation","","","","",""
"","1429","audio-keyboard-response","229","514271","0.0-3.0-1.180","../audio/60-1-fem.mp3"," ","","Ondas","","","",""
"","1091","audio-keyboard-response","230","515638","0.0-3.0-1.181","../audio/60-2-fem.mp3"," ","","têm","","","",""
"","1211","audio-keyboard-response","231","517135","0.0-3.0-1.182","../audio/60-3-fem.mp3"," ","","um","","","",""
"","1371","audio-keyboard-response","232","518800","0.0-3.0-1.183","../audio/60-4-fem.mp3"," ","","impacto","","","",""
"","1731","audio-keyboard-response","233","520840","0.0-3.0-1.184","../audio/60-5-fem.mp3"," ","","destrutivo","","","",""
"","1000","audio-keyboard-response","234","522145","0.0-3.0-1.185","../audio/60-6-fem.mp3"," ","","no","","","",""
"","2061","audio-keyboard-response","235","524504","0.0-3.0-1.186","../audio/60-7-fem.mp3"," ","","litoral.","","","",""
"","7402","html-keyboard-response","236","532164","0.0-3.0-2.186-0.186","<span style=""font-size:25px; font-family: monospace"">Ondas têm um impacto destrutivo?</span>","s","","","Ondas têm um impacto destrutivo?","null","exp-sent","false"
"","null","html-keyboard-response","237","533680","0.0-3.0-0.187-0.187","<span style= ""font-size:30px; font-family: monospace"">+</span>","null","fixation","","","","",""
"","989","audio-keyboard-response","238","534963","0.0-3.0-1.187","../audio/69-1-fem.mp3"," ","","A","","","",""
"","1109","audio-keyboard-response","239","536371","0.0-3.0-1.188","../audio/69-2-fem.mp3"," ","","loja","","","",""
"","1192","audio-keyboard-response","240","537867","0.0-3.0-1.189","../audio/69-3-fem.mp3"," ","","recebeu","","","",""
"","891","audio-keyboard-response","241","539049","0.0-3.0-1.190","../audio/69-4-fem.mp3"," ","","uma","","","",""
"","1301","audio-keyboard-response","242","540656","0.0-3.0-1.191","../audio/69-5-fem.mp3"," ","","poltrona","","","",""
"","840","audio-keyboard-response","243","541791","0.0-3.0-1.192","../audio/69-6-fem.mp3"," ","","de","","","",""
"","901","audio-keyboard-response","244","542985","0.0-3.0-1.193","../audio/69-7-fem.mp3"," ","","couro","","","",""
"","1211","audio-keyboard-response","245","544491","0.0-3.0-1.194","../audio/69-8-fem.mp3"," ","","preto.","","","",""
"","null","html-keyboard-response","246","545760","0.0-3.0-0.195-0.195","<span style= ""font-size:30px; font-family: monospace"">+</span>","null","fixation","","","","",""
"","1059","audio-keyboard-response","247","547109","0.0-3.0-1.195","../audio/68-1-fem.mp3"," ","","Meu","","","",""
"","1000","audio-keyboard-response","248","548407","0.0-3.0-1.196","../audio/68-2-fem.mp3"," ","","irmão","","","",""
"","979","audio-keyboard-response","249","549685","0.0-3.0-1.197","../audio/68-3-fem.mp3"," ","","teve","","","",""
"","869","audio-keyboard-response","250","550846","0.0-3.0-1.198","../audio/68-4-fem.mp3"," ","","um","","","",""
"","1709","audio-keyboard-response","251","552849","0.0-3.0-1.199","../audio/68-5-fem.mp3"," ","","noivado","","","",""
"","1629","audio-keyboard-response","252","554771","0.0-3.0-1.200","../audio/68-6-fem.mp3"," ","","longo","","","",""
"","1240","audio-keyboard-response","253","556299","0.0-3.0-1.201","../audio/68-7-fem.mp3"," ","","e","","","",""
"","1989","audio-keyboard-response","254","558601","0.0-3.0-1.202","../audio/68-8-fem.mp3"," ","","maravilhoso.","","","",""
"","null","html-keyboard-response","255","559860","0.0-3.0-0.203-0.203","<span style= ""font-size:30px; font-family: monospace"">+</span>","null","fixation","","","","",""
"","1520","audio-keyboard-response","256","561700","0.0-3.0-1.203","../audio/67-1-fem.mp3"," ","","Minha","","","",""
"","1392","audio-keyboard-response","257","563380","0.0-3.0-1.204","../audio/67-2-fem.mp3"," ","","tia","","","",""
"","1221","audio-keyboard-response","258","565588","0.0-3.0-1.205","../audio/67-3-fem.mp3"," ","","comprou","","","",""
"","1131","audio-keyboard-response","259","567574","0.0-3.0-1.206","../audio/67-4-fem.mp3"," ","","um","","","",""
"","1408","audio-keyboard-response","260","569274","0.0-3.0-1.207","../audio/67-5-fem.mp3"," ","","cordão","","","",""
"","1200","audio-keyboard-response","261","570760","0.0-3.0-1.208","../audio/67-6-fem.mp3"," ","","para","","","",""
"","1211","audio-keyboard-response","262","572249","0.0-3.0-1.209","../audio/67-7-fem.mp3"," ","","o","","","",""
"","1560","audio-keyboard-response","263","574125","0.0-3.0-1.210","../audio/67-8-fem.mp3"," ","","varal.","","","",""
"","null","html-keyboard-response","264","575387","0.0-3.0-0.211-0.211","<span style= ""font-size:30px; font-family: monospace"">+</span>","null","fixation","","","","",""
"","1219","audio-keyboard-response","265","576915","0.0-3.0-1.211","../audio/66-1-fem.mp3"," ","","Não","","","",""
"","1341","audio-keyboard-response","266","578539","0.0-3.0-1.212","../audio/66-2-fem.mp3"," ","","gosto","","","",""
"","781","audio-keyboard-response","267","579613","0.0-3.0-1.213","../audio/66-3-fem.mp3"," ","","de","","","",""
"","1120","audio-keyboard-response","268","581019","0.0-3.0-1.214","../audio/66-4-fem.mp3"," ","","gente","","","",""
"","1440","audio-keyboard-response","269","582762","0.0-3.0-1.215","../audio/66-5-fem.mp3"," ","","egoísta","","","",""
"","1029","audio-keyboard-response","270","584086","0.0-3.0-1.216","../audio/66-6-fem.mp3"," ","","nem","","","",""
"","1389","audio-keyboard-response","271","585771","0.0-3.0-1.217","../audio/66-7-fem.mp3"," ","","chata.","","","",""
"","null","html-keyboard-response","272","587036","0.0-3.0-0.218-0.218","<span style= ""font-size:30px; font-family: monospace"">+</span>","null","fixation","","","","",""
"","1128","audio-keyboard-response","273","588473","0.0-3.0-1.218","../audio/70-1-masc.mp3"," ","","O","","","",""
"","971","audio-keyboard-response","274","589731","0.0-3.0-1.219","../audio/70-2-masc.mp3"," ","","meu","","","",""
"","939","audio-keyboard-response","275","590966","0.0-3.0-1.220","../audio/70-3-masc.mp3"," ","","filho","","","",""
"","869","audio-keyboard-response","276","592127","0.0-3.0-1.221","../audio/70-4-masc.mp3"," ","","tem","","","",""
"","1099","audio-keyboard-response","277","593526","0.0-3.0-1.222","../audio/70-5-masc.mp3"," ","","medo","","","",""
"","739","audio-keyboard-response","278","594559","0.0-3.0-1.223","../audio/70-6-masc.mp3"," ","","de","","","",""
"","1539","audio-keyboard-response","279","596398","0.0-3.0-1.224","../audio/70-7-masc.mp3"," ","","enguia","","","",""
"","939","audio-keyboard-response","280","597631","0.0-3.0-1.225","../audio/70-8-masc.mp3"," ","","e","","","",""
"","1709","audio-keyboard-response","281","599639","0.0-3.0-1.226","../audio/70-9-masc.mp3"," ","","beija-flor.","","","",""
"","6843","html-keyboard-response","282","606741","0.0-3.0-2.226-0.226","<span style=""font-size:25px; font-family: monospace"">O filho tem medo de tigre?</span>","n","","","O filho tem medo de tigre?","null","exp-sent","false"
"","null","html-keyboard-response","283","608255","0.0-3.0-0.227-0.227","<span style= ""font-size:30px; font-family: monospace"">+</span>","null","fixation","","","","",""
"","1651","audio-keyboard-response","284","610225","0.0-3.0-1.227","../audio/33-1-fem.mp3"," ","","Eles","","","",""
"","1219","audio-keyboard-response","285","611752","0.0-3.0-1.228","../audio/33-2-fem.mp3"," ","","sabem","","","",""
"","880","audio-keyboard-response","286","612922","0.0-3.0-1.229","../audio/33-3-fem.mp3"," ","","do","","","",""
"","1600","audio-keyboard-response","287","614813","0.0-3.0-1.230","../audio/33-4-fem.mp3"," ","","seu","","","",""
"","1789","audio-keyboard-response","288","616912","0.0-3.0-1.231","../audio/33-5-fem.mp3"," ","","privilégio","","","",""
"","1579","audio-keyboard-response","289","618804","0.0-3.0-1.232","../audio/33-6-fem.mp3"," ","","nessa","","","",""
"","1459","audio-keyboard-response","290","620562","0.0-3.0-1.233","../audio/33-7-fem.mp3"," ","","confusão.","","","",""
"","null","html-keyboard-response","291","621819","0.0-3.0-0.234-0.234","<span style= ""font-size:30px; font-family: monospace"">+</span>","null","fixation","","","","",""
"","1189","audio-keyboard-response","292","623314","0.0-3.0-1.234","../audio/32-1-fem.mp3"," ","","A","","","",""
"","1040","audio-keyboard-response","293","624637","0.0-3.0-1.235","../audio/32-2-fem.mp3"," ","","tia","","","",""
"","1099","audio-keyboard-response","294","626031","0.0-3.0-1.236","../audio/32-3-fem.mp3"," ","","comprou","","","",""
"","1011","audio-keyboard-response","295","627327","0.0-3.0-1.237","../audio/32-4-fem.mp3"," ","","um","","","",""
"","1072","audio-keyboard-response","296","628705","0.0-3.0-1.238","../audio/32-5-fem.mp3"," ","","pilão","","","",""
"","1160","audio-keyboard-response","297","630423","0.0-3.0-1.239","../audio/32-6-fem.mp3"," ","","para","","","",""
"","1152","audio-keyboard-response","298","631865","0.0-3.0-1.240","../audio/32-7-fem.mp3"," ","","a","","","",""
"","2011","audio-keyboard-response","299","634173","0.0-3.0-1.241","../audio/32-8-fem.mp3"," ","","cozinha.","","","",""
"","null","html-keyboard-response","300","635432","0.0-3.0-0.242-0.242","<span style= ""font-size:30px; font-family: monospace"">+</span>","null","fixation","","","","",""
"","1299","audio-keyboard-response","301","637034","0.0-3.0-1.242","../audio/31-1-masc.mp3"," ","","O","","","",""
"","1240","audio-keyboard-response","302","638563","0.0-3.0-1.243","../audio/31-2-masc.mp3"," ","","padeiro","","","",""
"","1149","audio-keyboard-response","303","640009","0.0-3.0-1.244","../audio/31-3-masc.mp3"," ","","usou","","","",""
"","920","audio-keyboard-response","304","641220","0.0-3.0-1.245","../audio/31-4-masc.mp3"," ","","a","","","",""
"","1029","audio-keyboard-response","305","642559","0.0-3.0-1.246","../audio/31-5-masc.mp3"," ","","balança","","","",""
"","1611","audio-keyboard-response","306","644466","0.0-3.0-1.247","../audio/31-6-masc.mp3"," ","","o","","","",""
"","1381","audio-keyboard-response","307","646134","0.0-3.0-1.248","../audio/31-7-masc.mp3"," ","","dia","","","",""
"","1869","audio-keyboard-response","308","648292","0.0-3.0-1.249","../audio/31-8-masc.mp3"," ","","inteiro.","","","",""
"","null","html-keyboard-response","309","649561","0.0-3.0-0.250-0.250","<span style= ""font-size:30px; font-family: monospace"">+</span>","null","fixation","","","","",""
"","1459","audio-keyboard-response","310","651476","0.0-3.0-1.250","../audio/34-1-fem.mp3"," ","","Cobrança","","","",""
"","1459","audio-keyboard-response","311","653231","0.0-3.0-1.251","../audio/34-2-fem.mp3"," ","","excessiva","","","",""
"","941","audio-keyboard-response","312","654470","0.0-3.0-1.252","../audio/34-3-fem.mp3"," ","","é","","","",""
"","1101","audio-keyboard-response","313","655853","0.0-3.0-1.253","../audio/34-4-fem.mp3"," ","","um","","","",""
"","1099","audio-keyboard-response","314","657249","0.0-3.0-1.254","../audio/34-5-fem.mp3"," ","","fardo","","","",""
"","1429","audio-keyboard-response","315","658961","0.0-3.0-1.255","../audio/34-6-fem.mp3"," ","","para","","","",""
"","1051","audio-keyboard-response","316","660306","0.0-3.0-1.256","../audio/34-7-fem.mp3"," ","","a","","","",""
"","2091","audio-keyboard-response","317","662699","0.0-3.0-1.257","../audio/34-8-fem.mp3"," ","","cabeça.","","","",""
"","null","html-keyboard-response","318","663971","0.0-3.0-0.258-0.258","<span style= ""font-size:30px; font-family: monospace"">+</span>","null","fixation","","","","",""
"","1139","audio-keyboard-response","319","665405","0.0-3.0-1.258","../audio/35-1-fem.mp3"," ","","A","","","",""
"","1499","audio-keyboard-response","320","667201","0.0-3.0-1.259","../audio/35-2-fem.mp3"," ","","receita","","","",""
"","1061","audio-keyboard-response","321","668550","0.0-3.0-1.260","../audio/35-3-fem.mp3"," ","","para","","","",""
"","1120","audio-keyboard-response","322","669952","0.0-3.0-1.261","../audio/35-4-fem.mp3"," ","","a","","","",""
"","1600","audio-keyboard-response","323","671866","0.0-3.0-1.262","../audio/35-5-fem.mp3"," ","","preparação","","","",""
"","1251","audio-keyboard-response","324","673408","0.0-3.0-1.263","../audio/35-6-fem.mp3"," ","","do","","","",""
"","1531","audio-keyboard-response","325","675221","0.0-3.0-1.264","../audio/35-7-fem.mp3"," ","","bolo","","","",""
"","1509","audio-keyboard-response","326","677013","0.0-3.0-1.265","../audio/35-8-fem.mp3"," ","","é","","","",""
"","1691","audio-keyboard-response","327","679001","0.0-3.0-1.266","../audio/35-9-fem.mp3"," ","","leve.","","","",""
"","4621","html-keyboard-response","328","683879","0.0-3.0-2.266-0.266","<span style=""font-size:25px; font-family: monospace"">A receita do bolo é pesada?</span>","n","","","A receita do bolo é pesada?","null","exp-sent","false"
"","null","html-keyboard-response","329","685396","0.0-3.0-0.267-0.267","<span style= ""font-size:30px; font-family: monospace"">+</span>","null","fixation","","","","",""
"","1259","audio-keyboard-response","330","686962","0.0-3.0-1.267","../audio/22-1-masc.mp3"," ","","Eu","","","",""
"","1299","audio-keyboard-response","331","688568","0.0-3.0-1.268","../audio/22-2-masc.mp3"," ","","detesto","","","",""
"","1059","audio-keyboard-response","332","689929","0.0-3.0-1.269","../audio/22-3-masc.mp3"," ","","fumaça","","","",""
"","848","audio-keyboard-response","333","691071","0.0-3.0-1.270","../audio/22-4-masc.mp3"," ","","de","","","",""
"","1059","audio-keyboard-response","334","692445","0.0-3.0-1.271","../audio/22-5-masc.mp3"," ","","cachimbo","","","",""
"","840","audio-keyboard-response","335","693570","0.0-3.0-1.272","../audio/22-6-masc.mp3"," ","","e","","","",""
"","859","audio-keyboard-response","336","694728","0.0-3.0-1.273","../audio/22-7-masc.mp3"," ","","de","","","",""
"","2029","audio-keyboard-response","337","697053","0.0-3.0-1.274","../audio/22-8-masc.mp3"," ","","cigarro.","","","",""
"","null","html-keyboard-response","338","698323","0.0-3.0-0.275-0.275","<span style= ""font-size:30px; font-family: monospace"">+</span>","null","fixation","","","","",""
"","1539","audio-keyboard-response","339","700171","0.0-3.0-1.275","../audio/24-1-masc.mp3"," ","","As","","","",""
"","1019","audio-keyboard-response","340","701486","0.0-3.0-1.276","../audio/24-2-masc.mp3"," ","","crianças","","","",""
"","891","audio-keyboard-response","341","702663","0.0-3.0-1.277","../audio/24-3-masc.mp3"," ","","vão","","","",""
"","821","audio-keyboard-response","342","703774","0.0-3.0-1.278","../audio/24-4-masc.mp3"," ","","ao","","","",""
"","931","audio-keyboard-response","343","705007","0.0-3.0-1.279","../audio/24-5-masc.mp3"," ","","cinema","","","",""
"","1029","audio-keyboard-response","344","706334","0.0-3.0-1.280","../audio/24-6-masc.mp3"," ","","mais","","","",""
"","1139","audio-keyboard-response","345","707764","0.0-3.0-1.281","../audio/24-7-masc.mp3"," ","","tarde.","","","",""
"","null","html-keyboard-response","346","709030","0.0-3.0-0.282-0.282","<span style= ""font-size:30px; font-family: monospace"">+</span>","null","fixation","","","","",""
"","2029","audio-keyboard-response","347","711398","0.0-3.0-1.282","../audio/21-1-fem.mp3"," ","","Precisamos","","","",""
"","1120","audio-keyboard-response","348","712811","0.0-3.0-1.283","../audio/21-2-fem.mp3"," ","","de","","","",""
"","1312","audio-keyboard-response","349","714423","0.0-3.0-1.284","../audio/21-3-fem.mp3"," ","","paciência","","","",""
"","1261","audio-keyboard-response","350","715981","0.0-3.0-1.285","../audio/21-4-fem.mp3"," ","","e","","","",""
"","1229","audio-keyboard-response","351","717512","0.0-3.0-1.286","../audio/21-5-fem.mp3"," ","","bondade","","","",""
"","1141","audio-keyboard-response","352","718942","0.0-3.0-1.287","../audio/21-6-fem.mp3"," ","","para","","","",""
"","1141","audio-keyboard-response","353","720378","0.0-3.0-1.288","../audio/21-7-fem.mp3"," ","","um","","","",""
"","1579","audio-keyboard-response","354","722249","0.0-3.0-1.289","../audio/21-8-fem.mp3"," ","","mundo","","","",""
"","1568","audio-keyboard-response","355","724118","0.0-3.0-1.290","../audio/21-9-fem.mp3"," ","","melhor.","","","",""
"","null","html-keyboard-response","356","725383","0.0-3.0-0.291-0.291","<span style= ""font-size:30px; font-family: monospace"">+</span>","null","fixation","","","","",""
"","1440","audio-keyboard-response","357","727137","0.0-3.0-1.291","../audio/23-1-fem.mp3"," ","","Português","","","",""
"","1128","audio-keyboard-response","358","728553","0.0-3.0-1.292","../audio/23-2-fem.mp3"," ","","é","","","",""
"","1600","audio-keyboard-response","359","730452","0.0-3.0-1.293","../audio/23-3-fem.mp3"," ","","um","","","",""
"","1232","audio-keyboard-response","360","731988","0.0-3.0-1.294","../audio/23-4-fem.mp3"," ","","assunto","","","",""
"","1659","audio-keyboard-response","361","734232","0.0-3.0-1.295","../audio/23-5-fem.mp3"," ","","elementar","","","",""
"","1011","audio-keyboard-response","362","735550","0.0-3.0-1.296","../audio/23-6-fem.mp3"," ","","para","","","",""
"","1069","audio-keyboard-response","363","736912","0.0-3.0-1.297","../audio/23-7-fem.mp3"," ","","os","","","",""
"","1539","audio-keyboard-response","364","738752","0.0-3.0-1.298","../audio/23-8-fem.mp3"," ","","alunos.","","","",""
"","null","html-keyboard-response","365","740015","0.0-3.0-0.299-0.299","<span style= ""font-size:30px; font-family: monospace"">+</span>","null","fixation","","","","",""
"","1040","audio-keyboard-response","366","741354","0.0-3.0-1.299","../audio/25-1-masc.mp3"," ","","Ela","","","",""
"","1061","audio-keyboard-response","367","742707","0.0-3.0-1.300","../audio/25-2-masc.mp3"," ","","faz","","","",""
"","901","audio-keyboard-response","368","743894","0.0-3.0-1.301","../audio/25-3-masc.mp3"," ","","tanto","","","",""
"","960","audio-keyboard-response","369","745152","0.0-3.0-1.302","../audio/25-4-masc.mp3"," ","","cabelo","","","",""
"","989","audio-keyboard-response","370","746435","0.0-3.0-1.303","../audio/25-5-masc.mp3"," ","","liso","","","",""
"","1000","audio-keyboard-response","371","747730","0.0-3.0-1.304","../audio/25-6-masc.mp3"," ","","quanto","","","",""
"","1240","audio-keyboard-response","372","749267","0.0-3.0-1.305","../audio/25-7-masc.mp3"," ","","cacheado.","","","",""
"","22156","html-keyboard-response","373","771676","0.0-3.0-2.305-0.305","<span style=""font-size:25px; font-family: monospace"">Ela só faz cabelo cacheado?</span>","n","","","Ela só faz cabelo cacheado?","null","exp-sent","false"
"","null","html-keyboard-response","374","773184","0.0-3.0-0.306-0.306","<span style= ""font-size:30px; font-family: monospace"">+</span>","null","fixation","","","","",""
"","1691","audio-keyboard-response","375","775191","0.0-3.0-1.306","../audio/12-1-masc.mp3"," ","","O","","","",""
"","1112","audio-keyboard-response","376","776587","0.0-3.0-1.307","../audio/12-2-masc.mp3"," ","","dia","","","",""
"","880","audio-keyboard-response","377","777762","0.0-3.0-1.308","../audio/12-3-masc.mp3"," ","","estava","","","",""
"","1029","audio-keyboard-response","378","779091","0.0-3.0-1.309","../audio/12-4-masc.mp3"," ","","quente,","","","",""
"","1320","audio-keyboard-response","379","780702","0.0-3.0-1.310","../audio/12-5-masc.mp3"," ","","tranquilo","","","",""
"","928","audio-keyboard-response","380","781913","0.0-3.0-1.311","../audio/12-6-masc.mp3"," ","","e","","","",""
"","1379","audio-keyboard-response","381","783596","0.0-3.0-1.312","../audio/12-7-masc.mp3"," ","","ensolarado.","","","",""
"","null","html-keyboard-response","382","784862","0.0-3.0-0.313-0.313","<span style= ""font-size:30px; font-family: monospace"">+</span>","null","fixation","","","","",""
"","1131","audio-keyboard-response","383","786290","0.0-3.0-1.313","../audio/13-1-fem.mp3"," ","","Para","","","",""
"","1059","audio-keyboard-response","384","787632","0.0-3.0-1.314","../audio/13-2-fem.mp3"," ","","mim","","","",""
"","800","audio-keyboard-response","385","788731","0.0-3.0-1.315","../audio/13-3-fem.mp3"," ","","é","","","",""
"","1008","audio-keyboard-response","386","790040","0.0-3.0-1.316","../audio/13-4-fem.mp3"," ","","muito","","","",""
"","1109","audio-keyboard-response","387","791443","0.0-3.0-1.317","../audio/13-5-fem.mp3"," ","","difícil","","","",""
"","1139","audio-keyboard-response","388","792885","0.0-3.0-1.318","../audio/13-6-fem.mp3"," ","","acordar","","","",""
"","1200","audio-keyboard-response","389","794375","0.0-3.0-1.319","../audio/13-7-fem.mp3"," ","","cedo.","","","",""
"","null","html-keyboard-response","390","795635","0.0-3.0-0.320-0.320","<span style= ""font-size:30px; font-family: monospace"">+</span>","null","fixation","","","","",""
"","1949","audio-keyboard-response","391","797880","0.0-3.0-1.320","../audio/14-1-fem.mp3"," ","","O","","","",""
"","1160","audio-keyboard-response","392","799344","0.0-3.0-1.321","../audio/14-2-fem.mp3"," ","","cachorro","","","",""
"","819","audio-keyboard-response","393","800445","0.0-3.0-1.322","../audio/14-3-fem.mp3"," ","","é","","","",""
"","829","audio-keyboard-response","394","801570","0.0-3.0-1.323","../audio/14-4-fem.mp3"," ","","muito","","","",""
"","949","audio-keyboard-response","395","802820","0.0-3.0-1.324","../audio/14-5-fem.mp3"," ","","fiel","","","",""
"","680","audio-keyboard-response","396","803791","0.0-3.0-1.325","../audio/14-6-fem.mp3"," ","","a","","","",""
"","1219","audio-keyboard-response","397","805312","0.0-3.0-1.326","../audio/14-7-fem.mp3"," ","","seus","","","",""
"","1029","audio-keyboard-response","398","806632","0.0-3.0-1.327","../audio/14-8-fem.mp3"," ","","donos.","","","",""
"","null","html-keyboard-response","399","807892","0.0-3.0-0.328-0.328","<span style= ""font-size:30px; font-family: monospace"">+</span>","null","fixation","","","","",""
"","1000","audio-keyboard-response","400","809193","0.0-3.0-1.328","../audio/11-1-masc.mp3"," ","","Elas","","","",""
"","989","audio-keyboard-response","401","810479","0.0-3.0-1.329","../audio/11-2-masc.mp3"," ","","gostam","","","",""
"","941","audio-keyboard-response","402","811707","0.0-3.0-1.330","../audio/11-3-masc.mp3"," ","","muito","","","",""
"","781","audio-keyboard-response","403","812776","0.0-3.0-1.331","../audio/11-4-masc.mp3"," ","","de","","","",""
"","1680","audio-keyboard-response","404","814765","0.0-3.0-1.332","../audio/11-5-masc.mp3"," ","","aritmética","","","",""
"","869","audio-keyboard-response","405","816128","0.0-3.0-1.333","../audio/11-6-masc.mp3"," ","","e","","","",""
"","811","audio-keyboard-response","406","817228","0.0-3.0-1.334","../audio/11-7-masc.mp3"," ","","de","","","",""
"","1840","audio-keyboard-response","407","819364","0.0-3.0-1.335","../audio/11-8-masc.mp3"," ","","leitura.","","","",""
"","null","html-keyboard-response","408","820623","0.0-3.0-0.336-0.336","<span style= ""font-size:30px; font-family: monospace"">+</span>","null","fixation","","","","",""
"","909","audio-keyboard-response","409","821836","0.0-3.0-1.336","../audio/15-1-fem.mp3"," ","","Meu","","","",""
"","960","audio-keyboard-response","410","823083","0.0-3.0-1.337","../audio/15-2-fem.mp3"," ","","primo","","","",""
"","829","audio-keyboard-response","411","824206","0.0-3.0-1.338","../audio/15-3-fem.mp3"," ","","é","","","",""
"","869","audio-keyboard-response","412","825364","0.0-3.0-1.339","../audio/15-4-fem.mp3"," ","","um","","","",""
"","1149","audio-keyboard-response","413","826820","0.0-3.0-1.340","../audio/15-5-fem.mp3"," ","","grande","","","",""
"","1480","audio-keyboard-response","414","828600","0.0-3.0-1.341","../audio/15-6-fem.mp3"," ","","vendedor","","","",""
"","1160","audio-keyboard-response","415","830044","0.0-3.0-1.342","../audio/15-7-fem.mp3"," ","","de","","","",""
"","2800","audio-keyboard-response","416","833153","0.0-3.0-1.343","../audio/15-8-fem.mp3"," ","","carros.","","","",""
"","4584","html-keyboard-response","417","837999","0.0-3.0-2.343-0.343","<span style=""font-size:25px; font-family: monospace"">O primo é um vendedor de carros?</span>","s","","","O primo é um vendedor de carros?","null","exp-sent","false"
"","null","html-keyboard-response","418","839514","0.0-3.0-0.344-0.344","<span style= ""font-size:30px; font-family: monospace"">+</span>","null","fixation","","","","",""
"","1128","audio-keyboard-response","419","840956","0.0-3.0-1.344","../audio/36-1-fem.mp3"," ","","Meu","","","",""
"","1600","audio-keyboard-response","420","842850","0.0-3.0-1.345","../audio/36-2-fem.mp3"," ","","tio","","","",""
"","1400","audio-keyboard-response","421","844547","0.0-3.0-1.346","../audio/36-3-fem.mp3"," ","","comprou","","","",""
"","752","audio-keyboard-response","422","845585","0.0-3.0-1.347","../audio/36-4-fem.mp3"," ","","um","","","",""
"","1120","audio-keyboard-response","423","847010","0.0-3.0-1.348","../audio/36-5-fem.mp3"," ","","filtro","","","",""
"","749","audio-keyboard-response","424","848055","0.0-3.0-1.349","../audio/36-6-fem.mp3"," ","","de","","","",""
"","1219","audio-keyboard-response","425","849572","0.0-3.0-1.350","../audio/36-7-fem.mp3"," ","","água","","","",""
"","3120","audio-keyboard-response","426","852991","0.0-3.0-1.351","../audio/36-8-fem.mp3"," ","","hoje","","","",""
"","1571","audio-keyboard-response","427","854858","0.0-3.0-1.352","../audio/36-9-fem.mp3"," ","","cedo.","","","",""
"","null","html-keyboard-response","428","856124","0.0-3.0-0.353-0.353","<span style= ""font-size:30px; font-family: monospace"">+</span>","null","fixation","","","","",""
"","5019","audio-keyboard-response","429","861434","0.0-3.0-1.353","../audio/39-1-fem.mp3"," ","","O","","","",""
"","1619","audio-keyboard-response","430","863359","0.0-3.0-1.354","../audio/39-2-fem.mp3"," ","","conselho","","","",""
"","901","audio-keyboard-response","431","864550","0.0-3.0-1.355","../audio/39-3-fem.mp3"," ","","foi","","","",""
"","1219","audio-keyboard-response","432","866074","0.0-3.0-1.356","../audio/39-4-fem.mp3"," ","","muito","","","",""
"","1051","audio-keyboard-response","433","867416","0.0-3.0-1.357","../audio/39-5-fem.mp3"," ","","útil","","","",""
"","920","audio-keyboard-response","434","868632","0.0-3.0-1.358","../audio/39-6-fem.mp3"," ","","para","","","",""
"","1389","audio-keyboard-response","435","870313","0.0-3.0-1.359","../audio/39-7-fem.mp3"," ","","minha","","","",""
"","1349","audio-keyboard-response","436","871954","0.0-3.0-1.360","../audio/39-8-fem.mp3"," ","","tia.","","","",""
"","null","html-keyboard-response","437","873214","0.0-3.0-0.361-0.361","<span style= ""font-size:30px; font-family: monospace"">+</span>","null","fixation","","","","",""
"","800","audio-keyboard-response","438","874307","0.0-3.0-1.361","../audio/38-1-masc.mp3"," ","","A","","","",""
"","5261","audio-keyboard-response","439","879862","0.0-3.0-1.362","../audio/38-2-masc.mp3"," ","","empresa","","","",""
"","1261","audio-keyboard-response","440","881431","0.0-3.0-1.363","../audio/38-3-masc.mp3"," ","","criou","","","",""
"","1280","audio-keyboard-response","441","882997","0.0-3.0-1.364","../audio/38-4-masc.mp3"," ","","a","","","",""
"","1200","audio-keyboard-response","442","884507","0.0-3.0-1.365","../audio/38-5-masc.mp3"," ","","patente","","","",""
"","1029","audio-keyboard-response","443","885838","0.0-3.0-1.366","../audio/38-6-masc.mp3"," ","","da","","","",""
"","1680","audio-keyboard-response","444","887815","0.0-3.0-1.367","../audio/38-7-masc.mp3"," ","","frigideira.","","","",""
"","null","html-keyboard-response","445","889076","0.0-3.0-0.368-0.368","<span style= ""font-size:30px; font-family: monospace"">+</span>","null","fixation","","","","",""
"","1000","audio-keyboard-response","446","890379","0.0-3.0-1.368","../audio/37-1-masc.mp3"," ","","Eu","","","",""
"","1501","audio-keyboard-response","447","892181","0.0-3.0-1.369","../audio/37-2-masc.mp3"," ","","adoro","","","",""
"","1160","audio-keyboard-response","448","893625","0.0-3.0-1.370","../audio/37-3-masc.mp3"," ","","suco","","","",""
"","1101","audio-keyboard-response","449","895019","0.0-3.0-1.371","../audio/37-4-masc.mp3"," ","","de","","","",""
"","1048","audio-keyboard-response","450","896357","0.0-3.0-1.372","../audio/37-5-masc.mp3"," ","","manga","","","",""
"","840","audio-keyboard-response","451","897491","0.0-3.0-1.373","../audio/37-6-masc.mp3"," ","","com","","","",""
"","1459","audio-keyboard-response","452","899247","0.0-3.0-1.374","../audio/37-7-masc.mp3"," ","","hortelã.","","","",""
"","null","html-keyboard-response","453","900516","0.0-3.0-0.375-0.375","<span style= ""font-size:30px; font-family: monospace"">+</span>","null","fixation","","","","",""
"","1099","audio-keyboard-response","454","901925","0.0-3.0-1.375","../audio/40-1-fem.mp3"," ","","O","","","",""
"","1059","audio-keyboard-response","455","903283","0.0-3.0-1.376","../audio/40-2-fem.mp3"," ","","jogo","","","",""
"","1328","audio-keyboard-response","456","904919","0.0-3.0-1.377","../audio/40-3-fem.mp3"," ","","falava","","","",""
"","1141","audio-keyboard-response","457","906344","0.0-3.0-1.378","../audio/40-4-fem.mp3"," ","","de","","","",""
"","2120","audio-keyboard-response","458","908769","0.0-3.0-1.379","../audio/40-5-fem.mp3"," ","","fantasia","","","",""
"","1189","audio-keyboard-response","459","910281","0.0-3.0-1.380","../audio/40-6-fem.mp3"," ","","e","","","",""
"","1160","audio-keyboard-response","460","911725","0.0-3.0-1.381","../audio/40-7-fem.mp3"," ","","de","","","",""
"","5240","audio-keyboard-response","461","917271","0.0-3.0-1.382","../audio/40-8-fem.mp3"," ","","aventura.","","","",""
"","6914","html-keyboard-response","462","924436","0.0-3.0-2.382-0.382","<span style=""font-size:25px; font-family: monospace"">O jogo tinha fantasia e aventura?</span>","s","","","O jogo tinha fantasia e aventura?","null","exp-sent","false"
"","null","html-keyboard-response","463","925944","0.0-3.0-0.383-0.383","<span style= ""font-size:30px; font-family: monospace"">+</span>","null","fixation","","","","",""
"","1040","audio-keyboard-response","464","927285","0.0-3.0-1.383","../audio/42-1-masc.mp3"," ","","Eu","","","",""
"","909","audio-keyboard-response","465","928485","0.0-3.0-1.384","../audio/42-2-masc.mp3"," ","","fui","","","",""
"","811","audio-keyboard-response","466","929591","0.0-3.0-1.385","../audio/42-3-masc.mp3"," ","","a","","","",""
"","880","audio-keyboard-response","467","930762","0.0-3.0-1.386","../audio/42-4-masc.mp3"," ","","uma","","","",""
"","1069","audio-keyboard-response","468","932119","0.0-3.0-1.387","../audio/42-5-masc.mp3"," ","","loja","","","",""
"","960","audio-keyboard-response","469","933372","0.0-3.0-1.388","../audio/42-6-masc.mp3"," ","","de","","","",""
"","2381","audio-keyboard-response","470","936059","0.0-3.0-1.389","../audio/42-7-masc.mp3"," ","","móveis","","","",""
"","1181","audio-keyboard-response","471","937539","0.0-3.0-1.390","../audio/42-8-masc.mp3"," ","","no","","","",""
"","1189","audio-keyboard-response","472","939017","0.0-3.0-1.391","../audio/42-9-masc.mp3"," ","","bairro.","","","",""
"","null","html-keyboard-response","473","940280","0.0-3.0-0.392-0.392","<span style= ""font-size:30px; font-family: monospace"">+</span>","null","fixation","","","","",""
"","899","audio-keyboard-response","474","941488","0.0-3.0-1.392","../audio/43-1-masc.mp3"," ","","Eu","","","",""
"","1000","audio-keyboard-response","475","942779","0.0-3.0-1.393","../audio/43-2-masc.mp3"," ","","achei","","","",""
"","1339","audio-keyboard-response","476","944404","0.0-3.0-1.394","../audio/43-3-masc.mp3"," ","","um","","","",""
"","1029","audio-keyboard-response","477","945736","0.0-3.0-1.395","../audio/43-4-masc.mp3"," ","","colchão","","","",""
"","1109","audio-keyboard-response","478","947137","0.0-3.0-1.396","../audio/43-5-masc.mp3"," ","","velho","","","",""
"","680","audio-keyboard-response","479","948772","0.0-3.0-1.397","../audio/43-6-masc.mp3"," ","","e","","","",""
"","2128","audio-keyboard-response","480","951195","0.0-3.0-1.398","../audio/43-7-masc.mp3"," ","","imundo","","","",""
"","1171","audio-keyboard-response","481","952669","0.0-3.0-1.399","../audio/43-8-masc.mp3"," ","","na","","","",""
"","1480","audio-keyboard-response","482","954435","0.0-3.0-1.400","../audio/43-9-masc.mp3"," ","","casa.","","","",""
"","null","html-keyboard-response","483","955698","0.0-3.0-0.401-0.401","<span style= ""font-size:30px; font-family: monospace"">+</span>","null","fixation","","","","",""
"","1221","audio-keyboard-response","484","957230","0.0-3.0-1.401","../audio/44-1-masc.mp3"," ","","Meus","","","",""
"","1072","audio-keyboard-response","485","958584","0.0-3.0-1.402","../audio/44-2-masc.mp3"," ","","irmãos","","","",""
"","1101","audio-keyboard-response","486","959979","0.0-3.0-1.403","../audio/44-3-masc.mp3"," ","","brigam","","","",""
"","931","audio-keyboard-response","487","961209","0.0-3.0-1.404","../audio/44-4-masc.mp3"," ","","por","","","",""
"","1168","audio-keyboard-response","488","962674","0.0-3.0-1.405","../audio/44-5-masc.mp3"," ","","bobagem","","","",""
"","1000","audio-keyboard-response","489","963963","0.0-3.0-1.406","../audio/44-6-masc.mp3"," ","","todos","","","",""
"","1019","audio-keyboard-response","490","965275","0.0-3.0-1.407","../audio/44-7-masc.mp3"," ","","os","","","",""
"","1389","audio-keyboard-response","491","966955","0.0-3.0-1.408","../audio/44-8-masc.mp3"," ","","dias.","","","",""
"","null","html-keyboard-response","492","968213","0.0-3.0-0.409-0.409","<span style= ""font-size:30px; font-family: monospace"">+</span>","null","fixation","","","","",""
"","979","audio-keyboard-response","493","969528","0.0-3.0-1.409","../audio/41-1-masc.mp3"," ","","A","","","",""
"","1149","audio-keyboard-response","494","970980","0.0-3.0-1.410","../audio/41-2-masc.mp3"," ","","novela","","","",""
"","992","audio-keyboard-response","495","972270","0.0-3.0-1.411","../audio/41-3-masc.mp3"," ","","falava","","","",""
"","971","audio-keyboard-response","496","973527","0.0-3.0-1.412","../audio/41-4-masc.mp3"," ","","de","","","",""
"","1211","audio-keyboard-response","497","975029","0.0-3.0-1.413","../audio/41-5-masc.mp3"," ","","paixão","","","",""
"","851","audio-keyboard-response","498","976162","0.0-3.0-1.414","../audio/41-6-masc.mp3"," ","","e","","","",""
"","1600","audio-keyboard-response","499","978051","0.0-3.0-1.415","../audio/41-7-masc.mp3"," ","","comédia.","","","",""
"","null","html-keyboard-response","500","979313","0.0-3.0-0.416-0.416","<span style= ""font-size:30px; font-family: monospace"">+</span>","null","fixation","","","","",""
"","869","audio-keyboard-response","501","980473","0.0-3.0-1.416","../audio/45-1-fem.mp3"," ","","O","","","",""
"","1051","audio-keyboard-response","502","981817","0.0-3.0-1.417","../audio/45-2-fem.mp3"," ","","homem","","","",""
"","1560","audio-keyboard-response","503","983661","0.0-3.0-1.418","../audio/45-3-fem.mp3"," ","","pagou","","","",""
"","1181","audio-keyboard-response","504","985132","0.0-3.0-1.419","../audio/45-4-fem.mp3"," ","","o","","","",""
"","1920","audio-keyboard-response","505","987345","0.0-3.0-1.420","../audio/45-5-fem.mp3"," ","","aluguel","","","",""
"","1240","audio-keyboard-response","506","988889","0.0-3.0-1.421","../audio/45-6-fem.mp3"," ","","com","","","",""
"","1800","audio-keyboard-response","507","990984","0.0-3.0-1.422","../audio/45-7-fem.mp3"," ","","atraso.","","","",""
"","7320","html-keyboard-response","508","998568","0.0-3.0-2.422-0.422","<span style=""font-size:25px; font-family: monospace"">O homem pagou o aluguel em dia?</span>","n","","","O homem pagou o aluguel em dia?","null","exp-sent","false"
"","null","html-keyboard-response","509","1000076","0.0-3.0-0.423-0.423","<span style= ""font-size:30px; font-family: monospace"">+</span>","null","fixation","","","","",""
"","1080","audio-keyboard-response","510","1001461","0.0-3.0-1.423","../audio/08-1-masc.mp3"," ","","A","","","",""
"","1131","audio-keyboard-response","511","1002888","0.0-3.0-1.424","../audio/08-2-masc.mp3"," ","","receita","","","",""
"","1051","audio-keyboard-response","512","1004346","0.0-3.0-1.425","../audio/08-3-masc.mp3"," ","","pede","","","",""
"","1080","audio-keyboard-response","513","1005707","0.0-3.0-1.426","../audio/08-4-masc.mp3"," ","","um","","","",""
"","1261","audio-keyboard-response","514","1007256","0.0-3.0-1.427","../audio/08-5-masc.mp3"," ","","litro","","","",""
"","1149","audio-keyboard-response","515","1008694","0.0-3.0-1.428","../audio/08-6-masc.mp3"," ","","de","","","",""
"","1419","audio-keyboard-response","516","1010406","0.0-3.0-1.429","../audio/08-7-masc.mp3"," ","","leite","","","",""
"","3051","audio-keyboard-response","517","1013747","0.0-3.0-1.430","../audio/08-8-masc.mp3"," ","","integral.","","","",""
"","null","html-keyboard-response","518","1015006","0.0-3.0-0.431-0.431","<span style= ""font-size:30px; font-family: monospace"">+</span>","null","fixation","","","","",""
"","1219","audio-keyboard-response","519","1016533","0.0-3.0-1.431","../audio/06-1-fem.mp3"," ","","Ouvimos","","","",""
"","1099","audio-keyboard-response","520","1017919","0.0-3.0-1.432","../audio/06-2-fem.mp3"," ","","a","","","",""
"","1080","audio-keyboard-response","521","1019295","0.0-3.0-1.433","../audio/06-3-fem.mp3"," ","","fala","","","",""
"","1560","audio-keyboard-response","522","1021148","0.0-3.0-1.434","../audio/06-4-fem.mp3"," ","","do","","","",""
"","1581","audio-keyboard-response","523","1023031","0.0-3.0-1.435","../audio/06-5-fem.mp3"," ","","profeta","","","",""
"","1680","audio-keyboard-response","524","1025010","0.0-3.0-1.436","../audio/06-6-fem.mp3"," ","","no","","","",""
"","1499","audio-keyboard-response","525","1026797","0.0-3.0-1.437","../audio/06-7-fem.mp3"," ","","púlpito","","","",""
"","1320","audio-keyboard-response","526","1028409","0.0-3.0-1.438","../audio/06-8-fem.mp3"," ","","da","","","",""
"","3069","audio-keyboard-response","527","1031782","0.0-3.0-1.439","../audio/06-9-fem.mp3"," ","","igreja.","","","",""
"","null","html-keyboard-response","528","1033040","0.0-3.0-0.440-0.440","<span style= ""font-size:30px; font-family: monospace"">+</span>","null","fixation","","","","",""
"","1179","audio-keyboard-response","529","1034520","0.0-3.0-1.440","../audio/07-1-fem.mp3"," ","","Meu","","","",""
"","1051","audio-keyboard-response","530","1035862","0.0-3.0-1.441","../audio/07-2-fem.mp3"," ","","filho","","","",""
"","848","audio-keyboard-response","531","1037000","0.0-3.0-1.442","../audio/07-3-fem.mp3"," ","","é","","","",""
"","1101","audio-keyboard-response","532","1038393","0.0-3.0-1.443","../audio/07-4-fem.mp3"," ","","muito","","","",""
"","3251","audio-keyboard-response","533","1041955","0.0-3.0-1.444","../audio/07-5-fem.mp3"," ","","responsável","","","",""
"","949","audio-keyboard-response","534","1043196","0.0-3.0-1.445","../audio/07-6-fem.mp3"," ","","nos","","","",""
"","1320","audio-keyboard-response","535","1044819","0.0-3.0-1.446","../audio/07-7-fem.mp3"," ","","estudos.","","","",""
"","null","html-keyboard-response","536","1046077","0.0-3.0-0.447-0.447","<span style= ""font-size:30px; font-family: monospace"">+</span>","null","fixation","","","","",""
"","819","audio-keyboard-response","537","1047200","0.0-3.0-1.447","../audio/09-1-fem.mp3"," ","","O","","","",""
"","1160","audio-keyboard-response","538","1048752","0.0-3.0-1.448","../audio/09-2-fem.mp3"," ","","rapaz","","","",""
"","1312","audio-keyboard-response","539","1050349","0.0-3.0-1.449","../audio/09-3-fem.mp3"," ","","limpou","","","",""
"","2341","audio-keyboard-response","540","1052985","0.0-3.0-1.450","../audio/09-4-fem.mp3"," ","","o","","","",""
"","1200","audio-keyboard-response","541","1054487","0.0-3.0-1.451","../audio/09-5-fem.mp3"," ","","terreno","","","",""
"","1051","audio-keyboard-response","542","1055817","0.0-3.0-1.452","../audio/09-6-fem.mp3"," ","","com","","","",""
"","1008","audio-keyboard-response","543","1057116","0.0-3.0-1.453","../audio/09-7-fem.mp3"," ","","uma","","","",""
"","971","audio-keyboard-response","544","1058372","0.0-3.0-1.454","../audio/09-8-fem.mp3"," ","","pá.","","","",""
"","null","html-keyboard-response","545","1059636","0.0-3.0-0.455-0.455","<span style= ""font-size:30px; font-family: monospace"">+</span>","null","fixation","","","","",""
"","971","audio-keyboard-response","546","1060908","0.0-3.0-1.455","../audio/10-1-masc.mp3"," ","","O","","","",""
"","1141","audio-keyboard-response","547","1062345","0.0-3.0-1.456","../audio/10-2-masc.mp3"," ","","pássaro","","","",""
"","1509","audio-keyboard-response","548","1064138","0.0-3.0-1.457","../audio/10-3-masc.mp3"," ","","azul","","","",""
"","1459","audio-keyboard-response","549","1065887","0.0-3.0-1.458","../audio/10-4-masc.mp3"," ","","estava","","","",""
"","971","audio-keyboard-response","550","1067150","0.0-3.0-1.459","../audio/10-5-masc.mp3"," ","","vivo","","","",""
"","701","audio-keyboard-response","551","1068140","0.0-3.0-1.460","../audio/10-6-masc.mp3"," ","","e","","","",""
"","928","audio-keyboard-response","552","1069359","0.0-3.0-1.461","../audio/10-7-masc.mp3"," ","","em","","","",""
"","1920","audio-keyboard-response","553","1071582","0.0-3.0-1.462","../audio/10-8-masc.mp3"," ","","segurança.","","","",""
"","33142","html-keyboard-response","554","1104991","0.0-3.0-2.462-0.462","<span style=""font-size:25px; font-family: monospace"">O pássaro vermelho estava em segurança?</span>","s","","","O pássaro vermelho estava em segurança?","null","exp-sent","false"
"","null","html-keyboard-response","555","1106498","0.0-3.0-0.463-0.463","<span style= ""font-size:30px; font-family: monospace"">+</span>","null","fixation","","","","",""
"","1811","audio-keyboard-response","556","1108779","0.0-3.0-1.463","../audio/29-1-masc.mp3"," ","","Hoje","","","",""
"","1011","audio-keyboard-response","557","1110092","0.0-3.0-1.464","../audio/29-2-masc.mp3"," ","","vamos","","","",""
"","869","audio-keyboard-response","558","1111249","0.0-3.0-1.465","../audio/29-3-masc.mp3"," ","","fazer","","","",""
"","680","audio-keyboard-response","559","1112229","0.0-3.0-1.466","../audio/29-4-masc.mp3"," ","","uma","","","",""
"","1731","audio-keyboard-response","560","1114262","0.0-3.0-1.467","../audio/29-5-masc.mp3"," ","","atividade","","","",""
"","1021","audio-keyboard-response","561","1115582","0.0-3.0-1.468","../audio/29-6-masc.mp3"," ","","sobre","","","",""
"","1032","audio-keyboard-response","562","1116903","0.0-3.0-1.469","../audio/29-7-masc.mp3"," ","","fauna","","","",""
"","1469","audio-keyboard-response","563","1118784","0.0-3.0-1.470","../audio/29-8-masc.mp3"," ","","marinha.","","","",""
"","null","html-keyboard-response","564","1120043","0.0-3.0-0.471-0.471","<span style= ""font-size:30px; font-family: monospace"">+</span>","null","fixation","","","","",""
"","6208","audio-keyboard-response","565","1126551","0.0-3.0-1.471","../audio/28-1-fem.mp3"," ","","O","","","",""
"","6459","audio-keyboard-response","566","1133314","0.0-3.0-1.472","../audio/28-2-fem.mp3"," ","","time","","","",""
"","1219","audio-keyboard-response","567","1134836","0.0-3.0-1.473","../audio/28-3-fem.mp3"," ","","quer","","","",""
"","699","audio-keyboard-response","568","1135832","0.0-3.0-1.474","../audio/28-4-fem.mp3"," ","","a","","","",""
"","1499","audio-keyboard-response","569","1137637","0.0-3.0-1.475","../audio/28-5-fem.mp3"," ","","vitória","","","",""
"","891","audio-keyboard-response","570","1138820","0.0-3.0-1.476","../audio/28-6-fem.mp3"," ","","no","","","",""
"","981","audio-keyboard-response","571","1140099","0.0-3.0-1.477","../audio/28-7-fem.mp3"," ","","jogo","","","",""
"","941","audio-keyboard-response","572","1141332","0.0-3.0-1.478","../audio/28-8-fem.mp3"," ","","de","","","",""
"","1629","audio-keyboard-response","573","1143248","0.0-3.0-1.479","../audio/28-9-fem.mp3"," ","","vôlei.","","","",""
"","null","html-keyboard-response","574","1144514","0.0-3.0-0.480-0.480","<span style= ""font-size:30px; font-family: monospace"">+</span>","null","fixation","","","","",""
"","699","audio-keyboard-response","575","1145504","0.0-3.0-1.480","../audio/27-1-masc.mp3"," ","","O","","","",""
"","1232","audio-keyboard-response","576","1147055","0.0-3.0-1.481","../audio/27-2-masc.mp3"," ","","dinheiro","","","",""
"","1211","audio-keyboard-response","577","1148557","0.0-3.0-1.482","../audio/27-3-masc.mp3"," ","","chegou","","","",""
"","1299","audio-keyboard-response","578","1150146","0.0-3.0-1.483","../audio/27-4-masc.mp3"," ","","à","","","",""
"","1200","audio-keyboard-response","579","1151646","0.0-3.0-1.484","../audio/27-5-masc.mp3"," ","","elite","","","",""
"","1419","audio-keyboard-response","580","1153346","0.0-3.0-1.485","../audio/27-6-masc.mp3"," ","","deste","","","",""
"","2061","audio-keyboard-response","581","1155696","0.0-3.0-1.486","../audio/27-7-masc.mp3"," ","","país.","","","",""
"","null","html-keyboard-response","582","1156964","0.0-3.0-0.487-0.487","<span style= ""font-size:30px; font-family: monospace"">+</span>","null","fixation","","","","",""
"","1400","audio-keyboard-response","583","1158669","0.0-3.0-1.487","../audio/26-1-masc.mp3"," ","","Amanhã","","","",""
"","1000","audio-keyboard-response","584","1159960","0.0-3.0-1.488","../audio/26-2-masc.mp3"," ","","temos","","","",""
"","899","audio-keyboard-response","585","1161145","0.0-3.0-1.489","../audio/26-3-masc.mp3"," ","","festa","","","",""
"","981","audio-keyboard-response","586","1162422","0.0-3.0-1.490","../audio/26-4-masc.mp3"," ","","na","","","",""
"","1091","audio-keyboard-response","587","1163809","0.0-3.0-1.491","../audio/26-5-masc.mp3"," ","","piscina","","","",""
"","869","audio-keyboard-response","588","1164966","0.0-3.0-1.492","../audio/26-6-masc.mp3"," ","","o","","","",""
"","920","audio-keyboard-response","589","1166178","0.0-3.0-1.493","../audio/26-7-masc.mp3"," ","","dia","","","",""
"","1600","audio-keyboard-response","590","1168072","0.0-3.0-1.494","../audio/26-8-masc.mp3"," ","","todo.","","","",""
"","null","html-keyboard-response","591","1169334","0.0-3.0-0.495-0.495","<span style= ""font-size:30px; font-family: monospace"">+</span>","null","fixation","","","","",""
"","979","audio-keyboard-response","592","1170632","0.0-3.0-1.495","../audio/30-1-masc.mp3"," ","","O","","","",""
"","1189","audio-keyboard-response","593","1172129","0.0-3.0-1.496","../audio/30-2-masc.mp3"," ","","funcionário","","","",""
"","1272","audio-keyboard-response","594","1173703","0.0-3.0-1.497","../audio/30-3-masc.mp3"," ","","entregou","","","",""
"","1000","audio-keyboard-response","595","1174987","0.0-3.0-1.498","../audio/30-4-masc.mp3"," ","","o","","","",""
"","1760","audio-keyboard-response","596","1177061","0.0-3.0-1.499","../audio/30-5-masc.mp3"," ","","restante","","","",""
"","1221","audio-keyboard-response","597","1178589","0.0-3.0-1.500","../audio/30-6-masc.mp3"," ","","do","","","",""
"","1280","audio-keyboard-response","598","1180168","0.0-3.0-1.501","../audio/30-7-masc.mp3"," ","","dinheiro.","","","",""
"","16221","html-keyboard-response","599","1196644","0.0-3.0-2.501-0.501","<span style=""font-size:25px; font-family: monospace"">O funcionário entregou o contrato?</span>","n","","","O funcionário entregou o contrato?","null","exp-sent","false"
"","null","html-keyboard-response","600","1198161","0.0-3.0-0.502-0.502","<span style= ""font-size:30px; font-family: monospace"">+</span>","null","fixation","","","","",""
"","1269","audio-keyboard-response","601","1199737","0.0-3.0-1.502","../audio/17-1-fem.mp3"," ","","Falaram","","","",""
"","979","audio-keyboard-response","602","1201006","0.0-3.0-1.503","../audio/17-2-fem.mp3"," ","","da","","","",""
"","1189","audio-keyboard-response","603","1202485","0.0-3.0-1.504","../audio/17-3-fem.mp3"," ","","lei","","","",""
"","1211","audio-keyboard-response","604","1203988","0.0-3.0-1.505","../audio/17-4-fem.mp3"," ","","no","","","",""
"","1509","audio-keyboard-response","605","1205814","0.0-3.0-1.506","../audio/17-5-fem.mp3"," ","","ministério","","","",""
"","1571","audio-keyboard-response","606","1207683","0.0-3.0-1.507","../audio/17-6-fem.mp3"," ","","diversas","","","",""
"","2499","audio-keyboard-response","607","1210477","0.0-3.0-1.508","../audio/17-7-fem.mp3"," ","","vezes.","","","",""
"","null","html-keyboard-response","608","1211741","0.0-3.0-0.509-0.509","<span style= ""font-size:30px; font-family: monospace"">+</span>","null","fixation","","","","",""
"","931","audio-keyboard-response","609","1212961","0.0-3.0-1.509","../audio/16-1-fem.mp3"," ","","Eu","","","",""
"","1499","audio-keyboard-response","610","1214750","0.0-3.0-1.510","../audio/16-2-fem.mp3"," ","","nunca","","","",""
"","1341","audio-keyboard-response","611","1216382","0.0-3.0-1.511","../audio/16-3-fem.mp3"," ","","conheci","","","",""
"","1021","audio-keyboard-response","612","1217694","0.0-3.0-1.512","../audio/16-4-fem.mp3"," ","","um","","","",""
"","1381","audio-keyboard-response","613","1219377","0.0-3.0-1.513","../audio/16-5-fem.mp3"," ","","general","","","",""
"","829","audio-keyboard-response","614","1220491","0.0-3.0-1.514","../audio/16-6-fem.mp3"," ","","do","","","",""
"","1752","audio-keyboard-response","615","1222540","0.0-3.0-1.515","../audio/16-7-fem.mp3"," ","","exército.","","","",""
"","null","html-keyboard-response","616","1223801","0.0-3.0-0.516-0.516","<span style= ""font-size:30px; font-family: monospace"">+</span>","null","fixation","","","","",""
"","939","audio-keyboard-response","617","1225041","0.0-3.0-1.516","../audio/18-1-masc.mp3"," ","","O","","","",""
"","1469","audio-keyboard-response","618","1226814","0.0-3.0-1.517","../audio/18-2-masc.mp3"," ","","enredo","","","",""
"","1149","audio-keyboard-response","619","1228254","0.0-3.0-1.518","../audio/18-3-masc.mp3"," ","","traz","","","",""
"","808","audio-keyboard-response","620","1229357","0.0-3.0-1.519","../audio/18-4-masc.mp3"," ","","um","","","",""
"","1099","audio-keyboard-response","621","1230751","0.0-3.0-1.520","../audio/18-5-masc.mp3"," ","","dragão","","","",""
"","920","audio-keyboard-response","622","1232227","0.0-3.0-1.521","../audio/18-6-masc.mp3"," ","","forte","","","",""
"","1120","audio-keyboard-response","623","1233626","0.0-3.0-1.522","../audio/18-7-masc.mp3"," ","","e","","","",""
"","1789","audio-keyboard-response","624","1235716","0.0-3.0-1.523","../audio/18-8-masc.mp3"," ","","solitário.","","","",""
"","null","html-keyboard-response","625","1236976","0.0-3.0-0.524-0.524","<span style= ""font-size:30px; font-family: monospace"">+</span>","null","fixation","","","","",""
"","1080","audio-keyboard-response","626","1238364","0.0-3.0-1.524","../audio/19-1-fem.mp3"," ","","O","","","",""
"","1189","audio-keyboard-response","627","1239846","0.0-3.0-1.525","../audio/19-2-fem.mp3"," ","","menino","","","",""
"","819","audio-keyboard-response","628","1240960","0.0-3.0-1.526","../audio/19-3-fem.mp3"," ","","ganhou","","","",""
"","1029","audio-keyboard-response","629","1242282","0.0-3.0-1.527","../audio/19-4-fem.mp3"," ","","uma","","","",""
"","979","audio-keyboard-response","630","1243554","0.0-3.0-1.528","../audio/19-5-fem.mp3"," ","","bala","","","",""
"","1091","audio-keyboard-response","631","1244935","0.0-3.0-1.529","../audio/19-6-fem.mp3"," ","","depois","","","",""
"","928","audio-keyboard-response","632","1246155","0.0-3.0-1.530","../audio/19-7-fem.mp3"," ","","do","","","",""
"","1960","audio-keyboard-response","633","1248415","0.0-3.0-1.531","../audio/19-8-fem.mp3"," ","","almoço.","","","",""
"","null","html-keyboard-response","634","1249683","0.0-3.0-0.532-0.532","<span style= ""font-size:30px; font-family: monospace"">+</span>","null","fixation","","","","",""
"","920","audio-keyboard-response","635","1250891","0.0-3.0-1.532","../audio/20-1-fem.mp3"," ","","O","","","",""
"","1731","audio-keyboard-response","636","1252927","0.0-3.0-1.533","../audio/20-2-fem.mp3"," ","","colega","","","",""
"","1611","audio-keyboard-response","637","1254852","0.0-3.0-1.534","../audio/20-3-fem.mp3"," ","","parecia","","","",""
"","1080","audio-keyboard-response","638","1256222","0.0-3.0-1.535","../audio/20-4-fem.mp3"," ","","muito","","","",""
"","1229","audio-keyboard-response","639","1257752","0.0-3.0-1.536","../audio/20-5-fem.mp3"," ","","gripado","","","",""
"","989","audio-keyboard-response","640","1259038","0.0-3.0-1.537","../audio/20-6-fem.mp3"," ","","no","","","",""
"","821","audio-keyboard-response","641","1260141","0.0-3.0-1.538","../audio/20-7-fem.mp3"," ","","dia","","","",""
"","1621","audio-keyboard-response","642","1262067","0.0-3.0-1.539","../audio/20-8-fem.mp3"," ","","anterior.","","","",""
"","7951","html-keyboard-response","643","1270272","0.0-3.0-2.539-0.539","<span style=""font-size:25px; font-family: monospace"">O colega parecia muito gripado?</span>","s","","","O colega parecia muito gripado?","null","exp-sent","false"
"","null","html-keyboard-response","644","1271778","0.0-3.0-0.540-0.540","<span style= ""font-size:30px; font-family: monospace"">+</span>","null","fixation","","","","",""
"","1101","audio-keyboard-response","645","1273180","0.0-3.0-1.540","../audio/78-1-masc.mp3"," ","","Eles","","","",""
"","1080","audio-keyboard-response","646","1274546","0.0-3.0-1.541","../audio/78-2-masc.mp3"," ","","trazem","","","",""
"","1021","audio-keyboard-response","647","1275857","0.0-3.0-1.542","../audio/78-3-masc.mp3"," ","","um","","","",""
"","851","audio-keyboard-response","648","1277045","0.0-3.0-1.543","../audio/78-4-masc.mp3"," ","","fato","","","",""
"","1251","audio-keyboard-response","649","1278590","0.0-3.0-1.544","../audio/78-5-masc.mp3"," ","","urgente","","","",""
"","981","audio-keyboard-response","650","1279895","0.0-3.0-1.545","../audio/78-6-masc.mp3"," ","","todos","","","",""
"","1488","audio-keyboard-response","651","1281674","0.0-3.0-1.546","../audio/78-7-masc.mp3"," ","","os","","","",""
"","1331","audio-keyboard-response","652","1283300","0.0-3.0-1.547","../audio/78-8-masc.mp3"," ","","dias.","","","",""
"","null","html-keyboard-response","653","1284560","0.0-3.0-0.548-0.548","<span style= ""font-size:30px; font-family: monospace"">+</span>","null","fixation","","","","",""
"","888","audio-keyboard-response","654","1285752","0.0-3.0-1.548","../audio/77-1-masc.mp3"," ","","A","","","",""
"","1040","audio-keyboard-response","655","1287084","0.0-3.0-1.549","../audio/77-2-masc.mp3"," ","","criança","","","",""
"","1059","audio-keyboard-response","656","1288433","0.0-3.0-1.550","../audio/77-3-masc.mp3"," ","","ficou","","","",""
"","1229","audio-keyboard-response","657","1289961","0.0-3.0-1.551","../audio/77-4-masc.mp3"," ","","muito","","","",""
"","1091","audio-keyboard-response","658","1291341","0.0-3.0-1.552","../audio/77-5-masc.mp3"," ","","feliz","","","",""
"","1269","audio-keyboard-response","659","1292899","0.0-3.0-1.553","../audio/77-6-masc.mp3"," ","","com","","","",""
"","1749","audio-keyboard-response","660","1294932","0.0-3.0-1.554","../audio/77-7-masc.mp3"," ","","o","","","",""
"","1360","audio-keyboard-response","661","1296594","0.0-3.0-1.555","../audio/77-8-masc.mp3"," ","","brinquedo.","","","",""
"","null","html-keyboard-response","662","1297852","0.0-3.0-0.556-0.556","<span style= ""font-size:30px; font-family: monospace"">+</span>","null","fixation","","","","",""
"","880","audio-keyboard-response","663","1299049","0.0-3.0-1.556","../audio/79-1-fem.mp3"," ","","A","","","",""
"","1261","audio-keyboard-response","664","1300621","0.0-3.0-1.557","../audio/79-2-fem.mp3"," ","","médica","","","",""
"","1331","audio-keyboard-response","665","1302254","0.0-3.0-1.558","../audio/79-3-fem.mp3"," ","","verificou","","","",""
"","1360","audio-keyboard-response","666","1303901","0.0-3.0-1.559","../audio/79-4-fem.mp3"," ","","a","","","",""
"","1381","audio-keyboard-response","667","1305582","0.0-3.0-1.560","../audio/79-5-fem.mp3"," ","","gengiva","","","",""
"","1531","audio-keyboard-response","668","1307409","0.0-3.0-1.561","../audio/79-6-fem.mp3"," ","","por","","","",""
"","1949","audio-keyboard-response","669","1309646","0.0-3.0-1.562","../audio/79-7-fem.mp3"," ","","último.","","","",""
"","null","html-keyboard-response","670","1310905","0.0-3.0-0.563-0.563","<span style= ""font-size:30px; font-family: monospace"">+</span>","null","fixation","","","","",""
"","1288","audio-keyboard-response","671","1312473","0.0-3.0-1.563","../audio/76-1-fem.mp3"," ","","O","","","",""
"","1560","audio-keyboard-response","672","1314321","0.0-3.0-1.564","../audio/76-2-fem.mp3"," ","","bisavô","","","",""
"","1219","audio-keyboard-response","673","1315837","0.0-3.0-1.565","../audio/76-3-fem.mp3"," ","","comprou","","","",""
"","1371","audio-keyboard-response","674","1317495","0.0-3.0-1.566","../audio/76-4-fem.mp3"," ","","um","","","",""
"","1912","audio-keyboard-response","675","1319702","0.0-3.0-1.567","../audio/76-5-fem.mp3"," ","","ralador","","","",""
"","1240","audio-keyboard-response","676","1321243","0.0-3.0-1.568","../audio/76-6-fem.mp3"," ","","de","","","",""
"","2048","audio-keyboard-response","677","1323591","0.0-3.0-1.569","../audio/76-7-fem.mp3"," ","","queijo.","","","",""
"","null","html-keyboard-response","678","1324850","0.0-3.0-0.570-0.570","<span style= ""font-size:30px; font-family: monospace"">+</span>","null","fixation","","","","",""
"","1171","audio-keyboard-response","679","1326321","0.0-3.0-1.570","../audio/80-1-fem.mp3"," ","","Meu","","","",""
"","1400","audio-keyboard-response","680","1328021","0.0-3.0-1.571","../audio/80-2-fem.mp3"," ","","primo","","","",""
"","1400","audio-keyboard-response","681","1329713","0.0-3.0-1.572","../audio/80-3-fem.mp3"," ","","conheceu","","","",""
"","1331","audio-keyboard-response","682","1331340","0.0-3.0-1.573","../audio/80-4-fem.mp3"," ","","um","","","",""
"","1651","audio-keyboard-response","683","1333281","0.0-3.0-1.574","../audio/80-5-fem.mp3"," ","","jovem","","","",""
"","1749","audio-keyboard-response","684","1335329","0.0-3.0-1.575","../audio/80-6-fem.mp3"," ","","amável","","","",""
"","1128","audio-keyboard-response","685","1336751","0.0-3.0-1.576","../audio/80-7-fem.mp3"," ","","e","","","",""
"","2011","audio-keyboard-response","686","1339069","0.0-3.0-1.577","../audio/80-8-fem.mp3"," ","","confiante.","","","",""
"","7938","html-keyboard-response","687","1347265","0.0-3.0-2.577-0.577","<span style=""font-size:25px; font-family: monospace"">O primo conheceu um jovem irritante?</span>","n","","","O primo conheceu um jovem irritante?","null","exp-sent","false"
"","null","html-keyboard-response","688","1348779","0.0-3.0-0.578-0.578","<span style= ""font-size:30px; font-family: monospace"">+</span>","null","fixation","","","","",""
"","2240","audio-keyboard-response","689","1351340","0.0-3.0-1.578","../audio/04-1-fem.mp3"," ","","Duzentos","","","",""
"","1011","audio-keyboard-response","690","1352652","0.0-3.0-1.579","../audio/04-2-fem.mp3"," ","","carros","","","",""
"","1469","audio-keyboard-response","691","1354418","0.0-3.0-1.580","../audio/04-3-fem.mp3"," ","","passaram","","","",""
"","971","audio-keyboard-response","692","1355682","0.0-3.0-1.581","../audio/04-4-fem.mp3"," ","","pela","","","",""
"","880","audio-keyboard-response","693","1356853","0.0-3.0-1.582","../audio/04-5-fem.mp3"," ","","ponte","","","",""
"","968","audio-keyboard-response","694","1358118","0.0-3.0-1.583","../audio/04-6-fem.mp3"," ","","hoje","","","",""
"","1080","audio-keyboard-response","695","1359480","0.0-3.0-1.584","../audio/04-7-fem.mp3"," ","","de","","","",""
"","2269","audio-keyboard-response","696","1362043","0.0-3.0-1.585","../audio/04-8-fem.mp3"," ","","tarde.","","","",""
"","null","html-keyboard-response","697","1363305","0.0-3.0-0.586-0.586","<span style= ""font-size:30px; font-family: monospace"">+</span>","null","fixation","","","","",""
"","819","audio-keyboard-response","698","1364429","0.0-3.0-1.586","../audio/02-2-fem.mp3"," ","","Havia","","","",""
"","1171","audio-keyboard-response","699","1365850","0.0-3.0-1.587","../audio/02-2-fem.mp3"," ","","um","","","",""
"","1080","audio-keyboard-response","700","1367234","0.0-3.0-1.588","../audio/02-3-fem.mp3"," ","","cheiro","","","",""
"","981","audio-keyboard-response","701","1368506","0.0-3.0-1.589","../audio/02-4-fem.mp3"," ","","de","","","",""
"","989","audio-keyboard-response","702","1369809","0.0-3.0-1.590","../audio/02-5-fem.mp3"," ","","gasolina","","","",""
"","1931","audio-keyboard-response","703","1372027","0.0-3.0-1.591","../audio/02-6-fem.mp3"," ","","na","","","",""
"","1619","audio-keyboard-response","704","1373968","0.0-3.0-1.592","../audio/02-7-fem.mp3"," ","","garagem.","","","",""
"","null","html-keyboard-response","705","1375230","0.0-3.0-0.593-0.593","<span style= ""font-size:30px; font-family: monospace"">+</span>","null","fixation","","","","",""
"","1181","audio-keyboard-response","706","1376701","0.0-3.0-1.593","../audio/01-1-masc.mp3"," ","","O","","","",""
"","1120","audio-keyboard-response","707","1378109","0.0-3.0-1.594","../audio/01-2-masc.mp3"," ","","menino","","","",""
"","1029","audio-keyboard-response","708","1379432","0.0-3.0-1.595","../audio/01-3-masc.mp3"," ","","derrubou","","","",""
"","949","audio-keyboard-response","709","1380672","0.0-3.0-1.596","../audio/01-4-masc.mp3"," ","","a","","","",""
"","1579","audio-keyboard-response","710","1382557","0.0-3.0-1.597","../audio/01-5-masc.mp3"," ","","guitarra","","","",""
"","1101","audio-keyboard-response","711","1383940","0.0-3.0-1.598","../audio/01-6-masc.mp3"," ","","no","","","",""
"","2952","audio-keyboard-response","712","1387183","0.0-3.0-1.599","../audio/01-7-masc.mp3"," ","","chão.","","","",""
"","null","html-keyboard-response","713","1388439","0.0-3.0-0.600-0.600","<span style= ""font-size:30px; font-family: monospace"">+</span>","null","fixation","","","","",""
"","1099","audio-keyboard-response","714","1389837","0.0-3.0-1.600","../audio/03-1-fem.mp3"," ","","O","","","",""
"","1451","audio-keyboard-response","715","1391582","0.0-3.0-1.601","../audio/03-2-fem.mp3"," ","","coelho","","","",""
"","1421","audio-keyboard-response","716","1393292","0.0-3.0-1.602","../audio/03-3-fem.mp3"," ","","foi","","","",""
"","1112","audio-keyboard-response","717","1394708","0.0-3.0-1.603","../audio/03-4-fem.mp3"," ","","bastante","","","",""
"","1629","audio-keyboard-response","718","1396641","0.0-3.0-1.604","../audio/03-5-fem.mp3"," ","","dócil","","","",""
"","1179","audio-keyboard-response","719","1398109","0.0-3.0-1.605","../audio/03-6-fem.mp3"," ","","com","","","",""
"","1221","audio-keyboard-response","720","1399613","0.0-3.0-1.606","../audio/03-7-fem.mp3"," ","","as","","","",""
"","2261","audio-keyboard-response","721","1402173","0.0-3.0-1.607","../audio/03-8-fem.mp3"," ","","crianças.","","","",""
"","null","html-keyboard-response","722","1403440","0.0-3.0-0.608-0.608","<span style= ""font-size:30px; font-family: monospace"">+</span>","null","fixation","","","","",""
"","1331","audio-keyboard-response","723","1405068","0.0-3.0-1.608","../audio/05-1-masc.mp3"," ","","A","","","",""
"","1360","audio-keyboard-response","724","1406735","0.0-3.0-1.609","../audio/05-2-masc.mp3"," ","","vendedora","","","",""
"","2992","audio-keyboard-response","725","1410023","0.0-3.0-1.610","../audio/05-3-masc.mp3"," ","","ajudou","","","",""
"","1091","audio-keyboard-response","726","1411418","0.0-3.0-1.611","../audio/05-4-masc.mp3"," ","","um","","","",""
"","1461","audio-keyboard-response","727","1413176","0.0-3.0-1.612","../audio/05-5-masc.mp3"," ","","turista","","","",""
"","1128","audio-keyboard-response","728","1414590","0.0-3.0-1.613","../audio/05-6-masc.mp3"," ","","na","","","",""
"","1549","audio-keyboard-response","729","1416436","0.0-3.0-1.614","../audio/05-7-masc.mp3"," ","","loja.","","","",""
"","4125","html-keyboard-response","730","1420823","0.0-3.0-2.614-0.614","<span style=""font-size:25px; font-family: monospace"">A vendedora ajudou um turista?</span>","s","","","A vendedora ajudou um turista?","null","exp-sent","false"
"[{""page_index"":0,""viewing_time"":11691}]","11695","instructions","731","1433028","0.0-4.0","","","","","","","",""
