[
	{
		"view_history": [
			{
				"page_index": 0,
				"viewing_time": 34033
			}
		],
		"rt": 34036,
		"trial_type": "instructions",
		"trial_index": 0,
		"time_elapsed": 34040,
		"internal_node_id": "0.0-0.0"
	},
	{
		"rt": 414908,
		"response": {
			"tcle": "Concordo voluntariamente em participar da pesquisa conforme texto acima."
		},
		"question_order": [
			0
		],
		"trial_type": "survey-multi-choice",
		"trial_index": 1,
		"time_elapsed": 449164,
		"internal_node_id": "0.0-1.0"
	},
	{
		"rt": 35592,
		"response": {
			"email": "RYXE6"
		},
		"trial_type": "survey-text",
		"trial_index": 2,
		"time_elapsed": 485783,
		"internal_node_id": "0.0-2.0"
	}
]