"view_history","rt","trial_type","trial_index","time_elapsed","internal_node_id","stimulus","response","trial_part","word","question","answer","trial","accuracy"
"[{""page_index"":0,""viewing_time"":13654},{""page_index"":1,""viewing_time"":585731}]","599386","instructions","0","599388","0.0-0.0","","","","","","","",""
"","null","html-keyboard-response","1","600496","0.0-1.0-0.0-0.0","<span style= ""font-size:30px; font-family: monospace"">+</span>","null","fixation","","","","",""
"","0","audio-keyboard-response","2","607624","0.0-1.0-1.0","../audio/prac-question-1-1.mp3"," ","","O","","","",""
"","1852","audio-keyboard-response","3","609893","0.0-1.0-1.1","../audio/prac-question-1-2.mp3"," ","","dia","","","",""
"","1013","audio-keyboard-response","4","611294","0.0-1.0-1.2","../audio/prac-question-1-3.mp3"," ","","estará","","","",""
"","865","audio-keyboard-response","5","612458","0.0-1.0-1.3","../audio/prac-question-1-4.mp3"," ","","cheio","","","",""
"","633","audio-keyboard-response","6","613396","0.0-1.0-1.4","../audio/prac-question-1-5.mp3"," ","","de","","","",""
"","717","audio-keyboard-response","7","614418","0.0-1.0-1.5","../audio/prac-question-1-6.mp3"," ","","nuvens","","","",""
"","691","audio-keyboard-response","8","615401","0.0-1.0-1.6","../audio/prac-question-1-7.mp3"," ","","hoje.","","","",""
"","null","html-keyboard-response","9","616654","0.0-1.0-0.7-0.7","<span style= ""font-size:30px; font-family: monospace"">+</span>","null","fixation","","","","",""
"","618","audio-keyboard-response","10","617638","0.0-1.0-1.7","../audio/prac-question-2-1.mp3"," ","","A","","","",""
"","673","audio-keyboard-response","11","618646","0.0-1.0-1.8","../audio/prac-question-2-2.mp3"," ","","caneca","","","",""
"","1251","audio-keyboard-response","12","620205","0.0-1.0-1.9","../audio/prac-question-2-3.mp3"," ","","colorida","","","",""
"","1039","audio-keyboard-response","13","621536","0.0-1.0-1.10","../audio/prac-question-2-4.mp3"," ","","caiu","","","",""
"","807","audio-keyboard-response","14","622637","0.0-1.0-1.11","../audio/prac-question-2-5.mp3"," ","","da","","","",""
"","940","audio-keyboard-response","15","623874","0.0-1.0-1.12","../audio/prac-question-2-6.mp3"," ","","mesa","","","",""
"","897","audio-keyboard-response","16","625074","0.0-1.0-1.13","../audio/prac-question-2-7.mp3"," ","","de","","","",""
"","1152","audio-keyboard-response","17","626556","0.0-1.0-1.14","../audio/prac-question-2-8.mp3"," ","","jantar.","","","",""
"","3581","html-keyboard-response","18","630391","0.0-1.0-2.14-0.14","<span style=""font-size:25px; font-family: monospace"">A caneca era colorida?</span>","s","","","A caneca era colorida?","null","prac-sent","false"
"[{""page_index"":0,""viewing_time"":3369}]","3369","instructions","19","634262","0.0-2.0","","","","","","","",""
"","null","html-keyboard-response","20","635366","0.0-3.0-0.0-0.0","<span style= ""font-size:30px; font-family: monospace"">+</span>","null","fixation","","","","",""
"","1222","audio-keyboard-response","21","636942","0.0-3.0-1.0","../audio/24-1-masc.mp3"," ","","As","","","",""
"","978","audio-keyboard-response","22","638256","0.0-3.0-1.1","../audio/24-2-masc.mp3"," ","","crianças","","","",""
"","740","audio-keyboard-response","23","639294","0.0-3.0-1.2","../audio/24-3-masc.mp3"," ","","vão","","","",""
"","705","audio-keyboard-response","24","640290","0.0-3.0-1.3","../audio/24-4-masc.mp3"," ","","ao","","","",""
"","955","audio-keyboard-response","25","641566","0.0-3.0-1.4","../audio/24-5-masc.mp3"," ","","cinema","","","",""
"","787","audio-keyboard-response","26","642639","0.0-3.0-1.5","../audio/24-6-masc.mp3"," ","","mais","","","",""
"","1657","audio-keyboard-response","27","644598","0.0-3.0-1.6","../audio/24-7-masc.mp3"," ","","tarde.","","","",""
"","null","html-keyboard-response","28","645852","0.0-3.0-0.7-0.7","<span style= ""font-size:30px; font-family: monospace"">+</span>","null","fixation","","","","",""
"","1042","audio-keyboard-response","29","647284","0.0-3.0-1.7","../audio/21-1-masc.mp3"," ","","Precisamos","","","",""
"","627","audio-keyboard-response","30","648202","0.0-3.0-1.8","../audio/21-2-masc.mp3"," ","","de","","","",""
"","926","audio-keyboard-response","31","649430","0.0-3.0-1.9","../audio/21-3-masc.mp3"," ","","paciência","","","",""
"","702","audio-keyboard-response","32","650428","0.0-3.0-1.10","../audio/21-4-masc.mp3"," ","","e","","","",""
"","1135","audio-keyboard-response","33","651878","0.0-3.0-1.11","../audio/21-5-masc.mp3"," ","","bondade","","","",""
"","644","audio-keyboard-response","34","652821","0.0-3.0-1.12","../audio/21-6-masc.mp3"," ","","para","","","",""
"","630","audio-keyboard-response","35","653761","0.0-3.0-1.13","../audio/21-7-masc.mp3"," ","","um","","","",""
"","871","audio-keyboard-response","36","654936","0.0-3.0-1.14","../audio/21-8-masc.mp3"," ","","mundo","","","",""
"","2159","audio-keyboard-response","37","657398","0.0-3.0-1.15","../audio/21-9-masc.mp3"," ","","melhor.","","","",""
"","null","html-keyboard-response","38","658652","0.0-3.0-0.16-0.16","<span style= ""font-size:30px; font-family: monospace"">+</span>","null","fixation","","","","",""
"","1146","audio-keyboard-response","39","660167","0.0-3.0-1.16","../audio/23-1-fem.mp3"," ","","Português","","","",""
"","726","audio-keyboard-response","40","661184","0.0-3.0-1.17","../audio/23-2-fem.mp3"," ","","é","","","",""
"","612","audio-keyboard-response","41","662092","0.0-3.0-1.18","../audio/23-3-fem.mp3"," ","","um","","","",""
"","932","audio-keyboard-response","42","663336","0.0-3.0-1.19","../audio/23-4-fem.mp3"," ","","assunto","","","",""
"","1283","audio-keyboard-response","43","664928","0.0-3.0-1.20","../audio/23-5-fem.mp3"," ","","elementar","","","",""
"","714","audio-keyboard-response","44","665958","0.0-3.0-1.21","../audio/23-6-fem.mp3"," ","","para","","","",""
"","792","audio-keyboard-response","45","667062","0.0-3.0-1.22","../audio/23-7-fem.mp3"," ","","os","","","",""
"","1733","audio-keyboard-response","46","669111","0.0-3.0-1.23","../audio/23-8-fem.mp3"," ","","alunos.","","","",""
"","null","html-keyboard-response","47","670365","0.0-3.0-0.24-0.24","<span style= ""font-size:30px; font-family: monospace"">+</span>","null","fixation","","","","",""
"","720","audio-keyboard-response","48","671468","0.0-3.0-1.24","../audio/22-1-fem.mp3"," ","","Eu","","","",""
"","1205","audio-keyboard-response","49","672976","0.0-3.0-1.25","../audio/22-2-fem.mp3"," ","","detesto","","","",""
"","734","audio-keyboard-response","50","674037","0.0-3.0-1.26","../audio/22-3-fem.mp3"," ","","fumaça","","","",""
"","772","audio-keyboard-response","51","675114","0.0-3.0-1.27","../audio/22-4-fem.mp3"," ","","de","","","",""
"","1025","audio-keyboard-response","52","676476","0.0-3.0-1.28","../audio/22-5-fem.mp3"," ","","cachimbo","","","",""
"","1080","audio-keyboard-response","53","677850","0.0-3.0-1.29","../audio/22-6-fem.mp3"," ","","e","","","",""
"","630","audio-keyboard-response","54","678790","0.0-3.0-1.30","../audio/22-7-fem.mp3"," ","","de","","","",""
"","1405","audio-keyboard-response","55","680514","0.0-3.0-1.31","../audio/22-8-fem.mp3"," ","","cigarro.","","","",""
"","null","html-keyboard-response","56","681768","0.0-3.0-0.32-0.32","<span style= ""font-size:30px; font-family: monospace"">+</span>","null","fixation","","","","",""
"","1045","audio-keyboard-response","57","683214","0.0-3.0-1.32","../audio/25-1-fem.mp3"," ","","Ela","","","",""
"","900","audio-keyboard-response","58","684436","0.0-3.0-1.33","../audio/25-2-fem.mp3"," ","","faz","","","",""
"","41","audio-keyboard-response","59","684768","0.0-3.0-1.34","../audio/25-3-fem.mp3"," ","","tanto","","","",""
"","996","audio-keyboard-response","60","686090","0.0-3.0-1.35","../audio/25-4-fem.mp3"," ","","cabelo","","","",""
"","932","audio-keyboard-response","61","687343","0.0-3.0-1.36","../audio/25-5-fem.mp3"," ","","liso","","","",""
"","795","audio-keyboard-response","62","688450","0.0-3.0-1.37","../audio/25-6-fem.mp3"," ","","quanto","","","",""
"","1135","audio-keyboard-response","63","689903","0.0-3.0-1.38","../audio/25-7-fem.mp3"," ","","cacheado.","","","",""
"","3703","html-keyboard-response","64","693857","0.0-3.0-2.38-0.38","<span style=""font-size:25px; font-family: monospace"">Ela só faz cabelo cacheado?</span>","n","","","Ela só faz cabelo cacheado?","null","exp-sent","false"
"","null","html-keyboard-response","65","695361","0.0-3.0-0.39-0.39","<span style= ""font-size:30px; font-family: monospace"">+</span>","null","fixation","","","","",""
"","821","audio-keyboard-response","66","696564","0.0-3.0-1.39","../audio/33-1-masc.mp3"," ","","Eles","","","",""
"","810","audio-keyboard-response","67","697679","0.0-3.0-1.40","../audio/33-2-masc.mp3"," ","","sabem","","","",""
"","853","audio-keyboard-response","68","698847","0.0-3.0-1.41","../audio/33-3-masc.mp3"," ","","do","","","",""
"","996","audio-keyboard-response","69","700138","0.0-3.0-1.42","../audio/33-4-masc.mp3"," ","","seu","","","",""
"","1071","audio-keyboard-response","70","701529","0.0-3.0-1.43","../audio/33-5-masc.mp3"," ","","privilégio","","","",""
"","990","audio-keyboard-response","71","702820","0.0-3.0-1.44","../audio/33-6-masc.mp3"," ","","nessa","","","",""
"","1234","audio-keyboard-response","72","704530","0.0-3.0-1.45","../audio/33-7-masc.mp3"," ","","confusão.","","","",""
"","null","html-keyboard-response","73","705784","0.0-3.0-0.46-0.46","<span style= ""font-size:30px; font-family: monospace"">+</span>","null","fixation","","","","",""
"","850","audio-keyboard-response","74","707045","0.0-3.0-1.46","../audio/31-1-masc.mp3"," ","","O","","","",""
"","958","audio-keyboard-response","75","708332","0.0-3.0-1.47","../audio/31-2-masc.mp3"," ","","padeiro","","","",""
"","827","audio-keyboard-response","76","709442","0.0-3.0-1.48","../audio/31-3-masc.mp3"," ","","usou","","","",""
"","816","audio-keyboard-response","77","710546","0.0-3.0-1.49","../audio/31-4-masc.mp3"," ","","a","","","",""
"","1112","audio-keyboard-response","78","711990","0.0-3.0-1.50","../audio/31-5-masc.mp3"," ","","balança","","","",""
"","801","audio-keyboard-response","79","713090","0.0-3.0-1.51","../audio/31-6-masc.mp3"," ","","o","","","",""
"","923","audio-keyboard-response","80","714303","0.0-3.0-1.52","../audio/31-7-masc.mp3"," ","","dia","","","",""
"","2969","audio-keyboard-response","81","717575","0.0-3.0-1.53","../audio/31-8-masc.mp3"," ","","inteiro.","","","",""
"","null","html-keyboard-response","82","718828","0.0-3.0-0.54-0.54","<span style= ""font-size:30px; font-family: monospace"">+</span>","null","fixation","","","","",""
"","595","audio-keyboard-response","83","719778","0.0-3.0-1.54","../audio/32-1-masc.mp3"," ","","A","","","",""
"","746","audio-keyboard-response","84","720824","0.0-3.0-1.55","../audio/32-2-masc.mp3"," ","","tia","","","",""
"","819","audio-keyboard-response","85","721940","0.0-3.0-1.56","../audio/32-3-masc.mp3"," ","","comprou","","","",""
"","583","audio-keyboard-response","86","722825","0.0-3.0-1.57","../audio/32-4-masc.mp3"," ","","um","","","",""
"","1027","audio-keyboard-response","87","724140","0.0-3.0-1.58","../audio/32-5-masc.mp3"," ","","pilão","","","",""
"","879","audio-keyboard-response","88","725320","0.0-3.0-1.59","../audio/32-6-masc.mp3"," ","","para","","","",""
"","787","audio-keyboard-response","89","726400","0.0-3.0-1.60","../audio/32-7-masc.mp3"," ","","a","","","",""
"","1884","audio-keyboard-response","90","728575","0.0-3.0-1.61","../audio/32-8-masc.mp3"," ","","cozinha.","","","",""
"","null","html-keyboard-response","91","729829","0.0-3.0-0.62-0.62","<span style= ""font-size:30px; font-family: monospace"">+</span>","null","fixation","","","","",""
"","1263","audio-keyboard-response","92","732259","0.0-3.0-1.62","../audio/34-1-fem.mp3"," ","","Cobrança","","","",""
"","1451","audio-keyboard-response","93","734022","0.0-3.0-1.63","../audio/34-2-fem.mp3"," ","","excessiva","","","",""
"","726","audio-keyboard-response","94","735041","0.0-3.0-1.64","../audio/34-3-fem.mp3"," ","","é","","","",""
"","708","audio-keyboard-response","95","736038","0.0-3.0-1.65","../audio/34-4-fem.mp3"," ","","um","","","",""
"","961","audio-keyboard-response","96","737298","0.0-3.0-1.66","../audio/34-5-fem.mp3"," ","","fardo","","","",""
"","778","audio-keyboard-response","97","738371","0.0-3.0-1.67","../audio/34-6-fem.mp3"," ","","para","","","",""
"","760","audio-keyboard-response","98","739421","0.0-3.0-1.68","../audio/34-7-fem.mp3"," ","","a","","","",""
"","1181","audio-keyboard-response","99","740927","0.0-3.0-1.69","../audio/34-8-fem.mp3"," ","","cabeça.","","","",""
"","null","html-keyboard-response","100","742180","0.0-3.0-0.70-0.70","<span style= ""font-size:30px; font-family: monospace"">+</span>","null","fixation","","","","",""
"","763","audio-keyboard-response","101","743305","0.0-3.0-1.70","../audio/35-1-fem.mp3"," ","","A","","","",""
"","1321","audio-keyboard-response","102","744952","0.0-3.0-1.71","../audio/35-2-fem.mp3"," ","","receita","","","",""
"","932","audio-keyboard-response","103","746194","0.0-3.0-1.72","../audio/35-3-fem.mp3"," ","","para","","","",""
"","673","audio-keyboard-response","104","747155","0.0-3.0-1.73","../audio/35-4-fem.mp3"," ","","a","","","",""
"","1257","audio-keyboard-response","105","748736","0.0-3.0-1.74","../audio/35-5-fem.mp3"," ","","preparação","","","",""
"","653","audio-keyboard-response","106","749691","0.0-3.0-1.75","../audio/35-6-fem.mp3"," ","","do","","","",""
"","848","audio-keyboard-response","107","750843","0.0-3.0-1.76","../audio/35-7-fem.mp3"," ","","bolo","","","",""
"","717","audio-keyboard-response","108","751854","0.0-3.0-1.77","../audio/35-8-fem.mp3"," ","","é","","","",""
"","1657","audio-keyboard-response","109","753828","0.0-3.0-1.78","../audio/35-9-fem.mp3"," ","","leve.","","","",""
"","1881","html-keyboard-response","110","755961","0.0-3.0-2.78-0.78","<span style=""font-size:25px; font-family: monospace"">A receita do bolo é pesada?</span>","n","","","A receita do bolo é pesada?","null","exp-sent","false"
"","null","html-keyboard-response","111","757464","0.0-3.0-0.79-0.79","<span style= ""font-size:30px; font-family: monospace"">+</span>","null","fixation","","","","",""
"","668","audio-keyboard-response","112","758501","0.0-3.0-1.79","../audio/42-1-masc.mp3"," ","","Eu","","","",""
"","656","audio-keyboard-response","113","759472","0.0-3.0-1.80","../audio/42-2-masc.mp3"," ","","fui","","","",""
"","752","audio-keyboard-response","114","760517","0.0-3.0-1.81","../audio/42-3-masc.mp3"," ","","a","","","",""
"","734","audio-keyboard-response","115","761609","0.0-3.0-1.82","../audio/42-4-masc.mp3"," ","","uma","","","",""
"","848","audio-keyboard-response","116","762757","0.0-3.0-1.83","../audio/42-5-masc.mp3"," ","","loja","","","",""
"","633","audio-keyboard-response","117","763687","0.0-3.0-1.84","../audio/42-6-masc.mp3"," ","","de","","","",""
"","1129","audio-keyboard-response","118","765130","0.0-3.0-1.85","../audio/42-7-masc.mp3"," ","","móveis","","","",""
"","740","audio-keyboard-response","119","766162","0.0-3.0-1.86","../audio/42-8-masc.mp3"," ","","no","","","",""
"","2456","audio-keyboard-response","120","768921","0.0-3.0-1.87","../audio/42-9-masc.mp3"," ","","bairro.","","","",""
"","null","html-keyboard-response","121","770175","0.0-3.0-0.88-0.88","<span style= ""font-size:30px; font-family: monospace"">+</span>","null","fixation","","","","",""
"","964","audio-keyboard-response","122","771510","0.0-3.0-1.88","../audio/44-1-fem.mp3"," ","","Meus","","","",""
"","1045","audio-keyboard-response","123","772865","0.0-3.0-1.89","../audio/44-2-fem.mp3"," ","","irmãos","","","",""
"","897","audio-keyboard-response","124","774059","0.0-3.0-1.90","../audio/44-3-fem.mp3"," ","","brigam","","","",""
"","737","audio-keyboard-response","125","775098","0.0-3.0-1.91","../audio/44-4-fem.mp3"," ","","por","","","",""
"","1152","audio-keyboard-response","126","776569","0.0-3.0-1.92","../audio/44-5-fem.mp3"," ","","bobagem","","","",""
"","961","audio-keyboard-response","127","777828","0.0-3.0-1.93","../audio/44-6-fem.mp3"," ","","todos","","","",""
"","760","audio-keyboard-response","128","778892","0.0-3.0-1.94","../audio/44-7-fem.mp3"," ","","os","","","",""
"","1045","audio-keyboard-response","129","780242","0.0-3.0-1.95","../audio/44-8-fem.mp3"," ","","dias.","","","",""
"","null","html-keyboard-response","130","781496","0.0-3.0-0.96-0.96","<span style= ""font-size:30px; font-family: monospace"">+</span>","null","fixation","","","","",""
"","758","audio-keyboard-response","131","782622","0.0-3.0-1.96","../audio/41-1-masc.mp3"," ","","A","","","",""
"","836","audio-keyboard-response","132","783787","0.0-3.0-1.97","../audio/41-2-masc.mp3"," ","","novela","","","",""
"","940","audio-keyboard-response","133","785028","0.0-3.0-1.98","../audio/41-3-masc.mp3"," ","","falava","","","",""
"","752","audio-keyboard-response","134","786091","0.0-3.0-1.99","../audio/41-4-masc.mp3"," ","","de","","","",""
"","958","audio-keyboard-response","135","787399","0.0-3.0-1.100","../audio/41-5-masc.mp3"," ","","paixão","","","",""
"","752","audio-keyboard-response","136","788444","0.0-3.0-1.101","../audio/41-6-masc.mp3"," ","","e","","","",""
"","996","audio-keyboard-response","137","789739","0.0-3.0-1.102","../audio/41-7-masc.mp3"," ","","comédia.","","","",""
"","null","html-keyboard-response","138","790993","0.0-3.0-0.103-0.103","<span style= ""font-size:30px; font-family: monospace"">+</span>","null","fixation","","","","",""
"","653","audio-keyboard-response","139","792026","0.0-3.0-1.103","../audio/43-1-fem.mp3"," ","","Eu","","","",""
"","879","audio-keyboard-response","140","793224","0.0-3.0-1.104","../audio/43-2-fem.mp3"," ","","achei","","","",""
"","679","audio-keyboard-response","141","794193","0.0-3.0-1.105","../audio/43-3-fem.mp3"," ","","um","","","",""
"","1004","audio-keyboard-response","142","795504","0.0-3.0-1.106","../audio/43-4-fem.mp3"," ","","colchão","","","",""
"","932","audio-keyboard-response","143","796760","0.0-3.0-1.107","../audio/43-5-fem.mp3"," ","","velho","","","",""
"","665","audio-keyboard-response","144","797706","0.0-3.0-1.108","../audio/43-6-fem.mp3"," ","","e","","","",""
"","1178","audio-keyboard-response","145","799212","0.0-3.0-1.109","../audio/43-7-fem.mp3"," ","","imundo","","","",""
"","734","audio-keyboard-response","146","800250","0.0-3.0-1.110","../audio/43-8-fem.mp3"," ","","na","","","",""
"","1503","audio-keyboard-response","147","802039","0.0-3.0-1.111","../audio/43-9-fem.mp3"," ","","casa.","","","",""
"","null","html-keyboard-response","148","803292","0.0-3.0-0.112-0.112","<span style= ""font-size:30px; font-family: monospace"">+</span>","null","fixation","","","","",""
"","807","audio-keyboard-response","149","804475","0.0-3.0-1.112","../audio/45-1-fem.mp3"," ","","O","","","",""
"","990","audio-keyboard-response","150","805763","0.0-3.0-1.113","../audio/45-2-fem.mp3"," ","","homem","","","",""
"","865","audio-keyboard-response","151","806932","0.0-3.0-1.114","../audio/45-3-fem.mp3"," ","","pagou","","","",""
"","749","audio-keyboard-response","152","807976","0.0-3.0-1.115","../audio/45-4-fem.mp3"," ","","o","","","",""
"","1184","audio-keyboard-response","153","809464","0.0-3.0-1.116","../audio/45-5-fem.mp3"," ","","aluguel","","","",""
"","630","audio-keyboard-response","154","810409","0.0-3.0-1.117","../audio/45-6-fem.mp3"," ","","com","","","",""
"","1338","audio-keyboard-response","155","812096","0.0-3.0-1.118","../audio/45-7-fem.mp3"," ","","atraso.","","","",""
"","2608","html-keyboard-response","156","814958","0.0-3.0-2.118-0.118","<span style=""font-size:25px; font-family: monospace"">O homem pagou o aluguel em dia?</span>","n","","","O homem pagou o aluguel em dia?","null","exp-sent","false"
"","null","html-keyboard-response","157","816462","0.0-3.0-0.119-0.119","<span style= ""font-size:30px; font-family: monospace"">+</span>","null","fixation","","","","",""
"","2383","audio-keyboard-response","158","819252","0.0-3.0-1.119","../audio/17-1-fem.mp3"," ","","Falaram","","","",""
"","673","audio-keyboard-response","159","820297","0.0-3.0-1.120","../audio/17-2-fem.mp3"," ","","da","","","",""
"","894","audio-keyboard-response","160","821493","0.0-3.0-1.121","../audio/17-3-fem.mp3"," ","","lei","","","",""
"","885","audio-keyboard-response","161","822676","0.0-3.0-1.122","../audio/17-4-fem.mp3"," ","","no","","","",""
"","1405","audio-keyboard-response","162","824426","0.0-3.0-1.123","../audio/17-5-fem.mp3"," ","","ministério","","","",""
"","1347","audio-keyboard-response","163","826096","0.0-3.0-1.124","../audio/17-6-fem.mp3"," ","","diversas","","","",""
"","1245","audio-keyboard-response","164","827670","0.0-3.0-1.125","../audio/17-7-fem.mp3"," ","","vezes.","","","",""
"","null","html-keyboard-response","165","828924","0.0-3.0-0.126-0.126","<span style= ""font-size:30px; font-family: monospace"">+</span>","null","fixation","","","","",""
"","958","audio-keyboard-response","166","830255","0.0-3.0-1.126","../audio/16-1-fem.mp3"," ","","Eu","","","",""
"","1236","audio-keyboard-response","167","831794","0.0-3.0-1.127","../audio/16-2-fem.mp3"," ","","nunca","","","",""
"","1245","audio-keyboard-response","168","833360","0.0-3.0-1.128","../audio/16-3-fem.mp3"," ","","conheci","","","",""
"","618","audio-keyboard-response","169","834277","0.0-3.0-1.129","../audio/16-4-fem.mp3"," ","","um","","","",""
"","1292","audio-keyboard-response","170","835911","0.0-3.0-1.130","../audio/16-5-fem.mp3"," ","","general","","","",""
"","1254","audio-keyboard-response","171","837462","0.0-3.0-1.131","../audio/16-6-fem.mp3"," ","","do","","","",""
"","26297","audio-keyboard-response","172","864089","0.0-3.0-1.132","../audio/16-7-fem.mp3"," ","","exército.","","","",""
"","null","html-keyboard-response","173","865343","0.0-3.0-0.133-0.133","<span style= ""font-size:30px; font-family: monospace"">+</span>","null","fixation","","","","",""
"","1286","audio-keyboard-response","174","867748","0.0-3.0-1.133","../audio/18-1-masc.mp3"," ","","O","","","",""
"","978","audio-keyboard-response","175","869057","0.0-3.0-1.134","../audio/18-2-masc.mp3"," ","","enredo","","","",""
"","726","audio-keyboard-response","176","870110","0.0-3.0-1.135","../audio/18-3-masc.mp3"," ","","traz","","","",""
"","107","audio-keyboard-response","177","870521","0.0-3.0-1.136","../audio/18-4-masc.mp3"," ","","um","","","",""
"","1338","audio-keyboard-response","178","872186","0.0-3.0-1.137","../audio/18-5-masc.mp3"," ","","dragão","","","",""
"","816","audio-keyboard-response","179","873305","0.0-3.0-1.138","../audio/18-6-masc.mp3"," ","","forte","","","",""
"","729","audio-keyboard-response","180","874322","0.0-3.0-1.139","../audio/18-7-masc.mp3"," ","","e","","","",""
"","1178","audio-keyboard-response","181","875815","0.0-3.0-1.140","../audio/18-8-masc.mp3"," ","","solitário.","","","",""
"","null","html-keyboard-response","182","877069","0.0-3.0-0.141-0.141","<span style= ""font-size:30px; font-family: monospace"">+</span>","null","fixation","","","","",""
"","668","audio-keyboard-response","183","878105","0.0-3.0-1.141","../audio/19-1-fem.mp3"," ","","O","","","",""
"","1022","audio-keyboard-response","184","879446","0.0-3.0-1.142","../audio/19-2-fem.mp3"," ","","menino","","","",""
"","1112","audio-keyboard-response","185","880885","0.0-3.0-1.143","../audio/19-3-fem.mp3"," ","","ganhou","","","",""
"","888","audio-keyboard-response","186","882079","0.0-3.0-1.144","../audio/19-4-fem.mp3"," ","","uma","","","",""
"","1080","audio-keyboard-response","187","883458","0.0-3.0-1.145","../audio/19-5-fem.mp3"," ","","bala","","","",""
"","1338","audio-keyboard-response","188","885109","0.0-3.0-1.146","../audio/19-6-fem.mp3"," ","","depois","","","",""
"","926","audio-keyboard-response","189","886344","0.0-3.0-1.147","../audio/19-7-fem.mp3"," ","","do","","","",""
"","1350","audio-keyboard-response","190","888021","0.0-3.0-1.148","../audio/19-8-fem.mp3"," ","","almoço.","","","",""
"","null","html-keyboard-response","191","889274","0.0-3.0-0.149-0.149","<span style= ""font-size:30px; font-family: monospace"">+</span>","null","fixation","","","","",""
"","760","audio-keyboard-response","192","890429","0.0-3.0-1.149","../audio/20-1-masc.mp3"," ","","O","","","",""
"","1158","audio-keyboard-response","193","891897","0.0-3.0-1.150","../audio/20-2-masc.mp3"," ","","colega","","","",""
"","1207","audio-keyboard-response","194","893407","0.0-3.0-1.151","../audio/20-3-masc.mp3"," ","","parecia","","","",""
"","1036","audio-keyboard-response","195","894761","0.0-3.0-1.152","../audio/20-4-masc.mp3"," ","","muito","","","",""
"","1103","audio-keyboard-response","196","896184","0.0-3.0-1.153","../audio/20-5-masc.mp3"," ","","gripado","","","",""
"","682","audio-keyboard-response","197","897178","0.0-3.0-1.154","../audio/20-6-masc.mp3"," ","","no","","","",""
"","758","audio-keyboard-response","198","898227","0.0-3.0-1.155","../audio/20-7-masc.mp3"," ","","dia","","","",""
"","1297","audio-keyboard-response","199","899831","0.0-3.0-1.156","../audio/20-8-masc.mp3"," ","","anterior.","","","",""
"","2824","html-keyboard-response","200","902908","0.0-3.0-2.156-0.156","<span style=""font-size:25px; font-family: monospace"">O colega parecia muito gripado?</span>","s","","","O colega parecia muito gripado?","null","exp-sent","false"
"","null","html-keyboard-response","201","904411","0.0-3.0-0.157-0.157","<span style= ""font-size:30px; font-family: monospace"">+</span>","null","fixation","","","","",""
"","36325","audio-keyboard-response","202","941094","0.0-3.0-1.157","../audio/36-1-masc.mp3"," ","","Meu","","","",""
"","1057","audio-keyboard-response","203","942555","0.0-3.0-1.158","../audio/36-2-masc.mp3"," ","","tio","","","",""
"","946","audio-keyboard-response","204","943802","0.0-3.0-1.159","../audio/36-3-masc.mp3"," ","","comprou","","","",""
"","1080","audio-keyboard-response","205","945183","0.0-3.0-1.160","../audio/36-4-masc.mp3"," ","","um","","","",""
"","682","audio-keyboard-response","206","946175","0.0-3.0-1.161","../audio/36-5-masc.mp3"," ","","filtro","","","",""
"","789","audio-keyboard-response","207","947260","0.0-3.0-1.162","../audio/36-6-masc.mp3"," ","","de","","","",""
"","1016","audio-keyboard-response","208","948586","0.0-3.0-1.163","../audio/36-7-masc.mp3"," ","","água","","","",""
"","1068","audio-keyboard-response","209","949946","0.0-3.0-1.164","../audio/36-8-masc.mp3"," ","","hoje","","","",""
"","1779","audio-keyboard-response","210","952037","0.0-3.0-1.165","../audio/36-9-masc.mp3"," ","","cedo.","","","",""
"","null","html-keyboard-response","211","953290","0.0-3.0-0.166-0.166","<span style= ""font-size:30px; font-family: monospace"">+</span>","null","fixation","","","","",""
"","589","audio-keyboard-response","212","954299","0.0-3.0-1.166","../audio/39-1-masc.mp3"," ","","O","","","",""
"","978","audio-keyboard-response","213","955585","0.0-3.0-1.167","../audio/39-2-masc.mp3"," ","","conselho","","","",""
"","636","audio-keyboard-response","214","956533","0.0-3.0-1.168","../audio/39-3-masc.mp3"," ","","foi","","","",""
"","978","audio-keyboard-response","215","957826","0.0-3.0-1.169","../audio/39-4-masc.mp3"," ","","muito","","","",""
"","900","audio-keyboard-response","216","959019","0.0-3.0-1.170","../audio/39-5-masc.mp3"," ","","útil","","","",""
"","845","audio-keyboard-response","217","960162","0.0-3.0-1.171","../audio/39-6-masc.mp3"," ","","para","","","",""
"","891","audio-keyboard-response","218","961347","0.0-3.0-1.172","../audio/39-7-masc.mp3"," ","","minha","","","",""
"","1353","audio-keyboard-response","219","962990","0.0-3.0-1.173","../audio/39-8-masc.mp3"," ","","tia.","","","",""
"","null","html-keyboard-response","220","964244","0.0-3.0-0.174-0.174","<span style= ""font-size:30px; font-family: monospace"">+</span>","null","fixation","","","","",""
"","592","audio-keyboard-response","221","965214","0.0-3.0-1.174","../audio/38-1-fem.mp3"," ","","A","","","",""
"","1030","audio-keyboard-response","222","966578","0.0-3.0-1.175","../audio/38-2-fem.mp3"," ","","empresa","","","",""
"","879","audio-keyboard-response","223","967777","0.0-3.0-1.176","../audio/38-3-fem.mp3"," ","","criou","","","",""
"","604","audio-keyboard-response","224","968671","0.0-3.0-1.177","../audio/38-4-fem.mp3"," ","","a","","","",""
"","1086","audio-keyboard-response","225","970071","0.0-3.0-1.178","../audio/38-5-fem.mp3"," ","","patente","","","",""
"","821","audio-keyboard-response","226","971187","0.0-3.0-1.179","../audio/38-6-fem.mp3"," ","","da","","","",""
"","1280","audio-keyboard-response","227","972782","0.0-3.0-1.180","../audio/38-7-fem.mp3"," ","","frigideira.","","","",""
"","null","html-keyboard-response","228","974035","0.0-3.0-0.181-0.181","<span style= ""font-size:30px; font-family: monospace"">+</span>","null","fixation","","","","",""
"","1016","audio-keyboard-response","229","975421","0.0-3.0-1.181","../audio/37-1-fem.mp3"," ","","Eu","","","",""
"","1144","audio-keyboard-response","230","976895","0.0-3.0-1.182","../audio/37-2-fem.mp3"," ","","adoro","","","",""
"","1466","audio-keyboard-response","231","978690","0.0-3.0-1.183","../audio/37-3-fem.mp3"," ","","suco","","","",""
"","769","audio-keyboard-response","232","979760","0.0-3.0-1.184","../audio/37-4-fem.mp3"," ","","de","","","",""
"","1225","audio-keyboard-response","233","981279","0.0-3.0-1.185","../audio/37-5-fem.mp3"," ","","manga","","","",""
"","1382","audio-keyboard-response","234","982957","0.0-3.0-1.186","../audio/37-6-fem.mp3"," ","","com","","","",""
"","1457","audio-keyboard-response","235","984732","0.0-3.0-1.187","../audio/37-7-fem.mp3"," ","","hortelã.","","","",""
"","null","html-keyboard-response","236","985985","0.0-3.0-0.188-0.188","<span style= ""font-size:30px; font-family: monospace"">+</span>","null","fixation","","","","",""
"","621","audio-keyboard-response","237","986993","0.0-3.0-1.188","../audio/40-1-masc.mp3"," ","","O","","","",""
"","839","audio-keyboard-response","238","988120","0.0-3.0-1.189","../audio/40-2-masc.mp3"," ","","jogo","","","",""
"","853","audio-keyboard-response","239","989291","0.0-3.0-1.190","../audio/40-3-masc.mp3"," ","","falava","","","",""
"","729","audio-keyboard-response","240","990315","0.0-3.0-1.191","../audio/40-4-masc.mp3"," ","","de","","","",""
"","1135","audio-keyboard-response","241","991771","0.0-3.0-1.192","../audio/40-5-masc.mp3"," ","","fantasia","","","",""
"","801","audio-keyboard-response","242","992868","0.0-3.0-1.193","../audio/40-6-masc.mp3"," ","","e","","","",""
"","842","audio-keyboard-response","243","994010","0.0-3.0-1.194","../audio/40-7-masc.mp3"," ","","de","","","",""
"","1289","audio-keyboard-response","244","995626","0.0-3.0-1.195","../audio/40-8-masc.mp3"," ","","aventura.","","","",""
"","10471","html-keyboard-response","245","1006351","0.0-3.0-2.195-0.195","<span style=""font-size:25px; font-family: monospace"">O jogo tinha fantasia e aventura?</span>","s","","","O jogo tinha fantasia e aventura?","null","exp-sent","false"
"","null","html-keyboard-response","246","1007855","0.0-3.0-0.196-0.196","<span style= ""font-size:30px; font-family: monospace"">+</span>","null","fixation","","","","",""
"","760","audio-keyboard-response","247","1008982","0.0-3.0-1.196","../audio/79-1-fem.mp3"," ","","A","","","",""
"","1187","audio-keyboard-response","248","1010482","0.0-3.0-1.197","../audio/79-2-fem.mp3"," ","","médica","","","",""
"","1091","audio-keyboard-response","249","1011902","0.0-3.0-1.198","../audio/79-3-fem.mp3"," ","","verificou","","","",""
"","679","audio-keyboard-response","250","1012870","0.0-3.0-1.199","../audio/79-4-fem.mp3"," ","","a","","","",""
"","1489","audio-keyboard-response","251","1014680","0.0-3.0-1.200","../audio/79-5-fem.mp3"," ","","gengiva","","","",""
"","778","audio-keyboard-response","252","1015760","0.0-3.0-1.201","../audio/79-6-fem.mp3"," ","","por","","","",""
"","1390","audio-keyboard-response","253","1017440","0.0-3.0-1.202","../audio/79-7-fem.mp3"," ","","último.","","","",""
"","null","html-keyboard-response","254","1018693","0.0-3.0-0.203-0.203","<span style= ""font-size:30px; font-family: monospace"">+</span>","null","fixation","","","","",""
"","711","audio-keyboard-response","255","1019790","0.0-3.0-1.203","../audio/76-1-fem.mp3"," ","","O","","","",""
"","1457","audio-keyboard-response","256","1021566","0.0-3.0-1.204","../audio/76-2-fem.mp3"," ","","bisavô","","","",""
"","1048","audio-keyboard-response","257","1022904","0.0-3.0-1.205","../audio/76-3-fem.mp3"," ","","comprou","","","",""
"","760","audio-keyboard-response","258","1023962","0.0-3.0-1.206","../audio/76-4-fem.mp3"," ","","um","","","",""
"","1245","audio-keyboard-response","259","1025519","0.0-3.0-1.207","../audio/76-5-fem.mp3"," ","","ralador","","","",""
"","827","audio-keyboard-response","260","1026636","0.0-3.0-1.208","../audio/76-6-fem.mp3"," ","","de","","","",""
"","836","audio-keyboard-response","261","1027802","0.0-3.0-1.209","../audio/76-7-fem.mp3"," ","","queijo.","","","",""
"","null","html-keyboard-response","262","1029056","0.0-3.0-0.210-0.210","<span style= ""font-size:30px; font-family: monospace"">+</span>","null","fixation","","","","",""
"","113","audio-keyboard-response","263","1029539","0.0-3.0-1.210","../audio/77-1-fem.mp3"," ","","A","","","",""
"","1274","audio-keyboard-response","264","1031131","0.0-3.0-1.211","../audio/77-2-fem.mp3"," ","","criança","","","",""
"","923","audio-keyboard-response","265","1032365","0.0-3.0-1.212","../audio/77-3-fem.mp3"," ","","ficou","","","",""
"","865","audio-keyboard-response","266","1033527","0.0-3.0-1.213","../audio/77-4-fem.mp3"," ","","muito","","","",""
"","1042","audio-keyboard-response","267","1034886","0.0-3.0-1.214","../audio/77-5-fem.mp3"," ","","feliz","","","",""
"","601","audio-keyboard-response","268","1035785","0.0-3.0-1.215","../audio/77-6-fem.mp3"," ","","com","","","",""
"","566","audio-keyboard-response","269","1036651","0.0-3.0-1.216","../audio/77-7-fem.mp3"," ","","o","","","",""
"","1332","audio-keyboard-response","270","1038299","0.0-3.0-1.217","../audio/77-8-fem.mp3"," ","","brinquedo.","","","",""
"","null","html-keyboard-response","271","1039552","0.0-3.0-0.218-0.218","<span style= ""font-size:30px; font-family: monospace"">+</span>","null","fixation","","","","",""
"","760","audio-keyboard-response","272","1041517","0.0-3.0-1.218","../audio/78-1-masc.mp3"," ","","Eles","","","",""
"","871","audio-keyboard-response","273","1042687","0.0-3.0-1.219","../audio/78-2-masc.mp3"," ","","trazem","","","",""
"","1141","audio-keyboard-response","274","1044133","0.0-3.0-1.220","../audio/78-3-masc.mp3"," ","","um","","","",""
"","1196","audio-keyboard-response","275","1045635","0.0-3.0-1.221","../audio/78-4-masc.mp3"," ","","fato","","","",""
"","1242","audio-keyboard-response","276","1047227","0.0-3.0-1.222","../audio/78-5-masc.mp3"," ","","urgente","","","",""
"","943","audio-keyboard-response","277","1048469","0.0-3.0-1.223","../audio/78-6-masc.mp3"," ","","todos","","","",""
"","958","audio-keyboard-response","278","1049708","0.0-3.0-1.224","../audio/78-7-masc.mp3"," ","","os","","","",""
"","3901","audio-keyboard-response","279","1053904","0.0-3.0-1.225","../audio/78-8-masc.mp3"," ","","dias.","","","",""
"","null","html-keyboard-response","280","1055159","0.0-3.0-0.226-0.226","<span style= ""font-size:30px; font-family: monospace"">+</span>","null","fixation","","","","",""
"","868","audio-keyboard-response","281","1056424","0.0-3.0-1.226","../audio/80-1-fem.mp3"," ","","Meu","","","",""
"","1303","audio-keyboard-response","282","1058014","0.0-3.0-1.227","../audio/80-2-fem.mp3"," ","","primo","","","",""
"","1007","audio-keyboard-response","283","1059334","0.0-3.0-1.228","../audio/80-3-fem.mp3"," ","","conheceu","","","",""
"","650","audio-keyboard-response","284","1060278","0.0-3.0-1.229","../audio/80-4-fem.mp3"," ","","um","","","",""
"","1106","audio-keyboard-response","285","1061699","0.0-3.0-1.230","../audio/80-5-fem.mp3"," ","","jovem","","","",""
"","1030","audio-keyboard-response","286","1063034","0.0-3.0-1.231","../audio/80-6-fem.mp3"," ","","amável","","","",""
"","549","audio-keyboard-response","287","1063882","0.0-3.0-1.232","../audio/80-7-fem.mp3"," ","","e","","","",""
"","1387","audio-keyboard-response","288","1065628","0.0-3.0-1.233","../audio/80-8-fem.mp3"," ","","confiante.","","","",""
"","2263","html-keyboard-response","289","1068144","0.0-3.0-2.233-0.233","<span style=""font-size:25px; font-family: monospace"">O primo conheceu um jovem irritante?</span>","n","","","O primo conheceu um jovem irritante?","null","exp-sent","false"
"","null","html-keyboard-response","290","1069648","0.0-3.0-0.234-0.234","<span style= ""font-size:30px; font-family: monospace"">+</span>","null","fixation","","","","",""
"","885","audio-keyboard-response","291","1070928","0.0-3.0-1.234","../audio/29-1-fem.mp3"," ","","Hoje","","","",""
"","1512","audio-keyboard-response","292","1072759","0.0-3.0-1.235","../audio/29-2-fem.mp3"," ","","vamos","","","",""
"","1042","audio-keyboard-response","293","1074131","0.0-3.0-1.236","../audio/29-3-fem.mp3"," ","","fazer","","","",""
"","865","audio-keyboard-response","294","1075315","0.0-3.0-1.237","../audio/29-4-fem.mp3"," ","","uma","","","",""
"","1649","audio-keyboard-response","295","1077306","0.0-3.0-1.238","../audio/29-5-fem.mp3"," ","","atividade","","","",""
"","1077","audio-keyboard-response","296","1078702","0.0-3.0-1.239","../audio/29-6-fem.mp3"," ","","sobre","","","",""
"","1059","audio-keyboard-response","297","1080089","0.0-3.0-1.240","../audio/29-7-fem.mp3"," ","","fauna","","","",""
"","13407","audio-keyboard-response","298","1093815","0.0-3.0-1.241","../audio/29-8-fem.mp3"," ","","marinha.","","","",""
"","null","html-keyboard-response","299","1095068","0.0-3.0-0.242-0.242","<span style= ""font-size:30px; font-family: monospace"">+</span>","null","fixation","","","","",""
"","932","audio-keyboard-response","300","1096377","0.0-3.0-1.242","../audio/26-1-masc.mp3"," ","","Amanhã","","","",""
"","737","audio-keyboard-response","301","1097406","0.0-3.0-1.243","../audio/26-2-masc.mp3"," ","","temos","","","",""
"","813","audio-keyboard-response","302","1098584","0.0-3.0-1.244","../audio/26-3-masc.mp3"," ","","festa","","","",""
"","772","audio-keyboard-response","303","1099667","0.0-3.0-1.245","../audio/26-4-masc.mp3"," ","","na","","","",""
"","879","audio-keyboard-response","304","1100850","0.0-3.0-1.246","../audio/26-5-masc.mp3"," ","","piscina","","","",""
"","711","audio-keyboard-response","305","1101850","0.0-3.0-1.247","../audio/26-6-masc.mp3"," ","","o","","","",""
"","865","audio-keyboard-response","306","1103013","0.0-3.0-1.248","../audio/26-7-masc.mp3"," ","","dia","","","",""
"","2334","audio-keyboard-response","307","1105646","0.0-3.0-1.249","../audio/26-8-masc.mp3"," ","","todo.","","","",""
"","null","html-keyboard-response","308","1106900","0.0-3.0-0.250-0.250","<span style= ""font-size:30px; font-family: monospace"">+</span>","null","fixation","","","","",""
"","1193","audio-keyboard-response","309","1108466","0.0-3.0-1.250","../audio/28-1-masc.mp3"," ","","O","","","",""
"","1103","audio-keyboard-response","310","1109864","0.0-3.0-1.251","../audio/28-2-masc.mp3"," ","","time","","","",""
"","1025","audio-keyboard-response","311","1111186","0.0-3.0-1.252","../audio/28-3-masc.mp3"," ","","quer","","","",""
"","885","audio-keyboard-response","312","1112376","0.0-3.0-1.253","../audio/28-4-masc.mp3"," ","","a","","","",""
"","1271","audio-keyboard-response","313","1113965","0.0-3.0-1.254","../audio/28-5-masc.mp3"," ","","vitória","","","",""
"","903","audio-keyboard-response","314","1115174","0.0-3.0-1.255","../audio/28-6-masc.mp3"," ","","no","","","",""
"","975","audio-keyboard-response","315","1116446","0.0-3.0-1.256","../audio/28-7-masc.mp3"," ","","jogo","","","",""
"","845","audio-keyboard-response","316","1117590","0.0-3.0-1.257","../audio/28-8-masc.mp3"," ","","de","","","",""
"","1382","audio-keyboard-response","317","1119279","0.0-3.0-1.258","../audio/28-9-masc.mp3"," ","","vôlei.","","","",""
"","null","html-keyboard-response","318","1120532","0.0-3.0-0.259-0.259","<span style= ""font-size:30px; font-family: monospace"">+</span>","null","fixation","","","","",""
"","714","audio-keyboard-response","319","1121630","0.0-3.0-1.259","../audio/27-1-masc.mp3"," ","","O","","","",""
"","1231","audio-keyboard-response","320","1123171","0.0-3.0-1.260","../audio/27-2-masc.mp3"," ","","dinheiro","","","",""
"","949","audio-keyboard-response","321","1124428","0.0-3.0-1.261","../audio/27-3-masc.mp3"," ","","chegou","","","",""
"","1149","audio-keyboard-response","322","1125874","0.0-3.0-1.262","../audio/27-4-masc.mp3"," ","","à","","","",""
"","1048","audio-keyboard-response","323","1127249","0.0-3.0-1.263","../audio/27-5-masc.mp3"," ","","elite","","","",""
"","952","audio-keyboard-response","324","1128499","0.0-3.0-1.264","../audio/27-6-masc.mp3"," ","","deste","","","",""
"","958","audio-keyboard-response","325","1129765","0.0-3.0-1.265","../audio/27-7-masc.mp3"," ","","país.","","","",""
"","null","html-keyboard-response","326","1131019","0.0-3.0-0.266-0.266","<span style= ""font-size:30px; font-family: monospace"">+</span>","null","fixation","","","","",""
"","673","audio-keyboard-response","327","1132132","0.0-3.0-1.266","../audio/30-1-masc.mp3"," ","","O","","","",""
"","1213","audio-keyboard-response","328","1133666","0.0-3.0-1.267","../audio/30-2-masc.mp3"," ","","funcionário","","","",""
"","1588","audio-keyboard-response","329","1135570","0.0-3.0-1.268","../audio/30-3-masc.mp3"," ","","entregou","","","",""
"","816","audio-keyboard-response","330","1136685","0.0-3.0-1.269","../audio/30-4-masc.mp3"," ","","o","","","",""
"","2406","audio-keyboard-response","331","1139419","0.0-3.0-1.270","../audio/30-5-masc.mp3"," ","","restante","","","",""
"","911","audio-keyboard-response","332","1140698","0.0-3.0-1.271","../audio/30-6-masc.mp3"," ","","do","","","",""
"","2006","audio-keyboard-response","333","1143018","0.0-3.0-1.272","../audio/30-7-masc.mp3"," ","","dinheiro.","","","",""
"","3622","html-keyboard-response","334","1146892","0.0-3.0-2.272-0.272","<span style=""font-size:25px; font-family: monospace"">O funcionário entregou o contrato?</span>","n","","","O funcionário entregou o contrato?","null","exp-sent","false"
"","null","html-keyboard-response","335","1148396","0.0-3.0-0.273-0.273","<span style= ""font-size:30px; font-family: monospace"">+</span>","null","fixation","","","","",""
"","821","audio-keyboard-response","336","1149600","0.0-3.0-1.273","../audio/48-1-masc.mp3"," ","","Ela","","","",""
"","1141","audio-keyboard-response","337","1151039","0.0-3.0-1.274","../audio/48-2-masc.mp3"," ","","come","","","",""
"","1199","audio-keyboard-response","338","1152526","0.0-3.0-1.275","../audio/48-3-masc.mp3"," ","","feijão","","","",""
"","720","audio-keyboard-response","339","1153544","0.0-3.0-1.276","../audio/48-4-masc.mp3"," ","","com","","","",""
"","1033","audio-keyboard-response","340","1154863","0.0-3.0-1.277","../audio/48-5-masc.mp3"," ","","arroz","","","",""
"","2293","audio-keyboard-response","341","1157457","0.0-3.0-1.278","../audio/48-6-masc.mp3"," ","","todos","","","",""
"","694","audio-keyboard-response","342","1158519","0.0-3.0-1.279","../audio/48-7-masc.mp3"," ","","os","","","",""
"","784","audio-keyboard-response","343","1159619","0.0-3.0-1.280","../audio/48-8-masc.mp3"," ","","dias.","","","",""
"","null","html-keyboard-response","344","1160872","0.0-3.0-0.281-0.281","<span style= ""font-size:30px; font-family: monospace"">+</span>","null","fixation","","","","",""
"","795","audio-keyboard-response","345","1162874","0.0-3.0-1.281","../audio/49-1-fem.mp3"," ","","Eu","","","",""
"","955","audio-keyboard-response","346","1164116","0.0-3.0-1.282","../audio/49-2-fem.mp3"," ","","quero","","","",""
"","877","audio-keyboard-response","347","1165302","0.0-3.0-1.283","../audio/49-3-fem.mp3"," ","","um","","","",""
"","2438","audio-keyboard-response","348","1168032","0.0-3.0-1.284","../audio/49-4-fem.mp3"," ","","lanche","","","",""
"","778","audio-keyboard-response","349","1169180","0.0-3.0-1.285","../audio/49-5-fem.mp3"," ","","duplo","","","",""
"","827","audio-keyboard-response","350","1170306","0.0-3.0-1.286","../audio/49-6-fem.mp3"," ","","e","","","",""
"","816","audio-keyboard-response","351","1171415","0.0-3.0-1.287","../audio/49-7-fem.mp3"," ","","um","","","",""
"","4081","audio-keyboard-response","352","1175827","0.0-3.0-1.288","../audio/49-8-fem.mp3"," ","","suco.","","","",""
"","null","html-keyboard-response","353","1177080","0.0-3.0-0.289-0.289","<span style= ""font-size:30px; font-family: monospace"">+</span>","null","fixation","","","","",""
"","676","audio-keyboard-response","354","1178123","0.0-3.0-1.289","../audio/47-1-masc.mp3"," ","","O","","","",""
"","1117","audio-keyboard-response","355","1179559","0.0-3.0-1.290","../audio/47-2-masc.mp3"," ","","tio","","","",""
"","874","audio-keyboard-response","356","1180764","0.0-3.0-1.291","../audio/47-3-masc.mp3"," ","","recusou","","","",""
"","720","audio-keyboard-response","357","1181776","0.0-3.0-1.292","../audio/47-4-masc.mp3"," ","","a","","","",""
"","1112","audio-keyboard-response","358","1183199","0.0-3.0-1.293","../audio/47-5-masc.mp3"," ","","sobremesa","","","",""
"","1173","audio-keyboard-response","359","1184674","0.0-3.0-1.294","../audio/47-6-masc.mp3"," ","","no","","","",""
"","1707","audio-keyboard-response","360","1186681","0.0-3.0-1.295","../audio/47-7-masc.mp3"," ","","almoço.","","","",""
"","null","html-keyboard-response","361","1187934","0.0-3.0-0.296-0.296","<span style= ""font-size:30px; font-family: monospace"">+</span>","null","fixation","","","","",""
"","827","audio-keyboard-response","362","1189108","0.0-3.0-1.296","../audio/46-1-fem.mp3"," ","","Meu","","","",""
"","917","audio-keyboard-response","363","1190339","0.0-3.0-1.297","../audio/46-2-fem.mp3"," ","","primo","","","",""
"","1213","audio-keyboard-response","364","1191921","0.0-3.0-1.298","../audio/46-3-fem.mp3"," ","","estava","","","",""
"","1721","audio-keyboard-response","365","1193965","0.0-3.0-1.299","../audio/46-4-fem.mp3"," ","","muito","","","",""
"","1393","audio-keyboard-response","366","1195754","0.0-3.0-1.300","../audio/46-5-fem.mp3"," ","","deprimido","","","",""
"","1585","audio-keyboard-response","367","1197690","0.0-3.0-1.301","../audio/46-6-fem.mp3"," ","","no","","","",""
"","4737","audio-keyboard-response","368","1202741","0.0-3.0-1.302","../audio/46-7-fem.mp3"," ","","inverno.","","","",""
"","null","html-keyboard-response","369","1203995","0.0-3.0-0.303-0.303","<span style= ""font-size:30px; font-family: monospace"">+</span>","null","fixation","","","","",""
"","816","audio-keyboard-response","370","1205184","0.0-3.0-1.303","../audio/50-1-masc.mp3"," ","","O","","","",""
"","1062","audio-keyboard-response","371","1206539","0.0-3.0-1.304","../audio/50-2-masc.mp3"," ","","pássaro","","","",""
"","958","audio-keyboard-response","372","1207801","0.0-3.0-1.305","../audio/50-3-masc.mp3"," ","","fugiu","","","",""
"","731","audio-keyboard-response","373","1208823","0.0-3.0-1.306","../audio/50-4-masc.mp3"," ","","da","","","",""
"","1135","audio-keyboard-response","374","1210272","0.0-3.0-1.307","../audio/50-5-masc.mp3"," ","","gaiola","","","",""
"","778","audio-keyboard-response","375","1211548","0.0-3.0-1.308","../audio/50-6-masc.mp3"," ","","pela","","","",""
"","1544","audio-keyboard-response","376","1213802","0.0-3.0-1.309","../audio/50-7-masc.mp3"," ","","portinhola.","","","",""
"","2853","html-keyboard-response","377","1216908","0.0-3.0-2.309-0.309","<span style=""font-size:25px; font-family: monospace"">O pássaro fugiu da gaiola?</span>","s","","","O pássaro fugiu da gaiola?","null","exp-sent","false"
"","null","html-keyboard-response","378","1218412","0.0-3.0-0.310-0.310","<span style= ""font-size:30px; font-family: monospace"">+</span>","null","fixation","","","","",""
"","107","audio-keyboard-response","379","1219020","0.0-3.0-1.310","../audio/58-1-masc.mp3"," ","","Havia","","","",""
"","1146","audio-keyboard-response","380","1220476","0.0-3.0-1.311","../audio/58-2-masc.mp3"," ","","apenas","","","",""
"","580","audio-keyboard-response","381","1221350","0.0-3.0-1.312","../audio/58-3-masc.mp3"," ","","um","","","",""
"","920","audio-keyboard-response","382","1222601","0.0-3.0-1.313","../audio/58-4-masc.mp3"," ","","último","","","",""
"","906","audio-keyboard-response","383","1223795","0.0-3.0-1.314","../audio/58-5-masc.mp3"," ","","herdeiro","","","",""
"","612","audio-keyboard-response","384","1224722","0.0-3.0-1.315","../audio/58-6-masc.mp3"," ","","do","","","",""
"","1364","audio-keyboard-response","385","1226400","0.0-3.0-1.316","../audio/58-7-masc.mp3"," ","","dinheiro.","","","",""
"","null","html-keyboard-response","386","1227653","0.0-3.0-0.317-0.317","<span style= ""font-size:30px; font-family: monospace"">+</span>","null","fixation","","","","",""
"","473","audio-keyboard-response","387","1228506","0.0-3.0-1.317","../audio/59-1-fem.mp3"," ","","O","","","",""
"","833","audio-keyboard-response","388","1229663","0.0-3.0-1.318","../audio/59-2-fem.mp3"," ","","carteiro","","","",""
"","676","audio-keyboard-response","389","1230635","0.0-3.0-1.319","../audio/59-3-fem.mp3"," ","","fez","","","",""
"","874","audio-keyboard-response","390","1231799","0.0-3.0-1.320","../audio/59-4-fem.mp3"," ","","uma","","","",""
"","1260","audio-keyboard-response","391","1233390","0.0-3.0-1.321","../audio/59-5-fem.mp3"," ","","tentativa","","","",""
"","627","audio-keyboard-response","392","1234317","0.0-3.0-1.322","../audio/59-6-fem.mp3"," ","","de","","","",""
"","1100","audio-keyboard-response","393","1235727","0.0-3.0-1.323","../audio/59-7-fem.mp3"," ","","entrega.","","","",""
"","null","html-keyboard-response","394","1236981","0.0-3.0-0.324-0.324","<span style= ""font-size:30px; font-family: monospace"">+</span>","null","fixation","","","","",""
"","549","audio-keyboard-response","395","1237891","0.0-3.0-1.324","../audio/56-1-masc.mp3"," ","","A","","","",""
"","923","audio-keyboard-response","396","1239118","0.0-3.0-1.325","../audio/56-2-masc.mp3"," ","","moça","","","",""
"","598","audio-keyboard-response","397","1240014","0.0-3.0-1.326","../audio/56-3-masc.mp3"," ","","foi","","","",""
"","659","audio-keyboard-response","398","1240968","0.0-3.0-1.327","../audio/56-4-masc.mp3"," ","","à","","","",""
"","1390","audio-keyboard-response","399","1242662","0.0-3.0-1.328","../audio/56-5-masc.mp3"," ","","agência","","","",""
"","1036","audio-keyboard-response","400","1244019","0.0-3.0-1.329","../audio/56-6-masc.mp3"," ","","bancária","","","",""
"","981","audio-keyboard-response","401","1245314","0.0-3.0-1.330","../audio/56-7-masc.mp3"," ","","ontem","","","",""
"","781","audio-keyboard-response","402","1246396","0.0-3.0-1.331","../audio/56-8-masc.mp3"," ","","de","","","",""
"","1718","audio-keyboard-response","403","1248418","0.0-3.0-1.332","../audio/56-9-masc.mp3"," ","","tarde.","","","",""
"","null","html-keyboard-response","404","1249670","0.0-3.0-0.333-0.333","<span style= ""font-size:30px; font-family: monospace"">+</span>","null","fixation","","","","",""
"","557","audio-keyboard-response","405","1250634","0.0-3.0-1.333","../audio/57-1-fem.mp3"," ","","O","","","",""
"","1083","audio-keyboard-response","406","1252033","0.0-3.0-1.334","../audio/57-2-fem.mp3"," ","","capitão","","","",""
"","775","audio-keyboard-response","407","1253304","0.0-3.0-1.335","../audio/57-3-fem.mp3"," ","","deu","","","",""
"","1051","audio-keyboard-response","408","1254651","0.0-3.0-1.336","../audio/57-4-fem.mp3"," ","","uma","","","",""
"","493","audio-keyboard-response","409","1255547","0.0-3.0-1.337","../audio/57-5-fem.mp3"," ","","instrução","","","",""
"","1112","audio-keyboard-response","410","1256983","0.0-3.0-1.338","../audio/57-6-fem.mp3"," ","","para","","","",""
"","784","audio-keyboard-response","411","1258085","0.0-3.0-1.339","../audio/57-7-fem.mp3"," ","","as","","","",""
"","1431","audio-keyboard-response","412","1259819","0.0-3.0-1.340","../audio/57-8-fem.mp3"," ","","pessoas.","","","",""
"","null","html-keyboard-response","413","1261072","0.0-3.0-0.341-0.341","<span style= ""font-size:30px; font-family: monospace"">+</span>","null","fixation","","","","",""
"","789","audio-keyboard-response","414","1262236","0.0-3.0-1.341","../audio/60-1-masc.mp3"," ","","Ondas","","","",""
"","766","audio-keyboard-response","415","1263302","0.0-3.0-1.342","../audio/60-2-masc.mp3"," ","","têm","","","",""
"","792","audio-keyboard-response","416","1264388","0.0-3.0-1.343","../audio/60-3-masc.mp3"," ","","um","","","",""
"","1051","audio-keyboard-response","417","1265768","0.0-3.0-1.344","../audio/60-4-masc.mp3"," ","","impacto","","","",""
"","1257","audio-keyboard-response","418","1267354","0.0-3.0-1.345","../audio/60-5-masc.mp3"," ","","destrutivo","","","",""
"","708","audio-keyboard-response","419","1268365","0.0-3.0-1.346","../audio/60-6-masc.mp3"," ","","no","","","",""
"","2101","audio-keyboard-response","420","1270778","0.0-3.0-1.347","../audio/60-7-masc.mp3"," ","","litoral.","","","",""
"","5349","html-keyboard-response","421","1276379","0.0-3.0-2.347-0.347","<span style=""font-size:25px; font-family: monospace"">Ondas têm um impacto destrutivo?</span>","s","","","Ondas têm um impacto destrutivo?","null","exp-sent","false"
"","null","html-keyboard-response","422","1277883","0.0-3.0-0.348-0.348","<span style= ""font-size:30px; font-family: monospace"">+</span>","null","fixation","","","","",""
"","23263","audio-keyboard-response","423","1301527","0.0-3.0-1.348","../audio/13-1-masc.mp3"," ","","Para","","","",""
"","650","audio-keyboard-response","424","1302599","0.0-3.0-1.349","../audio/13-2-masc.mp3"," ","","mim","","","",""
"","653","audio-keyboard-response","425","1303721","0.0-3.0-1.350","../audio/13-3-masc.mp3"," ","","é","","","",""
"","789","audio-keyboard-response","426","1304871","0.0-3.0-1.351","../audio/13-4-masc.mp3"," ","","muito","","","",""
"","853","audio-keyboard-response","427","1306351","0.0-3.0-1.352","../audio/13-5-masc.mp3"," ","","difícil","","","",""
"","1007","audio-keyboard-response","428","1308017","0.0-3.0-1.353","../audio/13-6-masc.mp3"," ","","acordar","","","",""
"","1599","audio-keyboard-response","429","1310146","0.0-3.0-1.354","../audio/13-7-masc.mp3"," ","","cedo.","","","",""
"","null","html-keyboard-response","430","1311400","0.0-3.0-0.355-0.355","<span style= ""font-size:30px; font-family: monospace"">+</span>","null","fixation","","","","",""
"","763","audio-keyboard-response","431","1313170","0.0-3.0-1.355","../audio/12-1-masc.mp3"," ","","O","","","",""
"","647","audio-keyboard-response","432","1314535","0.0-3.0-1.356","../audio/12-2-masc.mp3"," ","","dia","","","",""
"","903","audio-keyboard-response","433","1315857","0.0-3.0-1.357","../audio/12-3-masc.mp3"," ","","estava","","","",""
"","102574","audio-keyboard-response","434","1418742","0.0-3.0-1.358","../audio/12-4-masc.mp3"," ","","quente,","","","",""
"","926","audio-keyboard-response","435","1420070","0.0-3.0-1.359","../audio/12-5-masc.mp3"," ","","tranquilo","","","",""
"","708","audio-keyboard-response","436","1421089","0.0-3.0-1.360","../audio/12-6-masc.mp3"," ","","e","","","",""
"","1384","audio-keyboard-response","437","1422835","0.0-3.0-1.361","../audio/12-7-masc.mp3"," ","","ensolarado.","","","",""
"","null","html-keyboard-response","438","1424088","0.0-3.0-0.362-0.362","<span style= ""font-size:30px; font-family: monospace"">+</span>","null","fixation","","","","",""
"","972","audio-keyboard-response","439","1426073","0.0-3.0-1.362","../audio/11-1-fem.mp3"," ","","Elas","","","",""
"","842","audio-keyboard-response","440","1427264","0.0-3.0-1.363","../audio/11-2-fem.mp3"," ","","gostam","","","",""
"","827","audio-keyboard-response","441","1428431","0.0-3.0-1.364","../audio/11-3-fem.mp3"," ","","muito","","","",""
"","473","audio-keyboard-response","442","1429345","0.0-3.0-1.365","../audio/11-4-fem.mp3"," ","","de","","","",""
"","1596","audio-keyboard-response","443","1431301","0.0-3.0-1.366","../audio/11-5-fem.mp3"," ","","aritmética","","","",""
"","549","audio-keyboard-response","444","1432153","0.0-3.0-1.367","../audio/11-6-fem.mp3"," ","","e","","","",""
"","569","audio-keyboard-response","445","1433012","0.0-3.0-1.368","../audio/11-7-fem.mp3"," ","","de","","","",""
"","2128","audio-keyboard-response","446","1435476","0.0-3.0-1.369","../audio/11-8-fem.mp3"," ","","leitura.","","","",""
"","null","html-keyboard-response","447","1436729","0.0-3.0-0.370-0.370","<span style= ""font-size:30px; font-family: monospace"">+</span>","null","fixation","","","","",""
"","688","audio-keyboard-response","448","1437793","0.0-3.0-1.370","../audio/14-1-masc.mp3"," ","","O","","","",""
"","996","audio-keyboard-response","449","1439161","0.0-3.0-1.371","../audio/14-2-masc.mp3"," ","","cachorro","","","",""
"","580","audio-keyboard-response","450","1440052","0.0-3.0-1.372","../audio/14-3-masc.mp3"," ","","é","","","",""
"","676","audio-keyboard-response","451","1441057","0.0-3.0-1.373","../audio/14-4-masc.mp3"," ","","muito","","","",""
"","685","audio-keyboard-response","452","1442056","0.0-3.0-1.374","../audio/14-5-masc.mp3"," ","","fiel","","","",""
"","566","audio-keyboard-response","453","1442925","0.0-3.0-1.375","../audio/14-6-masc.mp3"," ","","a","","","",""
"","700","audio-keyboard-response","454","1443935","0.0-3.0-1.376","../audio/14-7-masc.mp3"," ","","seus","","","",""
"","740","audio-keyboard-response","455","1444990","0.0-3.0-1.377","../audio/14-8-masc.mp3"," ","","donos.","","","",""
"","null","html-keyboard-response","456","1446242","0.0-3.0-0.378-0.378","<span style= ""font-size:30px; font-family: monospace"">+</span>","null","fixation","","","","",""
"","488","audio-keyboard-response","457","1447133","0.0-3.0-1.378","../audio/15-1-masc.mp3"," ","","Meu","","","",""
"","546","audio-keyboard-response","458","1447976","0.0-3.0-1.379","../audio/15-2-masc.mp3"," ","","primo","","","",""
"","940","audio-keyboard-response","459","1449228","0.0-3.0-1.380","../audio/15-3-masc.mp3"," ","","é","","","",""
"","737","audio-keyboard-response","460","1450260","0.0-3.0-1.381","../audio/15-4-masc.mp3"," ","","um","","","",""
"","731","audio-keyboard-response","461","1451289","0.0-3.0-1.382","../audio/15-5-masc.mp3"," ","","grande","","","",""
"","1001","audio-keyboard-response","462","1452665","0.0-3.0-1.383","../audio/15-6-masc.mp3"," ","","vendedor","","","",""
"","569","audio-keyboard-response","463","1453543","0.0-3.0-1.384","../audio/15-7-masc.mp3"," ","","de","","","",""
"","935","audio-keyboard-response","464","1454795","0.0-3.0-1.385","../audio/15-8-masc.mp3"," ","","carros.","","","",""
"","4007","html-keyboard-response","465","1459054","0.0-3.0-2.385-0.385","<span style=""font-size:25px; font-family: monospace"">O primo é um vendedor de carros?</span>","s","","","O primo é um vendedor de carros?","null","exp-sent","false"
"","null","html-keyboard-response","466","1460558","0.0-3.0-0.386-0.386","<span style= ""font-size:30px; font-family: monospace"">+</span>","null","fixation","","","","",""
"","229","audio-keyboard-response","467","1461195","0.0-3.0-1.386","../audio/52-1-masc.mp3"," ","","Às","","","",""
"","1181","audio-keyboard-response","468","1462733","0.0-3.0-1.387","../audio/52-2-masc.mp3"," ","","vezes","","","",""
"","726","audio-keyboard-response","469","1463757","0.0-3.0-1.388","../audio/52-3-masc.mp3"," ","","eu","","","",""
"","714","audio-keyboard-response","470","1464960","0.0-3.0-1.389","../audio/52-4-masc.mp3"," ","","tenho","","","",""
"","795","audio-keyboard-response","471","1466217","0.0-3.0-1.390","../audio/52-5-masc.mp3"," ","","azia","","","",""
"","943","audio-keyboard-response","472","1467475","0.0-3.0-1.391","../audio/52-6-masc.mp3"," ","","depois","","","",""
"","464","audio-keyboard-response","473","1468656","0.0-3.0-1.392","../audio/52-7-masc.mp3"," ","","da","","","",""
"","1927","audio-keyboard-response","474","1470946","0.0-3.0-1.393","../audio/52-8-masc.mp3"," ","","janta.","","","",""
"","null","html-keyboard-response","475","1472199","0.0-3.0-0.394-0.394","<span style= ""font-size:30px; font-family: monospace"">+</span>","null","fixation","","","","",""
"","134","audio-keyboard-response","476","1473111","0.0-3.0-1.394","../audio/54-1-masc.mp3"," ","","Estou","","","",""
"","1196","audio-keyboard-response","477","1475330","0.0-3.0-1.395","../audio/54-2-masc.mp3"," ","","com","","","",""
"","958","audio-keyboard-response","478","1477498","0.0-3.0-1.396","../audio/54-3-masc.mp3"," ","","medo","","","",""
"","766","audio-keyboard-response","479","1478591","0.0-3.0-1.397","../audio/54-4-masc.mp3"," ","","da","","","",""
"","1054","audio-keyboard-response","480","1480095","0.0-3.0-1.398","../audio/54-5-masc.mp3"," ","","atual","","","",""
"","1196","audio-keyboard-response","481","1481810","0.0-3.0-1.399","../audio/54-6-masc.mp3"," ","","organização","","","",""
"","624","audio-keyboard-response","482","1482854","0.0-3.0-1.400","../audio/54-7-masc.mp3"," ","","do","","","",""
"","1997","audio-keyboard-response","483","1485478","0.0-3.0-1.401","../audio/54-8-masc.mp3"," ","","país.","","","",""
"","null","html-keyboard-response","484","1486731","0.0-3.0-0.402-0.402","<span style= ""font-size:30px; font-family: monospace"">+</span>","null","fixation","","","","",""
"","560","audio-keyboard-response","485","1487714","0.0-3.0-1.402","../audio/53-1-fem.mp3"," ","","O","","","",""
"","1141","audio-keyboard-response","486","1489156","0.0-3.0-1.403","../audio/53-2-fem.mp3"," ","","médico","","","",""
"","801","audio-keyboard-response","487","1490253","0.0-3.0-1.404","../audio/53-3-fem.mp3"," ","","foi","","","",""
"","1236","audio-keyboard-response","488","1491830","0.0-3.0-1.405","../audio/53-4-fem.mp3"," ","","bastante","","","",""
"","1074","audio-keyboard-response","489","1493257","0.0-3.0-1.406","../audio/53-5-fem.mp3"," ","","preciso","","","",""
"","955","audio-keyboard-response","490","1494501","0.0-3.0-1.407","../audio/53-6-fem.mp3"," ","","durante","","","",""
"","819","audio-keyboard-response","491","1495654","0.0-3.0-1.408","../audio/53-7-fem.mp3"," ","","a","","","",""
"","1593","audio-keyboard-response","492","1497601","0.0-3.0-1.409","../audio/53-8-fem.mp3"," ","","cirurgia.","","","",""
"","null","html-keyboard-response","493","1498854","0.0-3.0-0.410-0.410","<span style= ""font-size:30px; font-family: monospace"">+</span>","null","fixation","","","","",""
"","737","audio-keyboard-response","494","1499966","0.0-3.0-1.410","../audio/51-1-fem.mp3"," ","","Suco","","","",""
"","601","audio-keyboard-response","495","1500875","0.0-3.0-1.411","../audio/51-2-fem.mp3"," ","","de","","","",""
"","1309","audio-keyboard-response","496","1502504","0.0-3.0-1.412","../audio/51-3-fem.mp3"," ","","acerola","","","",""
"","499","audio-keyboard-response","497","1503298","0.0-3.0-1.413","../audio/51-4-fem.mp3"," ","","é","","","",""
"","1045","audio-keyboard-response","498","1504659","0.0-3.0-1.414","../audio/51-5-fem.mp3"," ","","azedo","","","",""
"","514","audio-keyboard-response","499","1505461","0.0-3.0-1.415","../audio/51-6-fem.mp3"," ","","e","","","",""
"","888","audio-keyboard-response","500","1506658","0.0-3.0-1.416","../audio/51-7-fem.mp3"," ","","até","","","",""
"","1088","audio-keyboard-response","501","1508078","0.0-3.0-1.417","../audio/51-8-fem.mp3"," ","","barato.","","","",""
"","null","html-keyboard-response","502","1509332","0.0-3.0-0.418-0.418","<span style= ""font-size:30px; font-family: monospace"">+</span>","null","fixation","","","","",""
"","32","audio-keyboard-response","503","1509768","0.0-3.0-1.418","../audio/55-1-masc.mp3"," ","","O","","","",""
"","938","audio-keyboard-response","504","1511023","0.0-3.0-1.419","../audio/55-2-masc.mp3"," ","","insulto","","","",""
"","935","audio-keyboard-response","505","1512659","0.0-3.0-1.420","../audio/55-3-masc.mp3"," ","","recente","","","",""
"","731","audio-keyboard-response","506","1513905","0.0-3.0-1.421","../audio/55-4-masc.mp3"," ","","causou","","","",""
"","1115","audio-keyboard-response","507","1515876","0.0-3.0-1.422","../audio/55-5-masc.mp3"," ","","indignação","","","",""
"","610","audio-keyboard-response","508","1516825","0.0-3.0-1.423","../audio/55-6-masc.mp3"," ","","em","","","",""
"","598","audio-keyboard-response","509","1517976","0.0-3.0-1.424","../audio/55-7-masc.mp3"," ","","todos.","","","",""
"","5318","html-keyboard-response","510","1523546","0.0-3.0-2.424-0.424","<span style=""font-size:25px; font-family: monospace"">O insulto causou calmaria?</span>","n","","","O insulto causou calmaria?","null","exp-sent","false"
"","null","html-keyboard-response","511","1525050","0.0-3.0-0.425-0.425","<span style= ""font-size:30px; font-family: monospace"">+</span>","null","fixation","","","","",""
"","615","audio-keyboard-response","512","1526056","0.0-3.0-1.425","../audio/08-1-masc.mp3"," ","","A","","","",""
"","975","audio-keyboard-response","513","1527350","0.0-3.0-1.426","../audio/08-2-masc.mp3"," ","","receita","","","",""
"","827","audio-keyboard-response","514","1528464","0.0-3.0-1.427","../audio/08-3-masc.mp3"," ","","pede","","","",""
"","850","audio-keyboard-response","515","1529630","0.0-3.0-1.428","../audio/08-4-masc.mp3"," ","","um","","","",""
"","1007","audio-keyboard-response","516","1530932","0.0-3.0-1.429","../audio/08-5-masc.mp3"," ","","litro","","","",""
"","607","audio-keyboard-response","517","1531825","0.0-3.0-1.430","../audio/08-6-masc.mp3"," ","","de","","","",""
"","932","audio-keyboard-response","518","1533059","0.0-3.0-1.431","../audio/08-7-masc.mp3"," ","","leite","","","",""
"","1077","audio-keyboard-response","519","1534458","0.0-3.0-1.432","../audio/08-8-masc.mp3"," ","","integral.","","","",""
"","null","html-keyboard-response","520","1535712","0.0-3.0-0.433-0.433","<span style= ""font-size:30px; font-family: monospace"">+</span>","null","fixation","","","","",""
"","1051","audio-keyboard-response","521","1537146","0.0-3.0-1.433","../audio/06-1-masc.mp3"," ","","Ouvimos","","","",""
"","647","audio-keyboard-response","522","1538090","0.0-3.0-1.434","../audio/06-2-masc.mp3"," ","","a","","","",""
"","737","audio-keyboard-response","523","1539123","0.0-3.0-1.435","../audio/06-3-masc.mp3"," ","","fala","","","",""
"","1004","audio-keyboard-response","524","1540419","0.0-3.0-1.436","../audio/06-4-masc.mp3"," ","","do","","","",""
"","987","audio-keyboard-response","525","1541714","0.0-3.0-1.437","../audio/06-5-masc.mp3"," ","","profeta","","","",""
"","1527","audio-keyboard-response","526","1543551","0.0-3.0-1.438","../audio/06-6-masc.mp3"," ","","no","","","",""
"","787","audio-keyboard-response","527","1544632","0.0-3.0-1.439","../audio/06-7-masc.mp3"," ","","púlpito","","","",""
"","673","audio-keyboard-response","528","1545606","0.0-3.0-1.440","../audio/06-8-masc.mp3"," ","","da","","","",""
"","972","audio-keyboard-response","529","1546892","0.0-3.0-1.441","../audio/06-9-masc.mp3"," ","","igreja.","","","",""
"","null","html-keyboard-response","530","1548146","0.0-3.0-0.442-0.442","<span style= ""font-size:30px; font-family: monospace"">+</span>","null","fixation","","","","",""
"","691","audio-keyboard-response","531","1549207","0.0-3.0-1.442","../audio/07-1-masc.mp3"," ","","Meu","","","",""
"","700","audio-keyboard-response","532","1550210","0.0-3.0-1.443","../audio/07-2-masc.mp3"," ","","filho","","","",""
"","522","audio-keyboard-response","533","1551041","0.0-3.0-1.444","../audio/07-3-masc.mp3"," ","","é","","","",""
"","784","audio-keyboard-response","534","1552123","0.0-3.0-1.445","../audio/07-4-masc.mp3"," ","","muito","","","",""
"","1373","audio-keyboard-response","535","1553828","0.0-3.0-1.446","../audio/07-5-masc.mp3"," ","","responsável","","","",""
"","578","audio-keyboard-response","536","1554700","0.0-3.0-1.447","../audio/07-6-masc.mp3"," ","","nos","","","",""
"","1007","audio-keyboard-response","537","1556109","0.0-3.0-1.448","../audio/07-7-masc.mp3"," ","","estudos.","","","",""
"","null","html-keyboard-response","538","1557361","0.0-3.0-0.449-0.449","<span style= ""font-size:30px; font-family: monospace"">+</span>","null","fixation","","","","",""
"","241","audio-keyboard-response","539","1557973","0.0-3.0-1.449","../audio/09-1-fem.mp3"," ","","O","","","",""
"","879","audio-keyboard-response","540","1559186","0.0-3.0-1.450","../audio/09-2-fem.mp3"," ","","rapaz","","","",""
"","1086","audio-keyboard-response","541","1560564","0.0-3.0-1.451","../audio/09-3-fem.mp3"," ","","limpou","","","",""
"","540","audio-keyboard-response","542","1561403","0.0-3.0-1.452","../audio/09-4-fem.mp3"," ","","o","","","",""
"","763","audio-keyboard-response","543","1562451","0.0-3.0-1.453","../audio/09-5-fem.mp3"," ","","terreno","","","",""
"","537","audio-keyboard-response","544","1563279","0.0-3.0-1.454","../audio/09-6-fem.mp3"," ","","com","","","",""
"","647","audio-keyboard-response","545","1564208","0.0-3.0-1.455","../audio/09-7-fem.mp3"," ","","uma","","","",""
"","607","audio-keyboard-response","546","1565105","0.0-3.0-1.456","../audio/09-8-fem.mp3"," ","","pá.","","","",""
"","null","html-keyboard-response","547","1566358","0.0-3.0-0.457-0.457","<span style= ""font-size:30px; font-family: monospace"">+</span>","null","fixation","","","","",""
"","708","audio-keyboard-response","548","1567425","0.0-3.0-1.457","../audio/10-1-fem.mp3"," ","","O","","","",""
"","787","audio-keyboard-response","549","1568524","0.0-3.0-1.458","../audio/10-2-fem.mp3"," ","","pássaro","","","",""
"","879","audio-keyboard-response","550","1569691","0.0-3.0-1.459","../audio/10-3-fem.mp3"," ","","azul","","","",""
"","848","audio-keyboard-response","551","1570868","0.0-3.0-1.460","../audio/10-4-fem.mp3"," ","","estava","","","",""
"","810","audio-keyboard-response","552","1571983","0.0-3.0-1.461","../audio/10-5-fem.mp3"," ","","vivo","","","",""
"","723","audio-keyboard-response","553","1573007","0.0-3.0-1.462","../audio/10-6-fem.mp3"," ","","e","","","",""
"","659","audio-keyboard-response","554","1573957","0.0-3.0-1.463","../audio/10-7-fem.mp3"," ","","em","","","",""
"","1295","audio-keyboard-response","555","1575574","0.0-3.0-1.464","../audio/10-8-fem.mp3"," ","","segurança.","","","",""
"","13475","html-keyboard-response","556","1589303","0.0-3.0-2.464-0.464","<span style=""font-size:25px; font-family: monospace"">O pássaro vermelho estava em segurança?</span>","n","","","O pássaro vermelho estava em segurança?","null","exp-sent","false"
"","null","html-keyboard-response","557","1590806","0.0-3.0-0.465-0.465","<span style= ""font-size:30px; font-family: monospace"">+</span>","null","fixation","","","","",""
"","206","audio-keyboard-response","558","1591372","0.0-3.0-1.465","../audio/74-1-fem.mp3"," ","","Este","","","",""
"","801","audio-keyboard-response","559","1592508","0.0-3.0-1.466","../audio/74-2-fem.mp3"," ","","emprego","","","",""
"","618","audio-keyboard-response","560","1593413","0.0-3.0-1.467","../audio/74-3-fem.mp3"," ","","é","","","",""
"","792","audio-keyboard-response","561","1594499","0.0-3.0-1.468","../audio/74-4-fem.mp3"," ","","muito","","","",""
"","636","audio-keyboard-response","562","1595442","0.0-3.0-1.469","../audio/74-5-fem.mp3"," ","","cansativo","","","",""
"","1196","audio-keyboard-response","563","1596940","0.0-3.0-1.470","../audio/74-6-fem.mp3"," ","","a","","","",""
"","964","audio-keyboard-response","564","1598206","0.0-3.0-1.471","../audio/74-7-fem.mp3"," ","","longo","","","",""
"","1030","audio-keyboard-response","565","1599515","0.0-3.0-1.472","../audio/74-8-fem.mp3"," ","","prazo.","","","",""
"","null","html-keyboard-response","566","1600769","0.0-3.0-0.473-0.473","<span style= ""font-size:30px; font-family: monospace"">+</span>","null","fixation","","","","",""
"","215","audio-keyboard-response","567","1601372","0.0-3.0-1.473","../audio/73-1-fem.mp3"," ","","O","","","",""
"","772","audio-keyboard-response","568","1602451","0.0-3.0-1.474","../audio/73-2-fem.mp3"," ","","cliente","","","",""
"","589","audio-keyboard-response","569","1603332","0.0-3.0-1.475","../audio/73-3-fem.mp3"," ","","era","","","",""
"","612","audio-keyboard-response","570","1604233","0.0-3.0-1.476","../audio/73-4-fem.mp3"," ","","um","","","",""
"","639","audio-keyboard-response","571","1605171","0.0-3.0-1.477","../audio/73-5-fem.mp3"," ","","homem","","","",""
"","714","audio-keyboard-response","572","1606176","0.0-3.0-1.478","../audio/73-6-fem.mp3"," ","","muito","","","",""
"","1376","audio-keyboard-response","573","1607873","0.0-3.0-1.479","../audio/73-7-fem.mp3"," ","","educado.","","","",""
"","null","html-keyboard-response","574","1609126","0.0-3.0-0.480-0.480","<span style= ""font-size:30px; font-family: monospace"">+</span>","null","fixation","","","","",""
"","1187","audio-keyboard-response","575","1610673","0.0-3.0-1.480","../audio/72-1-fem.mp3"," ","","A","","","",""
"","1416","audio-keyboard-response","576","1612394","0.0-3.0-1.481","../audio/72-2-fem.mp3"," ","","vencedora","","","",""
"","996","audio-keyboard-response","577","1613695","0.0-3.0-1.482","../audio/72-3-fem.mp3"," ","","recebeu","","","",""
"","984","audio-keyboard-response","578","1614987","0.0-3.0-1.483","../audio/72-4-fem.mp3"," ","","um","","","",""
"","1297","audio-keyboard-response","579","1616582","0.0-3.0-1.484","../audio/72-5-fem.mp3"," ","","prêmio","","","",""
"","1106","audio-keyboard-response","580","1617981","0.0-3.0-1.485","../audio/72-6-fem.mp3"," ","","em","","","",""
"","2136","audio-keyboard-response","581","1620437","0.0-3.0-1.486","../audio/72-7-fem.mp3"," ","","dinheiro.","","","",""
"","null","html-keyboard-response","582","1621690","0.0-3.0-0.487-0.487","<span style= ""font-size:30px; font-family: monospace"">+</span>","null","fixation","","","","",""
"","1234","audio-keyboard-response","583","1623276","0.0-3.0-1.487","../audio/71-1-masc.mp3"," ","","Minhas","","","",""
"","1207","audio-keyboard-response","584","1624790","0.0-3.0-1.488","../audio/71-2-masc.mp3"," ","","comidas","","","",""
"","897","audio-keyboard-response","585","1626058","0.0-3.0-1.489","../audio/71-3-masc.mp3"," ","","favoritas","","","",""
"","453","audio-keyboard-response","586","1626797","0.0-3.0-1.490","../audio/71-4-masc.mp3"," ","","são","","","",""
"","836","audio-keyboard-response","587","1627977","0.0-3.0-1.491","../audio/71-5-masc.mp3"," ","","morango","","","",""
"","662","audio-keyboard-response","588","1628961","0.0-3.0-1.492","../audio/71-6-masc.mp3"," ","","e","","","",""
"","795","audio-keyboard-response","589","1630076","0.0-3.0-1.493","../audio/71-7-masc.mp3"," ","","uva.","","","",""
"","null","html-keyboard-response","590","1631330","0.0-3.0-0.494-0.494","<span style= ""font-size:30px; font-family: monospace"">+</span>","null","fixation","","","","",""
"","2508","audio-keyboard-response","591","1634211","0.0-3.0-1.494","../audio/75-1-fem.mp3"," ","","Só","","","",""
"","1112","audio-keyboard-response","592","1635724","0.0-3.0-1.495","../audio/75-2-fem.mp3"," ","","existe","","","",""
"","650","audio-keyboard-response","593","1636691","0.0-3.0-1.496","../audio/75-3-fem.mp3"," ","","uma","","","",""
"","708","audio-keyboard-response","594","1637717","0.0-3.0-1.497","../audio/75-4-fem.mp3"," ","","pessoa","","","",""
"","708","audio-keyboard-response","595","1638757","0.0-3.0-1.498","../audio/75-5-fem.mp3"," ","","canhota","","","",""
"","618","audio-keyboard-response","596","1639706","0.0-3.0-1.499","../audio/75-6-fem.mp3"," ","","nesta","","","",""
"","717","audio-keyboard-response","597","1640746","0.0-3.0-1.500","../audio/75-7-fem.mp3"," ","","cidade.","","","",""
"","2757","html-keyboard-response","598","1643755","0.0-3.0-2.500-0.500","<span style=""font-size:25px; font-family: monospace"">Só existe uma pessoa canhota na cidade?</span>","s","","","Só existe uma pessoa canhota na cidade?","null","exp-sent","false"
"","null","html-keyboard-response","599","1645258","0.0-3.0-0.501-0.501","<span style= ""font-size:30px; font-family: monospace"">+</span>","null","fixation","","","","",""
"","1109","audio-keyboard-response","600","1646766","0.0-3.0-1.501","../audio/01-1-fem.mp3"," ","","O","","","",""
"","955","audio-keyboard-response","601","1648017","0.0-3.0-1.502","../audio/01-2-fem.mp3"," ","","menino","","","",""
"","856","audio-keyboard-response","602","1649186","0.0-3.0-1.503","../audio/01-3-fem.mp3"," ","","derrubou","","","",""
"","520","audio-keyboard-response","603","1650013","0.0-3.0-1.504","../audio/01-4-fem.mp3"," ","","a","","","",""
"","1039","audio-keyboard-response","604","1651392","0.0-3.0-1.505","../audio/01-5-fem.mp3"," ","","guitarra","","","",""
"","833","audio-keyboard-response","605","1652516","0.0-3.0-1.506","../audio/01-6-fem.mp3"," ","","no","","","",""
"","850","audio-keyboard-response","606","1653677","0.0-3.0-1.507","../audio/01-7-fem.mp3"," ","","chão.","","","",""
"","null","html-keyboard-response","607","1654931","0.0-3.0-0.508-0.508","<span style= ""font-size:30px; font-family: monospace"">+</span>","null","fixation","","","","",""
"","845","audio-keyboard-response","608","1656934","0.0-3.0-1.508","../audio/04-1-masc.mp3"," ","","Duzentos","","","",""
"","656","audio-keyboard-response","609","1657885","0.0-3.0-1.509","../audio/04-2-masc.mp3"," ","","carros","","","",""
"","787","audio-keyboard-response","610","1659010","0.0-3.0-1.510","../audio/04-3-masc.mp3"," ","","passaram","","","",""
"","557","audio-keyboard-response","611","1659862","0.0-3.0-1.511","../audio/04-4-masc.mp3"," ","","pela","","","",""
"","595","audio-keyboard-response","612","1660789","0.0-3.0-1.512","../audio/04-5-masc.mp3"," ","","ponte","","","",""
"","412","audio-keyboard-response","613","1661519","0.0-3.0-1.513","../audio/04-6-masc.mp3"," ","","hoje","","","",""
"","580","audio-keyboard-response","614","1662641","0.0-3.0-1.514","../audio/04-7-masc.mp3"," ","","de","","","",""
"","778","audio-keyboard-response","615","1663709","0.0-3.0-1.515","../audio/04-8-masc.mp3"," ","","tarde.","","","",""
"","null","html-keyboard-response","616","1664962","0.0-3.0-0.516-0.516","<span style= ""font-size:30px; font-family: monospace"">+</span>","null","fixation","","","","",""
"","499","audio-keyboard-response","617","1665901","0.0-3.0-1.516","../audio/02-2-fem.mp3"," ","","Havia","","","",""
"","589","audio-keyboard-response","618","1666742","0.0-3.0-1.517","../audio/02-2-fem.mp3"," ","","um","","","",""
"","836","audio-keyboard-response","619","1667891","0.0-3.0-1.518","../audio/02-3-fem.mp3"," ","","cheiro","","","",""
"","659","audio-keyboard-response","620","1668870","0.0-3.0-1.519","../audio/02-4-fem.mp3"," ","","de","","","",""
"","1173","audio-keyboard-response","621","1670380","0.0-3.0-1.520","../audio/02-5-fem.mp3"," ","","gasolina","","","",""
"","580","audio-keyboard-response","622","1671309","0.0-3.0-1.521","../audio/02-6-fem.mp3"," ","","na","","","",""
"","1207","audio-keyboard-response","623","1672841","0.0-3.0-1.522","../audio/02-7-fem.mp3"," ","","garagem.","","","",""
"","null","html-keyboard-response","624","1674094","0.0-3.0-0.523-0.523","<span style= ""font-size:30px; font-family: monospace"">+</span>","null","fixation","","","","",""
"","848","audio-keyboard-response","625","1675342","0.0-3.0-1.523","../audio/03-1-masc.mp3"," ","","O","","","",""
"","897","audio-keyboard-response","626","1676551","0.0-3.0-1.524","../audio/03-2-masc.mp3"," ","","coelho","","","",""
"","546","audio-keyboard-response","627","1677401","0.0-3.0-1.525","../audio/03-3-masc.mp3"," ","","foi","","","",""
"","850","audio-keyboard-response","628","1678614","0.0-3.0-1.526","../audio/03-4-masc.mp3"," ","","bastante","","","",""
"","845","audio-keyboard-response","629","1679743","0.0-3.0-1.527","../audio/03-5-masc.mp3"," ","","dócil","","","",""
"","572","audio-keyboard-response","630","1680602","0.0-3.0-1.528","../audio/03-6-masc.mp3"," ","","com","","","",""
"","438","audio-keyboard-response","631","1681362","0.0-3.0-1.529","../audio/03-7-masc.mp3"," ","","as","","","",""
"","850","audio-keyboard-response","632","1682538","0.0-3.0-1.530","../audio/03-8-masc.mp3"," ","","crianças.","","","",""
"","null","html-keyboard-response","633","1683792","0.0-3.0-0.531-0.531","<span style= ""font-size:30px; font-family: monospace"">+</span>","null","fixation","","","","",""
"","447","audio-keyboard-response","634","1684645","0.0-3.0-1.531","../audio/05-1-masc.mp3"," ","","A","","","",""
"","1077","audio-keyboard-response","635","1686062","0.0-3.0-1.532","../audio/05-2-masc.mp3"," ","","vendedora","","","",""
"","670","audio-keyboard-response","636","1687044","0.0-3.0-1.533","../audio/05-3-masc.mp3"," ","","ajudou","","","",""
"","575","audio-keyboard-response","637","1687929","0.0-3.0-1.534","../audio/05-4-masc.mp3"," ","","um","","","",""
"","842","audio-keyboard-response","638","1689074","0.0-3.0-1.535","../audio/05-5-masc.mp3"," ","","turista","","","",""
"","604","audio-keyboard-response","639","1689983","0.0-3.0-1.536","../audio/05-6-masc.mp3"," ","","na","","","",""
"","729","audio-keyboard-response","640","1691011","0.0-3.0-1.537","../audio/05-7-masc.mp3"," ","","loja.","","","",""
"","3222","html-keyboard-response","641","1694486","0.0-3.0-2.537-0.537","<span style=""font-size:25px; font-family: monospace"">A vendedora ajudou um turista?</span>","s","","","A vendedora ajudou um turista?","null","exp-sent","false"
"","null","html-keyboard-response","642","1695989","0.0-3.0-0.538-0.538","<span style= ""font-size:30px; font-family: monospace"">+</span>","null","fixation","","","","",""
"","1109","audio-keyboard-response","643","1697486","0.0-3.0-1.538","../audio/63-1-fem.mp3"," ","","A","","","",""
"","961","audio-keyboard-response","644","1698764","0.0-3.0-1.539","../audio/63-2-fem.mp3"," ","","chuva","","","",""
"","1004","audio-keyboard-response","645","1700102","0.0-3.0-1.540","../audio/63-3-fem.mp3"," ","","entrou","","","",""
"","615","audio-keyboard-response","646","1701017","0.0-3.0-1.541","../audio/63-4-fem.mp3"," ","","pela","","","",""
"","1065","audio-keyboard-response","647","1702416","0.0-3.0-1.542","../audio/63-5-fem.mp3"," ","","abertura","","","",""
"","624","audio-keyboard-response","648","1703342","0.0-3.0-1.543","../audio/63-6-fem.mp3"," ","","na","","","",""
"","1120","audio-keyboard-response","649","1704778","0.0-3.0-1.544","../audio/63-7-fem.mp3"," ","","janela.","","","",""
"","null","html-keyboard-response","650","1706031","0.0-3.0-0.545-0.545","<span style= ""font-size:30px; font-family: monospace"">+</span>","null","fixation","","","","",""
"","813","audio-keyboard-response","651","1707245","0.0-3.0-1.545","../audio/62-1-fem.mp3"," ","","As","","","",""
"","1173","audio-keyboard-response","652","1708749","0.0-3.0-1.546","../audio/62-2-fem.mp3"," ","","artesãs","","","",""
"","862","audio-keyboard-response","653","1709942","0.0-3.0-1.547","../audio/62-3-fem.mp3"," ","","gostam","","","",""
"","444","audio-keyboard-response","654","1710693","0.0-3.0-1.548","../audio/62-4-fem.mp3"," ","","de","","","",""
"","1048","audio-keyboard-response","655","1712062","0.0-3.0-1.549","../audio/62-5-fem.mp3"," ","","maquiagem","","","",""
"","531","audio-keyboard-response","656","1712878","0.0-3.0-1.550","../audio/62-6-fem.mp3"," ","","e","","","",""
"","482","audio-keyboard-response","657","1713690","0.0-3.0-1.551","../audio/62-7-fem.mp3"," ","","de","","","",""
"","1062","audio-keyboard-response","658","1715053","0.0-3.0-1.552","../audio/62-8-fem.mp3"," ","","crochê.","","","",""
"","null","html-keyboard-response","659","1716306","0.0-3.0-0.553-0.553","<span style= ""font-size:30px; font-family: monospace"">+</span>","null","fixation","","","","",""
"","911","audio-keyboard-response","660","1717631","0.0-3.0-1.553","../audio/61-1-fem.mp3"," ","","Aquele","","","",""
"","795","audio-keyboard-response","661","1718740","0.0-3.0-1.554","../audio/61-2-fem.mp3"," ","","senhor","","","",""
"","479","audio-keyboard-response","662","1719527","0.0-3.0-1.555","../audio/61-3-fem.mp3"," ","","é","","","",""
"","940","audio-keyboard-response","663","1720774","0.0-3.0-1.556","../audio/61-4-fem.mp3"," ","","muito","","","",""
"","1100","audio-keyboard-response","664","1722211","0.0-3.0-1.557","../audio/61-5-fem.mp3"," ","","sovina","","","",""
"","459","audio-keyboard-response","665","1722968","0.0-3.0-1.558","../audio/61-6-fem.mp3"," ","","e","","","",""
"","1831","audio-keyboard-response","666","1725132","0.0-3.0-1.559","../audio/61-7-fem.mp3"," ","","inflexível.","","","",""
"","null","html-keyboard-response","667","1726385","0.0-3.0-0.560-0.560","<span style= ""font-size:30px; font-family: monospace"">+</span>","null","fixation","","","","",""
"","540","audio-keyboard-response","668","1727347","0.0-3.0-1.560","../audio/64-1-masc.mp3"," ","","O","","","",""
"","688","audio-keyboard-response","669","1728362","0.0-3.0-1.561","../audio/64-2-masc.mp3"," ","","dia","","","",""
"","787","audio-keyboard-response","670","1729466","0.0-3.0-1.562","../audio/64-3-masc.mp3"," ","","começou","","","",""
"","511","audio-keyboard-response","671","1730281","0.0-3.0-1.563","../audio/64-4-masc.mp3"," ","","com","","","",""
"","813","audio-keyboard-response","672","1731422","0.0-3.0-1.564","../audio/64-5-masc.mp3"," ","","garoa","","","",""
"","920","audio-keyboard-response","673","1732717","0.0-3.0-1.565","../audio/64-6-masc.mp3"," ","","gelada","","","",""
"","528","audio-keyboard-response","674","1733576","0.0-3.0-1.566","../audio/64-7-masc.mp3"," ","","e","","","",""
"","996","audio-keyboard-response","675","1734909","0.0-3.0-1.567","../audio/64-8-masc.mp3"," ","","leve.","","","",""
"","null","html-keyboard-response","676","1736162","0.0-3.0-0.568-0.568","<span style= ""font-size:30px; font-family: monospace"">+</span>","null","fixation","","","","",""
"","717","audio-keyboard-response","677","1737768","0.0-3.0-1.568","../audio/65-1-fem.mp3"," ","","O","","","",""
"","1181","audio-keyboard-response","678","1739364","0.0-3.0-1.569","../audio/65-2-fem.mp3"," ","","fantasma","","","",""
"","760","audio-keyboard-response","679","1740429","0.0-3.0-1.570","../audio/65-3-fem.mp3"," ","","veio","","","",""
"","641","audio-keyboard-response","680","1741369","0.0-3.0-1.571","../audio/65-4-fem.mp3"," ","","da","","","",""
"","1222","audio-keyboard-response","681","1742928","0.0-3.0-1.572","../audio/65-5-fem.mp3"," ","","escuridão","","","",""
"","456","audio-keyboard-response","682","1743707","0.0-3.0-1.573","../audio/65-6-fem.mp3"," ","","do","","","",""
"","1144","audio-keyboard-response","683","1745161","0.0-3.0-1.574","../audio/65-7-fem.mp3"," ","","armário.","","","",""
"","1953","html-keyboard-response","684","1747366","0.0-3.0-2.574-0.574","<span style=""font-size:25px; font-family: monospace"">O fantasma veio da escuridão do armário?</span>","s","","","O fantasma veio da escuridão do armário?","null","exp-sent","false"
"","null","html-keyboard-response","685","1748870","0.0-3.0-0.575-0.575","<span style= ""font-size:30px; font-family: monospace"">+</span>","null","fixation","","","","",""
"","1001","audio-keyboard-response","686","1750364","0.0-3.0-1.575","../audio/69-1-masc.mp3"," ","","A","","","",""
"","932","audio-keyboard-response","687","1751601","0.0-3.0-1.576","../audio/69-2-masc.mp3"," ","","loja","","","",""
"","804","audio-keyboard-response","688","1752855","0.0-3.0-1.577","../audio/69-3-masc.mp3"," ","","recebeu","","","",""
"","543","audio-keyboard-response","689","1753802","0.0-3.0-1.578","../audio/69-4-masc.mp3"," ","","uma","","","",""
"","778","audio-keyboard-response","690","1754980","0.0-3.0-1.579","../audio/69-5-masc.mp3"," ","","poltrona","","","",""
"","514","audio-keyboard-response","691","1755826","0.0-3.0-1.580","../audio/69-6-masc.mp3"," ","","de","","","",""
"","595","audio-keyboard-response","692","1756778","0.0-3.0-1.581","../audio/69-7-masc.mp3"," ","","couro","","","",""
"","673","audio-keyboard-response","693","1757809","0.0-3.0-1.582","../audio/69-8-masc.mp3"," ","","preto.","","","",""
"","null","html-keyboard-response","694","1759063","0.0-3.0-0.583-0.583","<span style= ""font-size:30px; font-family: monospace"">+</span>","null","fixation","","","","",""
"","598","audio-keyboard-response","695","1760196","0.0-3.0-1.583","../audio/67-1-masc.mp3"," ","","Minha","","","",""
"","575","audio-keyboard-response","696","1761080","0.0-3.0-1.584","../audio/67-2-masc.mp3"," ","","tia","","","",""
"","702","audio-keyboard-response","697","1762085","0.0-3.0-1.585","../audio/67-3-masc.mp3"," ","","comprou","","","",""
"","464","audio-keyboard-response","698","1762861","0.0-3.0-1.586","../audio/67-4-masc.mp3"," ","","um","","","",""
"","769","audio-keyboard-response","699","1764002","0.0-3.0-1.587","../audio/67-5-masc.mp3"," ","","cordão","","","",""
"","612","audio-keyboard-response","700","1764930","0.0-3.0-1.588","../audio/67-6-masc.mp3"," ","","para","","","",""
"","534","audio-keyboard-response","701","1765865","0.0-3.0-1.589","../audio/67-7-masc.mp3"," ","","o","","","",""
"","1428","audio-keyboard-response","702","1767700","0.0-3.0-1.590","../audio/67-8-masc.mp3"," ","","varal.","","","",""
"","null","html-keyboard-response","703","1768953","0.0-3.0-0.591-0.591","<span style= ""font-size:30px; font-family: monospace"">+</span>","null","fixation","","","","",""
"","578","audio-keyboard-response","704","1770026","0.0-3.0-1.591","../audio/68-1-masc.mp3"," ","","Meu","","","",""
"","499","audio-keyboard-response","705","1770975","0.0-3.0-1.592","../audio/68-2-masc.mp3"," ","","irmão","","","",""
"","479","audio-keyboard-response","706","1771838","0.0-3.0-1.593","../audio/68-3-masc.mp3"," ","","teve","","","",""
"","531","audio-keyboard-response","707","1772698","0.0-3.0-1.594","../audio/68-4-masc.mp3"," ","","um","","","",""
"","601","audio-keyboard-response","708","1773677","0.0-3.0-1.595","../audio/68-5-masc.mp3"," ","","noivado","","","",""
"","679","audio-keyboard-response","709","1774925","0.0-3.0-1.596","../audio/68-6-masc.mp3"," ","","longo","","","",""
"","569","audio-keyboard-response","710","1775835","0.0-3.0-1.597","../audio/68-7-masc.mp3"," ","","e","","","",""
"","998","audio-keyboard-response","711","1777173","0.0-3.0-1.598","../audio/68-8-masc.mp3"," ","","maravilhoso.","","","",""
"","null","html-keyboard-response","712","1778426","0.0-3.0-0.599-0.599","<span style= ""font-size:30px; font-family: monospace"">+</span>","null","fixation","","","","",""
"","740","audio-keyboard-response","713","1780730","0.0-3.0-1.599","../audio/66-1-masc.mp3"," ","","Não","","","",""
"","850","audio-keyboard-response","714","1781976","0.0-3.0-1.600","../audio/66-2-masc.mp3"," ","","gosto","","","",""
"","430","audio-keyboard-response","715","1782782","0.0-3.0-1.601","../audio/66-3-masc.mp3"," ","","de","","","",""
"","781","audio-keyboard-response","716","1783955","0.0-3.0-1.602","../audio/66-4-masc.mp3"," ","","gente","","","",""
"","1152","audio-keyboard-response","717","1785845","0.0-3.0-1.603","../audio/66-5-masc.mp3"," ","","egoísta","","","",""
"","740","audio-keyboard-response","718","1786876","0.0-3.0-1.604","../audio/66-6-masc.mp3"," ","","nem","","","",""
"","961","audio-keyboard-response","719","1788145","0.0-3.0-1.605","../audio/66-7-masc.mp3"," ","","chata.","","","",""
"","null","html-keyboard-response","720","1789398","0.0-3.0-0.606-0.606","<span style= ""font-size:30px; font-family: monospace"">+</span>","null","fixation","","","","",""
"","534","audio-keyboard-response","721","1790324","0.0-3.0-1.606","../audio/70-1-fem.mp3"," ","","O","","","",""
"","766","audio-keyboard-response","722","1791392","0.0-3.0-1.607","../audio/70-2-fem.mp3"," ","","meu","","","",""
"","781","audio-keyboard-response","723","1792487","0.0-3.0-1.608","../audio/70-3-fem.mp3"," ","","filho","","","",""
"","578","audio-keyboard-response","724","1793362","0.0-3.0-1.609","../audio/70-4-fem.mp3"," ","","tem","","","",""
"","911","audio-keyboard-response","725","1794581","0.0-3.0-1.610","../audio/70-5-fem.mp3"," ","","medo","","","",""
"","586","audio-keyboard-response","726","1795500","0.0-3.0-1.611","../audio/70-6-fem.mp3"," ","","de","","","",""
"","1109","audio-keyboard-response","727","1796993","0.0-3.0-1.612","../audio/70-7-fem.mp3"," ","","enguia","","","",""
"","467","audio-keyboard-response","728","1797970","0.0-3.0-1.613","../audio/70-8-fem.mp3"," ","","e","","","",""
"","639","audio-keyboard-response","729","1798944","0.0-3.0-1.614","../audio/70-9-fem.mp3"," ","","beija-flor.","","","",""
"","5592","html-keyboard-response","730","1804791","0.0-3.0-2.614-0.614","<span style=""font-size:25px; font-family: monospace"">O filho tem medo de tigre?</span>","n","","","O filho tem medo de tigre?","null","exp-sent","false"
"[{""page_index"":0,""viewing_time"":48286}]","48287","instructions","731","1853580","0.0-4.0","","","","","","","",""
