"view_history","rt","trial_type","trial_index","time_elapsed","internal_node_id","stimulus","response","class","status","answer","correct","trial","letters"
"[{""page_index"":0,""viewing_time"":17195}]","17196","instructions","0","17197","0.0-0.0","","","","","","","",""
"","null","html-keyboard-response","1","17802","0.0-1.0-0.0","+","null","","","","","",""
"","2216","html-keyboard-response","2","20021","0.0-1.0-1.0","crante","n","null","noncog","pseudo","N","prac","null"
"","null","html-keyboard-response","3","20523","0.0-1.0-0.1","+","null","","","","","",""
"","1098","html-keyboard-response","4","21623","0.0-1.0-1.1","daja","n","null","noncog","pseudo","N","prac","null"
"","null","html-keyboard-response","5","22126","0.0-1.0-0.2","+","null","","","","","",""
"","1026","html-keyboard-response","6","23154","0.0-1.0-1.2","calmaria","n","null","noncog","word","S","prac","null"
"","null","html-keyboard-response","7","23656","0.0-1.0-0.3","+","null","","","","","",""
"","1301","html-keyboard-response","8","24958","0.0-1.0-1.3","órgão","s","null","noncog","word","S","prac","null"
"","null","html-keyboard-response","9","25461","0.0-1.0-0.4","+","null","","","","","",""
"","1236","html-keyboard-response","10","26698","0.0-1.0-1.4","plibar","n","null","noncog","pseudo","N","prac","null"
"","null","html-keyboard-response","11","27201","0.0-1.0-0.5","+","null","","","","","",""
"","1645","html-keyboard-response","12","28848","0.0-1.0-1.5","chassi","s","null","cog","word","S","prac","null"
"","null","html-keyboard-response","13","29351","0.0-1.0-0.6","+","null","","","","","",""
"","1341","html-keyboard-response","14","30694","0.0-1.0-1.6","oliva","s","null","cog","word","S","prac","null"
"[{""page_index"":0,""viewing_time"":10269}]","10269","instructions","15","40964","0.0-2.0","","","","","","","",""
"","null","html-keyboard-response","16","41568","0.0-3.0-0.0","+","null","","","","","",""
"","1040","html-keyboard-response","17","42610","0.0-3.0-1.0","independente","s","a","noncog","word","S","exp","12"
"","null","html-keyboard-response","18","43113","0.0-3.0-0.1","+","null","","","","","",""
"","858","html-keyboard-response","19","43973","0.0-3.0-1.1","areia","s","n","noncog","word","S","exp","5"
"","null","html-keyboard-response","20","44476","0.0-3.0-0.2","+","null","","","","","",""
"","1764","html-keyboard-response","21","46241","0.0-3.0-1.2","dacada","n","null","noncog","pseudo","N","exp","null"
"","null","html-keyboard-response","22","46744","0.0-3.0-0.3","+","null","","","","","",""
"","1202","html-keyboard-response","23","47948","0.0-3.0-1.3","ejerro","n","null","noncog","pseudo","N","exp","null"
"","null","html-keyboard-response","24","48451","0.0-3.0-0.4","+","null","","","","","",""
"","753","html-keyboard-response","25","49207","0.0-3.0-1.4","trair","s","v","cog","word","S","exp","5"
"","null","html-keyboard-response","26","49709","0.0-3.0-0.5","+","null","","","","","",""
"","907","html-keyboard-response","27","50618","0.0-3.0-1.5","arranjar","s","v","cog","word","S","exp","8"
"","null","html-keyboard-response","28","51121","0.0-3.0-0.6","+","null","","","","","",""
"","906","html-keyboard-response","29","52028","0.0-3.0-1.6","parceter","n","null","noncog","pseudo","N","exp","null"
"","null","html-keyboard-response","30","52531","0.0-3.0-0.7","+","null","","","","","",""
"","713","html-keyboard-response","31","53245","0.0-3.0-1.7","refletir","s","v","cog","word","S","exp","8"
"","null","html-keyboard-response","32","53747","0.0-3.0-0.8","+","null","","","","","",""
"","714","html-keyboard-response","33","54462","0.0-3.0-1.8","adoçar","s","v","noncog","word","S","exp","6"
"","null","html-keyboard-response","34","54964","0.0-3.0-0.9","+","null","","","","","",""
"","1295","html-keyboard-response","35","56262","0.0-3.0-1.9","aitrou","s","null","noncog","pseudo","N","exp","null"
"","null","html-keyboard-response","36","56765","0.0-3.0-0.10","+","null","","","","","",""
"","1265","html-keyboard-response","37","58032","0.0-3.0-1.10","pimada","n","null","noncog","pseudo","N","exp","null"
"","null","html-keyboard-response","38","58535","0.0-3.0-0.11","+","null","","","","","",""
"","655","html-keyboard-response","39","59191","0.0-3.0-1.11","reduzir","s","v","cog","word","S","exp","7"
"","null","html-keyboard-response","40","59695","0.0-3.0-0.12","+","null","","","","","",""
"","984","html-keyboard-response","41","60682","0.0-3.0-1.12","deselegante","s","a","noncog","word","S","exp","11"
"","null","html-keyboard-response","42","61185","0.0-3.0-0.13","+","null","","","","","",""
"","1114","html-keyboard-response","43","62300","0.0-3.0-1.13","instruído","s","a","noncog","word","S","exp","9"
"","null","html-keyboard-response","44","62803","0.0-3.0-0.14","+","null","","","","","",""
"","1487","html-keyboard-response","45","64293","0.0-3.0-1.14","salpicado","n","a","noncog","word","S","exp","9"
"","null","html-keyboard-response","46","64796","0.0-3.0-0.15","+","null","","","","","",""
"","1344","html-keyboard-response","47","66142","0.0-3.0-1.15","aletiê","s","null","noncog","pseudo","N","exp","null"
"","null","html-keyboard-response","48","66644","0.0-3.0-0.16","+","null","","","","","",""
"","2539","html-keyboard-response","49","69184","0.0-3.0-1.16","fratos","n","null","noncog","pseudo","N","exp","null"
"","null","html-keyboard-response","50","69687","0.0-3.0-0.17","+","null","","","","","",""
"","1741","html-keyboard-response","51","71431","0.0-3.0-1.17","undivídio","s","null","noncog","pseudo","N","exp","null"
"","null","html-keyboard-response","52","71933","0.0-3.0-0.18","+","null","","","","","",""
"","929","html-keyboard-response","53","72864","0.0-3.0-1.18","grátis","s","a","cog","word","S","exp","6"
"","null","html-keyboard-response","54","73367","0.0-3.0-0.19","+","null","","","","","",""
"","926","html-keyboard-response","55","74295","0.0-3.0-1.19","ensuas","n","null","noncog","pseudo","N","exp","null"
"","null","html-keyboard-response","56","74798","0.0-3.0-0.20","+","null","","","","","",""
"","956","html-keyboard-response","57","75755","0.0-3.0-1.20","bandido","s","n","cog","word","S","exp","7"
"","null","html-keyboard-response","58","76258","0.0-3.0-0.21","+","null","","","","","",""
"","873","html-keyboard-response","59","77132","0.0-3.0-1.21","agravar","s","v","cog","word","S","exp","7"
"","null","html-keyboard-response","60","77635","0.0-3.0-0.22","+","null","","","","","",""
"","903","html-keyboard-response","61","78539","0.0-3.0-1.22","tela","s","n","noncog","word","S","exp","4"
"","null","html-keyboard-response","62","79042","0.0-3.0-0.23","+","null","","","","","",""
"","938","html-keyboard-response","63","79982","0.0-3.0-1.23","boreta","n","null","noncog","pseudo","N","exp","null"
"","null","html-keyboard-response","64","80485","0.0-3.0-0.24","+","null","","","","","",""
"","909","html-keyboard-response","65","81396","0.0-3.0-1.24","ofreta","n","null","noncog","pseudo","N","exp","null"
"","null","html-keyboard-response","66","81899","0.0-3.0-0.25","+","null","","","","","",""
"","896","html-keyboard-response","67","82796","0.0-3.0-1.25","lagras","n","null","noncog","pseudo","N","exp","null"
"","null","html-keyboard-response","68","83299","0.0-3.0-0.26","+","null","","","","","",""
"","1436","html-keyboard-response","69","84738","0.0-3.0-1.26","manais","n","null","noncog","pseudo","N","exp","null"
"","null","html-keyboard-response","70","85241","0.0-3.0-0.27","+","null","","","","","",""
"","1005","html-keyboard-response","71","86247","0.0-3.0-1.27","lapestra","n","null","noncog","pseudo","N","exp","null"
"","null","html-keyboard-response","72","86749","0.0-3.0-0.28","+","null","","","","","",""
"","1136","html-keyboard-response","73","87887","0.0-3.0-1.28","farcas","s","null","noncog","pseudo","N","exp","null"
"","null","html-keyboard-response","74","88390","0.0-3.0-0.29","+","null","","","","","",""
"","936","html-keyboard-response","75","89328","0.0-3.0-1.29","pangos","n","null","noncog","pseudo","N","exp","null"
"","null","html-keyboard-response","76","89831","0.0-3.0-0.30","+","null","","","","","",""
"","1013","html-keyboard-response","77","90845","0.0-3.0-1.30","resmungar","s","v","noncog","word","S","exp","9"
"","null","html-keyboard-response","78","91348","0.0-3.0-0.31","+","null","","","","","",""
"","889","html-keyboard-response","79","92238","0.0-3.0-1.31","propaganda","s","n","cog","word","S","exp","10"
"","null","html-keyboard-response","80","92741","0.0-3.0-0.32","+","null","","","","","",""
"","920","html-keyboard-response","81","93662","0.0-3.0-1.32","cravo","s","n","noncog","word","S","exp","5"
"","null","html-keyboard-response","82","94165","0.0-3.0-0.33","+","null","","","","","",""
"","1081","html-keyboard-response","83","95248","0.0-3.0-1.33","cenada","n","null","noncog","pseudo","N","exp","null"
"","null","html-keyboard-response","84","95750","0.0-3.0-0.34","+","null","","","","","",""
"","904","html-keyboard-response","85","96657","0.0-3.0-1.34","carona","s","n","noncog","word","S","exp","6"
"","null","html-keyboard-response","86","97159","0.0-3.0-0.35","+","null","","","","","",""
"","864","html-keyboard-response","87","98023","0.0-3.0-1.35","hedoru","n","null","noncog","pseudo","N","exp","null"
"","null","html-keyboard-response","88","98526","0.0-3.0-0.36","+","null","","","","","",""
"","1226","html-keyboard-response","89","99753","0.0-3.0-1.36","enxarto","n","null","noncog","pseudo","N","exp","null"
"","null","html-keyboard-response","90","100256","0.0-3.0-0.37","+","null","","","","","",""
"","942","html-keyboard-response","91","101199","0.0-3.0-1.37","protas","n","null","noncog","pseudo","N","exp","null"
"","null","html-keyboard-response","92","101702","0.0-3.0-0.38","+","null","","","","","",""
"","772","html-keyboard-response","93","102475","0.0-3.0-1.38","destino","s","n","cog","word","S","exp","7"
"","null","html-keyboard-response","94","102977","0.0-3.0-0.39","+","null","","","","","",""
"","991","html-keyboard-response","95","103970","0.0-3.0-1.39","crolatário","n","null","noncog","pseudo","N","exp","null"
"","null","html-keyboard-response","96","104473","0.0-3.0-0.40","+","null","","","","","",""
"","1106","html-keyboard-response","97","105582","0.0-3.0-1.40","pega-pega","s","n","noncog","word","S","exp","8"
"","null","html-keyboard-response","98","106085","0.0-3.0-0.41","+","null","","","","","",""
"","739","html-keyboard-response","99","106825","0.0-3.0-1.41","verde","s","a","noncog","word","S","exp","5"
"","null","html-keyboard-response","100","107328","0.0-3.0-0.42","+","null","","","","","",""
"","644","html-keyboard-response","101","107973","0.0-3.0-1.42","glória","s","n","cog","word","S","exp","6"
"","null","html-keyboard-response","102","108476","0.0-3.0-0.43","+","null","","","","","",""
"","655","html-keyboard-response","103","109132","0.0-3.0-1.43","espaço","s","n","cog","word","S","exp","6"
"","null","html-keyboard-response","104","109634","0.0-3.0-0.44","+","null","","","","","",""
"","2555","html-keyboard-response","105","112191","0.0-3.0-1.44","bibarconato","n","null","noncog","pseudo","N","exp","null"
"","null","html-keyboard-response","106","112694","0.0-3.0-0.45","+","null","","","","","",""
"","959","html-keyboard-response","107","113656","0.0-3.0-1.45","ilhure","n","null","noncog","pseudo","N","exp","null"
"","null","html-keyboard-response","108","114158","0.0-3.0-0.46","+","null","","","","","",""
"","795","html-keyboard-response","109","114956","0.0-3.0-1.46","revista","s","n","cog","word","S","exp","7"
"","null","html-keyboard-response","110","115458","0.0-3.0-0.47","+","null","","","","","",""
"","920","html-keyboard-response","111","116381","0.0-3.0-1.47","enxerido","s","a","noncog","word","S","exp","8"
"","null","html-keyboard-response","112","116884","0.0-3.0-0.48","+","null","","","","","",""
"","831","html-keyboard-response","113","117716","0.0-3.0-1.48","fusbão","n","null","noncog","pseudo","N","exp","null"
"","null","html-keyboard-response","114","118218","0.0-3.0-0.49","+","null","","","","","",""
"","1039","html-keyboard-response","115","119258","0.0-3.0-1.49","telafonir","n","null","noncog","pseudo","N","exp","null"
"","null","html-keyboard-response","116","119760","0.0-3.0-0.50","+","null","","","","","",""
"","854","html-keyboard-response","117","120615","0.0-3.0-1.50","bachir","n","null","noncog","pseudo","N","exp","null"
"","null","html-keyboard-response","118","121118","0.0-3.0-0.51","+","null","","","","","",""
"","2318","html-keyboard-response","119","123437","0.0-3.0-1.51","jantar","s","v","noncog","word","S","exp","6"
"","null","html-keyboard-response","120","123940","0.0-3.0-0.52","+","null","","","","","",""
"","911","html-keyboard-response","121","124852","0.0-3.0-1.52","alpica","n","null","noncog","pseudo","N","exp","null"
"","null","html-keyboard-response","122","125355","0.0-3.0-0.53","+","null","","","","","",""
"","820","html-keyboard-response","123","126177","0.0-3.0-1.53","aperor","n","null","noncog","pseudo","N","exp","null"
"","null","html-keyboard-response","124","126679","0.0-3.0-0.54","+","null","","","","","",""
"","723","html-keyboard-response","125","127404","0.0-3.0-1.54","verdade","s","n","cog","word","S","exp","7"
"","null","html-keyboard-response","126","127906","0.0-3.0-0.55","+","null","","","","","",""
"","655","html-keyboard-response","127","128562","0.0-3.0-1.55","montanha","s","n","cog","word","S","exp","8"
"","null","html-keyboard-response","128","129065","0.0-3.0-0.56","+","null","","","","","",""
"","707","html-keyboard-response","129","129773","0.0-3.0-1.56","morno","s","a","noncog","word","S","exp","5"
"","null","html-keyboard-response","130","130276","0.0-3.0-0.57","+","null","","","","","",""
"","543","html-keyboard-response","131","130820","0.0-3.0-1.57","tímido","s","a","cog","word","S","exp","6"
"","null","html-keyboard-response","132","131322","0.0-3.0-0.58","+","null","","","","","",""
"","548","html-keyboard-response","133","131872","0.0-3.0-1.58","viver","s","v","cog","word","S","exp","5"
"","null","html-keyboard-response","134","132375","0.0-3.0-0.59","+","null","","","","","",""
"","632","html-keyboard-response","135","133008","0.0-3.0-1.59","brincar","s","v","noncog","word","S","exp","7"
"","null","html-keyboard-response","136","133511","0.0-3.0-0.60","+","null","","","","","",""
"","922","html-keyboard-response","137","134435","0.0-3.0-1.60","macras","n","null","noncog","pseudo","N","exp","null"
"","null","html-keyboard-response","138","134937","0.0-3.0-0.61","+","null","","","","","",""
"","745","html-keyboard-response","139","135685","0.0-3.0-1.61","melão","s","n","cog","word","S","exp","5"
"","null","html-keyboard-response","140","136187","0.0-3.0-0.62","+","null","","","","","",""
"","900","html-keyboard-response","141","137090","0.0-3.0-1.62","planalto","s","n","cog","word","S","exp","8"
"","null","html-keyboard-response","142","137592","0.0-3.0-0.63","+","null","","","","","",""
"","1186","html-keyboard-response","143","138779","0.0-3.0-1.63","trenos","n","null","noncog","pseudo","N","exp","null"
"","null","html-keyboard-response","144","139281","0.0-3.0-0.64","+","null","","","","","",""
"","741","html-keyboard-response","145","140024","0.0-3.0-1.64","motre","n","null","noncog","pseudo","N","exp","null"
"","null","html-keyboard-response","146","140526","0.0-3.0-0.65","+","null","","","","","",""
"","808","html-keyboard-response","147","141336","0.0-3.0-1.65","dilheira","n","null","noncog","pseudo","N","exp","null"
"","null","html-keyboard-response","148","141839","0.0-3.0-0.66","+","null","","","","","",""
"","1008","html-keyboard-response","149","142849","0.0-3.0-1.66","bambu","s","n","cog","word","S","exp","5"
"","null","html-keyboard-response","150","143351","0.0-3.0-0.67","+","null","","","","","",""
"","823","html-keyboard-response","151","144177","0.0-3.0-1.67","mal","s","a","cog","word","S","exp","3"
"","null","html-keyboard-response","152","144679","0.0-3.0-0.68","+","null","","","","","",""
"","694","html-keyboard-response","153","145375","0.0-3.0-1.68","plinta","n","null","noncog","pseudo","N","exp","null"
"","null","html-keyboard-response","154","145878","0.0-3.0-0.69","+","null","","","","","",""
"","690","html-keyboard-response","155","146571","0.0-3.0-1.69","risbos","n","null","noncog","pseudo","N","exp","null"
"","null","html-keyboard-response","156","147074","0.0-3.0-0.70","+","null","","","","","",""
"","791","html-keyboard-response","157","147867","0.0-3.0-1.70","sábio","s","n","noncog","word","S","exp","5"
"","null","html-keyboard-response","158","148369","0.0-3.0-0.71","+","null","","","","","",""
"","893","html-keyboard-response","159","149264","0.0-3.0-1.71","cirado","n","null","noncog","pseudo","N","exp","null"
"","null","html-keyboard-response","160","149767","0.0-3.0-0.72","+","null","","","","","",""
"","878","html-keyboard-response","161","150647","0.0-3.0-1.72","tatear","n","v","cog","word","S","exp","6"
"","null","html-keyboard-response","162","151149","0.0-3.0-0.73","+","null","","","","","",""
"","692","html-keyboard-response","163","151844","0.0-3.0-1.73","comércio","s","n","noncog","word","S","exp","8"
"","null","html-keyboard-response","164","152347","0.0-3.0-0.74","+","null","","","","","",""
"","719","html-keyboard-response","165","153068","0.0-3.0-1.74","fofo","s","a","noncog","word","S","exp","4"
"","null","html-keyboard-response","166","153570","0.0-3.0-0.75","+","null","","","","","",""
"","1033","html-keyboard-response","167","154605","0.0-3.0-1.75","dipata","n","null","noncog","pseudo","N","exp","null"
"","null","html-keyboard-response","168","155107","0.0-3.0-0.76","+","null","","","","","",""
"","776","html-keyboard-response","169","155885","0.0-3.0-1.76","incomodar","s","v","noncog","word","S","exp","9"
"","null","html-keyboard-response","170","156388","0.0-3.0-0.77","+","null","","","","","",""
"","1365","html-keyboard-response","171","157754","0.0-3.0-1.77","liberal","s","a","cog","word","S","exp","7"
"","null","html-keyboard-response","172","158257","0.0-3.0-0.78","+","null","","","","","",""
"","765","html-keyboard-response","173","159023","0.0-3.0-1.78","gordo","s","a","noncog","word","S","exp","5"
"","null","html-keyboard-response","174","159525","0.0-3.0-0.79","+","null","","","","","",""
"","642","html-keyboard-response","175","160169","0.0-3.0-1.79","casuas","s","null","noncog","pseudo","N","exp","null"
"","null","html-keyboard-response","176","160671","0.0-3.0-0.80","+","null","","","","","",""
"","904","html-keyboard-response","177","161578","0.0-3.0-1.80","quenzina","n","null","noncog","pseudo","N","exp","null"
"","null","html-keyboard-response","178","162080","0.0-3.0-0.81","+","null","","","","","",""
"","1027","html-keyboard-response","179","163109","0.0-3.0-1.81","detative","n","null","noncog","pseudo","N","exp","null"
"","null","html-keyboard-response","180","163611","0.0-3.0-0.82","+","null","","","","","",""
"","771","html-keyboard-response","181","164384","0.0-3.0-1.82","alfabeto","s","n","cog","word","S","exp","8"
"","null","html-keyboard-response","182","164887","0.0-3.0-0.83","+","null","","","","","",""
"","923","html-keyboard-response","183","165811","0.0-3.0-1.83","aemaça","s","null","noncog","pseudo","N","exp","null"
"","null","html-keyboard-response","184","166313","0.0-3.0-0.84","+","null","","","","","",""
"","1066","html-keyboard-response","185","167382","0.0-3.0-1.84","filme","s","n","cog","word","S","exp","5"
"","null","html-keyboard-response","186","167884","0.0-3.0-0.85","+","null","","","","","",""
"","1192","html-keyboard-response","187","169078","0.0-3.0-1.85","delirar","n","v","noncog","word","S","exp","7"
"","null","html-keyboard-response","188","169580","0.0-3.0-0.86","+","null","","","","","",""
"","693","html-keyboard-response","189","170275","0.0-3.0-1.86","terdia","n","null","noncog","pseudo","N","exp","null"
"","null","html-keyboard-response","190","170778","0.0-3.0-0.87","+","null","","","","","",""
"","614","html-keyboard-response","191","171394","0.0-3.0-1.87","imitar","s","v","cog","word","S","exp","6"
"","null","html-keyboard-response","192","171896","0.0-3.0-0.88","+","null","","","","","",""
"","799","html-keyboard-response","193","172696","0.0-3.0-1.88","sanque","n","null","noncog","pseudo","N","exp","null"
"","null","html-keyboard-response","194","173199","0.0-3.0-0.89","+","null","","","","","",""
"","751","html-keyboard-response","195","173952","0.0-3.0-1.89","carregar","s","v","noncog","word","S","exp","8"
"","null","html-keyboard-response","196","174454","0.0-3.0-0.90","+","null","","","","","",""
"","1080","html-keyboard-response","197","175536","0.0-3.0-1.90","esfoce","n","null","noncog","pseudo","N","exp","null"
"","null","html-keyboard-response","198","176038","0.0-3.0-0.91","+","null","","","","","",""
"","831","html-keyboard-response","199","176870","0.0-3.0-1.91","afonher","n","null","noncog","pseudo","N","exp","null"
"","null","html-keyboard-response","200","177372","0.0-3.0-0.92","+","null","","","","","",""
"","991","html-keyboard-response","201","178365","0.0-3.0-1.92","tronca","s","null","noncog","pseudo","N","exp","null"
"","null","html-keyboard-response","202","178867","0.0-3.0-0.93","+","null","","","","","",""
"","862","html-keyboard-response","203","179731","0.0-3.0-1.93","ênclio","n","null","noncog","pseudo","N","exp","null"
"","null","html-keyboard-response","204","180233","0.0-3.0-0.94","+","null","","","","","",""
"","695","html-keyboard-response","205","180931","0.0-3.0-1.94","nevela","n","null","noncog","pseudo","N","exp","null"
"","null","html-keyboard-response","206","181433","0.0-3.0-0.95","+","null","","","","","",""
"","754","html-keyboard-response","207","182190","0.0-3.0-1.95","usfiga","n","null","noncog","pseudo","N","exp","null"
"","null","html-keyboard-response","208","182692","0.0-3.0-0.96","+","null","","","","","",""
"","1024","html-keyboard-response","209","183719","0.0-3.0-1.96","tartos","n","null","noncog","pseudo","N","exp","null"
"","null","html-keyboard-response","210","184222","0.0-3.0-0.97","+","null","","","","","",""
"","888","html-keyboard-response","211","185111","0.0-3.0-1.97","morija","n","null","noncog","pseudo","N","exp","null"
"","null","html-keyboard-response","212","185614","0.0-3.0-0.98","+","null","","","","","",""
"","607","html-keyboard-response","213","186223","0.0-3.0-1.98","azul","s","n","noncog","word","S","exp","4"
"","null","html-keyboard-response","214","186725","0.0-3.0-0.99","+","null","","","","","",""
"","480","html-keyboard-response","215","187207","0.0-3.0-1.99","nome","s","n","cog","word","S","exp","4"
"","null","html-keyboard-response","216","187710","0.0-3.0-0.100","+","null","","","","","",""
"","640","html-keyboard-response","217","188350","0.0-3.0-1.100","ocinto","n","null","noncog","pseudo","N","exp","null"
"","null","html-keyboard-response","218","188852","0.0-3.0-0.101","+","null","","","","","",""
"","508","html-keyboard-response","219","189361","0.0-3.0-1.101","trabalhar","s","v","noncog","word","S","exp","9"
"","null","html-keyboard-response","220","189864","0.0-3.0-0.102","+","null","","","","","",""
"","679","html-keyboard-response","221","190546","0.0-3.0-1.102","suipestar","n","null","noncog","pseudo","N","exp","null"
"","null","html-keyboard-response","222","191048","0.0-3.0-0.103","+","null","","","","","",""
"","669","html-keyboard-response","223","191719","0.0-3.0-1.103","convidado","s","n","noncog","word","S","exp","9"
"","null","html-keyboard-response","224","192221","0.0-3.0-0.104","+","null","","","","","",""
"","702","html-keyboard-response","225","192925","0.0-3.0-1.104","lorfaz","n","null","noncog","pseudo","N","exp","null"
"","null","html-keyboard-response","226","193428","0.0-3.0-0.105","+","null","","","","","",""
"","542","html-keyboard-response","227","193972","0.0-3.0-1.105","francês","s","a","cog","word","S","exp","7"
"","null","html-keyboard-response","228","194474","0.0-3.0-0.106","+","null","","","","","",""
"","818","html-keyboard-response","229","195294","0.0-3.0-1.106","pitada","s","n","noncog","word","S","exp","6"
"","null","html-keyboard-response","230","195796","0.0-3.0-0.107","+","null","","","","","",""
"","557","html-keyboard-response","231","196356","0.0-3.0-1.107","tio","s","n","noncog","word","S","exp","3"
"","null","html-keyboard-response","232","196858","0.0-3.0-0.108","+","null","","","","","",""
"","616","html-keyboard-response","233","197476","0.0-3.0-1.108","faínas","n","null","noncog","pseudo","N","exp","null"
"","null","html-keyboard-response","234","197979","0.0-3.0-0.109","+","null","","","","","",""
"","768","html-keyboard-response","235","198749","0.0-3.0-1.109","revear","n","null","noncog","pseudo","N","exp","null"
"","null","html-keyboard-response","236","199251","0.0-3.0-0.110","+","null","","","","","",""
"","598","html-keyboard-response","237","199851","0.0-3.0-1.110","burtos","n","null","noncog","pseudo","N","exp","null"
"","null","html-keyboard-response","238","200353","0.0-3.0-0.111","+","null","","","","","",""
"","854","html-keyboard-response","239","201210","0.0-3.0-1.111","atitro","n","null","noncog","pseudo","N","exp","null"
"","null","html-keyboard-response","240","201712","0.0-3.0-0.112","+","null","","","","","",""
"","595","html-keyboard-response","241","202309","0.0-3.0-1.112","atrasar","s","v","noncog","word","S","exp","7"
"","null","html-keyboard-response","242","202812","0.0-3.0-0.113","+","null","","","","","",""
"","582","html-keyboard-response","243","203395","0.0-3.0-1.113","tinta","s","n","cog","word","S","exp","5"
"","null","html-keyboard-response","244","203898","0.0-3.0-0.114","+","null","","","","","",""
"","528","html-keyboard-response","245","204427","0.0-3.0-1.114","dia","s","n","noncog","word","S","exp","3"
"","null","html-keyboard-response","246","204930","0.0-3.0-0.115","+","null","","","","","",""
"","507","html-keyboard-response","247","205439","0.0-3.0-1.115","cinema","s","n","cog","word","S","exp","6"
"","null","html-keyboard-response","248","205942","0.0-3.0-0.116","+","null","","","","","",""
"","618","html-keyboard-response","249","206561","0.0-3.0-1.116","medalha","s","n","cog","word","S","exp","7"
"","null","html-keyboard-response","250","207064","0.0-3.0-0.117","+","null","","","","","",""
"","542","html-keyboard-response","251","207607","0.0-3.0-1.117","espionar","s","v","cog","word","S","exp","8"
"","null","html-keyboard-response","252","208109","0.0-3.0-0.118","+","null","","","","","",""
"","677","html-keyboard-response","253","208788","0.0-3.0-1.118","braras","n","null","noncog","pseudo","N","exp","null"
"","null","html-keyboard-response","254","209291","0.0-3.0-0.119","+","null","","","","","",""
"","597","html-keyboard-response","255","209890","0.0-3.0-1.119","cápsula","s","n","noncog","word","S","exp","7"
"","null","html-keyboard-response","256","210393","0.0-3.0-0.120","+","null","","","","","",""
"","610","html-keyboard-response","257","211004","0.0-3.0-1.120","gertas","n","null","noncog","pseudo","N","exp","null"
"","null","html-keyboard-response","258","211506","0.0-3.0-0.121","+","null","","","","","",""
"","561","html-keyboard-response","259","212069","0.0-3.0-1.121","fogão","s","n","noncog","word","S","exp","5"
"","null","html-keyboard-response","260","212571","0.0-3.0-0.122","+","null","","","","","",""
"","996","html-keyboard-response","261","213569","0.0-3.0-1.122","candifência","n","null","noncog","pseudo","N","exp","null"
"","null","html-keyboard-response","262","214072","0.0-3.0-0.123","+","null","","","","","",""
"","625","html-keyboard-response","263","214698","0.0-3.0-1.123","rovaz","n","null","noncog","pseudo","N","exp","null"
"","null","html-keyboard-response","264","215200","0.0-3.0-0.124","+","null","","","","","",""
"","652","html-keyboard-response","265","215854","0.0-3.0-1.124","oricia","n","null","noncog","pseudo","N","exp","null"
"","null","html-keyboard-response","266","216356","0.0-3.0-0.125","+","null","","","","","",""
"","559","html-keyboard-response","267","216917","0.0-3.0-1.125","multiplicar","s","v","cog","word","S","exp","11"
"","null","html-keyboard-response","268","217420","0.0-3.0-0.126","+","null","","","","","",""
"","578","html-keyboard-response","269","217999","0.0-3.0-1.126","esperar","s","v","cog","word","S","exp","7"
"","null","html-keyboard-response","270","218502","0.0-3.0-0.127","+","null","","","","","",""
"","545","html-keyboard-response","271","219048","0.0-3.0-1.127","pulmão","s","n","noncog","word","S","exp","6"
"","null","html-keyboard-response","272","219550","0.0-3.0-0.128","+","null","","","","","",""
"","721","html-keyboard-response","273","220272","0.0-3.0-1.128","irratinte","n","null","noncog","pseudo","N","exp","null"
"","null","html-keyboard-response","274","220774","0.0-3.0-0.129","+","null","","","","","",""
"","664","html-keyboard-response","275","221438","0.0-3.0-1.129","encelhor","n","null","noncog","pseudo","N","exp","null"
"","null","html-keyboard-response","276","221941","0.0-3.0-0.130","+","null","","","","","",""
"","536","html-keyboard-response","277","222478","0.0-3.0-1.130","filosofia","s","n","cog","word","S","exp","9"
"","null","html-keyboard-response","278","222981","0.0-3.0-0.131","+","null","","","","","",""
"","710","html-keyboard-response","279","223692","0.0-3.0-1.131","loaco","n","null","noncog","pseudo","N","exp","null"
"","null","html-keyboard-response","280","224194","0.0-3.0-0.132","+","null","","","","","",""
"","531","html-keyboard-response","281","224728","0.0-3.0-1.132","memória","s","n","cog","word","S","exp","7"
"","null","html-keyboard-response","282","225231","0.0-3.0-0.133","+","null","","","","","",""
"","709","html-keyboard-response","283","225941","0.0-3.0-1.133","oecano","s","null","noncog","pseudo","N","exp","null"
"","null","html-keyboard-response","284","226444","0.0-3.0-0.134","+","null","","","","","",""
"","704","html-keyboard-response","285","227150","0.0-3.0-1.134","pantufa","n","n","cog","word","S","exp","7"
"","null","html-keyboard-response","286","227652","0.0-3.0-0.135","+","null","","","","","",""
"","635","html-keyboard-response","287","228288","0.0-3.0-1.135","berquesa","n","null","noncog","pseudo","N","exp","null"
"","null","html-keyboard-response","288","228791","0.0-3.0-0.136","+","null","","","","","",""
"","724","html-keyboard-response","289","229517","0.0-3.0-1.136","distraído","s","a","cog","word","S","exp","9"
"","null","html-keyboard-response","290","230020","0.0-3.0-0.137","+","null","","","","","",""
"","718","html-keyboard-response","291","230739","0.0-3.0-1.137","podilo","n","null","noncog","pseudo","N","exp","null"
"","null","html-keyboard-response","292","231241","0.0-3.0-0.138","+","null","","","","","",""
"","826","html-keyboard-response","293","232070","0.0-3.0-1.138","orupas","n","null","noncog","pseudo","N","exp","null"
"","null","html-keyboard-response","294","232573","0.0-3.0-0.139","+","null","","","","","",""
"","800","html-keyboard-response","295","233375","0.0-3.0-1.139","raspar","s","v","noncog","word","S","exp","6"
"","null","html-keyboard-response","296","233877","0.0-3.0-0.140","+","null","","","","","",""
"","660","html-keyboard-response","297","234540","0.0-3.0-1.140","costra","n","null","noncog","pseudo","N","exp","null"
"","null","html-keyboard-response","298","235043","0.0-3.0-0.141","+","null","","","","","",""
"","688","html-keyboard-response","299","235731","0.0-3.0-1.141","esprotiar","n","null","noncog","pseudo","N","exp","null"
"","null","html-keyboard-response","300","236233","0.0-3.0-0.142","+","null","","","","","",""
"","618","html-keyboard-response","301","236853","0.0-3.0-1.142","mua","n","null","noncog","pseudo","N","exp","null"
"","null","html-keyboard-response","302","237356","0.0-3.0-0.143","+","null","","","","","",""
"","643","html-keyboard-response","303","238001","0.0-3.0-1.143","chato","s","n","noncog","word","S","exp","5"
"","null","html-keyboard-response","304","238504","0.0-3.0-0.144","+","null","","","","","",""
"","614","html-keyboard-response","305","239119","0.0-3.0-1.144","mania","s","n","cog","word","S","exp","5"
"","null","html-keyboard-response","306","239622","0.0-3.0-0.145","+","null","","","","","",""
"","670","html-keyboard-response","307","240294","0.0-3.0-1.145","aparme","n","null","noncog","pseudo","N","exp","null"
"","null","html-keyboard-response","308","240796","0.0-3.0-0.146","+","null","","","","","",""
"","772","html-keyboard-response","309","241569","0.0-3.0-1.146","pneucania","n","null","noncog","pseudo","N","exp","null"
"","null","html-keyboard-response","310","242072","0.0-3.0-0.147","+","null","","","","","",""
"","576","html-keyboard-response","311","242649","0.0-3.0-1.147","bancada","s","n","noncog","word","S","exp","7"
"","null","html-keyboard-response","312","243151","0.0-3.0-0.148","+","null","","","","","",""
"","665","html-keyboard-response","313","243818","0.0-3.0-1.148","gruja","n","null","noncog","pseudo","N","exp","null"
"","null","html-keyboard-response","314","244320","0.0-3.0-0.149","+","null","","","","","",""
"","516","html-keyboard-response","315","244837","0.0-3.0-1.149","país","s","n","noncog","word","S","exp","4"
"","null","html-keyboard-response","316","245340","0.0-3.0-0.150","+","null","","","","","",""
"","511","html-keyboard-response","317","245852","0.0-3.0-1.150","barco","s","n","cog","word","S","exp","5"
"","null","html-keyboard-response","318","246355","0.0-3.0-0.151","+","null","","","","","",""
"","562","html-keyboard-response","319","246917","0.0-3.0-1.151","dencosto","n","null","noncog","pseudo","N","exp","null"
"","null","html-keyboard-response","320","247420","0.0-3.0-0.152","+","null","","","","","",""
"","642","html-keyboard-response","321","248063","0.0-3.0-1.152","mabras","n","null","noncog","pseudo","N","exp","null"
"","null","html-keyboard-response","322","248566","0.0-3.0-0.153","+","null","","","","","",""
"","680","html-keyboard-response","323","249247","0.0-3.0-1.153","chorão","s","a","noncog","word","S","exp","6"
"","null","html-keyboard-response","324","249749","0.0-3.0-0.154","+","null","","","","","",""
"","620","html-keyboard-response","325","250371","0.0-3.0-1.154","motros","n","null","noncog","pseudo","N","exp","null"
"","null","html-keyboard-response","326","250874","0.0-3.0-0.155","+","null","","","","","",""
"","1140","html-keyboard-response","327","252015","0.0-3.0-1.155","animado","s","a","noncog","word","S","exp","7"
"","null","html-keyboard-response","328","252517","0.0-3.0-0.156","+","null","","","","","",""
"","725","html-keyboard-response","329","253243","0.0-3.0-1.156","apontar","s","v","noncog","word","S","exp","7"
"","null","html-keyboard-response","330","253745","0.0-3.0-0.157","+","null","","","","","",""
"","573","html-keyboard-response","331","254319","0.0-3.0-1.157","morar","s","v","noncog","word","S","exp","5"
"","null","html-keyboard-response","332","254822","0.0-3.0-0.158","+","null","","","","","",""
"","658","html-keyboard-response","333","255482","0.0-3.0-1.158","perbas","s","null","noncog","pseudo","N","exp","null"
"","null","html-keyboard-response","334","255985","0.0-3.0-0.159","+","null","","","","","",""
"","850","html-keyboard-response","335","256837","0.0-3.0-1.159","cerca","s","n","noncog","word","S","exp","5"
"","null","html-keyboard-response","336","257340","0.0-3.0-0.160","+","null","","","","","",""
"","564","html-keyboard-response","337","257905","0.0-3.0-1.160","liso","s","n","noncog","word","S","exp","4"
"","null","html-keyboard-response","338","258408","0.0-3.0-0.161","+","null","","","","","",""
"","626","html-keyboard-response","339","259036","0.0-3.0-1.161","anjo","s","n","cog","word","S","exp","4"
"","null","html-keyboard-response","340","259539","0.0-3.0-0.162","+","null","","","","","",""
"","541","html-keyboard-response","341","260082","0.0-3.0-1.162","agressivo","s","a","cog","word","S","exp","9"
"","null","html-keyboard-response","342","260584","0.0-3.0-0.163","+","null","","","","","",""
"","863","html-keyboard-response","343","261449","0.0-3.0-1.163","âgnulo","n","null","noncog","pseudo","N","exp","null"
"","null","html-keyboard-response","344","261952","0.0-3.0-0.164","+","null","","","","","",""
"","654","html-keyboard-response","345","262608","0.0-3.0-1.164","nervoso","s","a","noncog","word","S","exp","7"
"","null","html-keyboard-response","346","263111","0.0-3.0-0.165","+","null","","","","","",""
"","673","html-keyboard-response","347","263787","0.0-3.0-1.165","delomir","n","null","noncog","pseudo","N","exp","null"
"","null","html-keyboard-response","348","264289","0.0-3.0-0.166","+","null","","","","","",""
"","511","html-keyboard-response","349","264801","0.0-3.0-1.166","açúcar","s","n","noncog","word","S","exp","6"
"","null","html-keyboard-response","350","265304","0.0-3.0-0.167","+","null","","","","","",""
"","887","html-keyboard-response","351","266192","0.0-3.0-1.167","disbrituir","n","null","noncog","pseudo","N","exp","null"
"","null","html-keyboard-response","352","266695","0.0-3.0-0.168","+","null","","","","","",""
"","790","html-keyboard-response","353","267487","0.0-3.0-1.168","conjerto","n","null","noncog","pseudo","N","exp","null"
"","null","html-keyboard-response","354","267989","0.0-3.0-0.169","+","null","","","","","",""
"","619","html-keyboard-response","355","268610","0.0-3.0-1.169","manfa","n","null","noncog","pseudo","N","exp","null"
"","null","html-keyboard-response","356","269113","0.0-3.0-0.170","+","null","","","","","",""
"","746","html-keyboard-response","357","269861","0.0-3.0-1.170","euorpa","n","null","noncog","pseudo","N","exp","null"
"","null","html-keyboard-response","358","270364","0.0-3.0-0.171","+","null","","","","","",""
"","610","html-keyboard-response","359","270976","0.0-3.0-1.171","vitrive","n","null","noncog","pseudo","N","exp","null"
"","null","html-keyboard-response","360","271478","0.0-3.0-0.172","+","null","","","","","",""
"","540","html-keyboard-response","361","272020","0.0-3.0-1.172","perdão","s","n","noncog","word","S","exp","6"
"","null","html-keyboard-response","362","272522","0.0-3.0-0.173","+","null","","","","","",""
"","757","html-keyboard-response","363","273281","0.0-3.0-1.173","fasdas","n","null","noncog","pseudo","N","exp","null"
"","null","html-keyboard-response","364","273783","0.0-3.0-0.174","+","null","","","","","",""
"","768","html-keyboard-response","365","274553","0.0-3.0-1.174","fino","s","a","cog","word","S","exp","4"
"","null","html-keyboard-response","366","275056","0.0-3.0-0.175","+","null","","","","","",""
"","628","html-keyboard-response","367","275685","0.0-3.0-1.175","aivões","n","null","noncog","pseudo","N","exp","null"
"","null","html-keyboard-response","368","276188","0.0-3.0-0.176","+","null","","","","","",""
"","685","html-keyboard-response","369","276875","0.0-3.0-1.176","selir","n","null","noncog","pseudo","N","exp","null"
"","null","html-keyboard-response","370","277377","0.0-3.0-0.177","+","null","","","","","",""
"","594","html-keyboard-response","371","277973","0.0-3.0-1.177","civil","s","a","cog","word","S","exp","5"
"","null","html-keyboard-response","372","278476","0.0-3.0-0.178","+","null","","","","","",""
"","873","html-keyboard-response","373","279352","0.0-3.0-1.178","grótis","s","null","noncog","pseudo","N","exp","null"
"","null","html-keyboard-response","374","279854","0.0-3.0-0.179","+","null","","","","","",""
"","649","html-keyboard-response","375","280505","0.0-3.0-1.179","sustentar","s","v","noncog","word","S","exp","9"
"","null","html-keyboard-response","376","281008","0.0-3.0-0.180","+","null","","","","","",""
"","666","html-keyboard-response","377","281675","0.0-3.0-1.180","drama","s","n","cog","word","S","exp","5"
"","null","html-keyboard-response","378","282176","0.0-3.0-0.181","+","null","","","","","",""
"","634","html-keyboard-response","379","282812","0.0-3.0-1.181","prever","s","v","cog","word","S","exp","6"
"","null","html-keyboard-response","380","283315","0.0-3.0-0.182","+","null","","","","","",""
"","534","html-keyboard-response","381","283851","0.0-3.0-1.182","hipócrita","s","a","noncog","word","S","exp","9"
"","null","html-keyboard-response","382","284354","0.0-3.0-0.183","+","null","","","","","",""
"","458","html-keyboard-response","383","284812","0.0-3.0-1.183","avenas","s","null","noncog","pseudo","N","exp","null"
"","null","html-keyboard-response","384","285314","0.0-3.0-0.184","+","null","","","","","",""
"","685","html-keyboard-response","385","286000","0.0-3.0-1.184","verceja","n","null","noncog","pseudo","N","exp","null"
"","null","html-keyboard-response","386","286503","0.0-3.0-0.185","+","null","","","","","",""
"","998","html-keyboard-response","387","287502","0.0-3.0-1.185","usnado","n","null","noncog","pseudo","N","exp","null"
"","null","html-keyboard-response","388","288005","0.0-3.0-0.186","+","null","","","","","",""
"","703","html-keyboard-response","389","288710","0.0-3.0-1.186","traduzir","s","v","cog","word","S","exp","8"
"","null","html-keyboard-response","390","289212","0.0-3.0-0.187","+","null","","","","","",""
"","817","html-keyboard-response","391","290031","0.0-3.0-1.187","dobradiça","s","n","noncog","word","S","exp","9"
"","null","html-keyboard-response","392","290534","0.0-3.0-0.188","+","null","","","","","",""
"","519","html-keyboard-response","393","291053","0.0-3.0-1.188","espinho","s","n","noncog","word","S","exp","7"
"","null","html-keyboard-response","394","291556","0.0-3.0-0.189","+","null","","","","","",""
"","416","html-keyboard-response","395","291972","0.0-3.0-1.189","telefone","s","n","cog","word","S","exp","8"
"","null","html-keyboard-response","396","292475","0.0-3.0-0.190","+","null","","","","","",""
"","436","html-keyboard-response","397","292913","0.0-3.0-1.190","atapdar","s","null","noncog","pseudo","N","exp","null"
"","null","html-keyboard-response","398","293415","0.0-3.0-0.191","+","null","","","","","",""
"","690","html-keyboard-response","399","294107","0.0-3.0-1.191","bagunceira","s","a","noncog","word","S","exp","10"
"","null","html-keyboard-response","400","294609","0.0-3.0-0.192","+","null","","","","","",""
"","652","html-keyboard-response","401","295263","0.0-3.0-1.192","cristal","s","n","cog","word","S","exp","7"
"","null","html-keyboard-response","402","295766","0.0-3.0-0.193","+","null","","","","","",""
"","511","html-keyboard-response","403","296278","0.0-3.0-1.193","grave","s","a","cog","word","S","exp","5"
"","null","html-keyboard-response","404","296781","0.0-3.0-0.194","+","null","","","","","",""
"","711","html-keyboard-response","405","297493","0.0-3.0-1.194","cascata","s","n","noncog","word","S","exp","7"
"","null","html-keyboard-response","406","297996","0.0-3.0-0.195","+","null","","","","","",""
"","765","html-keyboard-response","407","298762","0.0-3.0-1.195","pritas","n","null","noncog","pseudo","N","exp","null"
"","null","html-keyboard-response","408","299265","0.0-3.0-0.196","+","null","","","","","",""
"","505","html-keyboard-response","409","299771","0.0-3.0-1.196","preferir","s","v","cog","word","S","exp","8"
"","null","html-keyboard-response","410","300274","0.0-3.0-0.197","+","null","","","","","",""
"","567","html-keyboard-response","411","300842","0.0-3.0-1.197","papai","s","n","cog","word","S","exp","5"
"","null","html-keyboard-response","412","301345","0.0-3.0-0.198","+","null","","","","","",""
"","727","html-keyboard-response","413","302073","0.0-3.0-1.198","hébies","n","null","noncog","pseudo","N","exp","null"
"","null","html-keyboard-response","414","302576","0.0-3.0-0.199","+","null","","","","","",""
"","704","html-keyboard-response","415","303282","0.0-3.0-1.199","nivelado","s","a","cog","word","S","exp","8"
"","null","html-keyboard-response","416","303785","0.0-3.0-0.200","+","null","","","","","",""
"","847","html-keyboard-response","417","304633","0.0-3.0-1.200","promeção","n","null","noncog","pseudo","N","exp","null"
"","null","html-keyboard-response","418","305136","0.0-3.0-0.201","+","null","","","","","",""
"","479","html-keyboard-response","419","305616","0.0-3.0-1.201","especial","s","a","cog","word","S","exp","8"
"","null","html-keyboard-response","420","306119","0.0-3.0-0.202","+","null","","","","","",""
"","690","html-keyboard-response","421","306811","0.0-3.0-1.202","oper","s","null","noncog","pseudo","N","exp","null"
"","null","html-keyboard-response","422","307314","0.0-3.0-0.203","+","null","","","","","",""
"","1253","html-keyboard-response","423","308568","0.0-3.0-1.203","bracos","n","null","noncog","pseudo","N","exp","null"
"","null","html-keyboard-response","424","309071","0.0-3.0-0.204","+","null","","","","","",""
"","699","html-keyboard-response","425","309772","0.0-3.0-1.204","frotes","n","null","noncog","pseudo","N","exp","null"
"","null","html-keyboard-response","426","310274","0.0-3.0-0.205","+","null","","","","","",""
"","612","html-keyboard-response","427","310888","0.0-3.0-1.205","lagoa","s","n","cog","word","S","exp","5"
"","null","html-keyboard-response","428","311391","0.0-3.0-0.206","+","null","","","","","",""
"","575","html-keyboard-response","429","311967","0.0-3.0-1.206","árovre","s","null","noncog","pseudo","N","exp","null"
"","null","html-keyboard-response","430","312470","0.0-3.0-0.207","+","null","","","","","",""
"","753","html-keyboard-response","431","313224","0.0-3.0-1.207","enedro","n","null","noncog","pseudo","N","exp","null"
"","null","html-keyboard-response","432","313727","0.0-3.0-0.208","+","null","","","","","",""
"","983","html-keyboard-response","433","314712","0.0-3.0-1.208","beima","n","null","noncog","pseudo","N","exp","null"
"","null","html-keyboard-response","434","315215","0.0-3.0-0.209","+","null","","","","","",""
"","641","html-keyboard-response","435","315857","0.0-3.0-1.209","sintonizar","s","v","noncog","word","S","exp","10"
"","null","html-keyboard-response","436","316360","0.0-3.0-0.210","+","null","","","","","",""
"","666","html-keyboard-response","437","317027","0.0-3.0-1.210","uchães","n","null","noncog","pseudo","N","exp","null"
"","null","html-keyboard-response","438","317529","0.0-3.0-0.211","+","null","","","","","",""
"","593","html-keyboard-response","439","318124","0.0-3.0-1.211","jastor","s","null","noncog","pseudo","N","exp","null"
"","null","html-keyboard-response","440","318627","0.0-3.0-0.212","+","null","","","","","",""
"","705","html-keyboard-response","441","319333","0.0-3.0-1.212","ótimo","s","a","noncog","word","S","exp","5"
"","null","html-keyboard-response","442","319836","0.0-3.0-0.213","+","null","","","","","",""
"","859","html-keyboard-response","443","320697","0.0-3.0-1.213","taberia","n","null","noncog","pseudo","N","exp","null"
"","null","html-keyboard-response","444","321199","0.0-3.0-0.214","+","null","","","","","",""
"","647","html-keyboard-response","445","321848","0.0-3.0-1.214","senareta","n","null","noncog","pseudo","N","exp","null"
"","null","html-keyboard-response","446","322351","0.0-3.0-0.215","+","null","","","","","",""
"","588","html-keyboard-response","447","322940","0.0-3.0-1.215","rédesa","n","null","noncog","pseudo","N","exp","null"
"","null","html-keyboard-response","448","323442","0.0-3.0-0.216","+","null","","","","","",""
"","669","html-keyboard-response","449","324112","0.0-3.0-1.216","vervas","n","null","noncog","pseudo","N","exp","null"
"","null","html-keyboard-response","450","324615","0.0-3.0-0.217","+","null","","","","","",""
"","548","html-keyboard-response","451","325164","0.0-3.0-1.217","mudança","s","n","noncog","word","S","exp","7"
"","null","html-keyboard-response","452","325667","0.0-3.0-0.218","+","null","","","","","",""
"","766","html-keyboard-response","453","326434","0.0-3.0-1.218","garastia","n","null","noncog","pseudo","N","exp","null"
"","null","html-keyboard-response","454","326937","0.0-3.0-0.219","+","null","","","","","",""
"","795","html-keyboard-response","455","327733","0.0-3.0-1.219","extravagante","s","a","cog","word","S","exp","12"
"","null","html-keyboard-response","456","328236","0.0-3.0-0.220","+","null","","","","","",""
"","638","html-keyboard-response","457","328875","0.0-3.0-1.220","temperar","s","v","noncog","word","S","exp","8"
"","null","html-keyboard-response","458","329378","0.0-3.0-0.221","+","null","","","","","",""
"","725","html-keyboard-response","459","330104","0.0-3.0-1.221","escumo","n","null","noncog","pseudo","N","exp","null"
"","null","html-keyboard-response","460","330607","0.0-3.0-0.222","+","null","","","","","",""
"","554","html-keyboard-response","461","331162","0.0-3.0-1.222","livro","s","n","cog","word","S","exp","5"
"","null","html-keyboard-response","462","331665","0.0-3.0-0.223","+","null","","","","","",""
"","923","html-keyboard-response","463","332589","0.0-3.0-1.223","ronronar","s","v","cog","word","S","exp","8"
"","null","html-keyboard-response","464","333092","0.0-3.0-0.224","+","null","","","","","",""
"","604","html-keyboard-response","465","333698","0.0-3.0-1.224","franda","n","null","noncog","pseudo","N","exp","null"
"","null","html-keyboard-response","466","334201","0.0-3.0-0.225","+","null","","","","","",""
"","709","html-keyboard-response","467","334911","0.0-3.0-1.225","prantal","n","null","noncog","pseudo","N","exp","null"
"","null","html-keyboard-response","468","335414","0.0-3.0-0.226","+","null","","","","","",""
"","668","html-keyboard-response","469","336082","0.0-3.0-1.226","nacional","s","a","cog","word","S","exp","8"
"","null","html-keyboard-response","470","336585","0.0-3.0-0.227","+","null","","","","","",""
"","650","html-keyboard-response","471","337237","0.0-3.0-1.227","afual","n","null","noncog","pseudo","N","exp","null"
"","null","html-keyboard-response","472","337740","0.0-3.0-0.228","+","null","","","","","",""
"","561","html-keyboard-response","473","338302","0.0-3.0-1.228","matinal","s","a","cog","word","S","exp","7"
"","null","html-keyboard-response","474","338805","0.0-3.0-0.229","+","null","","","","","",""
"","731","html-keyboard-response","475","339538","0.0-3.0-1.229","carro","s","n","noncog","word","S","exp","5"
"","null","html-keyboard-response","476","340041","0.0-3.0-0.230","+","null","","","","","",""
"","513","html-keyboard-response","477","340556","0.0-3.0-1.230","tênis","s","n","cog","word","S","exp","5"
"","null","html-keyboard-response","478","341059","0.0-3.0-0.231","+","null","","","","","",""
"","593","html-keyboard-response","479","341653","0.0-3.0-1.231","prenas","n","null","noncog","pseudo","N","exp","null"
"","null","html-keyboard-response","480","342156","0.0-3.0-0.232","+","null","","","","","",""
"","871","html-keyboard-response","481","343028","0.0-3.0-1.232","gilha","n","null","noncog","pseudo","N","exp","null"
"","null","html-keyboard-response","482","343531","0.0-3.0-0.233","+","null","","","","","",""
"","604","html-keyboard-response","483","344137","0.0-3.0-1.233","promessa","s","n","noncog","word","S","exp","8"
"","null","html-keyboard-response","484","344640","0.0-3.0-0.234","+","null","","","","","",""
"","743","html-keyboard-response","485","345384","0.0-3.0-1.234","pedaço","s","n","noncog","word","S","exp","6"
"","null","html-keyboard-response","486","345887","0.0-3.0-0.235","+","null","","","","","",""
"","648","html-keyboard-response","487","346537","0.0-3.0-1.235","crutas","n","null","noncog","pseudo","N","exp","null"
"","null","html-keyboard-response","488","347040","0.0-3.0-0.236","+","null","","","","","",""
"","628","html-keyboard-response","489","347669","0.0-3.0-1.236","abieso","n","null","noncog","pseudo","N","exp","null"
"","null","html-keyboard-response","490","348172","0.0-3.0-0.237","+","null","","","","","",""
"","693","html-keyboard-response","491","348868","0.0-3.0-1.237","uçar","n","null","noncog","pseudo","N","exp","null"
"","null","html-keyboard-response","492","349371","0.0-3.0-0.238","+","null","","","","","",""
"","675","html-keyboard-response","493","350047","0.0-3.0-1.238","ideisa","n","null","noncog","pseudo","N","exp","null"
"","null","html-keyboard-response","494","350549","0.0-3.0-0.239","+","null","","","","","",""
"","567","html-keyboard-response","495","351118","0.0-3.0-1.239","socorro","s","n","noncog","word","S","exp","7"
