"view_history","rt","trial_type","trial_index","time_elapsed","internal_node_id","stimulus","response","portuguese","kreyol"
"[{""page_index"":0,""viewing_time"":12417}]","12418","instructions","0","12418","0.0-0.0","","","",""
"","null","html-keyboard-response","1","13024","0.0-1.0-0.0","+","null","",""
"","3410","audio-keyboard-response","2","16551","0.0-1.0-1.0","../audio/teste-vocab--95.mp3","s","submergir","plonje"
"","null","html-keyboard-response","3","17054","0.0-1.0-0.1","+","null","",""
"","2563","audio-keyboard-response","4","19783","0.0-1.0-1.1","../audio/teste-vocab--27.mp3","s","rio","rivyè"
"","null","html-keyboard-response","5","20286","0.0-1.0-0.2","+","null","",""
"","1890","audio-keyboard-response","6","22343","0.0-1.0-1.2","../audio/teste-vocab--41.mp3","s","médico","doktè,"
"","null","html-keyboard-response","7","22846","0.0-1.0-0.3","+","null","",""
"","2882","audio-keyboard-response","8","25862","0.0-1.0-1.3","../audio/teste-vocab--71.mp3","s","caule","tij"
"","null","html-keyboard-response","9","26365","0.0-1.0-0.4","+","null","",""
"","1753","audio-keyboard-response","10","28247","0.0-1.0-1.4","../audio/teste-vocab--59.mp3","s","par","pè"
"","null","html-keyboard-response","11","28751","0.0-1.0-0.5","+","null","",""
"","2035","audio-keyboard-response","12","30995","0.0-1.0-1.5","../audio/teste-vocab--28.mp3","s","águia","èg"
"","null","html-keyboard-response","13","31498","0.0-1.0-0.6","+","null","",""
"","2293","audio-keyboard-response","14","33955","0.0-1.0-1.6","../audio/teste-vocab--111.mp3","s","jubilosa","rejwisans"
"","null","html-keyboard-response","15","34457","0.0-1.0-0.7","+","null","",""
"","2032","audio-keyboard-response","16","36851","0.0-1.0-1.7","../audio/teste-vocab--122.mp3","s","transeunte","pasajè"
"","null","html-keyboard-response","17","37355","0.0-1.0-0.8","+","null","",""
"","1878","audio-keyboard-response","18","39367","0.0-1.0-1.8","../audio/teste-vocab--76.mp3","s","arquivar","achive"
"","null","html-keyboard-response","19","39870","0.0-1.0-0.9","+","null","",""
"","1675","audio-keyboard-response","20","41670","0.0-1.0-1.9","../audio/teste-vocab--82.mp3","s","roer","ronje"
"","null","html-keyboard-response","21","42173","0.0-1.0-0.10","+","null","",""
"","2331","audio-keyboard-response","22","44722","0.0-1.0-1.10","../audio/teste-vocab--74.mp3","s","desilusão","dezilizyon"
"","null","html-keyboard-response","23","45224","0.0-1.0-0.11","+","null","",""
"","1800","audio-keyboard-response","24","47193","0.0-1.0-1.11","../audio/teste-vocab--79.mp3","s","moldura"," chanbranl"
"","null","html-keyboard-response","25","47696","0.0-1.0-0.12","+","null","",""
"","1802","audio-keyboard-response","26","49643","0.0-1.0-1.12","../audio/teste-vocab--01.mp3","s","boneca","pope"
"","null","html-keyboard-response","27","50146","0.0-1.0-0.13","+","null","",""
"","1924","audio-keyboard-response","28","52316","0.0-1.0-1.13","../audio/teste-vocab--48.mp3","s","joia","bijou"
"","null","html-keyboard-response","29","52818","0.0-1.0-0.14","+","null","",""
"","2188","audio-keyboard-response","30","55152","0.0-1.0-1.14","../audio/teste-vocab--65.mp3","s","discussão","diskisyon"
"","null","html-keyboard-response","31","55656","0.0-1.0-0.15","+","null","",""
"","2397","audio-keyboard-response","32","58206","0.0-1.0-1.15","../audio/teste-vocab--128.mp3","s","incisivo","ensisiv"
"","null","html-keyboard-response","33","58708","0.0-1.0-0.16","+","null","",""
"","1622","audio-keyboard-response","34","60464","0.0-1.0-1.16","../audio/teste-vocab--45.mp3","s","dentista","dantis"
"","null","html-keyboard-response","35","60966","0.0-1.0-0.17","+","null","",""
"","2371","audio-keyboard-response","36","63478","0.0-1.0-1.17","../audio/teste-vocab--68.mp3","s","surpreendido","sezi"
"","null","html-keyboard-response","37","63981","0.0-1.0-0.18","+","null","",""
"","1579","audio-keyboard-response","38","65687","0.0-1.0-1.18","../audio/teste-vocab--126.mp3","s","ambulante","promennen"
"","null","html-keyboard-response","39","66190","0.0-1.0-0.19","+","null","",""
"","1950","audio-keyboard-response","40","68304","0.0-1.0-1.19","../audio/teste-vocab--40.mp3","s","bebida","bwason"
"","null","html-keyboard-response","41","68807","0.0-1.0-0.20","+","null","",""
"","1782","audio-keyboard-response","42","70720","0.0-1.0-1.20","../audio/teste-vocab--130.mp3","s","gentil","dou"
"","null","html-keyboard-response","43","71224","0.0-1.0-0.21","+","null","",""
"","1393","audio-keyboard-response","44","72765","0.0-1.0-1.21","../audio/teste-vocab--73.mp3","s","ângulo","ang"
"","null","html-keyboard-response","45","73268","0.0-1.0-0.22","+","null","",""
"","1416","audio-keyboard-response","46","74751","0.0-1.0-1.22","../audio/teste-vocab--18.mp3","s","abelha","myèl"
"","null","html-keyboard-response","47","75254","0.0-1.0-0.23","+","null","",""
"","1805","audio-keyboard-response","48","77158","0.0-1.0-1.23","../audio/teste-vocab--37.mp3","s","músico","mizisyen"
"","null","html-keyboard-response","49","77661","0.0-1.0-0.24","+","null","",""
"","1518","audio-keyboard-response","50","79325","0.0-1.0-1.24","../audio/teste-vocab--67.mp3","s","corrimão","ranp"
"","null","html-keyboard-response","51","79827","0.0-1.0-0.25","+","null","",""
"","1596","audio-keyboard-response","52","81570","0.0-1.0-1.25","../audio/teste-vocab--24.mp3","s","acidente","aksidan"
"","null","html-keyboard-response","53","82073","0.0-1.0-0.26","+","null","",""
"","2119","audio-keyboard-response","54","84344","0.0-1.0-1.26","../audio/teste-vocab--61.mp3","s","iluminação","iliminasyon"
"","null","html-keyboard-response","55","84847","0.0-1.0-0.27","+","null","",""
"","2470","audio-keyboard-response","56","87517","0.0-1.0-1.27","../audio/teste-vocab--98.mp3","s","instruir","enstwi"
"","null","html-keyboard-response","57","88019","0.0-1.0-0.28","+","null","",""
"","1753","audio-keyboard-response","58","89919","0.0-1.0-1.28","../audio/teste-vocab--60.mp3","s","secretaria","sekretè"
"","null","html-keyboard-response","59","90422","0.0-1.0-0.29","+","null","",""
"","2273","audio-keyboard-response","60","92817","0.0-1.0-1.29","../audio/teste-vocab--50.mp3","s","artista","atis"
"","null","html-keyboard-response","61","93320","0.0-1.0-0.30","+","null","",""
"","1527","audio-keyboard-response","62","95001","0.0-1.0-1.30","../audio/teste-vocab--15.mp3","s","flecha","flèch"
"","null","html-keyboard-response","63","95504","0.0-1.0-0.31","+","null","",""
"","1332","audio-keyboard-response","64","96999","0.0-1.0-1.31","../audio/teste-vocab--17.mp3","s","móvel","mobil"
"","null","html-keyboard-response","65","97501","0.0-1.0-0.32","+","null","",""
"","2252","audio-keyboard-response","66","99823","0.0-1.0-1.32","../audio/teste-vocab--115.mp3","s","perpendicular","pèpandikilè"
"","null","html-keyboard-response","67","100326","0.0-1.0-0.33","+","null","",""
"","1521","audio-keyboard-response","68","102261","0.0-1.0-1.33","../audio/teste-vocab--21.mp3","s","baleia","balèn"
"","null","html-keyboard-response","69","102764","0.0-1.0-0.34","+","null","",""
"","1814","audio-keyboard-response","70","104763","0.0-1.0-1.34","../audio/teste-vocab--83.mp3","s","morsa","mòs"
"","null","html-keyboard-response","71","105266","0.0-1.0-0.35","+","null","",""
"","2400","audio-keyboard-response","72","107856","0.0-1.0-1.35","../audio/teste-vocab--58.mp3","s","nutritivo","nourisan"
"","null","html-keyboard-response","73","108359","0.0-1.0-0.36","+","null","",""
"","2058","audio-keyboard-response","74","111077","0.0-1.0-1.36","../audio/teste-vocab--32.mp3","s","descascar","dekale"
"","null","html-keyboard-response","75","111580","0.0-1.0-0.37","+","null","",""
"","2235","audio-keyboard-response","76","113975","0.0-1.0-1.37","../audio/teste-vocab--20.mp3","s","medir","mezire"
"","null","html-keyboard-response","77","114477","0.0-1.0-0.38","+","null","",""
"","1759","audio-keyboard-response","78","117505","0.0-1.0-1.38","../audio/teste-vocab--102.mp3","s","arrogante","arogan"
"","null","html-keyboard-response","79","118008","0.0-1.0-0.39","+","null","",""
"","1829","audio-keyboard-response","80","120013","0.0-1.0-1.39","../audio/teste-vocab--47.mp3","s","envelope","anvlope"
"","null","html-keyboard-response","81","120516","0.0-1.0-0.40","+","null","",""
"","1329","audio-keyboard-response","82","121973","0.0-1.0-1.40","../audio/teste-vocab--16.mp3","s","pescoço","kou"
"","null","html-keyboard-response","83","122476","0.0-1.0-0.41","+","null","",""
"","1982","audio-keyboard-response","84","124542","0.0-1.0-1.41","../audio/teste-vocab--99.mp3","s","arqueólogo","akeyológ"
"","null","html-keyboard-response","85","125045","0.0-1.0-0.42","+","null","",""
"","1765","audio-keyboard-response","86","126973","0.0-1.0-1.42","../audio/teste-vocab--35.mp3","s","líquido","likid"
"","null","html-keyboard-response","87","127477","0.0-1.0-0.43","+","null","",""
"","1715","audio-keyboard-response","88","129311","0.0-1.0-1.43","../audio/teste-vocab--113.mp3","s","ascender","limen"
"","null","html-keyboard-response","89","129813","0.0-1.0-0.44","+","null","",""
"","1608","audio-keyboard-response","90","131540","0.0-1.0-1.44","../audio/teste-vocab--46.mp3","s","ombro","zepòl"
"","null","html-keyboard-response","91","132042","0.0-1.0-0.45","+","null","",""
"","2450","audio-keyboard-response","92","134656","0.0-1.0-1.45","../audio/teste-vocab--33.mp3","s","uniforme","inifòm"
"","null","html-keyboard-response","93","135159","0.0-1.0-0.46","+","null","",""
"","1750","audio-keyboard-response","94","137053","0.0-1.0-1.46","../audio/teste-vocab--25.mp3","s","canguru","kanguwou"
"","null","html-keyboard-response","95","137555","0.0-1.0-0.47","+","null","",""
"","2177","audio-keyboard-response","96","139970","0.0-1.0-1.47","../audio/teste-vocab--80.mp3","s","binóculo","longvi"
"","null","html-keyboard-response","97","140473","0.0-1.0-0.48","+","null","",""
"","2496","audio-keyboard-response","98","143220","0.0-1.0-1.48","../audio/teste-vocab--52.mp3","s","construção","konstriksyon"
"","null","html-keyboard-response","99","143723","0.0-1.0-0.49","+","null","",""
"","1939","audio-keyboard-response","100","145845","0.0-1.0-1.49","../audio/teste-vocab--123.mp3","s","emissão","emisyon"
"","null","html-keyboard-response","101","146348","0.0-1.0-0.50","+","null","",""
"","2464","audio-keyboard-response","102","148972","0.0-1.0-1.50","../audio/teste-vocab--108.mp3","s","moradia","kay"
"","null","html-keyboard-response","103","149474","0.0-1.0-0.51","+","null","",""
"","2249","audio-keyboard-response","104","151864","0.0-1.0-1.51","../audio/teste-vocab--91.mp3","s","bússola","bousòl"
"","null","html-keyboard-response","105","152367","0.0-1.0-0.52","+","null","",""
"","3291","audio-keyboard-response","106","155831","0.0-1.0-1.52","../audio/teste-vocab--112.mp3","s","aparição","aparisyon"
"","null","html-keyboard-response","107","156334","0.0-1.0-0.53","+","null","",""
"","2136","audio-keyboard-response","108","158624","0.0-1.0-1.53","../audio/teste-vocab--121.mp3","s","atônito","sezi"
"","null","html-keyboard-response","109","159126","0.0-1.0-0.54","+","null","",""
"","1907","audio-keyboard-response","110","161225","0.0-1.0-1.54","../audio/teste-vocab--100.mp3","s","consumir","konsome"
"","null","html-keyboard-response","111","161727","0.0-1.0-0.55","+","null","",""
"","2876","audio-keyboard-response","112","164769","0.0-1.0-1.55","../audio/teste-vocab--26.mp3","s","cotovelo","koud"
"","null","html-keyboard-response","113","165272","0.0-1.0-0.56","+","null","",""
"","4255","audio-keyboard-response","114","169654","0.0-1.0-1.56","../audio/teste-vocab--86.mp3","s","pensar","panse"
"","null","html-keyboard-response","115","170157","0.0-1.0-0.57","+","null","",""
"","2339","audio-keyboard-response","116","172620","0.0-1.0-1.57","../audio/teste-vocab--85.mp3","s","trio","trio"
"","null","html-keyboard-response","117","173123","0.0-1.0-0.58","+","null","",""
"","2139","audio-keyboard-response","118","175463","0.0-1.0-1.58","../audio/teste-vocab--84.mp3","s","confiar","konfye"
"","null","html-keyboard-response","119","175965","0.0-1.0-0.59","+","null","",""
"","3158","audio-keyboard-response","120","179245","0.0-1.0-1.59","../audio/teste-vocab--19.mp3","s","hora","è"
"","null","html-keyboard-response","121","179747","0.0-1.0-0.60","+","null","",""
"","2487","audio-keyboard-response","122","182416","0.0-1.0-1.60","../audio/teste-vocab--66.mp3","s","cooperação","koperasyon"
"","null","html-keyboard-response","123","182918","0.0-1.0-0.61","+","null","",""
"","1933","audio-keyboard-response","124","185094","0.0-1.0-1.61","../audio/teste-vocab--124.mp3","s","obelisco","obelisk"
"","null","html-keyboard-response","125","185596","0.0-1.0-0.62","+","null","",""
"","1312","audio-keyboard-response","126","187105","0.0-1.0-1.62","../audio/teste-vocab--12.mp3","s","jaula","kaj"
"","null","html-keyboard-response","127","187607","0.0-1.0-0.63","+","null","",""
"","1953","audio-keyboard-response","128","189693","0.0-1.0-1.63","../audio/teste-vocab--75.mp3","s","carpinteiro","chapantye"
"","null","html-keyboard-response","129","190196","0.0-1.0-0.64","+","null","",""
"","1956","audio-keyboard-response","130","192312","0.0-1.0-1.64","../audio/teste-vocab--13.mp3","s","ambulância","anbilans"
"","null","html-keyboard-response","131","192814","0.0-1.0-0.65","+","null","",""
"","3094","audio-keyboard-response","132","196125","0.0-1.0-1.65","../audio/teste-vocab--105.mp3","s","cítrico","sitrik"
"","null","html-keyboard-response","133","196627","0.0-1.0-0.66","+","null","",""
"","1750","audio-keyboard-response","134","198544","0.0-1.0-1.66","../audio/teste-vocab--117.mp3","s","córnea","kòn"
"","null","html-keyboard-response","135","199047","0.0-1.0-0.67","+","null","",""
"","1858","audio-keyboard-response","136","201094","0.0-1.0-1.67","../audio/teste-vocab--10.mp3","s","corneta","kòn"
"","null","html-keyboard-response","137","201597","0.0-1.0-0.68","+","null","",""
"","1672","audio-keyboard-response","138","203428","0.0-1.0-1.68","../audio/teste-vocab--08.mp3","s","vaca","vach"
"","null","html-keyboard-response","139","203930","0.0-1.0-0.69","+","null","",""
"","1524","audio-keyboard-response","140","205674","0.0-1.0-1.69","../audio/teste-vocab--34.mp3","s","tronco","twon"
"","null","html-keyboard-response","141","206176","0.0-1.0-0.70","+","null","",""
"","1849","audio-keyboard-response","142","208169","0.0-1.0-1.70","../audio/teste-vocab--22.mp3","s","quebrado","kraze"
"","null","html-keyboard-response","143","208671","0.0-1.0-0.71","+","null","",""
"","1582","audio-keyboard-response","144","210383","0.0-1.0-1.71","../audio/teste-vocab--11.mp3","s","joelho","jenou"
"","null","html-keyboard-response","145","210886","0.0-1.0-0.72","+","null","",""
"","11363","audio-keyboard-response","146","222416","0.0-1.0-1.72","../audio/teste-vocab--129.mp3","n","elipse","elips"
"","null","html-keyboard-response","147","222919","0.0-1.0-0.73","+","null","",""
"","1547","audio-keyboard-response","148","224698","0.0-1.0-1.73","../audio/teste-vocab--14.mp3","s","ler","li"
"","null","html-keyboard-response","149","225201","0.0-1.0-0.74","+","null","",""
"","1863","audio-keyboard-response","150","227330","0.0-1.0-1.74","../audio/teste-vocab--38.mp3","s","cerimônia","seremoni"
"","null","html-keyboard-response","151","227833","0.0-1.0-0.75","+","null","",""
"","1454","audio-keyboard-response","152","229405","0.0-1.0-1.75","../audio/teste-vocab--07.mp3","s","abajur","lanp"
"","null","html-keyboard-response","153","229907","0.0-1.0-0.76","+","null","",""
"","1927","audio-keyboard-response","154","232002","0.0-1.0-1.76","../audio/teste-vocab--09.mp3","s","vela","bouji"
"","null","html-keyboard-response","155","232504","0.0-1.0-0.77","+","null","",""
"","2058","audio-keyboard-response","156","234687","0.0-1.0-1.77","../audio/teste-vocab--02.mp3","s","homem","gason"
"","null","html-keyboard-response","157","235189","0.0-1.0-0.78","+","null","",""
"","1419","audio-keyboard-response","158","236742","0.0-1.0-1.78","../audio/teste-vocab--49.mp3","s","humano","moun"
"","null","html-keyboard-response","159","237245","0.0-1.0-0.79","+","null","",""
"","2342","audio-keyboard-response","160","239801","0.0-1.0-1.79","../audio/teste-vocab--103.mp3","s","utensílio","istansil"
"","null","html-keyboard-response","161","240304","0.0-1.0-0.80","+","null","",""
"","3677","audio-keyboard-response","162","244122","0.0-1.0-1.80","../audio/teste-vocab--118.mp3","s","paralelogramo","paralelogram"
"","null","html-keyboard-response","163","244624","0.0-1.0-0.81","+","null","",""
"","2604","audio-keyboard-response","164","247433","0.0-1.0-1.81","../audio/teste-vocab--104.mp3","s","ira","pwal"
"","null","html-keyboard-response","165","247936","0.0-1.0-0.82","+","null","",""
"","3689","audio-keyboard-response","166","251773","0.0-1.0-1.82","../audio/teste-vocab--72.mp3","s","ilha","zile"
"","null","html-keyboard-response","167","252275","0.0-1.0-0.83","+","null","",""
"","2792","audio-keyboard-response","168","255282","0.0-1.0-1.83","../audio/teste-vocab--81.mp3","s","judicial","jidisyè"
"","null","html-keyboard-response","169","255784","0.0-1.0-0.84","+","null","",""
"","3161","audio-keyboard-response","170","259130","0.0-1.0-1.84","../audio/teste-vocab--125.mp3","s","lamaçal","labou"
"","null","html-keyboard-response","171","259633","0.0-1.0-0.85","+","null","",""
"","1570","audio-keyboard-response","172","262172","0.0-1.0-1.85","../audio/teste-vocab--106.mp3","s","lubrificar","grese"
"","null","html-keyboard-response","173","262675","0.0-1.0-0.86","+","null","",""
"","1924","audio-keyboard-response","174","264855","0.0-1.0-1.86","../audio/teste-vocab--120.mp3","s","induzir","pwovoke"
"","null","html-keyboard-response","175","265357","0.0-1.0-0.87","+","null","",""
"","2368","audio-keyboard-response","176","267868","0.0-1.0-1.87","../audio/teste-vocab--96.mp3","s","árido","sechrès"
"","null","html-keyboard-response","177","268370","0.0-1.0-0.88","+","null","",""
"","1773","audio-keyboard-response","178","270264","0.0-1.0-1.88","../audio/teste-vocab--64.mp3","s","colher","kiyè"
"","null","html-keyboard-response","179","270767","0.0-1.0-0.89","+","null","",""
"","1698","audio-keyboard-response","180","272725","0.0-1.0-1.89","../audio/teste-vocab--87.mp3","s","ave","zwazo"
"","null","html-keyboard-response","181","273228","0.0-1.0-0.90","+","null","",""
"","2215","audio-keyboard-response","182","275610","0.0-1.0-1.90","../audio/teste-vocab--89.mp3","s","classificar","klasifika"
"","null","html-keyboard-response","183","276112","0.0-1.0-0.91","+","null","",""
"","461","audio-keyboard-response","184","276799","0.0-1.0-1.91","../audio/teste-vocab--90.mp3","s","carniça","kanivò"
"","null","html-keyboard-response","185","277302","0.0-1.0-0.92","+","null","",""
"","1881","audio-keyboard-response","186","279244","0.0-1.0-1.92","../audio/teste-vocab--57.mp3","s","raiz","rasin"
"","null","html-keyboard-response","187","279747","0.0-1.0-0.93","+","null","",""
"","2415","audio-keyboard-response","188","282298","0.0-1.0-1.93","../audio/teste-vocab--29.mp3","s","rasgar","chire"
"","null","html-keyboard-response","189","282800","0.0-1.0-0.94","+","null","",""
"","1521","audio-keyboard-response","190","284581","0.0-1.0-1.94","../audio/teste-vocab--55.mp3","s","bosque","forè"
"","null","html-keyboard-response","191","285084","0.0-1.0-0.95","+","null","",""
"","1837","audio-keyboard-response","192","287045","0.0-1.0-1.95","../audio/teste-vocab--70.mp3","s","funil","antónwa"
"","null","html-keyboard-response","193","287547","0.0-1.0-0.96","+","null","",""
"","2122","audio-keyboard-response","194","289802","0.0-1.0-1.96","../audio/teste-vocab--51.mp3","s","recolher","kolekte"
"","null","html-keyboard-response","195","290305","0.0-1.0-0.97","+","null","",""
"","360","audio-keyboard-response","196","290792","0.0-1.0-1.97","../audio/teste-vocab--30.mp3","s","pintor","pent"
"","null","html-keyboard-response","197","291295","0.0-1.0-0.98","+","null","",""
"","1959","audio-keyboard-response","198","293335","0.0-1.0-1.98","../audio/teste-vocab--05.mp3","s","limpar","netwaye"
"","null","html-keyboard-response","199","293837","0.0-1.0-0.99","+","null","",""
"","2099","audio-keyboard-response","200","296103","0.0-1.0-1.99","../audio/teste-vocab--94.mp3","s","paralelo","paralèl"
"","null","html-keyboard-response","201","296606","0.0-1.0-0.100","+","null","",""
"","2232","audio-keyboard-response","202","299195","0.0-1.0-1.100","../audio/teste-vocab--101.mp3","s","incandescente","enkandesan"
"","null","html-keyboard-response","203","299698","0.0-1.0-0.101","+","null","",""
"","2760","audio-keyboard-response","204","302619","0.0-1.0-1.101","../audio/teste-vocab--116.mp3","s","vestuário","vestyè"
"","null","html-keyboard-response","205","303122","0.0-1.0-0.102","+","null","",""
"","2072","audio-keyboard-response","206","305389","0.0-1.0-1.102","../audio/teste-vocab--93.mp3","s","felino","leopa"
"","null","html-keyboard-response","207","305892","0.0-1.0-0.103","+","null","",""
"","1802","audio-keyboard-response","208","307862","0.0-1.0-1.103","../audio/teste-vocab--53.mp3","s","orientar","oryante"
"","null","html-keyboard-response","209","308364","0.0-1.0-0.104","+","null","",""
"","1811","audio-keyboard-response","210","310357","0.0-1.0-1.104","../audio/teste-vocab--56.mp3","s","agricultura","agrikilti"
"","null","html-keyboard-response","211","310860","0.0-1.0-0.105","+","null","",""
"","1843","audio-keyboard-response","212","312992","0.0-1.0-1.105","../audio/teste-vocab--43.mp3","s","mecânico","mekanisyen"
"","null","html-keyboard-response","213","313494","0.0-1.0-0.106","+","null","",""
"","1196","audio-keyboard-response","214","314872","0.0-1.0-1.106","../audio/teste-vocab--39.mp3","s","cobra","koulèv"
"","null","html-keyboard-response","215","315375","0.0-1.0-0.107","+","null","",""
"","1207","audio-keyboard-response","216","316649","0.0-1.0-1.107","../audio/teste-vocab--31.mp3","s","vazio","vid"
"","null","html-keyboard-response","217","317152","0.0-1.0-0.108","+","null","",""
"","1562","audio-keyboard-response","218","318873","0.0-1.0-1.108","../audio/teste-vocab--62.mp3","s","carretel","bobin"
"","null","html-keyboard-response","219","319375","0.0-1.0-0.109","+","null","",""
"","1486","audio-keyboard-response","220","320997","0.0-1.0-1.109","../audio/teste-vocab--88.mp3","s","portátil","pòtab"
"","null","html-keyboard-response","221","321500","0.0-1.0-0.110","+","null","",""
"","1527","audio-keyboard-response","222","323177","0.0-1.0-1.110","../audio/teste-vocab--119.mp3","s","numeroso","anpil"
"","null","html-keyboard-response","223","323681","0.0-1.0-0.111","+","null","",""
"","1849","audio-keyboard-response","224","325681","0.0-1.0-1.111","../audio/teste-vocab--44.mp3","s","premiar","rekonpanse"
"","null","html-keyboard-response","225","326184","0.0-1.0-0.112","+","null","",""
"","1980","audio-keyboard-response","226","328333","0.0-1.0-1.112","../audio/teste-vocab--63.mp3","s","transparente","transparan"
"","null","html-keyboard-response","227","328836","0.0-1.0-0.113","+","null","",""
"","1544","audio-keyboard-response","228","330629","0.0-1.0-1.113","../audio/teste-vocab--06.mp3","s","barco","bato"
"","null","html-keyboard-response","229","331132","0.0-1.0-0.114","+","null","",""
"","1553","audio-keyboard-response","230","332845","0.0-1.0-1.114","../audio/teste-vocab--54.mp3","s","arbusto","raje"
"","null","html-keyboard-response","231","333348","0.0-1.0-0.115","+","null","",""
"","1852","audio-keyboard-response","232","335360","0.0-1.0-1.115","../audio/teste-vocab--109.mp3","s","anfíbio","anfibyen"
"","null","html-keyboard-response","233","335863","0.0-1.0-0.116","+","null","",""
"","1300","audio-keyboard-response","234","337281","0.0-1.0-1.116","../audio/teste-vocab--04.mp3","s","roda","wonn"
"","null","html-keyboard-response","235","337783","0.0-1.0-0.117","+","null","",""
"","4508","audio-keyboard-response","236","342413","0.0-1.0-1.117","../audio/teste-vocab--78.mp3","s","quarteto","qwatèt"
"","null","html-keyboard-response","237","342916","0.0-1.0-0.118","+","null","",""
"","1814","audio-keyboard-response","238","345021","0.0-1.0-1.118","../audio/teste-vocab--23.mp3","s","acariciar","karese"
"","null","html-keyboard-response","239","345524","0.0-1.0-0.119","+","null","",""
"","1892","audio-keyboard-response","240","347585","0.0-1.0-1.119","../audio/teste-vocab--127.mp3","s","côncavo","konkav"
"","null","html-keyboard-response","241","348087","0.0-1.0-0.120","+","null","",""
"","1736","audio-keyboard-response","242","349995","0.0-1.0-1.120","../audio/teste-vocab--107.mp3","s","elo","emay"
"","null","html-keyboard-response","243","350497","0.0-1.0-0.121","+","null","",""
"","1663","audio-keyboard-response","244","352308","0.0-1.0-1.121","../audio/teste-vocab--36.mp3","s","grupo","gwoup"
"","null","html-keyboard-response","245","352810","0.0-1.0-0.122","+","null","",""
"","1570","audio-keyboard-response","246","354560","0.0-1.0-1.122","../audio/teste-vocab--77.mp3","s","comércio","komès"
"","null","html-keyboard-response","247","355062","0.0-1.0-0.123","+","null","",""
"","1721","audio-keyboard-response","248","356917","0.0-1.0-1.123","../audio/teste-vocab--03.mp3","s","balançar","balanse"
"","null","html-keyboard-response","249","357419","0.0-1.0-0.124","+","null","",""
"","1750","audio-keyboard-response","250","359304","0.0-1.0-1.124","../audio/teste-vocab--42.mp3","s","isolamento","izòlman"
"","null","html-keyboard-response","251","359807","0.0-1.0-0.125","+","null","",""
"","1739","audio-keyboard-response","252","361697","0.0-1.0-1.125","../audio/teste-vocab--114.mp3","s","fragmentar","dechire"
"","null","html-keyboard-response","253","362200","0.0-1.0-0.126","+","null","",""
"","1988","audio-keyboard-response","254","364381","0.0-1.0-1.126","../audio/teste-vocab--69.mp3","s","pingar","degoute"
"","null","html-keyboard-response","255","364884","0.0-1.0-0.127","+","null","",""
"","1971","audio-keyboard-response","256","367319","0.0-1.0-1.127","../audio/teste-vocab--110.mp3","s","prodígio","pwodij"
"","null","html-keyboard-response","257","367821","0.0-1.0-0.128","+","null","",""
"","1834","audio-keyboard-response","258","370837","0.0-1.0-1.128","../audio/teste-vocab--97.mp3","s","frágil","frajil"
"","null","html-keyboard-response","259","371339","0.0-1.0-0.129","+","null","",""
"","1373","audio-keyboard-response","260","373131","0.0-1.0-1.129","../audio/teste-vocab--92.mp3","s","esférico","won"
