[
	{
		"view_history": [
			{
				"page_index": 0,
				"viewing_time": 1717
			}
		],
		"rt": 1719,
		"trial_type": "instructions",
		"trial_index": 0,
		"time_elapsed": 1721,
		"internal_node_id": "0.0-0.0"
	},
	{
		"rt": 7165,
		"response": {
			"tcle": "Concordo voluntariamente em participar da pesquisa conforme texto acima."
		},
		"question_order": [
			0
		],
		"trial_type": "survey-multi-choice",
		"trial_index": 1,
		"time_elapsed": 9091,
		"internal_node_id": "0.0-1.0"
	},
	{
		"rt": 19407,
		"response": {
			"email": "ruthanastazia@gmail.com"
		},
		"trial_type": "survey-text",
		"trial_index": 2,
		"time_elapsed": 29503,
		"internal_node_id": "0.0-2.0"
	}
]