[
	{
		"view_history": [
			{
				"page_index": 0,
				"viewing_time": 13654
			},
			{
				"page_index": 1,
				"viewing_time": 585731
			}
		],
		"rt": 599386,
		"trial_type": "instructions",
		"trial_index": 0,
		"time_elapsed": 599388,
		"internal_node_id": "0.0-0.0"
	},
	{
		"rt": null,
		"stimulus": "<span style= \"font-size:30px; font-family: monospace\">+</span>",
		"response": null,
		"trial_part": "fixation",
		"trial_type": "html-keyboard-response",
		"trial_index": 1,
		"time_elapsed": 600496,
		"internal_node_id": "0.0-1.0-0.0-0.0"
	},
	{
		"rt": 0,
		"stimulus": "../audio/prac-question-1-1.mp3",
		"response": " ",
		"word": "O",
		"trial_type": "audio-keyboard-response",
		"trial_index": 2,
		"time_elapsed": 607624,
		"internal_node_id": "0.0-1.0-1.0"
	},
	{
		"rt": 1852,
		"stimulus": "../audio/prac-question-1-2.mp3",
		"response": " ",
		"word": "dia",
		"trial_type": "audio-keyboard-response",
		"trial_index": 3,
		"time_elapsed": 609893,
		"internal_node_id": "0.0-1.0-1.1"
	},
	{
		"rt": 1013,
		"stimulus": "../audio/prac-question-1-3.mp3",
		"response": " ",
		"word": "estará",
		"trial_type": "audio-keyboard-response",
		"trial_index": 4,
		"time_elapsed": 611294,
		"internal_node_id": "0.0-1.0-1.2"
	},
	{
		"rt": 865,
		"stimulus": "../audio/prac-question-1-4.mp3",
		"response": " ",
		"word": "cheio",
		"trial_type": "audio-keyboard-response",
		"trial_index": 5,
		"time_elapsed": 612458,
		"internal_node_id": "0.0-1.0-1.3"
	},
	{
		"rt": 633,
		"stimulus": "../audio/prac-question-1-5.mp3",
		"response": " ",
		"word": "de",
		"trial_type": "audio-keyboard-response",
		"trial_index": 6,
		"time_elapsed": 613396,
		"internal_node_id": "0.0-1.0-1.4"
	},
	{
		"rt": 717,
		"stimulus": "../audio/prac-question-1-6.mp3",
		"response": " ",
		"word": "nuvens",
		"trial_type": "audio-keyboard-response",
		"trial_index": 7,
		"time_elapsed": 614418,
		"internal_node_id": "0.0-1.0-1.5"
	},
	{
		"rt": 691,
		"stimulus": "../audio/prac-question-1-7.mp3",
		"response": " ",
		"word": "hoje.",
		"trial_type": "audio-keyboard-response",
		"trial_index": 8,
		"time_elapsed": 615401,
		"internal_node_id": "0.0-1.0-1.6"
	},
	{
		"rt": null,
		"stimulus": "<span style= \"font-size:30px; font-family: monospace\">+</span>",
		"response": null,
		"trial_part": "fixation",
		"trial_type": "html-keyboard-response",
		"trial_index": 9,
		"time_elapsed": 616654,
		"internal_node_id": "0.0-1.0-0.7-0.7"
	},
	{
		"rt": 618,
		"stimulus": "../audio/prac-question-2-1.mp3",
		"response": " ",
		"word": "A",
		"trial_type": "audio-keyboard-response",
		"trial_index": 10,
		"time_elapsed": 617638,
		"internal_node_id": "0.0-1.0-1.7"
	},
	{
		"rt": 673,
		"stimulus": "../audio/prac-question-2-2.mp3",
		"response": " ",
		"word": "caneca",
		"trial_type": "audio-keyboard-response",
		"trial_index": 11,
		"time_elapsed": 618646,
		"internal_node_id": "0.0-1.0-1.8"
	},
	{
		"rt": 1251,
		"stimulus": "../audio/prac-question-2-3.mp3",
		"response": " ",
		"word": "colorida",
		"trial_type": "audio-keyboard-response",
		"trial_index": 12,
		"time_elapsed": 620205,
		"internal_node_id": "0.0-1.0-1.9"
	},
	{
		"rt": 1039,
		"stimulus": "../audio/prac-question-2-4.mp3",
		"response": " ",
		"word": "caiu",
		"trial_type": "audio-keyboard-response",
		"trial_index": 13,
		"time_elapsed": 621536,
		"internal_node_id": "0.0-1.0-1.10"
	},
	{
		"rt": 807,
		"stimulus": "../audio/prac-question-2-5.mp3",
		"response": " ",
		"word": "da",
		"trial_type": "audio-keyboard-response",
		"trial_index": 14,
		"time_elapsed": 622637,
		"internal_node_id": "0.0-1.0-1.11"
	},
	{
		"rt": 940,
		"stimulus": "../audio/prac-question-2-6.mp3",
		"response": " ",
		"word": "mesa",
		"trial_type": "audio-keyboard-response",
		"trial_index": 15,
		"time_elapsed": 623874,
		"internal_node_id": "0.0-1.0-1.12"
	},
	{
		"rt": 897,
		"stimulus": "../audio/prac-question-2-7.mp3",
		"response": " ",
		"word": "de",
		"trial_type": "audio-keyboard-response",
		"trial_index": 16,
		"time_elapsed": 625074,
		"internal_node_id": "0.0-1.0-1.13"
	},
	{
		"rt": 1152,
		"stimulus": "../audio/prac-question-2-8.mp3",
		"response": " ",
		"word": "jantar.",
		"trial_type": "audio-keyboard-response",
		"trial_index": 17,
		"time_elapsed": 626556,
		"internal_node_id": "0.0-1.0-1.14"
	},
	{
		"rt": 3581,
		"stimulus": "<span style=\"font-size:25px; font-family: monospace\">A caneca era colorida?</span>",
		"response": "s",
		"question": "A caneca era colorida?",
		"answer": "null",
		"trial": "prac-sent",
		"trial_type": "html-keyboard-response",
		"trial_index": 18,
		"time_elapsed": 630391,
		"internal_node_id": "0.0-1.0-2.14-0.14",
		"accuracy": false
	},
	{
		"view_history": [
			{
				"page_index": 0,
				"viewing_time": 3369
			}
		],
		"rt": 3369,
		"trial_type": "instructions",
		"trial_index": 19,
		"time_elapsed": 634262,
		"internal_node_id": "0.0-2.0"
	},
	{
		"rt": null,
		"stimulus": "<span style= \"font-size:30px; font-family: monospace\">+</span>",
		"response": null,
		"trial_part": "fixation",
		"trial_type": "html-keyboard-response",
		"trial_index": 20,
		"time_elapsed": 635366,
		"internal_node_id": "0.0-3.0-0.0-0.0"
	},
	{
		"rt": 1222,
		"stimulus": "../audio/24-1-masc.mp3",
		"response": " ",
		"word": "As",
		"trial_type": "audio-keyboard-response",
		"trial_index": 21,
		"time_elapsed": 636942,
		"internal_node_id": "0.0-3.0-1.0"
	},
	{
		"rt": 978,
		"stimulus": "../audio/24-2-masc.mp3",
		"response": " ",
		"word": "crianças",
		"trial_type": "audio-keyboard-response",
		"trial_index": 22,
		"time_elapsed": 638256,
		"internal_node_id": "0.0-3.0-1.1"
	},
	{
		"rt": 740,
		"stimulus": "../audio/24-3-masc.mp3",
		"response": " ",
		"word": "vão",
		"trial_type": "audio-keyboard-response",
		"trial_index": 23,
		"time_elapsed": 639294,
		"internal_node_id": "0.0-3.0-1.2"
	},
	{
		"rt": 705,
		"stimulus": "../audio/24-4-masc.mp3",
		"response": " ",
		"word": "ao",
		"trial_type": "audio-keyboard-response",
		"trial_index": 24,
		"time_elapsed": 640290,
		"internal_node_id": "0.0-3.0-1.3"
	},
	{
		"rt": 955,
		"stimulus": "../audio/24-5-masc.mp3",
		"response": " ",
		"word": "cinema",
		"trial_type": "audio-keyboard-response",
		"trial_index": 25,
		"time_elapsed": 641566,
		"internal_node_id": "0.0-3.0-1.4"
	},
	{
		"rt": 787,
		"stimulus": "../audio/24-6-masc.mp3",
		"response": " ",
		"word": "mais",
		"trial_type": "audio-keyboard-response",
		"trial_index": 26,
		"time_elapsed": 642639,
		"internal_node_id": "0.0-3.0-1.5"
	},
	{
		"rt": 1657,
		"stimulus": "../audio/24-7-masc.mp3",
		"response": " ",
		"word": "tarde.",
		"trial_type": "audio-keyboard-response",
		"trial_index": 27,
		"time_elapsed": 644598,
		"internal_node_id": "0.0-3.0-1.6"
	},
	{
		"rt": null,
		"stimulus": "<span style= \"font-size:30px; font-family: monospace\">+</span>",
		"response": null,
		"trial_part": "fixation",
		"trial_type": "html-keyboard-response",
		"trial_index": 28,
		"time_elapsed": 645852,
		"internal_node_id": "0.0-3.0-0.7-0.7"
	},
	{
		"rt": 1042,
		"stimulus": "../audio/21-1-masc.mp3",
		"response": " ",
		"word": "Precisamos",
		"trial_type": "audio-keyboard-response",
		"trial_index": 29,
		"time_elapsed": 647284,
		"internal_node_id": "0.0-3.0-1.7"
	},
	{
		"rt": 627,
		"stimulus": "../audio/21-2-masc.mp3",
		"response": " ",
		"word": "de",
		"trial_type": "audio-keyboard-response",
		"trial_index": 30,
		"time_elapsed": 648202,
		"internal_node_id": "0.0-3.0-1.8"
	},
	{
		"rt": 926,
		"stimulus": "../audio/21-3-masc.mp3",
		"response": " ",
		"word": "paciência",
		"trial_type": "audio-keyboard-response",
		"trial_index": 31,
		"time_elapsed": 649430,
		"internal_node_id": "0.0-3.0-1.9"
	},
	{
		"rt": 702,
		"stimulus": "../audio/21-4-masc.mp3",
		"response": " ",
		"word": "e",
		"trial_type": "audio-keyboard-response",
		"trial_index": 32,
		"time_elapsed": 650428,
		"internal_node_id": "0.0-3.0-1.10"
	},
	{
		"rt": 1135,
		"stimulus": "../audio/21-5-masc.mp3",
		"response": " ",
		"word": "bondade",
		"trial_type": "audio-keyboard-response",
		"trial_index": 33,
		"time_elapsed": 651878,
		"internal_node_id": "0.0-3.0-1.11"
	},
	{
		"rt": 644,
		"stimulus": "../audio/21-6-masc.mp3",
		"response": " ",
		"word": "para",
		"trial_type": "audio-keyboard-response",
		"trial_index": 34,
		"time_elapsed": 652821,
		"internal_node_id": "0.0-3.0-1.12"
	},
	{
		"rt": 630,
		"stimulus": "../audio/21-7-masc.mp3",
		"response": " ",
		"word": "um",
		"trial_type": "audio-keyboard-response",
		"trial_index": 35,
		"time_elapsed": 653761,
		"internal_node_id": "0.0-3.0-1.13"
	},
	{
		"rt": 871,
		"stimulus": "../audio/21-8-masc.mp3",
		"response": " ",
		"word": "mundo",
		"trial_type": "audio-keyboard-response",
		"trial_index": 36,
		"time_elapsed": 654936,
		"internal_node_id": "0.0-3.0-1.14"
	},
	{
		"rt": 2159,
		"stimulus": "../audio/21-9-masc.mp3",
		"response": " ",
		"word": "melhor.",
		"trial_type": "audio-keyboard-response",
		"trial_index": 37,
		"time_elapsed": 657398,
		"internal_node_id": "0.0-3.0-1.15"
	},
	{
		"rt": null,
		"stimulus": "<span style= \"font-size:30px; font-family: monospace\">+</span>",
		"response": null,
		"trial_part": "fixation",
		"trial_type": "html-keyboard-response",
		"trial_index": 38,
		"time_elapsed": 658652,
		"internal_node_id": "0.0-3.0-0.16-0.16"
	},
	{
		"rt": 1146,
		"stimulus": "../audio/23-1-fem.mp3",
		"response": " ",
		"word": "Português",
		"trial_type": "audio-keyboard-response",
		"trial_index": 39,
		"time_elapsed": 660167,
		"internal_node_id": "0.0-3.0-1.16"
	},
	{
		"rt": 726,
		"stimulus": "../audio/23-2-fem.mp3",
		"response": " ",
		"word": "é",
		"trial_type": "audio-keyboard-response",
		"trial_index": 40,
		"time_elapsed": 661184,
		"internal_node_id": "0.0-3.0-1.17"
	},
	{
		"rt": 612,
		"stimulus": "../audio/23-3-fem.mp3",
		"response": " ",
		"word": "um",
		"trial_type": "audio-keyboard-response",
		"trial_index": 41,
		"time_elapsed": 662092,
		"internal_node_id": "0.0-3.0-1.18"
	},
	{
		"rt": 932,
		"stimulus": "../audio/23-4-fem.mp3",
		"response": " ",
		"word": "assunto",
		"trial_type": "audio-keyboard-response",
		"trial_index": 42,
		"time_elapsed": 663336,
		"internal_node_id": "0.0-3.0-1.19"
	},
	{
		"rt": 1283,
		"stimulus": "../audio/23-5-fem.mp3",
		"response": " ",
		"word": "elementar",
		"trial_type": "audio-keyboard-response",
		"trial_index": 43,
		"time_elapsed": 664928,
		"internal_node_id": "0.0-3.0-1.20"
	},
	{
		"rt": 714,
		"stimulus": "../audio/23-6-fem.mp3",
		"response": " ",
		"word": "para",
		"trial_type": "audio-keyboard-response",
		"trial_index": 44,
		"time_elapsed": 665958,
		"internal_node_id": "0.0-3.0-1.21"
	},
	{
		"rt": 792,
		"stimulus": "../audio/23-7-fem.mp3",
		"response": " ",
		"word": "os",
		"trial_type": "audio-keyboard-response",
		"trial_index": 45,
		"time_elapsed": 667062,
		"internal_node_id": "0.0-3.0-1.22"
	},
	{
		"rt": 1733,
		"stimulus": "../audio/23-8-fem.mp3",
		"response": " ",
		"word": "alunos.",
		"trial_type": "audio-keyboard-response",
		"trial_index": 46,
		"time_elapsed": 669111,
		"internal_node_id": "0.0-3.0-1.23"
	},
	{
		"rt": null,
		"stimulus": "<span style= \"font-size:30px; font-family: monospace\">+</span>",
		"response": null,
		"trial_part": "fixation",
		"trial_type": "html-keyboard-response",
		"trial_index": 47,
		"time_elapsed": 670365,
		"internal_node_id": "0.0-3.0-0.24-0.24"
	},
	{
		"rt": 720,
		"stimulus": "../audio/22-1-fem.mp3",
		"response": " ",
		"word": "Eu",
		"trial_type": "audio-keyboard-response",
		"trial_index": 48,
		"time_elapsed": 671468,
		"internal_node_id": "0.0-3.0-1.24"
	},
	{
		"rt": 1205,
		"stimulus": "../audio/22-2-fem.mp3",
		"response": " ",
		"word": "detesto",
		"trial_type": "audio-keyboard-response",
		"trial_index": 49,
		"time_elapsed": 672976,
		"internal_node_id": "0.0-3.0-1.25"
	},
	{
		"rt": 734,
		"stimulus": "../audio/22-3-fem.mp3",
		"response": " ",
		"word": "fumaça",
		"trial_type": "audio-keyboard-response",
		"trial_index": 50,
		"time_elapsed": 674037,
		"internal_node_id": "0.0-3.0-1.26"
	},
	{
		"rt": 772,
		"stimulus": "../audio/22-4-fem.mp3",
		"response": " ",
		"word": "de",
		"trial_type": "audio-keyboard-response",
		"trial_index": 51,
		"time_elapsed": 675114,
		"internal_node_id": "0.0-3.0-1.27"
	},
	{
		"rt": 1025,
		"stimulus": "../audio/22-5-fem.mp3",
		"response": " ",
		"word": "cachimbo",
		"trial_type": "audio-keyboard-response",
		"trial_index": 52,
		"time_elapsed": 676476,
		"internal_node_id": "0.0-3.0-1.28"
	},
	{
		"rt": 1080,
		"stimulus": "../audio/22-6-fem.mp3",
		"response": " ",
		"word": "e",
		"trial_type": "audio-keyboard-response",
		"trial_index": 53,
		"time_elapsed": 677850,
		"internal_node_id": "0.0-3.0-1.29"
	},
	{
		"rt": 630,
		"stimulus": "../audio/22-7-fem.mp3",
		"response": " ",
		"word": "de",
		"trial_type": "audio-keyboard-response",
		"trial_index": 54,
		"time_elapsed": 678790,
		"internal_node_id": "0.0-3.0-1.30"
	},
	{
		"rt": 1405,
		"stimulus": "../audio/22-8-fem.mp3",
		"response": " ",
		"word": "cigarro.",
		"trial_type": "audio-keyboard-response",
		"trial_index": 55,
		"time_elapsed": 680514,
		"internal_node_id": "0.0-3.0-1.31"
	},
	{
		"rt": null,
		"stimulus": "<span style= \"font-size:30px; font-family: monospace\">+</span>",
		"response": null,
		"trial_part": "fixation",
		"trial_type": "html-keyboard-response",
		"trial_index": 56,
		"time_elapsed": 681768,
		"internal_node_id": "0.0-3.0-0.32-0.32"
	},
	{
		"rt": 1045,
		"stimulus": "../audio/25-1-fem.mp3",
		"response": " ",
		"word": "Ela",
		"trial_type": "audio-keyboard-response",
		"trial_index": 57,
		"time_elapsed": 683214,
		"internal_node_id": "0.0-3.0-1.32"
	},
	{
		"rt": 900,
		"stimulus": "../audio/25-2-fem.mp3",
		"response": " ",
		"word": "faz",
		"trial_type": "audio-keyboard-response",
		"trial_index": 58,
		"time_elapsed": 684436,
		"internal_node_id": "0.0-3.0-1.33"
	},
	{
		"rt": 41,
		"stimulus": "../audio/25-3-fem.mp3",
		"response": " ",
		"word": "tanto",
		"trial_type": "audio-keyboard-response",
		"trial_index": 59,
		"time_elapsed": 684768,
		"internal_node_id": "0.0-3.0-1.34"
	},
	{
		"rt": 996,
		"stimulus": "../audio/25-4-fem.mp3",
		"response": " ",
		"word": "cabelo",
		"trial_type": "audio-keyboard-response",
		"trial_index": 60,
		"time_elapsed": 686090,
		"internal_node_id": "0.0-3.0-1.35"
	},
	{
		"rt": 932,
		"stimulus": "../audio/25-5-fem.mp3",
		"response": " ",
		"word": "liso",
		"trial_type": "audio-keyboard-response",
		"trial_index": 61,
		"time_elapsed": 687343,
		"internal_node_id": "0.0-3.0-1.36"
	},
	{
		"rt": 795,
		"stimulus": "../audio/25-6-fem.mp3",
		"response": " ",
		"word": "quanto",
		"trial_type": "audio-keyboard-response",
		"trial_index": 62,
		"time_elapsed": 688450,
		"internal_node_id": "0.0-3.0-1.37"
	},
	{
		"rt": 1135,
		"stimulus": "../audio/25-7-fem.mp3",
		"response": " ",
		"word": "cacheado.",
		"trial_type": "audio-keyboard-response",
		"trial_index": 63,
		"time_elapsed": 689903,
		"internal_node_id": "0.0-3.0-1.38"
	},
	{
		"rt": 3703,
		"stimulus": "<span style=\"font-size:25px; font-family: monospace\">Ela só faz cabelo cacheado?</span>",
		"response": "n",
		"question": "Ela só faz cabelo cacheado?",
		"answer": "null",
		"trial": "exp-sent",
		"trial_type": "html-keyboard-response",
		"trial_index": 64,
		"time_elapsed": 693857,
		"internal_node_id": "0.0-3.0-2.38-0.38",
		"accuracy": false
	},
	{
		"rt": null,
		"stimulus": "<span style= \"font-size:30px; font-family: monospace\">+</span>",
		"response": null,
		"trial_part": "fixation",
		"trial_type": "html-keyboard-response",
		"trial_index": 65,
		"time_elapsed": 695361,
		"internal_node_id": "0.0-3.0-0.39-0.39"
	},
	{
		"rt": 821,
		"stimulus": "../audio/33-1-masc.mp3",
		"response": " ",
		"word": "Eles",
		"trial_type": "audio-keyboard-response",
		"trial_index": 66,
		"time_elapsed": 696564,
		"internal_node_id": "0.0-3.0-1.39"
	},
	{
		"rt": 810,
		"stimulus": "../audio/33-2-masc.mp3",
		"response": " ",
		"word": "sabem",
		"trial_type": "audio-keyboard-response",
		"trial_index": 67,
		"time_elapsed": 697679,
		"internal_node_id": "0.0-3.0-1.40"
	},
	{
		"rt": 853,
		"stimulus": "../audio/33-3-masc.mp3",
		"response": " ",
		"word": "do",
		"trial_type": "audio-keyboard-response",
		"trial_index": 68,
		"time_elapsed": 698847,
		"internal_node_id": "0.0-3.0-1.41"
	},
	{
		"rt": 996,
		"stimulus": "../audio/33-4-masc.mp3",
		"response": " ",
		"word": "seu",
		"trial_type": "audio-keyboard-response",
		"trial_index": 69,
		"time_elapsed": 700138,
		"internal_node_id": "0.0-3.0-1.42"
	},
	{
		"rt": 1071,
		"stimulus": "../audio/33-5-masc.mp3",
		"response": " ",
		"word": "privilégio",
		"trial_type": "audio-keyboard-response",
		"trial_index": 70,
		"time_elapsed": 701529,
		"internal_node_id": "0.0-3.0-1.43"
	},
	{
		"rt": 990,
		"stimulus": "../audio/33-6-masc.mp3",
		"response": " ",
		"word": "nessa",
		"trial_type": "audio-keyboard-response",
		"trial_index": 71,
		"time_elapsed": 702820,
		"internal_node_id": "0.0-3.0-1.44"
	},
	{
		"rt": 1234,
		"stimulus": "../audio/33-7-masc.mp3",
		"response": " ",
		"word": "confusão.",
		"trial_type": "audio-keyboard-response",
		"trial_index": 72,
		"time_elapsed": 704530,
		"internal_node_id": "0.0-3.0-1.45"
	},
	{
		"rt": null,
		"stimulus": "<span style= \"font-size:30px; font-family: monospace\">+</span>",
		"response": null,
		"trial_part": "fixation",
		"trial_type": "html-keyboard-response",
		"trial_index": 73,
		"time_elapsed": 705784,
		"internal_node_id": "0.0-3.0-0.46-0.46"
	},
	{
		"rt": 850,
		"stimulus": "../audio/31-1-masc.mp3",
		"response": " ",
		"word": "O",
		"trial_type": "audio-keyboard-response",
		"trial_index": 74,
		"time_elapsed": 707045,
		"internal_node_id": "0.0-3.0-1.46"
	},
	{
		"rt": 958,
		"stimulus": "../audio/31-2-masc.mp3",
		"response": " ",
		"word": "padeiro",
		"trial_type": "audio-keyboard-response",
		"trial_index": 75,
		"time_elapsed": 708332,
		"internal_node_id": "0.0-3.0-1.47"
	},
	{
		"rt": 827,
		"stimulus": "../audio/31-3-masc.mp3",
		"response": " ",
		"word": "usou",
		"trial_type": "audio-keyboard-response",
		"trial_index": 76,
		"time_elapsed": 709442,
		"internal_node_id": "0.0-3.0-1.48"
	},
	{
		"rt": 816,
		"stimulus": "../audio/31-4-masc.mp3",
		"response": " ",
		"word": "a",
		"trial_type": "audio-keyboard-response",
		"trial_index": 77,
		"time_elapsed": 710546,
		"internal_node_id": "0.0-3.0-1.49"
	},
	{
		"rt": 1112,
		"stimulus": "../audio/31-5-masc.mp3",
		"response": " ",
		"word": "balança",
		"trial_type": "audio-keyboard-response",
		"trial_index": 78,
		"time_elapsed": 711990,
		"internal_node_id": "0.0-3.0-1.50"
	},
	{
		"rt": 801,
		"stimulus": "../audio/31-6-masc.mp3",
		"response": " ",
		"word": "o",
		"trial_type": "audio-keyboard-response",
		"trial_index": 79,
		"time_elapsed": 713090,
		"internal_node_id": "0.0-3.0-1.51"
	},
	{
		"rt": 923,
		"stimulus": "../audio/31-7-masc.mp3",
		"response": " ",
		"word": "dia",
		"trial_type": "audio-keyboard-response",
		"trial_index": 80,
		"time_elapsed": 714303,
		"internal_node_id": "0.0-3.0-1.52"
	},
	{
		"rt": 2969,
		"stimulus": "../audio/31-8-masc.mp3",
		"response": " ",
		"word": "inteiro.",
		"trial_type": "audio-keyboard-response",
		"trial_index": 81,
		"time_elapsed": 717575,
		"internal_node_id": "0.0-3.0-1.53"
	},
	{
		"rt": null,
		"stimulus": "<span style= \"font-size:30px; font-family: monospace\">+</span>",
		"response": null,
		"trial_part": "fixation",
		"trial_type": "html-keyboard-response",
		"trial_index": 82,
		"time_elapsed": 718828,
		"internal_node_id": "0.0-3.0-0.54-0.54"
	},
	{
		"rt": 595,
		"stimulus": "../audio/32-1-masc.mp3",
		"response": " ",
		"word": "A",
		"trial_type": "audio-keyboard-response",
		"trial_index": 83,
		"time_elapsed": 719778,
		"internal_node_id": "0.0-3.0-1.54"
	},
	{
		"rt": 746,
		"stimulus": "../audio/32-2-masc.mp3",
		"response": " ",
		"word": "tia",
		"trial_type": "audio-keyboard-response",
		"trial_index": 84,
		"time_elapsed": 720824,
		"internal_node_id": "0.0-3.0-1.55"
	},
	{
		"rt": 819,
		"stimulus": "../audio/32-3-masc.mp3",
		"response": " ",
		"word": "comprou",
		"trial_type": "audio-keyboard-response",
		"trial_index": 85,
		"time_elapsed": 721940,
		"internal_node_id": "0.0-3.0-1.56"
	},
	{
		"rt": 583,
		"stimulus": "../audio/32-4-masc.mp3",
		"response": " ",
		"word": "um",
		"trial_type": "audio-keyboard-response",
		"trial_index": 86,
		"time_elapsed": 722825,
		"internal_node_id": "0.0-3.0-1.57"
	},
	{
		"rt": 1027,
		"stimulus": "../audio/32-5-masc.mp3",
		"response": " ",
		"word": "pilão",
		"trial_type": "audio-keyboard-response",
		"trial_index": 87,
		"time_elapsed": 724140,
		"internal_node_id": "0.0-3.0-1.58"
	},
	{
		"rt": 879,
		"stimulus": "../audio/32-6-masc.mp3",
		"response": " ",
		"word": "para",
		"trial_type": "audio-keyboard-response",
		"trial_index": 88,
		"time_elapsed": 725320,
		"internal_node_id": "0.0-3.0-1.59"
	},
	{
		"rt": 787,
		"stimulus": "../audio/32-7-masc.mp3",
		"response": " ",
		"word": "a",
		"trial_type": "audio-keyboard-response",
		"trial_index": 89,
		"time_elapsed": 726400,
		"internal_node_id": "0.0-3.0-1.60"
	},
	{
		"rt": 1884,
		"stimulus": "../audio/32-8-masc.mp3",
		"response": " ",
		"word": "cozinha.",
		"trial_type": "audio-keyboard-response",
		"trial_index": 90,
		"time_elapsed": 728575,
		"internal_node_id": "0.0-3.0-1.61"
	},
	{
		"rt": null,
		"stimulus": "<span style= \"font-size:30px; font-family: monospace\">+</span>",
		"response": null,
		"trial_part": "fixation",
		"trial_type": "html-keyboard-response",
		"trial_index": 91,
		"time_elapsed": 729829,
		"internal_node_id": "0.0-3.0-0.62-0.62"
	},
	{
		"rt": 1263,
		"stimulus": "../audio/34-1-fem.mp3",
		"response": " ",
		"word": "Cobrança",
		"trial_type": "audio-keyboard-response",
		"trial_index": 92,
		"time_elapsed": 732259,
		"internal_node_id": "0.0-3.0-1.62"
	},
	{
		"rt": 1451,
		"stimulus": "../audio/34-2-fem.mp3",
		"response": " ",
		"word": "excessiva",
		"trial_type": "audio-keyboard-response",
		"trial_index": 93,
		"time_elapsed": 734022,
		"internal_node_id": "0.0-3.0-1.63"
	},
	{
		"rt": 726,
		"stimulus": "../audio/34-3-fem.mp3",
		"response": " ",
		"word": "é",
		"trial_type": "audio-keyboard-response",
		"trial_index": 94,
		"time_elapsed": 735041,
		"internal_node_id": "0.0-3.0-1.64"
	},
	{
		"rt": 708,
		"stimulus": "../audio/34-4-fem.mp3",
		"response": " ",
		"word": "um",
		"trial_type": "audio-keyboard-response",
		"trial_index": 95,
		"time_elapsed": 736038,
		"internal_node_id": "0.0-3.0-1.65"
	},
	{
		"rt": 961,
		"stimulus": "../audio/34-5-fem.mp3",
		"response": " ",
		"word": "fardo",
		"trial_type": "audio-keyboard-response",
		"trial_index": 96,
		"time_elapsed": 737298,
		"internal_node_id": "0.0-3.0-1.66"
	},
	{
		"rt": 778,
		"stimulus": "../audio/34-6-fem.mp3",
		"response": " ",
		"word": "para",
		"trial_type": "audio-keyboard-response",
		"trial_index": 97,
		"time_elapsed": 738371,
		"internal_node_id": "0.0-3.0-1.67"
	},
	{
		"rt": 760,
		"stimulus": "../audio/34-7-fem.mp3",
		"response": " ",
		"word": "a",
		"trial_type": "audio-keyboard-response",
		"trial_index": 98,
		"time_elapsed": 739421,
		"internal_node_id": "0.0-3.0-1.68"
	},
	{
		"rt": 1181,
		"stimulus": "../audio/34-8-fem.mp3",
		"response": " ",
		"word": "cabeça.",
		"trial_type": "audio-keyboard-response",
		"trial_index": 99,
		"time_elapsed": 740927,
		"internal_node_id": "0.0-3.0-1.69"
	},
	{
		"rt": null,
		"stimulus": "<span style= \"font-size:30px; font-family: monospace\">+</span>",
		"response": null,
		"trial_part": "fixation",
		"trial_type": "html-keyboard-response",
		"trial_index": 100,
		"time_elapsed": 742180,
		"internal_node_id": "0.0-3.0-0.70-0.70"
	},
	{
		"rt": 763,
		"stimulus": "../audio/35-1-fem.mp3",
		"response": " ",
		"word": "A",
		"trial_type": "audio-keyboard-response",
		"trial_index": 101,
		"time_elapsed": 743305,
		"internal_node_id": "0.0-3.0-1.70"
	},
	{
		"rt": 1321,
		"stimulus": "../audio/35-2-fem.mp3",
		"response": " ",
		"word": "receita",
		"trial_type": "audio-keyboard-response",
		"trial_index": 102,
		"time_elapsed": 744952,
		"internal_node_id": "0.0-3.0-1.71"
	},
	{
		"rt": 932,
		"stimulus": "../audio/35-3-fem.mp3",
		"response": " ",
		"word": "para",
		"trial_type": "audio-keyboard-response",
		"trial_index": 103,
		"time_elapsed": 746194,
		"internal_node_id": "0.0-3.0-1.72"
	},
	{
		"rt": 673,
		"stimulus": "../audio/35-4-fem.mp3",
		"response": " ",
		"word": "a",
		"trial_type": "audio-keyboard-response",
		"trial_index": 104,
		"time_elapsed": 747155,
		"internal_node_id": "0.0-3.0-1.73"
	},
	{
		"rt": 1257,
		"stimulus": "../audio/35-5-fem.mp3",
		"response": " ",
		"word": "preparação",
		"trial_type": "audio-keyboard-response",
		"trial_index": 105,
		"time_elapsed": 748736,
		"internal_node_id": "0.0-3.0-1.74"
	},
	{
		"rt": 653,
		"stimulus": "../audio/35-6-fem.mp3",
		"response": " ",
		"word": "do",
		"trial_type": "audio-keyboard-response",
		"trial_index": 106,
		"time_elapsed": 749691,
		"internal_node_id": "0.0-3.0-1.75"
	},
	{
		"rt": 848,
		"stimulus": "../audio/35-7-fem.mp3",
		"response": " ",
		"word": "bolo",
		"trial_type": "audio-keyboard-response",
		"trial_index": 107,
		"time_elapsed": 750843,
		"internal_node_id": "0.0-3.0-1.76"
	},
	{
		"rt": 717,
		"stimulus": "../audio/35-8-fem.mp3",
		"response": " ",
		"word": "é",
		"trial_type": "audio-keyboard-response",
		"trial_index": 108,
		"time_elapsed": 751854,
		"internal_node_id": "0.0-3.0-1.77"
	},
	{
		"rt": 1657,
		"stimulus": "../audio/35-9-fem.mp3",
		"response": " ",
		"word": "leve.",
		"trial_type": "audio-keyboard-response",
		"trial_index": 109,
		"time_elapsed": 753828,
		"internal_node_id": "0.0-3.0-1.78"
	},
	{
		"rt": 1881,
		"stimulus": "<span style=\"font-size:25px; font-family: monospace\">A receita do bolo é pesada?</span>",
		"response": "n",
		"question": "A receita do bolo é pesada?",
		"answer": "null",
		"trial": "exp-sent",
		"trial_type": "html-keyboard-response",
		"trial_index": 110,
		"time_elapsed": 755961,
		"internal_node_id": "0.0-3.0-2.78-0.78",
		"accuracy": false
	},
	{
		"rt": null,
		"stimulus": "<span style= \"font-size:30px; font-family: monospace\">+</span>",
		"response": null,
		"trial_part": "fixation",
		"trial_type": "html-keyboard-response",
		"trial_index": 111,
		"time_elapsed": 757464,
		"internal_node_id": "0.0-3.0-0.79-0.79"
	},
	{
		"rt": 668,
		"stimulus": "../audio/42-1-masc.mp3",
		"response": " ",
		"word": "Eu",
		"trial_type": "audio-keyboard-response",
		"trial_index": 112,
		"time_elapsed": 758501,
		"internal_node_id": "0.0-3.0-1.79"
	},
	{
		"rt": 656,
		"stimulus": "../audio/42-2-masc.mp3",
		"response": " ",
		"word": "fui",
		"trial_type": "audio-keyboard-response",
		"trial_index": 113,
		"time_elapsed": 759472,
		"internal_node_id": "0.0-3.0-1.80"
	},
	{
		"rt": 752,
		"stimulus": "../audio/42-3-masc.mp3",
		"response": " ",
		"word": "a",
		"trial_type": "audio-keyboard-response",
		"trial_index": 114,
		"time_elapsed": 760517,
		"internal_node_id": "0.0-3.0-1.81"
	},
	{
		"rt": 734,
		"stimulus": "../audio/42-4-masc.mp3",
		"response": " ",
		"word": "uma",
		"trial_type": "audio-keyboard-response",
		"trial_index": 115,
		"time_elapsed": 761609,
		"internal_node_id": "0.0-3.0-1.82"
	},
	{
		"rt": 848,
		"stimulus": "../audio/42-5-masc.mp3",
		"response": " ",
		"word": "loja",
		"trial_type": "audio-keyboard-response",
		"trial_index": 116,
		"time_elapsed": 762757,
		"internal_node_id": "0.0-3.0-1.83"
	},
	{
		"rt": 633,
		"stimulus": "../audio/42-6-masc.mp3",
		"response": " ",
		"word": "de",
		"trial_type": "audio-keyboard-response",
		"trial_index": 117,
		"time_elapsed": 763687,
		"internal_node_id": "0.0-3.0-1.84"
	},
	{
		"rt": 1129,
		"stimulus": "../audio/42-7-masc.mp3",
		"response": " ",
		"word": "móveis",
		"trial_type": "audio-keyboard-response",
		"trial_index": 118,
		"time_elapsed": 765130,
		"internal_node_id": "0.0-3.0-1.85"
	},
	{
		"rt": 740,
		"stimulus": "../audio/42-8-masc.mp3",
		"response": " ",
		"word": "no",
		"trial_type": "audio-keyboard-response",
		"trial_index": 119,
		"time_elapsed": 766162,
		"internal_node_id": "0.0-3.0-1.86"
	},
	{
		"rt": 2456,
		"stimulus": "../audio/42-9-masc.mp3",
		"response": " ",
		"word": "bairro.",
		"trial_type": "audio-keyboard-response",
		"trial_index": 120,
		"time_elapsed": 768921,
		"internal_node_id": "0.0-3.0-1.87"
	},
	{
		"rt": null,
		"stimulus": "<span style= \"font-size:30px; font-family: monospace\">+</span>",
		"response": null,
		"trial_part": "fixation",
		"trial_type": "html-keyboard-response",
		"trial_index": 121,
		"time_elapsed": 770175,
		"internal_node_id": "0.0-3.0-0.88-0.88"
	},
	{
		"rt": 964,
		"stimulus": "../audio/44-1-fem.mp3",
		"response": " ",
		"word": "Meus",
		"trial_type": "audio-keyboard-response",
		"trial_index": 122,
		"time_elapsed": 771510,
		"internal_node_id": "0.0-3.0-1.88"
	},
	{
		"rt": 1045,
		"stimulus": "../audio/44-2-fem.mp3",
		"response": " ",
		"word": "irmãos",
		"trial_type": "audio-keyboard-response",
		"trial_index": 123,
		"time_elapsed": 772865,
		"internal_node_id": "0.0-3.0-1.89"
	},
	{
		"rt": 897,
		"stimulus": "../audio/44-3-fem.mp3",
		"response": " ",
		"word": "brigam",
		"trial_type": "audio-keyboard-response",
		"trial_index": 124,
		"time_elapsed": 774059,
		"internal_node_id": "0.0-3.0-1.90"
	},
	{
		"rt": 737,
		"stimulus": "../audio/44-4-fem.mp3",
		"response": " ",
		"word": "por",
		"trial_type": "audio-keyboard-response",
		"trial_index": 125,
		"time_elapsed": 775098,
		"internal_node_id": "0.0-3.0-1.91"
	},
	{
		"rt": 1152,
		"stimulus": "../audio/44-5-fem.mp3",
		"response": " ",
		"word": "bobagem",
		"trial_type": "audio-keyboard-response",
		"trial_index": 126,
		"time_elapsed": 776569,
		"internal_node_id": "0.0-3.0-1.92"
	},
	{
		"rt": 961,
		"stimulus": "../audio/44-6-fem.mp3",
		"response": " ",
		"word": "todos",
		"trial_type": "audio-keyboard-response",
		"trial_index": 127,
		"time_elapsed": 777828,
		"internal_node_id": "0.0-3.0-1.93"
	},
	{
		"rt": 760,
		"stimulus": "../audio/44-7-fem.mp3",
		"response": " ",
		"word": "os",
		"trial_type": "audio-keyboard-response",
		"trial_index": 128,
		"time_elapsed": 778892,
		"internal_node_id": "0.0-3.0-1.94"
	},
	{
		"rt": 1045,
		"stimulus": "../audio/44-8-fem.mp3",
		"response": " ",
		"word": "dias.",
		"trial_type": "audio-keyboard-response",
		"trial_index": 129,
		"time_elapsed": 780242,
		"internal_node_id": "0.0-3.0-1.95"
	},
	{
		"rt": null,
		"stimulus": "<span style= \"font-size:30px; font-family: monospace\">+</span>",
		"response": null,
		"trial_part": "fixation",
		"trial_type": "html-keyboard-response",
		"trial_index": 130,
		"time_elapsed": 781496,
		"internal_node_id": "0.0-3.0-0.96-0.96"
	},
	{
		"rt": 758,
		"stimulus": "../audio/41-1-masc.mp3",
		"response": " ",
		"word": "A",
		"trial_type": "audio-keyboard-response",
		"trial_index": 131,
		"time_elapsed": 782622,
		"internal_node_id": "0.0-3.0-1.96"
	},
	{
		"rt": 836,
		"stimulus": "../audio/41-2-masc.mp3",
		"response": " ",
		"word": "novela",
		"trial_type": "audio-keyboard-response",
		"trial_index": 132,
		"time_elapsed": 783787,
		"internal_node_id": "0.0-3.0-1.97"
	},
	{
		"rt": 940,
		"stimulus": "../audio/41-3-masc.mp3",
		"response": " ",
		"word": "falava",
		"trial_type": "audio-keyboard-response",
		"trial_index": 133,
		"time_elapsed": 785028,
		"internal_node_id": "0.0-3.0-1.98"
	},
	{
		"rt": 752,
		"stimulus": "../audio/41-4-masc.mp3",
		"response": " ",
		"word": "de",
		"trial_type": "audio-keyboard-response",
		"trial_index": 134,
		"time_elapsed": 786091,
		"internal_node_id": "0.0-3.0-1.99"
	},
	{
		"rt": 958,
		"stimulus": "../audio/41-5-masc.mp3",
		"response": " ",
		"word": "paixão",
		"trial_type": "audio-keyboard-response",
		"trial_index": 135,
		"time_elapsed": 787399,
		"internal_node_id": "0.0-3.0-1.100"
	},
	{
		"rt": 752,
		"stimulus": "../audio/41-6-masc.mp3",
		"response": " ",
		"word": "e",
		"trial_type": "audio-keyboard-response",
		"trial_index": 136,
		"time_elapsed": 788444,
		"internal_node_id": "0.0-3.0-1.101"
	},
	{
		"rt": 996,
		"stimulus": "../audio/41-7-masc.mp3",
		"response": " ",
		"word": "comédia.",
		"trial_type": "audio-keyboard-response",
		"trial_index": 137,
		"time_elapsed": 789739,
		"internal_node_id": "0.0-3.0-1.102"
	},
	{
		"rt": null,
		"stimulus": "<span style= \"font-size:30px; font-family: monospace\">+</span>",
		"response": null,
		"trial_part": "fixation",
		"trial_type": "html-keyboard-response",
		"trial_index": 138,
		"time_elapsed": 790993,
		"internal_node_id": "0.0-3.0-0.103-0.103"
	},
	{
		"rt": 653,
		"stimulus": "../audio/43-1-fem.mp3",
		"response": " ",
		"word": "Eu",
		"trial_type": "audio-keyboard-response",
		"trial_index": 139,
		"time_elapsed": 792026,
		"internal_node_id": "0.0-3.0-1.103"
	},
	{
		"rt": 879,
		"stimulus": "../audio/43-2-fem.mp3",
		"response": " ",
		"word": "achei",
		"trial_type": "audio-keyboard-response",
		"trial_index": 140,
		"time_elapsed": 793224,
		"internal_node_id": "0.0-3.0-1.104"
	},
	{
		"rt": 679,
		"stimulus": "../audio/43-3-fem.mp3",
		"response": " ",
		"word": "um",
		"trial_type": "audio-keyboard-response",
		"trial_index": 141,
		"time_elapsed": 794193,
		"internal_node_id": "0.0-3.0-1.105"
	},
	{
		"rt": 1004,
		"stimulus": "../audio/43-4-fem.mp3",
		"response": " ",
		"word": "colchão",
		"trial_type": "audio-keyboard-response",
		"trial_index": 142,
		"time_elapsed": 795504,
		"internal_node_id": "0.0-3.0-1.106"
	},
	{
		"rt": 932,
		"stimulus": "../audio/43-5-fem.mp3",
		"response": " ",
		"word": "velho",
		"trial_type": "audio-keyboard-response",
		"trial_index": 143,
		"time_elapsed": 796760,
		"internal_node_id": "0.0-3.0-1.107"
	},
	{
		"rt": 665,
		"stimulus": "../audio/43-6-fem.mp3",
		"response": " ",
		"word": "e",
		"trial_type": "audio-keyboard-response",
		"trial_index": 144,
		"time_elapsed": 797706,
		"internal_node_id": "0.0-3.0-1.108"
	},
	{
		"rt": 1178,
		"stimulus": "../audio/43-7-fem.mp3",
		"response": " ",
		"word": "imundo",
		"trial_type": "audio-keyboard-response",
		"trial_index": 145,
		"time_elapsed": 799212,
		"internal_node_id": "0.0-3.0-1.109"
	},
	{
		"rt": 734,
		"stimulus": "../audio/43-8-fem.mp3",
		"response": " ",
		"word": "na",
		"trial_type": "audio-keyboard-response",
		"trial_index": 146,
		"time_elapsed": 800250,
		"internal_node_id": "0.0-3.0-1.110"
	},
	{
		"rt": 1503,
		"stimulus": "../audio/43-9-fem.mp3",
		"response": " ",
		"word": "casa.",
		"trial_type": "audio-keyboard-response",
		"trial_index": 147,
		"time_elapsed": 802039,
		"internal_node_id": "0.0-3.0-1.111"
	},
	{
		"rt": null,
		"stimulus": "<span style= \"font-size:30px; font-family: monospace\">+</span>",
		"response": null,
		"trial_part": "fixation",
		"trial_type": "html-keyboard-response",
		"trial_index": 148,
		"time_elapsed": 803292,
		"internal_node_id": "0.0-3.0-0.112-0.112"
	},
	{
		"rt": 807,
		"stimulus": "../audio/45-1-fem.mp3",
		"response": " ",
		"word": "O",
		"trial_type": "audio-keyboard-response",
		"trial_index": 149,
		"time_elapsed": 804475,
		"internal_node_id": "0.0-3.0-1.112"
	},
	{
		"rt": 990,
		"stimulus": "../audio/45-2-fem.mp3",
		"response": " ",
		"word": "homem",
		"trial_type": "audio-keyboard-response",
		"trial_index": 150,
		"time_elapsed": 805763,
		"internal_node_id": "0.0-3.0-1.113"
	},
	{
		"rt": 865,
		"stimulus": "../audio/45-3-fem.mp3",
		"response": " ",
		"word": "pagou",
		"trial_type": "audio-keyboard-response",
		"trial_index": 151,
		"time_elapsed": 806932,
		"internal_node_id": "0.0-3.0-1.114"
	},
	{
		"rt": 749,
		"stimulus": "../audio/45-4-fem.mp3",
		"response": " ",
		"word": "o",
		"trial_type": "audio-keyboard-response",
		"trial_index": 152,
		"time_elapsed": 807976,
		"internal_node_id": "0.0-3.0-1.115"
	},
	{
		"rt": 1184,
		"stimulus": "../audio/45-5-fem.mp3",
		"response": " ",
		"word": "aluguel",
		"trial_type": "audio-keyboard-response",
		"trial_index": 153,
		"time_elapsed": 809464,
		"internal_node_id": "0.0-3.0-1.116"
	},
	{
		"rt": 630,
		"stimulus": "../audio/45-6-fem.mp3",
		"response": " ",
		"word": "com",
		"trial_type": "audio-keyboard-response",
		"trial_index": 154,
		"time_elapsed": 810409,
		"internal_node_id": "0.0-3.0-1.117"
	},
	{
		"rt": 1338,
		"stimulus": "../audio/45-7-fem.mp3",
		"response": " ",
		"word": "atraso.",
		"trial_type": "audio-keyboard-response",
		"trial_index": 155,
		"time_elapsed": 812096,
		"internal_node_id": "0.0-3.0-1.118"
	},
	{
		"rt": 2608,
		"stimulus": "<span style=\"font-size:25px; font-family: monospace\">O homem pagou o aluguel em dia?</span>",
		"response": "n",
		"question": "O homem pagou o aluguel em dia?",
		"answer": "null",
		"trial": "exp-sent",
		"trial_type": "html-keyboard-response",
		"trial_index": 156,
		"time_elapsed": 814958,
		"internal_node_id": "0.0-3.0-2.118-0.118",
		"accuracy": false
	},
	{
		"rt": null,
		"stimulus": "<span style= \"font-size:30px; font-family: monospace\">+</span>",
		"response": null,
		"trial_part": "fixation",
		"trial_type": "html-keyboard-response",
		"trial_index": 157,
		"time_elapsed": 816462,
		"internal_node_id": "0.0-3.0-0.119-0.119"
	},
	{
		"rt": 2383,
		"stimulus": "../audio/17-1-fem.mp3",
		"response": " ",
		"word": "Falaram",
		"trial_type": "audio-keyboard-response",
		"trial_index": 158,
		"time_elapsed": 819252,
		"internal_node_id": "0.0-3.0-1.119"
	},
	{
		"rt": 673,
		"stimulus": "../audio/17-2-fem.mp3",
		"response": " ",
		"word": "da",
		"trial_type": "audio-keyboard-response",
		"trial_index": 159,
		"time_elapsed": 820297,
		"internal_node_id": "0.0-3.0-1.120"
	},
	{
		"rt": 894,
		"stimulus": "../audio/17-3-fem.mp3",
		"response": " ",
		"word": "lei",
		"trial_type": "audio-keyboard-response",
		"trial_index": 160,
		"time_elapsed": 821493,
		"internal_node_id": "0.0-3.0-1.121"
	},
	{
		"rt": 885,
		"stimulus": "../audio/17-4-fem.mp3",
		"response": " ",
		"word": "no",
		"trial_type": "audio-keyboard-response",
		"trial_index": 161,
		"time_elapsed": 822676,
		"internal_node_id": "0.0-3.0-1.122"
	},
	{
		"rt": 1405,
		"stimulus": "../audio/17-5-fem.mp3",
		"response": " ",
		"word": "ministério",
		"trial_type": "audio-keyboard-response",
		"trial_index": 162,
		"time_elapsed": 824426,
		"internal_node_id": "0.0-3.0-1.123"
	},
	{
		"rt": 1347,
		"stimulus": "../audio/17-6-fem.mp3",
		"response": " ",
		"word": "diversas",
		"trial_type": "audio-keyboard-response",
		"trial_index": 163,
		"time_elapsed": 826096,
		"internal_node_id": "0.0-3.0-1.124"
	},
	{
		"rt": 1245,
		"stimulus": "../audio/17-7-fem.mp3",
		"response": " ",
		"word": "vezes.",
		"trial_type": "audio-keyboard-response",
		"trial_index": 164,
		"time_elapsed": 827670,
		"internal_node_id": "0.0-3.0-1.125"
	},
	{
		"rt": null,
		"stimulus": "<span style= \"font-size:30px; font-family: monospace\">+</span>",
		"response": null,
		"trial_part": "fixation",
		"trial_type": "html-keyboard-response",
		"trial_index": 165,
		"time_elapsed": 828924,
		"internal_node_id": "0.0-3.0-0.126-0.126"
	},
	{
		"rt": 958,
		"stimulus": "../audio/16-1-fem.mp3",
		"response": " ",
		"word": "Eu",
		"trial_type": "audio-keyboard-response",
		"trial_index": 166,
		"time_elapsed": 830255,
		"internal_node_id": "0.0-3.0-1.126"
	},
	{
		"rt": 1236,
		"stimulus": "../audio/16-2-fem.mp3",
		"response": " ",
		"word": "nunca",
		"trial_type": "audio-keyboard-response",
		"trial_index": 167,
		"time_elapsed": 831794,
		"internal_node_id": "0.0-3.0-1.127"
	},
	{
		"rt": 1245,
		"stimulus": "../audio/16-3-fem.mp3",
		"response": " ",
		"word": "conheci",
		"trial_type": "audio-keyboard-response",
		"trial_index": 168,
		"time_elapsed": 833360,
		"internal_node_id": "0.0-3.0-1.128"
	},
	{
		"rt": 618,
		"stimulus": "../audio/16-4-fem.mp3",
		"response": " ",
		"word": "um",
		"trial_type": "audio-keyboard-response",
		"trial_index": 169,
		"time_elapsed": 834277,
		"internal_node_id": "0.0-3.0-1.129"
	},
	{
		"rt": 1292,
		"stimulus": "../audio/16-5-fem.mp3",
		"response": " ",
		"word": "general",
		"trial_type": "audio-keyboard-response",
		"trial_index": 170,
		"time_elapsed": 835911,
		"internal_node_id": "0.0-3.0-1.130"
	},
	{
		"rt": 1254,
		"stimulus": "../audio/16-6-fem.mp3",
		"response": " ",
		"word": "do",
		"trial_type": "audio-keyboard-response",
		"trial_index": 171,
		"time_elapsed": 837462,
		"internal_node_id": "0.0-3.0-1.131"
	},
	{
		"rt": 26297,
		"stimulus": "../audio/16-7-fem.mp3",
		"response": " ",
		"word": "exército.",
		"trial_type": "audio-keyboard-response",
		"trial_index": 172,
		"time_elapsed": 864089,
		"internal_node_id": "0.0-3.0-1.132"
	},
	{
		"rt": null,
		"stimulus": "<span style= \"font-size:30px; font-family: monospace\">+</span>",
		"response": null,
		"trial_part": "fixation",
		"trial_type": "html-keyboard-response",
		"trial_index": 173,
		"time_elapsed": 865343,
		"internal_node_id": "0.0-3.0-0.133-0.133"
	},
	{
		"rt": 1286,
		"stimulus": "../audio/18-1-masc.mp3",
		"response": " ",
		"word": "O",
		"trial_type": "audio-keyboard-response",
		"trial_index": 174,
		"time_elapsed": 867748,
		"internal_node_id": "0.0-3.0-1.133"
	},
	{
		"rt": 978,
		"stimulus": "../audio/18-2-masc.mp3",
		"response": " ",
		"word": "enredo",
		"trial_type": "audio-keyboard-response",
		"trial_index": 175,
		"time_elapsed": 869057,
		"internal_node_id": "0.0-3.0-1.134"
	},
	{
		"rt": 726,
		"stimulus": "../audio/18-3-masc.mp3",
		"response": " ",
		"word": "traz",
		"trial_type": "audio-keyboard-response",
		"trial_index": 176,
		"time_elapsed": 870110,
		"internal_node_id": "0.0-3.0-1.135"
	},
	{
		"rt": 107,
		"stimulus": "../audio/18-4-masc.mp3",
		"response": " ",
		"word": "um",
		"trial_type": "audio-keyboard-response",
		"trial_index": 177,
		"time_elapsed": 870521,
		"internal_node_id": "0.0-3.0-1.136"
	},
	{
		"rt": 1338,
		"stimulus": "../audio/18-5-masc.mp3",
		"response": " ",
		"word": "dragão",
		"trial_type": "audio-keyboard-response",
		"trial_index": 178,
		"time_elapsed": 872186,
		"internal_node_id": "0.0-3.0-1.137"
	},
	{
		"rt": 816,
		"stimulus": "../audio/18-6-masc.mp3",
		"response": " ",
		"word": "forte",
		"trial_type": "audio-keyboard-response",
		"trial_index": 179,
		"time_elapsed": 873305,
		"internal_node_id": "0.0-3.0-1.138"
	},
	{
		"rt": 729,
		"stimulus": "../audio/18-7-masc.mp3",
		"response": " ",
		"word": "e",
		"trial_type": "audio-keyboard-response",
		"trial_index": 180,
		"time_elapsed": 874322,
		"internal_node_id": "0.0-3.0-1.139"
	},
	{
		"rt": 1178,
		"stimulus": "../audio/18-8-masc.mp3",
		"response": " ",
		"word": "solitário.",
		"trial_type": "audio-keyboard-response",
		"trial_index": 181,
		"time_elapsed": 875815,
		"internal_node_id": "0.0-3.0-1.140"
	},
	{
		"rt": null,
		"stimulus": "<span style= \"font-size:30px; font-family: monospace\">+</span>",
		"response": null,
		"trial_part": "fixation",
		"trial_type": "html-keyboard-response",
		"trial_index": 182,
		"time_elapsed": 877069,
		"internal_node_id": "0.0-3.0-0.141-0.141"
	},
	{
		"rt": 668,
		"stimulus": "../audio/19-1-fem.mp3",
		"response": " ",
		"word": "O",
		"trial_type": "audio-keyboard-response",
		"trial_index": 183,
		"time_elapsed": 878105,
		"internal_node_id": "0.0-3.0-1.141"
	},
	{
		"rt": 1022,
		"stimulus": "../audio/19-2-fem.mp3",
		"response": " ",
		"word": "menino",
		"trial_type": "audio-keyboard-response",
		"trial_index": 184,
		"time_elapsed": 879446,
		"internal_node_id": "0.0-3.0-1.142"
	},
	{
		"rt": 1112,
		"stimulus": "../audio/19-3-fem.mp3",
		"response": " ",
		"word": "ganhou",
		"trial_type": "audio-keyboard-response",
		"trial_index": 185,
		"time_elapsed": 880885,
		"internal_node_id": "0.0-3.0-1.143"
	},
	{
		"rt": 888,
		"stimulus": "../audio/19-4-fem.mp3",
		"response": " ",
		"word": "uma",
		"trial_type": "audio-keyboard-response",
		"trial_index": 186,
		"time_elapsed": 882079,
		"internal_node_id": "0.0-3.0-1.144"
	},
	{
		"rt": 1080,
		"stimulus": "../audio/19-5-fem.mp3",
		"response": " ",
		"word": "bala",
		"trial_type": "audio-keyboard-response",
		"trial_index": 187,
		"time_elapsed": 883458,
		"internal_node_id": "0.0-3.0-1.145"
	},
	{
		"rt": 1338,
		"stimulus": "../audio/19-6-fem.mp3",
		"response": " ",
		"word": "depois",
		"trial_type": "audio-keyboard-response",
		"trial_index": 188,
		"time_elapsed": 885109,
		"internal_node_id": "0.0-3.0-1.146"
	},
	{
		"rt": 926,
		"stimulus": "../audio/19-7-fem.mp3",
		"response": " ",
		"word": "do",
		"trial_type": "audio-keyboard-response",
		"trial_index": 189,
		"time_elapsed": 886344,
		"internal_node_id": "0.0-3.0-1.147"
	},
	{
		"rt": 1350,
		"stimulus": "../audio/19-8-fem.mp3",
		"response": " ",
		"word": "almoço.",
		"trial_type": "audio-keyboard-response",
		"trial_index": 190,
		"time_elapsed": 888021,
		"internal_node_id": "0.0-3.0-1.148"
	},
	{
		"rt": null,
		"stimulus": "<span style= \"font-size:30px; font-family: monospace\">+</span>",
		"response": null,
		"trial_part": "fixation",
		"trial_type": "html-keyboard-response",
		"trial_index": 191,
		"time_elapsed": 889274,
		"internal_node_id": "0.0-3.0-0.149-0.149"
	},
	{
		"rt": 760,
		"stimulus": "../audio/20-1-masc.mp3",
		"response": " ",
		"word": "O",
		"trial_type": "audio-keyboard-response",
		"trial_index": 192,
		"time_elapsed": 890429,
		"internal_node_id": "0.0-3.0-1.149"
	},
	{
		"rt": 1158,
		"stimulus": "../audio/20-2-masc.mp3",
		"response": " ",
		"word": "colega",
		"trial_type": "audio-keyboard-response",
		"trial_index": 193,
		"time_elapsed": 891897,
		"internal_node_id": "0.0-3.0-1.150"
	},
	{
		"rt": 1207,
		"stimulus": "../audio/20-3-masc.mp3",
		"response": " ",
		"word": "parecia",
		"trial_type": "audio-keyboard-response",
		"trial_index": 194,
		"time_elapsed": 893407,
		"internal_node_id": "0.0-3.0-1.151"
	},
	{
		"rt": 1036,
		"stimulus": "../audio/20-4-masc.mp3",
		"response": " ",
		"word": "muito",
		"trial_type": "audio-keyboard-response",
		"trial_index": 195,
		"time_elapsed": 894761,
		"internal_node_id": "0.0-3.0-1.152"
	},
	{
		"rt": 1103,
		"stimulus": "../audio/20-5-masc.mp3",
		"response": " ",
		"word": "gripado",
		"trial_type": "audio-keyboard-response",
		"trial_index": 196,
		"time_elapsed": 896184,
		"internal_node_id": "0.0-3.0-1.153"
	},
	{
		"rt": 682,
		"stimulus": "../audio/20-6-masc.mp3",
		"response": " ",
		"word": "no",
		"trial_type": "audio-keyboard-response",
		"trial_index": 197,
		"time_elapsed": 897178,
		"internal_node_id": "0.0-3.0-1.154"
	},
	{
		"rt": 758,
		"stimulus": "../audio/20-7-masc.mp3",
		"response": " ",
		"word": "dia",
		"trial_type": "audio-keyboard-response",
		"trial_index": 198,
		"time_elapsed": 898227,
		"internal_node_id": "0.0-3.0-1.155"
	},
	{
		"rt": 1297,
		"stimulus": "../audio/20-8-masc.mp3",
		"response": " ",
		"word": "anterior.",
		"trial_type": "audio-keyboard-response",
		"trial_index": 199,
		"time_elapsed": 899831,
		"internal_node_id": "0.0-3.0-1.156"
	},
	{
		"rt": 2824,
		"stimulus": "<span style=\"font-size:25px; font-family: monospace\">O colega parecia muito gripado?</span>",
		"response": "s",
		"question": "O colega parecia muito gripado?",
		"answer": "null",
		"trial": "exp-sent",
		"trial_type": "html-keyboard-response",
		"trial_index": 200,
		"time_elapsed": 902908,
		"internal_node_id": "0.0-3.0-2.156-0.156",
		"accuracy": false
	},
	{
		"rt": null,
		"stimulus": "<span style= \"font-size:30px; font-family: monospace\">+</span>",
		"response": null,
		"trial_part": "fixation",
		"trial_type": "html-keyboard-response",
		"trial_index": 201,
		"time_elapsed": 904411,
		"internal_node_id": "0.0-3.0-0.157-0.157"
	},
	{
		"rt": 36325,
		"stimulus": "../audio/36-1-masc.mp3",
		"response": " ",
		"word": "Meu",
		"trial_type": "audio-keyboard-response",
		"trial_index": 202,
		"time_elapsed": 941094,
		"internal_node_id": "0.0-3.0-1.157"
	},
	{
		"rt": 1057,
		"stimulus": "../audio/36-2-masc.mp3",
		"response": " ",
		"word": "tio",
		"trial_type": "audio-keyboard-response",
		"trial_index": 203,
		"time_elapsed": 942555,
		"internal_node_id": "0.0-3.0-1.158"
	},
	{
		"rt": 946,
		"stimulus": "../audio/36-3-masc.mp3",
		"response": " ",
		"word": "comprou",
		"trial_type": "audio-keyboard-response",
		"trial_index": 204,
		"time_elapsed": 943802,
		"internal_node_id": "0.0-3.0-1.159"
	},
	{
		"rt": 1080,
		"stimulus": "../audio/36-4-masc.mp3",
		"response": " ",
		"word": "um",
		"trial_type": "audio-keyboard-response",
		"trial_index": 205,
		"time_elapsed": 945183,
		"internal_node_id": "0.0-3.0-1.160"
	},
	{
		"rt": 682,
		"stimulus": "../audio/36-5-masc.mp3",
		"response": " ",
		"word": "filtro",
		"trial_type": "audio-keyboard-response",
		"trial_index": 206,
		"time_elapsed": 946175,
		"internal_node_id": "0.0-3.0-1.161"
	},
	{
		"rt": 789,
		"stimulus": "../audio/36-6-masc.mp3",
		"response": " ",
		"word": "de",
		"trial_type": "audio-keyboard-response",
		"trial_index": 207,
		"time_elapsed": 947260,
		"internal_node_id": "0.0-3.0-1.162"
	},
	{
		"rt": 1016,
		"stimulus": "../audio/36-7-masc.mp3",
		"response": " ",
		"word": "água",
		"trial_type": "audio-keyboard-response",
		"trial_index": 208,
		"time_elapsed": 948586,
		"internal_node_id": "0.0-3.0-1.163"
	},
	{
		"rt": 1068,
		"stimulus": "../audio/36-8-masc.mp3",
		"response": " ",
		"word": "hoje",
		"trial_type": "audio-keyboard-response",
		"trial_index": 209,
		"time_elapsed": 949946,
		"internal_node_id": "0.0-3.0-1.164"
	},
	{
		"rt": 1779,
		"stimulus": "../audio/36-9-masc.mp3",
		"response": " ",
		"word": "cedo.",
		"trial_type": "audio-keyboard-response",
		"trial_index": 210,
		"time_elapsed": 952037,
		"internal_node_id": "0.0-3.0-1.165"
	},
	{
		"rt": null,
		"stimulus": "<span style= \"font-size:30px; font-family: monospace\">+</span>",
		"response": null,
		"trial_part": "fixation",
		"trial_type": "html-keyboard-response",
		"trial_index": 211,
		"time_elapsed": 953290,
		"internal_node_id": "0.0-3.0-0.166-0.166"
	},
	{
		"rt": 589,
		"stimulus": "../audio/39-1-masc.mp3",
		"response": " ",
		"word": "O",
		"trial_type": "audio-keyboard-response",
		"trial_index": 212,
		"time_elapsed": 954299,
		"internal_node_id": "0.0-3.0-1.166"
	},
	{
		"rt": 978,
		"stimulus": "../audio/39-2-masc.mp3",
		"response": " ",
		"word": "conselho",
		"trial_type": "audio-keyboard-response",
		"trial_index": 213,
		"time_elapsed": 955585,
		"internal_node_id": "0.0-3.0-1.167"
	},
	{
		"rt": 636,
		"stimulus": "../audio/39-3-masc.mp3",
		"response": " ",
		"word": "foi",
		"trial_type": "audio-keyboard-response",
		"trial_index": 214,
		"time_elapsed": 956533,
		"internal_node_id": "0.0-3.0-1.168"
	},
	{
		"rt": 978,
		"stimulus": "../audio/39-4-masc.mp3",
		"response": " ",
		"word": "muito",
		"trial_type": "audio-keyboard-response",
		"trial_index": 215,
		"time_elapsed": 957826,
		"internal_node_id": "0.0-3.0-1.169"
	},
	{
		"rt": 900,
		"stimulus": "../audio/39-5-masc.mp3",
		"response": " ",
		"word": "útil",
		"trial_type": "audio-keyboard-response",
		"trial_index": 216,
		"time_elapsed": 959019,
		"internal_node_id": "0.0-3.0-1.170"
	},
	{
		"rt": 845,
		"stimulus": "../audio/39-6-masc.mp3",
		"response": " ",
		"word": "para",
		"trial_type": "audio-keyboard-response",
		"trial_index": 217,
		"time_elapsed": 960162,
		"internal_node_id": "0.0-3.0-1.171"
	},
	{
		"rt": 891,
		"stimulus": "../audio/39-7-masc.mp3",
		"response": " ",
		"word": "minha",
		"trial_type": "audio-keyboard-response",
		"trial_index": 218,
		"time_elapsed": 961347,
		"internal_node_id": "0.0-3.0-1.172"
	},
	{
		"rt": 1353,
		"stimulus": "../audio/39-8-masc.mp3",
		"response": " ",
		"word": "tia.",
		"trial_type": "audio-keyboard-response",
		"trial_index": 219,
		"time_elapsed": 962990,
		"internal_node_id": "0.0-3.0-1.173"
	},
	{
		"rt": null,
		"stimulus": "<span style= \"font-size:30px; font-family: monospace\">+</span>",
		"response": null,
		"trial_part": "fixation",
		"trial_type": "html-keyboard-response",
		"trial_index": 220,
		"time_elapsed": 964244,
		"internal_node_id": "0.0-3.0-0.174-0.174"
	},
	{
		"rt": 592,
		"stimulus": "../audio/38-1-fem.mp3",
		"response": " ",
		"word": "A",
		"trial_type": "audio-keyboard-response",
		"trial_index": 221,
		"time_elapsed": 965214,
		"internal_node_id": "0.0-3.0-1.174"
	},
	{
		"rt": 1030,
		"stimulus": "../audio/38-2-fem.mp3",
		"response": " ",
		"word": "empresa",
		"trial_type": "audio-keyboard-response",
		"trial_index": 222,
		"time_elapsed": 966578,
		"internal_node_id": "0.0-3.0-1.175"
	},
	{
		"rt": 879,
		"stimulus": "../audio/38-3-fem.mp3",
		"response": " ",
		"word": "criou",
		"trial_type": "audio-keyboard-response",
		"trial_index": 223,
		"time_elapsed": 967777,
		"internal_node_id": "0.0-3.0-1.176"
	},
	{
		"rt": 604,
		"stimulus": "../audio/38-4-fem.mp3",
		"response": " ",
		"word": "a",
		"trial_type": "audio-keyboard-response",
		"trial_index": 224,
		"time_elapsed": 968671,
		"internal_node_id": "0.0-3.0-1.177"
	},
	{
		"rt": 1086,
		"stimulus": "../audio/38-5-fem.mp3",
		"response": " ",
		"word": "patente",
		"trial_type": "audio-keyboard-response",
		"trial_index": 225,
		"time_elapsed": 970071,
		"internal_node_id": "0.0-3.0-1.178"
	},
	{
		"rt": 821,
		"stimulus": "../audio/38-6-fem.mp3",
		"response": " ",
		"word": "da",
		"trial_type": "audio-keyboard-response",
		"trial_index": 226,
		"time_elapsed": 971187,
		"internal_node_id": "0.0-3.0-1.179"
	},
	{
		"rt": 1280,
		"stimulus": "../audio/38-7-fem.mp3",
		"response": " ",
		"word": "frigideira.",
		"trial_type": "audio-keyboard-response",
		"trial_index": 227,
		"time_elapsed": 972782,
		"internal_node_id": "0.0-3.0-1.180"
	},
	{
		"rt": null,
		"stimulus": "<span style= \"font-size:30px; font-family: monospace\">+</span>",
		"response": null,
		"trial_part": "fixation",
		"trial_type": "html-keyboard-response",
		"trial_index": 228,
		"time_elapsed": 974035,
		"internal_node_id": "0.0-3.0-0.181-0.181"
	},
	{
		"rt": 1016,
		"stimulus": "../audio/37-1-fem.mp3",
		"response": " ",
		"word": "Eu",
		"trial_type": "audio-keyboard-response",
		"trial_index": 229,
		"time_elapsed": 975421,
		"internal_node_id": "0.0-3.0-1.181"
	},
	{
		"rt": 1144,
		"stimulus": "../audio/37-2-fem.mp3",
		"response": " ",
		"word": "adoro",
		"trial_type": "audio-keyboard-response",
		"trial_index": 230,
		"time_elapsed": 976895,
		"internal_node_id": "0.0-3.0-1.182"
	},
	{
		"rt": 1466,
		"stimulus": "../audio/37-3-fem.mp3",
		"response": " ",
		"word": "suco",
		"trial_type": "audio-keyboard-response",
		"trial_index": 231,
		"time_elapsed": 978690,
		"internal_node_id": "0.0-3.0-1.183"
	},
	{
		"rt": 769,
		"stimulus": "../audio/37-4-fem.mp3",
		"response": " ",
		"word": "de",
		"trial_type": "audio-keyboard-response",
		"trial_index": 232,
		"time_elapsed": 979760,
		"internal_node_id": "0.0-3.0-1.184"
	},
	{
		"rt": 1225,
		"stimulus": "../audio/37-5-fem.mp3",
		"response": " ",
		"word": "manga",
		"trial_type": "audio-keyboard-response",
		"trial_index": 233,
		"time_elapsed": 981279,
		"internal_node_id": "0.0-3.0-1.185"
	},
	{
		"rt": 1382,
		"stimulus": "../audio/37-6-fem.mp3",
		"response": " ",
		"word": "com",
		"trial_type": "audio-keyboard-response",
		"trial_index": 234,
		"time_elapsed": 982957,
		"internal_node_id": "0.0-3.0-1.186"
	},
	{
		"rt": 1457,
		"stimulus": "../audio/37-7-fem.mp3",
		"response": " ",
		"word": "hortelã.",
		"trial_type": "audio-keyboard-response",
		"trial_index": 235,
		"time_elapsed": 984732,
		"internal_node_id": "0.0-3.0-1.187"
	},
	{
		"rt": null,
		"stimulus": "<span style= \"font-size:30px; font-family: monospace\">+</span>",
		"response": null,
		"trial_part": "fixation",
		"trial_type": "html-keyboard-response",
		"trial_index": 236,
		"time_elapsed": 985985,
		"internal_node_id": "0.0-3.0-0.188-0.188"
	},
	{
		"rt": 621,
		"stimulus": "../audio/40-1-masc.mp3",
		"response": " ",
		"word": "O",
		"trial_type": "audio-keyboard-response",
		"trial_index": 237,
		"time_elapsed": 986993,
		"internal_node_id": "0.0-3.0-1.188"
	},
	{
		"rt": 839,
		"stimulus": "../audio/40-2-masc.mp3",
		"response": " ",
		"word": "jogo",
		"trial_type": "audio-keyboard-response",
		"trial_index": 238,
		"time_elapsed": 988120,
		"internal_node_id": "0.0-3.0-1.189"
	},
	{
		"rt": 853,
		"stimulus": "../audio/40-3-masc.mp3",
		"response": " ",
		"word": "falava",
		"trial_type": "audio-keyboard-response",
		"trial_index": 239,
		"time_elapsed": 989291,
		"internal_node_id": "0.0-3.0-1.190"
	},
	{
		"rt": 729,
		"stimulus": "../audio/40-4-masc.mp3",
		"response": " ",
		"word": "de",
		"trial_type": "audio-keyboard-response",
		"trial_index": 240,
		"time_elapsed": 990315,
		"internal_node_id": "0.0-3.0-1.191"
	},
	{
		"rt": 1135,
		"stimulus": "../audio/40-5-masc.mp3",
		"response": " ",
		"word": "fantasia",
		"trial_type": "audio-keyboard-response",
		"trial_index": 241,
		"time_elapsed": 991771,
		"internal_node_id": "0.0-3.0-1.192"
	},
	{
		"rt": 801,
		"stimulus": "../audio/40-6-masc.mp3",
		"response": " ",
		"word": "e",
		"trial_type": "audio-keyboard-response",
		"trial_index": 242,
		"time_elapsed": 992868,
		"internal_node_id": "0.0-3.0-1.193"
	},
	{
		"rt": 842,
		"stimulus": "../audio/40-7-masc.mp3",
		"response": " ",
		"word": "de",
		"trial_type": "audio-keyboard-response",
		"trial_index": 243,
		"time_elapsed": 994010,
		"internal_node_id": "0.0-3.0-1.194"
	},
	{
		"rt": 1289,
		"stimulus": "../audio/40-8-masc.mp3",
		"response": " ",
		"word": "aventura.",
		"trial_type": "audio-keyboard-response",
		"trial_index": 244,
		"time_elapsed": 995626,
		"internal_node_id": "0.0-3.0-1.195"
	},
	{
		"rt": 10471,
		"stimulus": "<span style=\"font-size:25px; font-family: monospace\">O jogo tinha fantasia e aventura?</span>",
		"response": "s",
		"question": "O jogo tinha fantasia e aventura?",
		"answer": "null",
		"trial": "exp-sent",
		"trial_type": "html-keyboard-response",
		"trial_index": 245,
		"time_elapsed": 1006351,
		"internal_node_id": "0.0-3.0-2.195-0.195",
		"accuracy": false
	},
	{
		"rt": null,
		"stimulus": "<span style= \"font-size:30px; font-family: monospace\">+</span>",
		"response": null,
		"trial_part": "fixation",
		"trial_type": "html-keyboard-response",
		"trial_index": 246,
		"time_elapsed": 1007855,
		"internal_node_id": "0.0-3.0-0.196-0.196"
	},
	{
		"rt": 760,
		"stimulus": "../audio/79-1-fem.mp3",
		"response": " ",
		"word": "A",
		"trial_type": "audio-keyboard-response",
		"trial_index": 247,
		"time_elapsed": 1008982,
		"internal_node_id": "0.0-3.0-1.196"
	},
	{
		"rt": 1187,
		"stimulus": "../audio/79-2-fem.mp3",
		"response": " ",
		"word": "médica",
		"trial_type": "audio-keyboard-response",
		"trial_index": 248,
		"time_elapsed": 1010482,
		"internal_node_id": "0.0-3.0-1.197"
	},
	{
		"rt": 1091,
		"stimulus": "../audio/79-3-fem.mp3",
		"response": " ",
		"word": "verificou",
		"trial_type": "audio-keyboard-response",
		"trial_index": 249,
		"time_elapsed": 1011902,
		"internal_node_id": "0.0-3.0-1.198"
	},
	{
		"rt": 679,
		"stimulus": "../audio/79-4-fem.mp3",
		"response": " ",
		"word": "a",
		"trial_type": "audio-keyboard-response",
		"trial_index": 250,
		"time_elapsed": 1012870,
		"internal_node_id": "0.0-3.0-1.199"
	},
	{
		"rt": 1489,
		"stimulus": "../audio/79-5-fem.mp3",
		"response": " ",
		"word": "gengiva",
		"trial_type": "audio-keyboard-response",
		"trial_index": 251,
		"time_elapsed": 1014680,
		"internal_node_id": "0.0-3.0-1.200"
	},
	{
		"rt": 778,
		"stimulus": "../audio/79-6-fem.mp3",
		"response": " ",
		"word": "por",
		"trial_type": "audio-keyboard-response",
		"trial_index": 252,
		"time_elapsed": 1015760,
		"internal_node_id": "0.0-3.0-1.201"
	},
	{
		"rt": 1390,
		"stimulus": "../audio/79-7-fem.mp3",
		"response": " ",
		"word": "último.",
		"trial_type": "audio-keyboard-response",
		"trial_index": 253,
		"time_elapsed": 1017440,
		"internal_node_id": "0.0-3.0-1.202"
	},
	{
		"rt": null,
		"stimulus": "<span style= \"font-size:30px; font-family: monospace\">+</span>",
		"response": null,
		"trial_part": "fixation",
		"trial_type": "html-keyboard-response",
		"trial_index": 254,
		"time_elapsed": 1018693,
		"internal_node_id": "0.0-3.0-0.203-0.203"
	},
	{
		"rt": 711,
		"stimulus": "../audio/76-1-fem.mp3",
		"response": " ",
		"word": "O",
		"trial_type": "audio-keyboard-response",
		"trial_index": 255,
		"time_elapsed": 1019790,
		"internal_node_id": "0.0-3.0-1.203"
	},
	{
		"rt": 1457,
		"stimulus": "../audio/76-2-fem.mp3",
		"response": " ",
		"word": "bisavô",
		"trial_type": "audio-keyboard-response",
		"trial_index": 256,
		"time_elapsed": 1021566,
		"internal_node_id": "0.0-3.0-1.204"
	},
	{
		"rt": 1048,
		"stimulus": "../audio/76-3-fem.mp3",
		"response": " ",
		"word": "comprou",
		"trial_type": "audio-keyboard-response",
		"trial_index": 257,
		"time_elapsed": 1022904,
		"internal_node_id": "0.0-3.0-1.205"
	},
	{
		"rt": 760,
		"stimulus": "../audio/76-4-fem.mp3",
		"response": " ",
		"word": "um",
		"trial_type": "audio-keyboard-response",
		"trial_index": 258,
		"time_elapsed": 1023962,
		"internal_node_id": "0.0-3.0-1.206"
	},
	{
		"rt": 1245,
		"stimulus": "../audio/76-5-fem.mp3",
		"response": " ",
		"word": "ralador",
		"trial_type": "audio-keyboard-response",
		"trial_index": 259,
		"time_elapsed": 1025519,
		"internal_node_id": "0.0-3.0-1.207"
	},
	{
		"rt": 827,
		"stimulus": "../audio/76-6-fem.mp3",
		"response": " ",
		"word": "de",
		"trial_type": "audio-keyboard-response",
		"trial_index": 260,
		"time_elapsed": 1026636,
		"internal_node_id": "0.0-3.0-1.208"
	},
	{
		"rt": 836,
		"stimulus": "../audio/76-7-fem.mp3",
		"response": " ",
		"word": "queijo.",
		"trial_type": "audio-keyboard-response",
		"trial_index": 261,
		"time_elapsed": 1027802,
		"internal_node_id": "0.0-3.0-1.209"
	},
	{
		"rt": null,
		"stimulus": "<span style= \"font-size:30px; font-family: monospace\">+</span>",
		"response": null,
		"trial_part": "fixation",
		"trial_type": "html-keyboard-response",
		"trial_index": 262,
		"time_elapsed": 1029056,
		"internal_node_id": "0.0-3.0-0.210-0.210"
	},
	{
		"rt": 113,
		"stimulus": "../audio/77-1-fem.mp3",
		"response": " ",
		"word": "A",
		"trial_type": "audio-keyboard-response",
		"trial_index": 263,
		"time_elapsed": 1029539,
		"internal_node_id": "0.0-3.0-1.210"
	},
	{
		"rt": 1274,
		"stimulus": "../audio/77-2-fem.mp3",
		"response": " ",
		"word": "criança",
		"trial_type": "audio-keyboard-response",
		"trial_index": 264,
		"time_elapsed": 1031131,
		"internal_node_id": "0.0-3.0-1.211"
	},
	{
		"rt": 923,
		"stimulus": "../audio/77-3-fem.mp3",
		"response": " ",
		"word": "ficou",
		"trial_type": "audio-keyboard-response",
		"trial_index": 265,
		"time_elapsed": 1032365,
		"internal_node_id": "0.0-3.0-1.212"
	},
	{
		"rt": 865,
		"stimulus": "../audio/77-4-fem.mp3",
		"response": " ",
		"word": "muito",
		"trial_type": "audio-keyboard-response",
		"trial_index": 266,
		"time_elapsed": 1033527,
		"internal_node_id": "0.0-3.0-1.213"
	},
	{
		"rt": 1042,
		"stimulus": "../audio/77-5-fem.mp3",
		"response": " ",
		"word": "feliz",
		"trial_type": "audio-keyboard-response",
		"trial_index": 267,
		"time_elapsed": 1034886,
		"internal_node_id": "0.0-3.0-1.214"
	},
	{
		"rt": 601,
		"stimulus": "../audio/77-6-fem.mp3",
		"response": " ",
		"word": "com",
		"trial_type": "audio-keyboard-response",
		"trial_index": 268,
		"time_elapsed": 1035785,
		"internal_node_id": "0.0-3.0-1.215"
	},
	{
		"rt": 566,
		"stimulus": "../audio/77-7-fem.mp3",
		"response": " ",
		"word": "o",
		"trial_type": "audio-keyboard-response",
		"trial_index": 269,
		"time_elapsed": 1036651,
		"internal_node_id": "0.0-3.0-1.216"
	},
	{
		"rt": 1332,
		"stimulus": "../audio/77-8-fem.mp3",
		"response": " ",
		"word": "brinquedo.",
		"trial_type": "audio-keyboard-response",
		"trial_index": 270,
		"time_elapsed": 1038299,
		"internal_node_id": "0.0-3.0-1.217"
	},
	{
		"rt": null,
		"stimulus": "<span style= \"font-size:30px; font-family: monospace\">+</span>",
		"response": null,
		"trial_part": "fixation",
		"trial_type": "html-keyboard-response",
		"trial_index": 271,
		"time_elapsed": 1039552,
		"internal_node_id": "0.0-3.0-0.218-0.218"
	},
	{
		"rt": 760,
		"stimulus": "../audio/78-1-masc.mp3",
		"response": " ",
		"word": "Eles",
		"trial_type": "audio-keyboard-response",
		"trial_index": 272,
		"time_elapsed": 1041517,
		"internal_node_id": "0.0-3.0-1.218"
	},
	{
		"rt": 871,
		"stimulus": "../audio/78-2-masc.mp3",
		"response": " ",
		"word": "trazem",
		"trial_type": "audio-keyboard-response",
		"trial_index": 273,
		"time_elapsed": 1042687,
		"internal_node_id": "0.0-3.0-1.219"
	},
	{
		"rt": 1141,
		"stimulus": "../audio/78-3-masc.mp3",
		"response": " ",
		"word": "um",
		"trial_type": "audio-keyboard-response",
		"trial_index": 274,
		"time_elapsed": 1044133,
		"internal_node_id": "0.0-3.0-1.220"
	},
	{
		"rt": 1196,
		"stimulus": "../audio/78-4-masc.mp3",
		"response": " ",
		"word": "fato",
		"trial_type": "audio-keyboard-response",
		"trial_index": 275,
		"time_elapsed": 1045635,
		"internal_node_id": "0.0-3.0-1.221"
	},
	{
		"rt": 1242,
		"stimulus": "../audio/78-5-masc.mp3",
		"response": " ",
		"word": "urgente",
		"trial_type": "audio-keyboard-response",
		"trial_index": 276,
		"time_elapsed": 1047227,
		"internal_node_id": "0.0-3.0-1.222"
	},
	{
		"rt": 943,
		"stimulus": "../audio/78-6-masc.mp3",
		"response": " ",
		"word": "todos",
		"trial_type": "audio-keyboard-response",
		"trial_index": 277,
		"time_elapsed": 1048469,
		"internal_node_id": "0.0-3.0-1.223"
	},
	{
		"rt": 958,
		"stimulus": "../audio/78-7-masc.mp3",
		"response": " ",
		"word": "os",
		"trial_type": "audio-keyboard-response",
		"trial_index": 278,
		"time_elapsed": 1049708,
		"internal_node_id": "0.0-3.0-1.224"
	},
	{
		"rt": 3901,
		"stimulus": "../audio/78-8-masc.mp3",
		"response": " ",
		"word": "dias.",
		"trial_type": "audio-keyboard-response",
		"trial_index": 279,
		"time_elapsed": 1053904,
		"internal_node_id": "0.0-3.0-1.225"
	},
	{
		"rt": null,
		"stimulus": "<span style= \"font-size:30px; font-family: monospace\">+</span>",
		"response": null,
		"trial_part": "fixation",
		"trial_type": "html-keyboard-response",
		"trial_index": 280,
		"time_elapsed": 1055159,
		"internal_node_id": "0.0-3.0-0.226-0.226"
	},
	{
		"rt": 868,
		"stimulus": "../audio/80-1-fem.mp3",
		"response": " ",
		"word": "Meu",
		"trial_type": "audio-keyboard-response",
		"trial_index": 281,
		"time_elapsed": 1056424,
		"internal_node_id": "0.0-3.0-1.226"
	},
	{
		"rt": 1303,
		"stimulus": "../audio/80-2-fem.mp3",
		"response": " ",
		"word": "primo",
		"trial_type": "audio-keyboard-response",
		"trial_index": 282,
		"time_elapsed": 1058014,
		"internal_node_id": "0.0-3.0-1.227"
	},
	{
		"rt": 1007,
		"stimulus": "../audio/80-3-fem.mp3",
		"response": " ",
		"word": "conheceu",
		"trial_type": "audio-keyboard-response",
		"trial_index": 283,
		"time_elapsed": 1059334,
		"internal_node_id": "0.0-3.0-1.228"
	},
	{
		"rt": 650,
		"stimulus": "../audio/80-4-fem.mp3",
		"response": " ",
		"word": "um",
		"trial_type": "audio-keyboard-response",
		"trial_index": 284,
		"time_elapsed": 1060278,
		"internal_node_id": "0.0-3.0-1.229"
	},
	{
		"rt": 1106,
		"stimulus": "../audio/80-5-fem.mp3",
		"response": " ",
		"word": "jovem",
		"trial_type": "audio-keyboard-response",
		"trial_index": 285,
		"time_elapsed": 1061699,
		"internal_node_id": "0.0-3.0-1.230"
	},
	{
		"rt": 1030,
		"stimulus": "../audio/80-6-fem.mp3",
		"response": " ",
		"word": "amável",
		"trial_type": "audio-keyboard-response",
		"trial_index": 286,
		"time_elapsed": 1063034,
		"internal_node_id": "0.0-3.0-1.231"
	},
	{
		"rt": 549,
		"stimulus": "../audio/80-7-fem.mp3",
		"response": " ",
		"word": "e",
		"trial_type": "audio-keyboard-response",
		"trial_index": 287,
		"time_elapsed": 1063882,
		"internal_node_id": "0.0-3.0-1.232"
	},
	{
		"rt": 1387,
		"stimulus": "../audio/80-8-fem.mp3",
		"response": " ",
		"word": "confiante.",
		"trial_type": "audio-keyboard-response",
		"trial_index": 288,
		"time_elapsed": 1065628,
		"internal_node_id": "0.0-3.0-1.233"
	},
	{
		"rt": 2263,
		"stimulus": "<span style=\"font-size:25px; font-family: monospace\">O primo conheceu um jovem irritante?</span>",
		"response": "n",
		"question": "O primo conheceu um jovem irritante?",
		"answer": "null",
		"trial": "exp-sent",
		"trial_type": "html-keyboard-response",
		"trial_index": 289,
		"time_elapsed": 1068144,
		"internal_node_id": "0.0-3.0-2.233-0.233",
		"accuracy": false
	},
	{
		"rt": null,
		"stimulus": "<span style= \"font-size:30px; font-family: monospace\">+</span>",
		"response": null,
		"trial_part": "fixation",
		"trial_type": "html-keyboard-response",
		"trial_index": 290,
		"time_elapsed": 1069648,
		"internal_node_id": "0.0-3.0-0.234-0.234"
	},
	{
		"rt": 885,
		"stimulus": "../audio/29-1-fem.mp3",
		"response": " ",
		"word": "Hoje",
		"trial_type": "audio-keyboard-response",
		"trial_index": 291,
		"time_elapsed": 1070928,
		"internal_node_id": "0.0-3.0-1.234"
	},
	{
		"rt": 1512,
		"stimulus": "../audio/29-2-fem.mp3",
		"response": " ",
		"word": "vamos",
		"trial_type": "audio-keyboard-response",
		"trial_index": 292,
		"time_elapsed": 1072759,
		"internal_node_id": "0.0-3.0-1.235"
	},
	{
		"rt": 1042,
		"stimulus": "../audio/29-3-fem.mp3",
		"response": " ",
		"word": "fazer",
		"trial_type": "audio-keyboard-response",
		"trial_index": 293,
		"time_elapsed": 1074131,
		"internal_node_id": "0.0-3.0-1.236"
	},
	{
		"rt": 865,
		"stimulus": "../audio/29-4-fem.mp3",
		"response": " ",
		"word": "uma",
		"trial_type": "audio-keyboard-response",
		"trial_index": 294,
		"time_elapsed": 1075315,
		"internal_node_id": "0.0-3.0-1.237"
	},
	{
		"rt": 1649,
		"stimulus": "../audio/29-5-fem.mp3",
		"response": " ",
		"word": "atividade",
		"trial_type": "audio-keyboard-response",
		"trial_index": 295,
		"time_elapsed": 1077306,
		"internal_node_id": "0.0-3.0-1.238"
	},
	{
		"rt": 1077,
		"stimulus": "../audio/29-6-fem.mp3",
		"response": " ",
		"word": "sobre",
		"trial_type": "audio-keyboard-response",
		"trial_index": 296,
		"time_elapsed": 1078702,
		"internal_node_id": "0.0-3.0-1.239"
	},
	{
		"rt": 1059,
		"stimulus": "../audio/29-7-fem.mp3",
		"response": " ",
		"word": "fauna",
		"trial_type": "audio-keyboard-response",
		"trial_index": 297,
		"time_elapsed": 1080089,
		"internal_node_id": "0.0-3.0-1.240"
	},
	{
		"rt": 13407,
		"stimulus": "../audio/29-8-fem.mp3",
		"response": " ",
		"word": "marinha.",
		"trial_type": "audio-keyboard-response",
		"trial_index": 298,
		"time_elapsed": 1093815,
		"internal_node_id": "0.0-3.0-1.241"
	},
	{
		"rt": null,
		"stimulus": "<span style= \"font-size:30px; font-family: monospace\">+</span>",
		"response": null,
		"trial_part": "fixation",
		"trial_type": "html-keyboard-response",
		"trial_index": 299,
		"time_elapsed": 1095068,
		"internal_node_id": "0.0-3.0-0.242-0.242"
	},
	{
		"rt": 932,
		"stimulus": "../audio/26-1-masc.mp3",
		"response": " ",
		"word": "Amanhã",
		"trial_type": "audio-keyboard-response",
		"trial_index": 300,
		"time_elapsed": 1096377,
		"internal_node_id": "0.0-3.0-1.242"
	},
	{
		"rt": 737,
		"stimulus": "../audio/26-2-masc.mp3",
		"response": " ",
		"word": "temos",
		"trial_type": "audio-keyboard-response",
		"trial_index": 301,
		"time_elapsed": 1097406,
		"internal_node_id": "0.0-3.0-1.243"
	},
	{
		"rt": 813,
		"stimulus": "../audio/26-3-masc.mp3",
		"response": " ",
		"word": "festa",
		"trial_type": "audio-keyboard-response",
		"trial_index": 302,
		"time_elapsed": 1098584,
		"internal_node_id": "0.0-3.0-1.244"
	},
	{
		"rt": 772,
		"stimulus": "../audio/26-4-masc.mp3",
		"response": " ",
		"word": "na",
		"trial_type": "audio-keyboard-response",
		"trial_index": 303,
		"time_elapsed": 1099667,
		"internal_node_id": "0.0-3.0-1.245"
	},
	{
		"rt": 879,
		"stimulus": "../audio/26-5-masc.mp3",
		"response": " ",
		"word": "piscina",
		"trial_type": "audio-keyboard-response",
		"trial_index": 304,
		"time_elapsed": 1100850,
		"internal_node_id": "0.0-3.0-1.246"
	},
	{
		"rt": 711,
		"stimulus": "../audio/26-6-masc.mp3",
		"response": " ",
		"word": "o",
		"trial_type": "audio-keyboard-response",
		"trial_index": 305,
		"time_elapsed": 1101850,
		"internal_node_id": "0.0-3.0-1.247"
	},
	{
		"rt": 865,
		"stimulus": "../audio/26-7-masc.mp3",
		"response": " ",
		"word": "dia",
		"trial_type": "audio-keyboard-response",
		"trial_index": 306,
		"time_elapsed": 1103013,
		"internal_node_id": "0.0-3.0-1.248"
	},
	{
		"rt": 2334,
		"stimulus": "../audio/26-8-masc.mp3",
		"response": " ",
		"word": "todo.",
		"trial_type": "audio-keyboard-response",
		"trial_index": 307,
		"time_elapsed": 1105646,
		"internal_node_id": "0.0-3.0-1.249"
	},
	{
		"rt": null,
		"stimulus": "<span style= \"font-size:30px; font-family: monospace\">+</span>",
		"response": null,
		"trial_part": "fixation",
		"trial_type": "html-keyboard-response",
		"trial_index": 308,
		"time_elapsed": 1106900,
		"internal_node_id": "0.0-3.0-0.250-0.250"
	},
	{
		"rt": 1193,
		"stimulus": "../audio/28-1-masc.mp3",
		"response": " ",
		"word": "O",
		"trial_type": "audio-keyboard-response",
		"trial_index": 309,
		"time_elapsed": 1108466,
		"internal_node_id": "0.0-3.0-1.250"
	},
	{
		"rt": 1103,
		"stimulus": "../audio/28-2-masc.mp3",
		"response": " ",
		"word": "time",
		"trial_type": "audio-keyboard-response",
		"trial_index": 310,
		"time_elapsed": 1109864,
		"internal_node_id": "0.0-3.0-1.251"
	},
	{
		"rt": 1025,
		"stimulus": "../audio/28-3-masc.mp3",
		"response": " ",
		"word": "quer",
		"trial_type": "audio-keyboard-response",
		"trial_index": 311,
		"time_elapsed": 1111186,
		"internal_node_id": "0.0-3.0-1.252"
	},
	{
		"rt": 885,
		"stimulus": "../audio/28-4-masc.mp3",
		"response": " ",
		"word": "a",
		"trial_type": "audio-keyboard-response",
		"trial_index": 312,
		"time_elapsed": 1112376,
		"internal_node_id": "0.0-3.0-1.253"
	},
	{
		"rt": 1271,
		"stimulus": "../audio/28-5-masc.mp3",
		"response": " ",
		"word": "vitória",
		"trial_type": "audio-keyboard-response",
		"trial_index": 313,
		"time_elapsed": 1113965,
		"internal_node_id": "0.0-3.0-1.254"
	},
	{
		"rt": 903,
		"stimulus": "../audio/28-6-masc.mp3",
		"response": " ",
		"word": "no",
		"trial_type": "audio-keyboard-response",
		"trial_index": 314,
		"time_elapsed": 1115174,
		"internal_node_id": "0.0-3.0-1.255"
	},
	{
		"rt": 975,
		"stimulus": "../audio/28-7-masc.mp3",
		"response": " ",
		"word": "jogo",
		"trial_type": "audio-keyboard-response",
		"trial_index": 315,
		"time_elapsed": 1116446,
		"internal_node_id": "0.0-3.0-1.256"
	},
	{
		"rt": 845,
		"stimulus": "../audio/28-8-masc.mp3",
		"response": " ",
		"word": "de",
		"trial_type": "audio-keyboard-response",
		"trial_index": 316,
		"time_elapsed": 1117590,
		"internal_node_id": "0.0-3.0-1.257"
	},
	{
		"rt": 1382,
		"stimulus": "../audio/28-9-masc.mp3",
		"response": " ",
		"word": "vôlei.",
		"trial_type": "audio-keyboard-response",
		"trial_index": 317,
		"time_elapsed": 1119279,
		"internal_node_id": "0.0-3.0-1.258"
	},
	{
		"rt": null,
		"stimulus": "<span style= \"font-size:30px; font-family: monospace\">+</span>",
		"response": null,
		"trial_part": "fixation",
		"trial_type": "html-keyboard-response",
		"trial_index": 318,
		"time_elapsed": 1120532,
		"internal_node_id": "0.0-3.0-0.259-0.259"
	},
	{
		"rt": 714,
		"stimulus": "../audio/27-1-masc.mp3",
		"response": " ",
		"word": "O",
		"trial_type": "audio-keyboard-response",
		"trial_index": 319,
		"time_elapsed": 1121630,
		"internal_node_id": "0.0-3.0-1.259"
	},
	{
		"rt": 1231,
		"stimulus": "../audio/27-2-masc.mp3",
		"response": " ",
		"word": "dinheiro",
		"trial_type": "audio-keyboard-response",
		"trial_index": 320,
		"time_elapsed": 1123171,
		"internal_node_id": "0.0-3.0-1.260"
	},
	{
		"rt": 949,
		"stimulus": "../audio/27-3-masc.mp3",
		"response": " ",
		"word": "chegou",
		"trial_type": "audio-keyboard-response",
		"trial_index": 321,
		"time_elapsed": 1124428,
		"internal_node_id": "0.0-3.0-1.261"
	},
	{
		"rt": 1149,
		"stimulus": "../audio/27-4-masc.mp3",
		"response": " ",
		"word": "à",
		"trial_type": "audio-keyboard-response",
		"trial_index": 322,
		"time_elapsed": 1125874,
		"internal_node_id": "0.0-3.0-1.262"
	},
	{
		"rt": 1048,
		"stimulus": "../audio/27-5-masc.mp3",
		"response": " ",
		"word": "elite",
		"trial_type": "audio-keyboard-response",
		"trial_index": 323,
		"time_elapsed": 1127249,
		"internal_node_id": "0.0-3.0-1.263"
	},
	{
		"rt": 952,
		"stimulus": "../audio/27-6-masc.mp3",
		"response": " ",
		"word": "deste",
		"trial_type": "audio-keyboard-response",
		"trial_index": 324,
		"time_elapsed": 1128499,
		"internal_node_id": "0.0-3.0-1.264"
	},
	{
		"rt": 958,
		"stimulus": "../audio/27-7-masc.mp3",
		"response": " ",
		"word": "país.",
		"trial_type": "audio-keyboard-response",
		"trial_index": 325,
		"time_elapsed": 1129765,
		"internal_node_id": "0.0-3.0-1.265"
	},
	{
		"rt": null,
		"stimulus": "<span style= \"font-size:30px; font-family: monospace\">+</span>",
		"response": null,
		"trial_part": "fixation",
		"trial_type": "html-keyboard-response",
		"trial_index": 326,
		"time_elapsed": 1131019,
		"internal_node_id": "0.0-3.0-0.266-0.266"
	},
	{
		"rt": 673,
		"stimulus": "../audio/30-1-masc.mp3",
		"response": " ",
		"word": "O",
		"trial_type": "audio-keyboard-response",
		"trial_index": 327,
		"time_elapsed": 1132132,
		"internal_node_id": "0.0-3.0-1.266"
	},
	{
		"rt": 1213,
		"stimulus": "../audio/30-2-masc.mp3",
		"response": " ",
		"word": "funcionário",
		"trial_type": "audio-keyboard-response",
		"trial_index": 328,
		"time_elapsed": 1133666,
		"internal_node_id": "0.0-3.0-1.267"
	},
	{
		"rt": 1588,
		"stimulus": "../audio/30-3-masc.mp3",
		"response": " ",
		"word": "entregou",
		"trial_type": "audio-keyboard-response",
		"trial_index": 329,
		"time_elapsed": 1135570,
		"internal_node_id": "0.0-3.0-1.268"
	},
	{
		"rt": 816,
		"stimulus": "../audio/30-4-masc.mp3",
		"response": " ",
		"word": "o",
		"trial_type": "audio-keyboard-response",
		"trial_index": 330,
		"time_elapsed": 1136685,
		"internal_node_id": "0.0-3.0-1.269"
	},
	{
		"rt": 2406,
		"stimulus": "../audio/30-5-masc.mp3",
		"response": " ",
		"word": "restante",
		"trial_type": "audio-keyboard-response",
		"trial_index": 331,
		"time_elapsed": 1139419,
		"internal_node_id": "0.0-3.0-1.270"
	},
	{
		"rt": 911,
		"stimulus": "../audio/30-6-masc.mp3",
		"response": " ",
		"word": "do",
		"trial_type": "audio-keyboard-response",
		"trial_index": 332,
		"time_elapsed": 1140698,
		"internal_node_id": "0.0-3.0-1.271"
	},
	{
		"rt": 2006,
		"stimulus": "../audio/30-7-masc.mp3",
		"response": " ",
		"word": "dinheiro.",
		"trial_type": "audio-keyboard-response",
		"trial_index": 333,
		"time_elapsed": 1143018,
		"internal_node_id": "0.0-3.0-1.272"
	},
	{
		"rt": 3622,
		"stimulus": "<span style=\"font-size:25px; font-family: monospace\">O funcionário entregou o contrato?</span>",
		"response": "n",
		"question": "O funcionário entregou o contrato?",
		"answer": "null",
		"trial": "exp-sent",
		"trial_type": "html-keyboard-response",
		"trial_index": 334,
		"time_elapsed": 1146892,
		"internal_node_id": "0.0-3.0-2.272-0.272",
		"accuracy": false
	},
	{
		"rt": null,
		"stimulus": "<span style= \"font-size:30px; font-family: monospace\">+</span>",
		"response": null,
		"trial_part": "fixation",
		"trial_type": "html-keyboard-response",
		"trial_index": 335,
		"time_elapsed": 1148396,
		"internal_node_id": "0.0-3.0-0.273-0.273"
	},
	{
		"rt": 821,
		"stimulus": "../audio/48-1-masc.mp3",
		"response": " ",
		"word": "Ela",
		"trial_type": "audio-keyboard-response",
		"trial_index": 336,
		"time_elapsed": 1149600,
		"internal_node_id": "0.0-3.0-1.273"
	},
	{
		"rt": 1141,
		"stimulus": "../audio/48-2-masc.mp3",
		"response": " ",
		"word": "come",
		"trial_type": "audio-keyboard-response",
		"trial_index": 337,
		"time_elapsed": 1151039,
		"internal_node_id": "0.0-3.0-1.274"
	},
	{
		"rt": 1199,
		"stimulus": "../audio/48-3-masc.mp3",
		"response": " ",
		"word": "feijão",
		"trial_type": "audio-keyboard-response",
		"trial_index": 338,
		"time_elapsed": 1152526,
		"internal_node_id": "0.0-3.0-1.275"
	},
	{
		"rt": 720,
		"stimulus": "../audio/48-4-masc.mp3",
		"response": " ",
		"word": "com",
		"trial_type": "audio-keyboard-response",
		"trial_index": 339,
		"time_elapsed": 1153544,
		"internal_node_id": "0.0-3.0-1.276"
	},
	{
		"rt": 1033,
		"stimulus": "../audio/48-5-masc.mp3",
		"response": " ",
		"word": "arroz",
		"trial_type": "audio-keyboard-response",
		"trial_index": 340,
		"time_elapsed": 1154863,
		"internal_node_id": "0.0-3.0-1.277"
	},
	{
		"rt": 2293,
		"stimulus": "../audio/48-6-masc.mp3",
		"response": " ",
		"word": "todos",
		"trial_type": "audio-keyboard-response",
		"trial_index": 341,
		"time_elapsed": 1157457,
		"internal_node_id": "0.0-3.0-1.278"
	},
	{
		"rt": 694,
		"stimulus": "../audio/48-7-masc.mp3",
		"response": " ",
		"word": "os",
		"trial_type": "audio-keyboard-response",
		"trial_index": 342,
		"time_elapsed": 1158519,
		"internal_node_id": "0.0-3.0-1.279"
	},
	{
		"rt": 784,
		"stimulus": "../audio/48-8-masc.mp3",
		"response": " ",
		"word": "dias.",
		"trial_type": "audio-keyboard-response",
		"trial_index": 343,
		"time_elapsed": 1159619,
		"internal_node_id": "0.0-3.0-1.280"
	},
	{
		"rt": null,
		"stimulus": "<span style= \"font-size:30px; font-family: monospace\">+</span>",
		"response": null,
		"trial_part": "fixation",
		"trial_type": "html-keyboard-response",
		"trial_index": 344,
		"time_elapsed": 1160872,
		"internal_node_id": "0.0-3.0-0.281-0.281"
	},
	{
		"rt": 795,
		"stimulus": "../audio/49-1-fem.mp3",
		"response": " ",
		"word": "Eu",
		"trial_type": "audio-keyboard-response",
		"trial_index": 345,
		"time_elapsed": 1162874,
		"internal_node_id": "0.0-3.0-1.281"
	},
	{
		"rt": 955,
		"stimulus": "../audio/49-2-fem.mp3",
		"response": " ",
		"word": "quero",
		"trial_type": "audio-keyboard-response",
		"trial_index": 346,
		"time_elapsed": 1164116,
		"internal_node_id": "0.0-3.0-1.282"
	},
	{
		"rt": 877,
		"stimulus": "../audio/49-3-fem.mp3",
		"response": " ",
		"word": "um",
		"trial_type": "audio-keyboard-response",
		"trial_index": 347,
		"time_elapsed": 1165302,
		"internal_node_id": "0.0-3.0-1.283"
	},
	{
		"rt": 2438,
		"stimulus": "../audio/49-4-fem.mp3",
		"response": " ",
		"word": "lanche",
		"trial_type": "audio-keyboard-response",
		"trial_index": 348,
		"time_elapsed": 1168032,
		"internal_node_id": "0.0-3.0-1.284"
	},
	{
		"rt": 778,
		"stimulus": "../audio/49-5-fem.mp3",
		"response": " ",
		"word": "duplo",
		"trial_type": "audio-keyboard-response",
		"trial_index": 349,
		"time_elapsed": 1169180,
		"internal_node_id": "0.0-3.0-1.285"
	},
	{
		"rt": 827,
		"stimulus": "../audio/49-6-fem.mp3",
		"response": " ",
		"word": "e",
		"trial_type": "audio-keyboard-response",
		"trial_index": 350,
		"time_elapsed": 1170306,
		"internal_node_id": "0.0-3.0-1.286"
	},
	{
		"rt": 816,
		"stimulus": "../audio/49-7-fem.mp3",
		"response": " ",
		"word": "um",
		"trial_type": "audio-keyboard-response",
		"trial_index": 351,
		"time_elapsed": 1171415,
		"internal_node_id": "0.0-3.0-1.287"
	},
	{
		"rt": 4081,
		"stimulus": "../audio/49-8-fem.mp3",
		"response": " ",
		"word": "suco.",
		"trial_type": "audio-keyboard-response",
		"trial_index": 352,
		"time_elapsed": 1175827,
		"internal_node_id": "0.0-3.0-1.288"
	},
	{
		"rt": null,
		"stimulus": "<span style= \"font-size:30px; font-family: monospace\">+</span>",
		"response": null,
		"trial_part": "fixation",
		"trial_type": "html-keyboard-response",
		"trial_index": 353,
		"time_elapsed": 1177080,
		"internal_node_id": "0.0-3.0-0.289-0.289"
	},
	{
		"rt": 676,
		"stimulus": "../audio/47-1-masc.mp3",
		"response": " ",
		"word": "O",
		"trial_type": "audio-keyboard-response",
		"trial_index": 354,
		"time_elapsed": 1178123,
		"internal_node_id": "0.0-3.0-1.289"
	},
	{
		"rt": 1117,
		"stimulus": "../audio/47-2-masc.mp3",
		"response": " ",
		"word": "tio",
		"trial_type": "audio-keyboard-response",
		"trial_index": 355,
		"time_elapsed": 1179559,
		"internal_node_id": "0.0-3.0-1.290"
	},
	{
		"rt": 874,
		"stimulus": "../audio/47-3-masc.mp3",
		"response": " ",
		"word": "recusou",
		"trial_type": "audio-keyboard-response",
		"trial_index": 356,
		"time_elapsed": 1180764,
		"internal_node_id": "0.0-3.0-1.291"
	},
	{
		"rt": 720,
		"stimulus": "../audio/47-4-masc.mp3",
		"response": " ",
		"word": "a",
		"trial_type": "audio-keyboard-response",
		"trial_index": 357,
		"time_elapsed": 1181776,
		"internal_node_id": "0.0-3.0-1.292"
	},
	{
		"rt": 1112,
		"stimulus": "../audio/47-5-masc.mp3",
		"response": " ",
		"word": "sobremesa",
		"trial_type": "audio-keyboard-response",
		"trial_index": 358,
		"time_elapsed": 1183199,
		"internal_node_id": "0.0-3.0-1.293"
	},
	{
		"rt": 1173,
		"stimulus": "../audio/47-6-masc.mp3",
		"response": " ",
		"word": "no",
		"trial_type": "audio-keyboard-response",
		"trial_index": 359,
		"time_elapsed": 1184674,
		"internal_node_id": "0.0-3.0-1.294"
	},
	{
		"rt": 1707,
		"stimulus": "../audio/47-7-masc.mp3",
		"response": " ",
		"word": "almoço.",
		"trial_type": "audio-keyboard-response",
		"trial_index": 360,
		"time_elapsed": 1186681,
		"internal_node_id": "0.0-3.0-1.295"
	},
	{
		"rt": null,
		"stimulus": "<span style= \"font-size:30px; font-family: monospace\">+</span>",
		"response": null,
		"trial_part": "fixation",
		"trial_type": "html-keyboard-response",
		"trial_index": 361,
		"time_elapsed": 1187934,
		"internal_node_id": "0.0-3.0-0.296-0.296"
	},
	{
		"rt": 827,
		"stimulus": "../audio/46-1-fem.mp3",
		"response": " ",
		"word": "Meu",
		"trial_type": "audio-keyboard-response",
		"trial_index": 362,
		"time_elapsed": 1189108,
		"internal_node_id": "0.0-3.0-1.296"
	},
	{
		"rt": 917,
		"stimulus": "../audio/46-2-fem.mp3",
		"response": " ",
		"word": "primo",
		"trial_type": "audio-keyboard-response",
		"trial_index": 363,
		"time_elapsed": 1190339,
		"internal_node_id": "0.0-3.0-1.297"
	},
	{
		"rt": 1213,
		"stimulus": "../audio/46-3-fem.mp3",
		"response": " ",
		"word": "estava",
		"trial_type": "audio-keyboard-response",
		"trial_index": 364,
		"time_elapsed": 1191921,
		"internal_node_id": "0.0-3.0-1.298"
	},
	{
		"rt": 1721,
		"stimulus": "../audio/46-4-fem.mp3",
		"response": " ",
		"word": "muito",
		"trial_type": "audio-keyboard-response",
		"trial_index": 365,
		"time_elapsed": 1193965,
		"internal_node_id": "0.0-3.0-1.299"
	},
	{
		"rt": 1393,
		"stimulus": "../audio/46-5-fem.mp3",
		"response": " ",
		"word": "deprimido",
		"trial_type": "audio-keyboard-response",
		"trial_index": 366,
		"time_elapsed": 1195754,
		"internal_node_id": "0.0-3.0-1.300"
	},
	{
		"rt": 1585,
		"stimulus": "../audio/46-6-fem.mp3",
		"response": " ",
		"word": "no",
		"trial_type": "audio-keyboard-response",
		"trial_index": 367,
		"time_elapsed": 1197690,
		"internal_node_id": "0.0-3.0-1.301"
	},
	{
		"rt": 4737,
		"stimulus": "../audio/46-7-fem.mp3",
		"response": " ",
		"word": "inverno.",
		"trial_type": "audio-keyboard-response",
		"trial_index": 368,
		"time_elapsed": 1202741,
		"internal_node_id": "0.0-3.0-1.302"
	},
	{
		"rt": null,
		"stimulus": "<span style= \"font-size:30px; font-family: monospace\">+</span>",
		"response": null,
		"trial_part": "fixation",
		"trial_type": "html-keyboard-response",
		"trial_index": 369,
		"time_elapsed": 1203995,
		"internal_node_id": "0.0-3.0-0.303-0.303"
	},
	{
		"rt": 816,
		"stimulus": "../audio/50-1-masc.mp3",
		"response": " ",
		"word": "O",
		"trial_type": "audio-keyboard-response",
		"trial_index": 370,
		"time_elapsed": 1205184,
		"internal_node_id": "0.0-3.0-1.303"
	},
	{
		"rt": 1062,
		"stimulus": "../audio/50-2-masc.mp3",
		"response": " ",
		"word": "pássaro",
		"trial_type": "audio-keyboard-response",
		"trial_index": 371,
		"time_elapsed": 1206539,
		"internal_node_id": "0.0-3.0-1.304"
	},
	{
		"rt": 958,
		"stimulus": "../audio/50-3-masc.mp3",
		"response": " ",
		"word": "fugiu",
		"trial_type": "audio-keyboard-response",
		"trial_index": 372,
		"time_elapsed": 1207801,
		"internal_node_id": "0.0-3.0-1.305"
	},
	{
		"rt": 731,
		"stimulus": "../audio/50-4-masc.mp3",
		"response": " ",
		"word": "da",
		"trial_type": "audio-keyboard-response",
		"trial_index": 373,
		"time_elapsed": 1208823,
		"internal_node_id": "0.0-3.0-1.306"
	},
	{
		"rt": 1135,
		"stimulus": "../audio/50-5-masc.mp3",
		"response": " ",
		"word": "gaiola",
		"trial_type": "audio-keyboard-response",
		"trial_index": 374,
		"time_elapsed": 1210272,
		"internal_node_id": "0.0-3.0-1.307"
	},
	{
		"rt": 778,
		"stimulus": "../audio/50-6-masc.mp3",
		"response": " ",
		"word": "pela",
		"trial_type": "audio-keyboard-response",
		"trial_index": 375,
		"time_elapsed": 1211548,
		"internal_node_id": "0.0-3.0-1.308"
	},
	{
		"rt": 1544,
		"stimulus": "../audio/50-7-masc.mp3",
		"response": " ",
		"word": "portinhola.",
		"trial_type": "audio-keyboard-response",
		"trial_index": 376,
		"time_elapsed": 1213802,
		"internal_node_id": "0.0-3.0-1.309"
	},
	{
		"rt": 2853,
		"stimulus": "<span style=\"font-size:25px; font-family: monospace\">O pássaro fugiu da gaiola?</span>",
		"response": "s",
		"question": "O pássaro fugiu da gaiola?",
		"answer": "null",
		"trial": "exp-sent",
		"trial_type": "html-keyboard-response",
		"trial_index": 377,
		"time_elapsed": 1216908,
		"internal_node_id": "0.0-3.0-2.309-0.309",
		"accuracy": false
	},
	{
		"rt": null,
		"stimulus": "<span style= \"font-size:30px; font-family: monospace\">+</span>",
		"response": null,
		"trial_part": "fixation",
		"trial_type": "html-keyboard-response",
		"trial_index": 378,
		"time_elapsed": 1218412,
		"internal_node_id": "0.0-3.0-0.310-0.310"
	},
	{
		"rt": 107,
		"stimulus": "../audio/58-1-masc.mp3",
		"response": " ",
		"word": "Havia",
		"trial_type": "audio-keyboard-response",
		"trial_index": 379,
		"time_elapsed": 1219020,
		"internal_node_id": "0.0-3.0-1.310"
	},
	{
		"rt": 1146,
		"stimulus": "../audio/58-2-masc.mp3",
		"response": " ",
		"word": "apenas",
		"trial_type": "audio-keyboard-response",
		"trial_index": 380,
		"time_elapsed": 1220476,
		"internal_node_id": "0.0-3.0-1.311"
	},
	{
		"rt": 580,
		"stimulus": "../audio/58-3-masc.mp3",
		"response": " ",
		"word": "um",
		"trial_type": "audio-keyboard-response",
		"trial_index": 381,
		"time_elapsed": 1221350,
		"internal_node_id": "0.0-3.0-1.312"
	},
	{
		"rt": 920,
		"stimulus": "../audio/58-4-masc.mp3",
		"response": " ",
		"word": "último",
		"trial_type": "audio-keyboard-response",
		"trial_index": 382,
		"time_elapsed": 1222601,
		"internal_node_id": "0.0-3.0-1.313"
	},
	{
		"rt": 906,
		"stimulus": "../audio/58-5-masc.mp3",
		"response": " ",
		"word": "herdeiro",
		"trial_type": "audio-keyboard-response",
		"trial_index": 383,
		"time_elapsed": 1223795,
		"internal_node_id": "0.0-3.0-1.314"
	},
	{
		"rt": 612,
		"stimulus": "../audio/58-6-masc.mp3",
		"response": " ",
		"word": "do",
		"trial_type": "audio-keyboard-response",
		"trial_index": 384,
		"time_elapsed": 1224722,
		"internal_node_id": "0.0-3.0-1.315"
	},
	{
		"rt": 1364,
		"stimulus": "../audio/58-7-masc.mp3",
		"response": " ",
		"word": "dinheiro.",
		"trial_type": "audio-keyboard-response",
		"trial_index": 385,
		"time_elapsed": 1226400,
		"internal_node_id": "0.0-3.0-1.316"
	},
	{
		"rt": null,
		"stimulus": "<span style= \"font-size:30px; font-family: monospace\">+</span>",
		"response": null,
		"trial_part": "fixation",
		"trial_type": "html-keyboard-response",
		"trial_index": 386,
		"time_elapsed": 1227653,
		"internal_node_id": "0.0-3.0-0.317-0.317"
	},
	{
		"rt": 473,
		"stimulus": "../audio/59-1-fem.mp3",
		"response": " ",
		"word": "O",
		"trial_type": "audio-keyboard-response",
		"trial_index": 387,
		"time_elapsed": 1228506,
		"internal_node_id": "0.0-3.0-1.317"
	},
	{
		"rt": 833,
		"stimulus": "../audio/59-2-fem.mp3",
		"response": " ",
		"word": "carteiro",
		"trial_type": "audio-keyboard-response",
		"trial_index": 388,
		"time_elapsed": 1229663,
		"internal_node_id": "0.0-3.0-1.318"
	},
	{
		"rt": 676,
		"stimulus": "../audio/59-3-fem.mp3",
		"response": " ",
		"word": "fez",
		"trial_type": "audio-keyboard-response",
		"trial_index": 389,
		"time_elapsed": 1230635,
		"internal_node_id": "0.0-3.0-1.319"
	},
	{
		"rt": 874,
		"stimulus": "../audio/59-4-fem.mp3",
		"response": " ",
		"word": "uma",
		"trial_type": "audio-keyboard-response",
		"trial_index": 390,
		"time_elapsed": 1231799,
		"internal_node_id": "0.0-3.0-1.320"
	},
	{
		"rt": 1260,
		"stimulus": "../audio/59-5-fem.mp3",
		"response": " ",
		"word": "tentativa",
		"trial_type": "audio-keyboard-response",
		"trial_index": 391,
		"time_elapsed": 1233390,
		"internal_node_id": "0.0-3.0-1.321"
	},
	{
		"rt": 627,
		"stimulus": "../audio/59-6-fem.mp3",
		"response": " ",
		"word": "de",
		"trial_type": "audio-keyboard-response",
		"trial_index": 392,
		"time_elapsed": 1234317,
		"internal_node_id": "0.0-3.0-1.322"
	},
	{
		"rt": 1100,
		"stimulus": "../audio/59-7-fem.mp3",
		"response": " ",
		"word": "entrega.",
		"trial_type": "audio-keyboard-response",
		"trial_index": 393,
		"time_elapsed": 1235727,
		"internal_node_id": "0.0-3.0-1.323"
	},
	{
		"rt": null,
		"stimulus": "<span style= \"font-size:30px; font-family: monospace\">+</span>",
		"response": null,
		"trial_part": "fixation",
		"trial_type": "html-keyboard-response",
		"trial_index": 394,
		"time_elapsed": 1236981,
		"internal_node_id": "0.0-3.0-0.324-0.324"
	},
	{
		"rt": 549,
		"stimulus": "../audio/56-1-masc.mp3",
		"response": " ",
		"word": "A",
		"trial_type": "audio-keyboard-response",
		"trial_index": 395,
		"time_elapsed": 1237891,
		"internal_node_id": "0.0-3.0-1.324"
	},
	{
		"rt": 923,
		"stimulus": "../audio/56-2-masc.mp3",
		"response": " ",
		"word": "moça",
		"trial_type": "audio-keyboard-response",
		"trial_index": 396,
		"time_elapsed": 1239118,
		"internal_node_id": "0.0-3.0-1.325"
	},
	{
		"rt": 598,
		"stimulus": "../audio/56-3-masc.mp3",
		"response": " ",
		"word": "foi",
		"trial_type": "audio-keyboard-response",
		"trial_index": 397,
		"time_elapsed": 1240014,
		"internal_node_id": "0.0-3.0-1.326"
	},
	{
		"rt": 659,
		"stimulus": "../audio/56-4-masc.mp3",
		"response": " ",
		"word": "à",
		"trial_type": "audio-keyboard-response",
		"trial_index": 398,
		"time_elapsed": 1240968,
		"internal_node_id": "0.0-3.0-1.327"
	},
	{
		"rt": 1390,
		"stimulus": "../audio/56-5-masc.mp3",
		"response": " ",
		"word": "agência",
		"trial_type": "audio-keyboard-response",
		"trial_index": 399,
		"time_elapsed": 1242662,
		"internal_node_id": "0.0-3.0-1.328"
	},
	{
		"rt": 1036,
		"stimulus": "../audio/56-6-masc.mp3",
		"response": " ",
		"word": "bancária",
		"trial_type": "audio-keyboard-response",
		"trial_index": 400,
		"time_elapsed": 1244019,
		"internal_node_id": "0.0-3.0-1.329"
	},
	{
		"rt": 981,
		"stimulus": "../audio/56-7-masc.mp3",
		"response": " ",
		"word": "ontem",
		"trial_type": "audio-keyboard-response",
		"trial_index": 401,
		"time_elapsed": 1245314,
		"internal_node_id": "0.0-3.0-1.330"
	},
	{
		"rt": 781,
		"stimulus": "../audio/56-8-masc.mp3",
		"response": " ",
		"word": "de",
		"trial_type": "audio-keyboard-response",
		"trial_index": 402,
		"time_elapsed": 1246396,
		"internal_node_id": "0.0-3.0-1.331"
	},
	{
		"rt": 1718,
		"stimulus": "../audio/56-9-masc.mp3",
		"response": " ",
		"word": "tarde.",
		"trial_type": "audio-keyboard-response",
		"trial_index": 403,
		"time_elapsed": 1248418,
		"internal_node_id": "0.0-3.0-1.332"
	},
	{
		"rt": null,
		"stimulus": "<span style= \"font-size:30px; font-family: monospace\">+</span>",
		"response": null,
		"trial_part": "fixation",
		"trial_type": "html-keyboard-response",
		"trial_index": 404,
		"time_elapsed": 1249670,
		"internal_node_id": "0.0-3.0-0.333-0.333"
	},
	{
		"rt": 557,
		"stimulus": "../audio/57-1-fem.mp3",
		"response": " ",
		"word": "O",
		"trial_type": "audio-keyboard-response",
		"trial_index": 405,
		"time_elapsed": 1250634,
		"internal_node_id": "0.0-3.0-1.333"
	},
	{
		"rt": 1083,
		"stimulus": "../audio/57-2-fem.mp3",
		"response": " ",
		"word": "capitão",
		"trial_type": "audio-keyboard-response",
		"trial_index": 406,
		"time_elapsed": 1252033,
		"internal_node_id": "0.0-3.0-1.334"
	},
	{
		"rt": 775,
		"stimulus": "../audio/57-3-fem.mp3",
		"response": " ",
		"word": "deu",
		"trial_type": "audio-keyboard-response",
		"trial_index": 407,
		"time_elapsed": 1253304,
		"internal_node_id": "0.0-3.0-1.335"
	},
	{
		"rt": 1051,
		"stimulus": "../audio/57-4-fem.mp3",
		"response": " ",
		"word": "uma",
		"trial_type": "audio-keyboard-response",
		"trial_index": 408,
		"time_elapsed": 1254651,
		"internal_node_id": "0.0-3.0-1.336"
	},
	{
		"rt": 493,
		"stimulus": "../audio/57-5-fem.mp3",
		"response": " ",
		"word": "instrução",
		"trial_type": "audio-keyboard-response",
		"trial_index": 409,
		"time_elapsed": 1255547,
		"internal_node_id": "0.0-3.0-1.337"
	},
	{
		"rt": 1112,
		"stimulus": "../audio/57-6-fem.mp3",
		"response": " ",
		"word": "para",
		"trial_type": "audio-keyboard-response",
		"trial_index": 410,
		"time_elapsed": 1256983,
		"internal_node_id": "0.0-3.0-1.338"
	},
	{
		"rt": 784,
		"stimulus": "../audio/57-7-fem.mp3",
		"response": " ",
		"word": "as",
		"trial_type": "audio-keyboard-response",
		"trial_index": 411,
		"time_elapsed": 1258085,
		"internal_node_id": "0.0-3.0-1.339"
	},
	{
		"rt": 1431,
		"stimulus": "../audio/57-8-fem.mp3",
		"response": " ",
		"word": "pessoas.",
		"trial_type": "audio-keyboard-response",
		"trial_index": 412,
		"time_elapsed": 1259819,
		"internal_node_id": "0.0-3.0-1.340"
	},
	{
		"rt": null,
		"stimulus": "<span style= \"font-size:30px; font-family: monospace\">+</span>",
		"response": null,
		"trial_part": "fixation",
		"trial_type": "html-keyboard-response",
		"trial_index": 413,
		"time_elapsed": 1261072,
		"internal_node_id": "0.0-3.0-0.341-0.341"
	},
	{
		"rt": 789,
		"stimulus": "../audio/60-1-masc.mp3",
		"response": " ",
		"word": "Ondas",
		"trial_type": "audio-keyboard-response",
		"trial_index": 414,
		"time_elapsed": 1262236,
		"internal_node_id": "0.0-3.0-1.341"
	},
	{
		"rt": 766,
		"stimulus": "../audio/60-2-masc.mp3",
		"response": " ",
		"word": "têm",
		"trial_type": "audio-keyboard-response",
		"trial_index": 415,
		"time_elapsed": 1263302,
		"internal_node_id": "0.0-3.0-1.342"
	},
	{
		"rt": 792,
		"stimulus": "../audio/60-3-masc.mp3",
		"response": " ",
		"word": "um",
		"trial_type": "audio-keyboard-response",
		"trial_index": 416,
		"time_elapsed": 1264388,
		"internal_node_id": "0.0-3.0-1.343"
	},
	{
		"rt": 1051,
		"stimulus": "../audio/60-4-masc.mp3",
		"response": " ",
		"word": "impacto",
		"trial_type": "audio-keyboard-response",
		"trial_index": 417,
		"time_elapsed": 1265768,
		"internal_node_id": "0.0-3.0-1.344"
	},
	{
		"rt": 1257,
		"stimulus": "../audio/60-5-masc.mp3",
		"response": " ",
		"word": "destrutivo",
		"trial_type": "audio-keyboard-response",
		"trial_index": 418,
		"time_elapsed": 1267354,
		"internal_node_id": "0.0-3.0-1.345"
	},
	{
		"rt": 708,
		"stimulus": "../audio/60-6-masc.mp3",
		"response": " ",
		"word": "no",
		"trial_type": "audio-keyboard-response",
		"trial_index": 419,
		"time_elapsed": 1268365,
		"internal_node_id": "0.0-3.0-1.346"
	},
	{
		"rt": 2101,
		"stimulus": "../audio/60-7-masc.mp3",
		"response": " ",
		"word": "litoral.",
		"trial_type": "audio-keyboard-response",
		"trial_index": 420,
		"time_elapsed": 1270778,
		"internal_node_id": "0.0-3.0-1.347"
	},
	{
		"rt": 5349,
		"stimulus": "<span style=\"font-size:25px; font-family: monospace\">Ondas têm um impacto destrutivo?</span>",
		"response": "s",
		"question": "Ondas têm um impacto destrutivo?",
		"answer": "null",
		"trial": "exp-sent",
		"trial_type": "html-keyboard-response",
		"trial_index": 421,
		"time_elapsed": 1276379,
