[
	{
		"view_history": [
			{
				"page_index": 0,
				"viewing_time": 2153
			}
		],
		"rt": 2153,
		"trial_type": "instructions",
		"trial_index": 0,
		"time_elapsed": 2155,
		"internal_node_id": "0.0-0.0"
	},
	{
		"rt": 25852,
		"response": {
			"reading_habits_printed_magazines": "Alguns dias da semana",
			"reading_habits_printed_newspapers": "Todos os dias",
			"reading_habits_books": "Todos os dias",
			"reading_habits_printed_socialmedias": "Todos os dias"
		},
		"question_order": [
			0,
			1,
			2,
			3
		],
		"trial_type": "survey-multi-choice",
		"trial_index": 1,
		"time_elapsed": 28113,
		"internal_node_id": "0.0-1.0"
	},
	{
		"rt": 51275,
		"response": {
			"reading_habits_virtual_magazines": "Alguns dias da semana",
			"reading_habits_virtual_newspapers": "Todos os dias",
			"reading_habits_books": "Raramente",
			"reading_habits_virtual_socialmedias": "Todos os dias"
		},
		"question_order": [
			0,
			1,
			2,
			3
		],
		"trial_type": "survey-multi-choice",
		"trial_index": 2,
		"time_elapsed": 79494,
		"internal_node_id": "0.0-2.0"
	},
	{
		"rt": 14931,
		"response": {
			"reading_habits_other_which": "",
			"reading_habits_other_frequency": ""
		},
		"trial_type": "survey-text",
		"trial_index": 3,
		"time_elapsed": 94530,
		"internal_node_id": "0.0-3.0"
	}
]