[
	{
		"view_history": [
			{
				"page_index": 0,
				"viewing_time": 23301
			},
			{
				"page_index": 1,
				"viewing_time": 8530
			}
		],
		"rt": 31832,
		"trial_type": "instructions",
		"trial_index": 0,
		"time_elapsed": 31833,
		"internal_node_id": "0.0-0.0"
	},
	{
		"rt": null,
		"stimulus": "<span style= \"font-size:30px; font-family: monospace\">+</span>",
		"response": null,
		"trial_part": "fixation",
		"trial_type": "html-keyboard-response",
		"trial_index": 1,
		"time_elapsed": 32938,
		"internal_node_id": "0.0-1.0-0.0-0.0"
	},
	{
		"rt": 5889,
		"stimulus": "<span style=\"font-size:30px; font-family: monospace\">O</span>",
		"response": " ",
		"trial": "prac-sent",
		"word": "O",
		"trial_type": "html-keyboard-response",
		"trial_index": 2,
		"time_elapsed": 39079,
		"internal_node_id": "0.0-1.0-1.0"
	},
	{
		"rt": 517,
		"stimulus": "<span style=\"font-size:30px; font-family: monospace\">dia</span>",
		"response": " ",
		"trial": "prac-sent",
		"word": "dia",
		"trial_type": "html-keyboard-response",
		"trial_index": 3,
		"time_elapsed": 39849,
		"internal_node_id": "0.0-1.0-1.1"
	},
	{
		"rt": 467,
		"stimulus": "<span style=\"font-size:30px; font-family: monospace\">estará</span>",
		"response": " ",
		"trial": "prac-sent",
		"word": "estará",
		"trial_type": "html-keyboard-response",
		"trial_index": 4,
		"time_elapsed": 40568,
		"internal_node_id": "0.0-1.0-1.2"
	},
	{
		"rt": 519,
		"stimulus": "<span style=\"font-size:30px; font-family: monospace\">cheio</span>",
		"response": " ",
		"trial": "prac-sent",
		"word": "cheio",
		"trial_type": "html-keyboard-response",
		"trial_index": 5,
		"time_elapsed": 41340,
		"internal_node_id": "0.0-1.0-1.3"
	},
	{
		"rt": 356,
		"stimulus": "<span style=\"font-size:30px; font-family: monospace\">de</span>",
		"response": " ",
		"trial": "prac-sent",
		"word": "de",
		"trial_type": "html-keyboard-response",
		"trial_index": 6,
		"time_elapsed": 41949,
		"internal_node_id": "0.0-1.0-1.4"
	},
	{
		"rt": 343,
		"stimulus": "<span style=\"font-size:30px; font-family: monospace\">nuvens</span>",
		"response": " ",
		"trial": "prac-sent",
		"word": "nuvens",
		"trial_type": "html-keyboard-response",
		"trial_index": 7,
		"time_elapsed": 42544,
		"internal_node_id": "0.0-1.0-1.5"
	},
	{
		"rt": 348,
		"stimulus": "<span style=\"font-size:30px; font-family: monospace\">hoje.</span>",
		"response": " ",
		"trial": "prac-sent",
		"word": "hoje.",
		"trial_type": "html-keyboard-response",
		"trial_index": 8,
		"time_elapsed": 43144,
		"internal_node_id": "0.0-1.0-1.6"
	},
	{
		"rt": null,
		"stimulus": "<span style= \"font-size:30px; font-family: monospace\">+</span>",
		"response": null,
		"trial_part": "fixation",
		"trial_type": "html-keyboard-response",
		"trial_index": 9,
		"time_elapsed": 44398,
		"internal_node_id": "0.0-1.0-0.7-0.7"
	},
	{
		"rt": 658,
		"stimulus": "<span style=\"font-size:30px; font-family: monospace\">A</span>",
		"response": " ",
		"trial": "prac-sent",
		"word": "A",
		"trial_type": "html-keyboard-response",
		"trial_index": 10,
		"time_elapsed": 45309,
		"internal_node_id": "0.0-1.0-1.7"
	},
	{
		"rt": 391,
		"stimulus": "<span style=\"font-size:30px; font-family: monospace\">caneca</span>",
		"response": " ",
		"trial": "prac-sent",
		"word": "caneca",
		"trial_type": "html-keyboard-response",
		"trial_index": 11,
		"time_elapsed": 45952,
		"internal_node_id": "0.0-1.0-1.8"
	},
	{
		"rt": 440,
		"stimulus": "<span style=\"font-size:30px; font-family: monospace\">colorida</span>",
		"response": " ",
		"trial": "prac-sent",
		"word": "colorida",
		"trial_type": "html-keyboard-response",
		"trial_index": 12,
		"time_elapsed": 46644,
		"internal_node_id": "0.0-1.0-1.9"
	},
	{
		"rt": 415,
		"stimulus": "<span style=\"font-size:30px; font-family: monospace\">caiu</span>",
		"response": " ",
		"trial": "prac-sent",
		"word": "caiu",
		"trial_type": "html-keyboard-response",
		"trial_index": 13,
		"time_elapsed": 47311,
		"internal_node_id": "0.0-1.0-1.10"
	},
	{
		"rt": 345,
		"stimulus": "<span style=\"font-size:30px; font-family: monospace\">da</span>",
		"response": " ",
		"trial": "prac-sent",
		"word": "da",
		"trial_type": "html-keyboard-response",
		"trial_index": 14,
		"time_elapsed": 47909,
		"internal_node_id": "0.0-1.0-1.11"
	},
	{
		"rt": 273,
		"stimulus": "<span style=\"font-size:30px; font-family: monospace\">mesa</span>",
		"response": " ",
		"trial": "prac-sent",
		"word": "mesa",
		"trial_type": "html-keyboard-response",
		"trial_index": 15,
		"time_elapsed": 48434,
		"internal_node_id": "0.0-1.0-1.12"
	},
	{
		"rt": 432,
		"stimulus": "<span style=\"font-size:30px; font-family: monospace\">de</span>",
		"response": " ",
		"trial": "prac-sent",
		"word": "de",
		"trial_type": "html-keyboard-response",
		"trial_index": 16,
		"time_elapsed": 49119,
		"internal_node_id": "0.0-1.0-1.13"
	},
	{
		"rt": 269,
		"stimulus": "<span style=\"font-size:30px; font-family: monospace\">jantar.</span>",
		"response": " ",
		"trial": "prac-comp",
		"word": "jantar.",
		"trial_type": "html-keyboard-response",
		"trial_index": 17,
		"time_elapsed": 49641,
		"internal_node_id": "0.0-1.0-1.14"
	},
	{
		"rt": 8844,
		"stimulus": "<span style=\"font-size:30px; font-family: monospace\">A caneca permaneceu na mesa?</span>",
		"response": "n",
		"question": "A caneca permaneceu na mesa?",
		"answer": "não",
		"trial": "prac-comp",
		"trial_type": "html-keyboard-response",
		"trial_index": 18,
		"time_elapsed": 58738,
		"internal_node_id": "0.0-1.0-2.14-0.14",
		"accuracy": false
	},
	{
		"view_history": [
			{
				"page_index": 0,
				"viewing_time": 15989
			}
		],
		"rt": 15989,
		"trial_type": "instructions",
		"trial_index": 19,
		"time_elapsed": 75229,
		"internal_node_id": "0.0-2.0"
	},
	{
		"rt": null,
		"stimulus": "<span style= \"font-size:30px; font-family: monospace\">+</span>",
		"response": null,
		"trial_part": "fixation",
		"trial_type": "html-keyboard-response",
		"trial_index": 20,
		"time_elapsed": 76332,
		"internal_node_id": "0.0-3.0-0.0-0.0"
	},
	{
		"rt": 527,
		"stimulus": "<span style=\"font-size:30px; font-family: monospace\">O</span>",
		"response": " ",
		"trial": "exp-sent",
		"word": "O",
		"trial_type": "html-keyboard-response",
		"trial_index": 21,
		"time_elapsed": 77112,
		"internal_node_id": "0.0-3.0-1.0"
	},
	{
		"rt": 399,
		"stimulus": "<span style=\"font-size:30px; font-family: monospace\">moço</span>",
		"response": " ",
		"trial": "exp-sent",
		"word": "moço",
		"trial_type": "html-keyboard-response",
		"trial_index": 22,
		"time_elapsed": 77764,
		"internal_node_id": "0.0-3.0-1.1"
	},
	{
		"rt": 476,
		"stimulus": "<span style=\"font-size:30px; font-family: monospace\">usou</span>",
		"response": " ",
		"trial": "exp-sent",
		"word": "usou",
		"trial_type": "html-keyboard-response",
		"trial_index": 23,
		"time_elapsed": 78492,
		"internal_node_id": "0.0-3.0-1.2"
	},
	{
		"rt": 348,
		"stimulus": "<span style=\"font-size:30px; font-family: monospace\">várias</span>",
		"response": " ",
		"trial": "exp-sent",
		"word": "várias",
		"trial_type": "html-keyboard-response",
		"trial_index": 24,
		"time_elapsed": 79092,
		"internal_node_id": "0.0-3.0-1.3"
	},
	{
		"rt": 338,
		"stimulus": "<span style=\"font-size:30px; font-family: monospace\">velas</span>",
		"response": " ",
		"trial": "exp-sent",
		"word": "velas",
		"trial_type": "html-keyboard-response",
		"trial_index": 25,
		"time_elapsed": 79683,
		"internal_node_id": "0.0-3.0-1.4"
	},
	{
		"rt": 357,
		"stimulus": "<span style=\"font-size:30px; font-family: monospace\">no</span>",
		"response": " ",
		"trial": "exp-sent",
		"word": "no",
		"trial_type": "html-keyboard-response",
		"trial_index": 26,
		"time_elapsed": 80292,
		"internal_node_id": "0.0-3.0-1.5"
	},
	{
		"rt": 309,
		"stimulus": "<span style=\"font-size:30px; font-family: monospace\">enfeite</span>",
		"response": " ",
		"trial": "exp-sent",
		"word": "enfeite",
		"trial_type": "html-keyboard-response",
		"trial_index": 27,
		"time_elapsed": 80854,
		"internal_node_id": "0.0-3.0-1.6"
	},
	{
		"rt": 382,
		"stimulus": "<span style=\"font-size:30px; font-family: monospace\">de</span>",
		"response": " ",
		"trial": "exp-sent",
		"word": "de",
		"trial_type": "html-keyboard-response",
		"trial_index": 28,
		"time_elapsed": 81488,
		"internal_node_id": "0.0-3.0-1.7"
	},
	{
		"rt": 340,
		"stimulus": "<span style=\"font-size:30px; font-family: monospace\">mesa.</span>",
		"response": " ",
		"trial": "exp-sent",
		"word": "mesa.",
		"trial_type": "html-keyboard-response",
		"trial_index": 29,
		"time_elapsed": 82080,
		"internal_node_id": "0.0-3.0-1.8"
	},
	{
		"rt": null,
		"stimulus": "<span style= \"font-size:30px; font-family: monospace\">+</span>",
		"response": null,
		"trial_part": "fixation",
		"trial_type": "html-keyboard-response",
		"trial_index": 30,
		"time_elapsed": 83334,
		"internal_node_id": "0.0-3.0-0.9-0.9"
	},
	{
		"rt": 650,
		"stimulus": "<span style=\"font-size:30px; font-family: monospace\">Gostamos</span>",
		"response": " ",
		"trial": "exp-sent",
		"word": "Gostamos",
		"trial_type": "html-keyboard-response",
		"trial_index": 31,
		"time_elapsed": 84236,
		"internal_node_id": "0.0-3.0-1.9"
	},
	{
		"rt": 406,
		"stimulus": "<span style=\"font-size:30px; font-family: monospace\">de</span>",
		"response": " ",
		"trial": "exp-sent",
		"word": "de",
		"trial_type": "html-keyboard-response",
		"trial_index": 32,
		"time_elapsed": 84894,
		"internal_node_id": "0.0-3.0-1.10"
	},
	{
		"rt": 316,
		"stimulus": "<span style=\"font-size:30px; font-family: monospace\">suco</span>",
		"response": " ",
		"trial": "exp-sent",
		"word": "suco",
		"trial_type": "html-keyboard-response",
		"trial_index": 33,
		"time_elapsed": 85462,
		"internal_node_id": "0.0-3.0-1.11"
	},
	{
		"rt": 482,
		"stimulus": "<span style=\"font-size:30px; font-family: monospace\">em</span>",
		"response": " ",
		"trial": "exp-sent",
		"word": "em",
		"trial_type": "html-keyboard-response",
		"trial_index": 34,
		"time_elapsed": 86196,
		"internal_node_id": "0.0-3.0-1.12"
	},
	{
		"rt": 288,
		"stimulus": "<span style=\"font-size:30px; font-family: monospace\">garrafa</span>",
		"response": " ",
		"trial": "exp-sent",
		"word": "garrafa",
		"trial_type": "html-keyboard-response",
		"trial_index": 35,
		"time_elapsed": 86736,
		"internal_node_id": "0.0-3.0-1.13"
	},
	{
		"rt": 320,
		"stimulus": "<span style=\"font-size:30px; font-family: monospace\">de</span>",
		"response": " ",
		"trial": "exp-sent",
		"word": "de",
		"trial_type": "html-keyboard-response",
		"trial_index": 36,
		"time_elapsed": 87308,
		"internal_node_id": "0.0-3.0-1.14"
	},
	{
		"rt": 345,
		"stimulus": "<span style=\"font-size:30px; font-family: monospace\">tamanho</span>",
		"response": " ",
		"trial": "exp-sent",
		"word": "tamanho",
		"trial_type": "html-keyboard-response",
		"trial_index": 37,
		"time_elapsed": 87905,
		"internal_node_id": "0.0-3.0-1.15"
	},
	{
		"rt": 386,
		"stimulus": "<span style=\"font-size:30px; font-family: monospace\">pequeno.</span>",
		"response": " ",
		"trial": "exp-sent",
		"word": "pequeno.",
		"trial_type": "html-keyboard-response",
		"trial_index": 38,
		"time_elapsed": 88544,
		"internal_node_id": "0.0-3.0-1.16"
	},
	{
		"rt": null,
		"stimulus": "<span style= \"font-size:30px; font-family: monospace\">+</span>",
		"response": null,
		"trial_part": "fixation",
		"trial_type": "html-keyboard-response",
		"trial_index": 39,
		"time_elapsed": 89797,
		"internal_node_id": "0.0-3.0-0.17-0.17"
	},
	{
		"rt": 1741,
		"stimulus": "<span style=\"font-size:30px; font-family: monospace\">Sua</span>",
		"response": " ",
		"trial": "exp-sent",
		"word": "Sua",
		"trial_type": "html-keyboard-response",
		"trial_index": 40,
		"time_elapsed": 91790,
		"internal_node_id": "0.0-3.0-1.17"
	},
	{
		"rt": 448,
		"stimulus": "<span style=\"font-size:30px; font-family: monospace\">filha</span>",
		"response": " ",
		"trial": "exp-sent",
		"word": "filha",
		"trial_type": "html-keyboard-response",
		"trial_index": 41,
		"time_elapsed": 92491,
		"internal_node_id": "0.0-3.0-1.18"
	},
	{
		"rt": 435,
		"stimulus": "<span style=\"font-size:30px; font-family: monospace\">é</span>",
		"response": " ",
		"trial": "exp-sent",
		"word": "é",
		"trial_type": "html-keyboard-response",
		"trial_index": 42,
		"time_elapsed": 93178,
		"internal_node_id": "0.0-3.0-1.19"
	},
	{
		"rt": 322,
		"stimulus": "<span style=\"font-size:30px; font-family: monospace\">muito</span>",
		"response": " ",
		"trial": "exp-sent",
		"word": "muito",
		"trial_type": "html-keyboard-response",
		"trial_index": 43,
		"time_elapsed": 93752,
		"internal_node_id": "0.0-3.0-1.20"
	},
	{
		"rt": 326,
		"stimulus": "<span style=\"font-size:30px; font-family: monospace\">capaz</span>",
		"response": " ",
		"trial": "exp-sent",
		"word": "capaz",
		"trial_type": "html-keyboard-response",
		"trial_index": 44,
		"time_elapsed": 94329,
		"internal_node_id": "0.0-3.0-1.21"
	},
	{
		"rt": 345,
		"stimulus": "<span style=\"font-size:30px; font-family: monospace\">e</span>",
		"response": " ",
		"trial": "exp-sent",
		"word": "e",
		"trial_type": "html-keyboard-response",
		"trial_index": 45,
		"time_elapsed": 94926,
		"internal_node_id": "0.0-3.0-1.22"
	},
	{
		"rt": 741,
		"stimulus": "<span style=\"font-size:30px; font-family: monospace\">esforçada.</span>",
		"response": " ",
		"trial": "exp-sent",
		"word": "esforçada.",
		"trial_type": "html-keyboard-response",
		"trial_index": 46,
		"time_elapsed": 95919,
		"internal_node_id": "0.0-3.0-1.23"
	},
	{
		"rt": null,
		"stimulus": "<span style= \"font-size:30px; font-family: monospace\">+</span>",
		"response": null,
		"trial_part": "fixation",
		"trial_type": "html-keyboard-response",
		"trial_index": 47,
		"time_elapsed": 97172,
		"internal_node_id": "0.0-3.0-0.24-0.24"
	},
	{
		"rt": 638,
		"stimulus": "<span style=\"font-size:30px; font-family: monospace\">A</span>",
		"response": " ",
		"trial": "exp-sent",
		"word": "A",
		"trial_type": "html-keyboard-response",
		"trial_index": 48,
		"time_elapsed": 98063,
		"internal_node_id": "0.0-3.0-1.24"
	},
	{
		"rt": 366,
		"stimulus": "<span style=\"font-size:30px; font-family: monospace\">batida</span>",
		"response": " ",
		"trial": "exp-sent",
		"word": "batida",
		"trial_type": "html-keyboard-response",
		"trial_index": 49,
		"time_elapsed": 98682,
		"internal_node_id": "0.0-3.0-1.25"
	},
	{
		"rt": 703,
		"stimulus": "<span style=\"font-size:30px; font-family: monospace\">causou</span>",
		"response": " ",
		"trial": "exp-sent",
		"word": "causou",
		"trial_type": "html-keyboard-response",
		"trial_index": 50,
		"time_elapsed": 99638,
		"internal_node_id": "0.0-3.0-1.26"
	},
	{
		"rt": 379,
		"stimulus": "<span style=\"font-size:30px; font-family: monospace\">muita</span>",
		"response": " ",
		"trial": "exp-sent",
		"word": "muita",
		"trial_type": "html-keyboard-response",
		"trial_index": 51,
		"time_elapsed": 100268,
		"internal_node_id": "0.0-3.0-1.27"
	},
	{
		"rt": 372,
		"stimulus": "<span style=\"font-size:30px; font-family: monospace\">confusão</span>",
		"response": " ",
		"trial": "exp-sent",
		"word": "confusão",
		"trial_type": "html-keyboard-response",
		"trial_index": 52,
		"time_elapsed": 100893,
		"internal_node_id": "0.0-3.0-1.28"
	},
	{
		"rt": 634,
		"stimulus": "<span style=\"font-size:30px; font-family: monospace\">na</span>",
		"response": " ",
		"trial": "exp-sent",
		"word": "na",
		"trial_type": "html-keyboard-response",
		"trial_index": 53,
		"time_elapsed": 101779,
		"internal_node_id": "0.0-3.0-1.29"
	},
	{
		"rt": 450,
		"stimulus": "<span style=\"font-size:30px; font-family: monospace\">estrada.</span>",
		"response": " ",
		"trial": "exp-sent",
		"word": "estrada.",
		"trial_type": "html-keyboard-response",
		"trial_index": 54,
		"time_elapsed": 102481,
		"internal_node_id": "0.0-3.0-1.30"
	},
	{
		"rt": null,
		"stimulus": "<span style= \"font-size:30px; font-family: monospace\">+</span>",
		"response": null,
		"trial_part": "fixation",
		"trial_type": "html-keyboard-response",
		"trial_index": 55,
		"time_elapsed": 103735,
		"internal_node_id": "0.0-3.0-0.31-0.31"
	},
	{
		"rt": 454,
		"stimulus": "<span style=\"font-size:30px; font-family: monospace\">Eu</span>",
		"response": " ",
		"trial": "exp-sent",
		"word": "Eu",
		"trial_type": "html-keyboard-response",
		"trial_index": 56,
		"time_elapsed": 104441,
		"internal_node_id": "0.0-3.0-1.31"
	},
	{
		"rt": 516,
		"stimulus": "<span style=\"font-size:30px; font-family: monospace\">cozinhei</span>",
		"response": " ",
		"trial": "exp-sent",
		"word": "cozinhei",
		"trial_type": "html-keyboard-response",
		"trial_index": 57,
		"time_elapsed": 105209,
		"internal_node_id": "0.0-3.0-1.32"
	},
	{
		"rt": 289,
		"stimulus": "<span style=\"font-size:30px; font-family: monospace\">um</span>",
		"response": " ",
		"trial": "exp-sent",
		"word": "um",
		"trial_type": "html-keyboard-response",
		"trial_index": 58,
		"time_elapsed": 105750,
		"internal_node_id": "0.0-3.0-1.33"
	},
	{
		"rt": 234,
		"stimulus": "<span style=\"font-size:30px; font-family: monospace\">almoço</span>",
		"response": " ",
		"trial": "exp-sent",
		"word": "almoço",
		"trial_type": "html-keyboard-response",
		"trial_index": 59,
		"time_elapsed": 106236,
		"internal_node_id": "0.0-3.0-1.34"
	},
	{
		"rt": 277,
		"stimulus": "<span style=\"font-size:30px; font-family: monospace\">nutritivo</span>",
		"response": " ",
		"trial": "exp-sent",
		"word": "nutritivo",
		"trial_type": "html-keyboard-response",
		"trial_index": 60,
		"time_elapsed": 106765,
		"internal_node_id": "0.0-3.0-1.35"
	},
	{
		"rt": 322,
		"stimulus": "<span style=\"font-size:30px; font-family: monospace\">para</span>",
		"response": " ",
		"trial": "exp-sent",
		"word": "para",
		"trial_type": "html-keyboard-response",
		"trial_index": 61,
		"time_elapsed": 107339,
		"internal_node_id": "0.0-3.0-1.36"
	},
	{
		"rt": 300,
		"stimulus": "<span style=\"font-size:30px; font-family: monospace\">hoje.</span>",
		"response": " ",
		"trial": "comp",
		"word": "hoje.",
		"trial_type": "html-keyboard-response",
		"trial_index": 62,
		"time_elapsed": 107891,
		"internal_node_id": "0.0-3.0-1.37"
	},
	{
		"rt": 2589,
		"stimulus": "<span style=\"font-size:30px; font-family: monospace\">O almoço era nutritivo?</span>",
		"response": "s",
		"question": "O almoço era nutritivo?",
		"answer": "sim",
		"trial": "comp",
		"trial_type": "html-keyboard-response",
		"trial_index": 63,
		"time_elapsed": 110733,
		"internal_node_id": "0.0-3.0-2.37-0.37",
		"accuracy": false
	},
	{
		"rt": null,
		"stimulus": "<span style= \"font-size:30px; font-family: monospace\">+</span>",
		"response": null,
		"trial_part": "fixation",
		"trial_type": "html-keyboard-response",
		"trial_index": 64,
		"time_elapsed": 112236,
		"internal_node_id": "0.0-3.0-0.38-0.38"
	},
	{
		"rt": 603,
		"stimulus": "<span style=\"font-size:30px; font-family: monospace\">No</span>",
		"response": " ",
		"trial": "exp-sent",
		"word": "No",
		"trial_type": "html-keyboard-response",
		"trial_index": 65,
		"time_elapsed": 113091,
		"internal_node_id": "0.0-3.0-1.38"
	},
	{
		"rt": 506,
		"stimulus": "<span style=\"font-size:30px; font-family: monospace\">passado</span>",
		"response": " ",
		"trial": "exp-sent",
		"word": "passado",
		"trial_type": "html-keyboard-response",
		"trial_index": 66,
		"time_elapsed": 113849,
		"internal_node_id": "0.0-3.0-1.39"
	},
	{
		"rt": 367,
		"stimulus": "<span style=\"font-size:30px; font-family: monospace\">houve</span>",
		"response": " ",
		"trial": "exp-sent",
		"word": "houve",
		"trial_type": "html-keyboard-response",
		"trial_index": 67,
		"time_elapsed": 114469,
		"internal_node_id": "0.0-3.0-1.40"
	},
	{
		"rt": 374,
		"stimulus": "<span style=\"font-size:30px; font-family: monospace\">uma</span>",
		"response": " ",
		"trial": "exp-sent",
		"word": "uma",
		"trial_type": "html-keyboard-response",
		"trial_index": 68,
		"time_elapsed": 115095,
		"internal_node_id": "0.0-3.0-1.41"
	},
	{
		"rt": 285,
		"stimulus": "<span style=\"font-size:30px; font-family: monospace\">rebelião</span>",
		"response": " ",
		"trial": "exp-sent",
		"word": "rebelião",
		"trial_type": "html-keyboard-response",
		"trial_index": 69,
		"time_elapsed": 115632,
		"internal_node_id": "0.0-3.0-1.42"
	},
	{
		"rt": 366,
		"stimulus": "<span style=\"font-size:30px; font-family: monospace\">nesta</span>",
		"response": " ",
		"trial": "exp-sent",
		"word": "nesta",
		"trial_type": "html-keyboard-response",
		"trial_index": 70,
		"time_elapsed": 116250,
		"internal_node_id": "0.0-3.0-1.43"
	},
	{
		"rt": 304,
		"stimulus": "<span style=\"font-size:30px; font-family: monospace\">cidade.</span>",
		"response": " ",
		"trial": "exp-sent",
		"word": "cidade.",
		"trial_type": "html-keyboard-response",
		"trial_index": 71,
		"time_elapsed": 116806,
		"internal_node_id": "0.0-3.0-1.44"
	},
	{
		"rt": null,
		"stimulus": "<span style= \"font-size:30px; font-family: monospace\">+</span>",
		"response": null,
		"trial_part": "fixation",
		"trial_type": "html-keyboard-response",
		"trial_index": 72,
		"time_elapsed": 118059,
		"internal_node_id": "0.0-3.0-0.45-0.45"
	},
	{
		"rt": 256,
		"stimulus": "<span style=\"font-size:30px; font-family: monospace\">Ele</span>",
		"response": " ",
		"trial": "exp-sent",
		"word": "Ele",
		"trial_type": "html-keyboard-response",
		"trial_index": 73,
		"time_elapsed": 118567,
		"internal_node_id": "0.0-3.0-1.45"
	},
	{
		"rt": 340,
		"stimulus": "<span style=\"font-size:30px; font-family: monospace\">fundou</span>",
		"response": " ",
		"trial": "exp-sent",
		"word": "fundou",
		"trial_type": "html-keyboard-response",
		"trial_index": 74,
		"time_elapsed": 119160,
		"internal_node_id": "0.0-3.0-1.46"
	},
	{
		"rt": 391,
		"stimulus": "<span style=\"font-size:30px; font-family: monospace\">uma</span>",
		"response": " ",
		"trial": "exp-sent",
		"word": "uma",
		"trial_type": "html-keyboard-response",
		"trial_index": 75,
		"time_elapsed": 119802,
		"internal_node_id": "0.0-3.0-1.47"
	},
	{
		"rt": 320,
		"stimulus": "<span style=\"font-size:30px; font-family: monospace\">empresa</span>",
		"response": " ",
		"trial": "exp-sent",
		"word": "empresa",
		"trial_type": "html-keyboard-response",
		"trial_index": 76,
		"time_elapsed": 120374,
		"internal_node_id": "0.0-3.0-1.48"
	},
	{
		"rt": 393,
		"stimulus": "<span style=\"font-size:30px; font-family: monospace\">privada</span>",
		"response": " ",
		"trial": "exp-sent",
		"word": "privada",
		"trial_type": "html-keyboard-response",
		"trial_index": 77,
		"time_elapsed": 121020,
		"internal_node_id": "0.0-3.0-1.49"
	},
	{
		"rt": 427,
		"stimulus": "<span style=\"font-size:30px; font-family: monospace\">sem</span>",
		"response": " ",
		"trial": "exp-sent",
		"word": "sem",
		"trial_type": "html-keyboard-response",
		"trial_index": 78,
		"time_elapsed": 121698,
		"internal_node_id": "0.0-3.0-1.50"
	},
	{
		"rt": 301,
		"stimulus": "<span style=\"font-size:30px; font-family: monospace\">ajuda.</span>",
		"response": " ",
		"trial": "exp-sent",
		"word": "ajuda.",
		"trial_type": "html-keyboard-response",
		"trial_index": 79,
		"time_elapsed": 122251,
		"internal_node_id": "0.0-3.0-1.51"
	},
	{
		"rt": null,
		"stimulus": "<span style= \"font-size:30px; font-family: monospace\">+</span>",
		"response": null,
		"trial_part": "fixation",
		"trial_type": "html-keyboard-response",
		"trial_index": 80,
		"time_elapsed": 123505,
		"internal_node_id": "0.0-3.0-0.52-0.52"
	},
	{
		"rt": 319,
		"stimulus": "<span style=\"font-size:30px; font-family: monospace\">As</span>",
		"response": " ",
		"trial": "exp-sent",
		"word": "As",
		"trial_type": "html-keyboard-response",
		"trial_index": 81,
		"time_elapsed": 124076,
		"internal_node_id": "0.0-3.0-1.52"
	},
	{
		"rt": 365,
		"stimulus": "<span style=\"font-size:30px; font-family: monospace\">meninas</span>",
		"response": " ",
		"trial": "exp-sent",
		"word": "meninas",
		"trial_type": "html-keyboard-response",
		"trial_index": 82,
		"time_elapsed": 124693,
		"internal_node_id": "0.0-3.0-1.53"
	},
	{
		"rt": 352,
		"stimulus": "<span style=\"font-size:30px; font-family: monospace\">encontraram</span>",
		"response": " ",
		"trial": "exp-sent",
		"word": "encontraram",
		"trial_type": "html-keyboard-response",
		"trial_index": 83,
		"time_elapsed": 125297,
		"internal_node_id": "0.0-3.0-1.54"
	},
	{
		"rt": 469,
		"stimulus": "<span style=\"font-size:30px; font-family: monospace\">um</span>",
		"response": " ",
		"trial": "exp-sent",
		"word": "um",
		"trial_type": "html-keyboard-response",
		"trial_index": 84,
		"time_elapsed": 126018,
		"internal_node_id": "0.0-3.0-1.55"
	},
	{
		"rt": 359,
		"stimulus": "<span style=\"font-size:30px; font-family: monospace\">rato</span>",
		"response": " ",
		"trial": "exp-sent",
		"word": "rato",
		"trial_type": "html-keyboard-response",
		"trial_index": 85,
		"time_elapsed": 126629,
		"internal_node_id": "0.0-3.0-1.56"
	},
	{
		"rt": 290,
		"stimulus": "<span style=\"font-size:30px; font-family: monospace\">dentro</span>",
		"response": " ",
		"trial": "exp-sent",
		"word": "dentro",
		"trial_type": "html-keyboard-response",
		"trial_index": 86,
		"time_elapsed": 127171,
		"internal_node_id": "0.0-3.0-1.57"
	},
	{
		"rt": 331,
		"stimulus": "<span style=\"font-size:30px; font-family: monospace\">de</span>",
		"response": " ",
		"trial": "exp-sent",
		"word": "de",
		"trial_type": "html-keyboard-response",
		"trial_index": 87,
		"time_elapsed": 127754,
		"internal_node_id": "0.0-3.0-1.58"
	},
	{
		"rt": 427,
		"stimulus": "<span style=\"font-size:30px; font-family: monospace\">casa.</span>",
		"response": " ",
		"trial": "exp-sent",
		"word": "casa.",
		"trial_type": "html-keyboard-response",
		"trial_index": 88,
		"time_elapsed": 128433,
		"internal_node_id": "0.0-3.0-1.59"
	},
	{
		"rt": null,
		"stimulus": "<span style= \"font-size:30px; font-family: monospace\">+</span>",
		"response": null,
		"trial_part": "fixation",
		"trial_type": "html-keyboard-response",
		"trial_index": 89,
		"time_elapsed": 129687,
		"internal_node_id": "0.0-3.0-0.60-0.60"
	},
	{
		"rt": 350,
		"stimulus": "<span style=\"font-size:30px; font-family: monospace\">O</span>",
		"response": " ",
		"trial": "exp-sent",
		"word": "O",
		"trial_type": "html-keyboard-response",
		"trial_index": 90,
		"time_elapsed": 130288,
		"internal_node_id": "0.0-3.0-1.60"
	},
	{
		"rt": 325,
		"stimulus": "<span style=\"font-size:30px; font-family: monospace\">texto</span>",
		"response": " ",
		"trial": "exp-sent",
		"word": "texto",
		"trial_type": "html-keyboard-response",
		"trial_index": 91,
		"time_elapsed": 130866,
		"internal_node_id": "0.0-3.0-1.61"
	},
	{
		"rt": 315,
		"stimulus": "<span style=\"font-size:30px; font-family: monospace\">tinha</span>",
		"response": " ",
		"trial": "exp-sent",
		"word": "tinha",
		"trial_type": "html-keyboard-response",
		"trial_index": 92,
		"time_elapsed": 131433,
		"internal_node_id": "0.0-3.0-1.62"
	},
	{
		"rt": 287,
		"stimulus": "<span style=\"font-size:30px; font-family: monospace\">ideias</span>",
		"response": " ",
		"trial": "exp-sent",
		"word": "ideias",
		"trial_type": "html-keyboard-response",
		"trial_index": 93,
		"time_elapsed": 131971,
		"internal_node_id": "0.0-3.0-1.63"
	},
	{
		"rt": 301,
		"stimulus": "<span style=\"font-size:30px; font-family: monospace\">vagas</span>",
		"response": " ",
		"trial": "exp-sent",
		"word": "vagas",
		"trial_type": "html-keyboard-response",
		"trial_index": 94,
		"time_elapsed": 132524,
		"internal_node_id": "0.0-3.0-1.64"
	},
	{
		"rt": 344,
		"stimulus": "<span style=\"font-size:30px; font-family: monospace\">e</span>",
		"response": " ",
		"trial": "exp-sent",
		"word": "e",
		"trial_type": "html-keyboard-response",
		"trial_index": 95,
		"time_elapsed": 133120,
		"internal_node_id": "0.0-3.0-1.65"
	},
	{
		"rt": 272,
		"stimulus": "<span style=\"font-size:30px; font-family: monospace\">confusas.</span>",
		"response": " ",
		"trial": "exp-sent",
		"word": "confusas.",
		"trial_type": "html-keyboard-response",
		"trial_index": 96,
		"time_elapsed": 133645,
		"internal_node_id": "0.0-3.0-1.66"
	},
	{
		"rt": null,
		"stimulus": "<span style= \"font-size:30px; font-family: monospace\">+</span>",
		"response": null,
		"trial_part": "fixation",
		"trial_type": "html-keyboard-response",
		"trial_index": 97,
		"time_elapsed": 134898,
		"internal_node_id": "0.0-3.0-0.67-0.67"
	},
	{
		"rt": 362,
		"stimulus": "<span style=\"font-size:30px; font-family: monospace\">As</span>",
		"response": " ",
		"trial": "exp-sent",
		"word": "As",
		"trial_type": "html-keyboard-response",
		"trial_index": 98,
		"time_elapsed": 135513,
		"internal_node_id": "0.0-3.0-1.67"
	},
	{
		"rt": 338,
		"stimulus": "<span style=\"font-size:30px; font-family: monospace\">crianças</span>",
		"response": " ",
		"trial": "exp-sent",
		"word": "crianças",
		"trial_type": "html-keyboard-response",
		"trial_index": 99,
		"time_elapsed": 136103,
		"internal_node_id": "0.0-3.0-1.68"
	},
	{
		"rt": 510,
		"stimulus": "<span style=\"font-size:30px; font-family: monospace\">viram</span>",
		"response": " ",
		"trial": "exp-sent",
		"word": "viram",
		"trial_type": "html-keyboard-response",
		"trial_index": 100,
		"time_elapsed": 136865,
		"internal_node_id": "0.0-3.0-1.69"
	},
	{
		"rt": 343,
		"stimulus": "<span style=\"font-size:30px; font-family: monospace\">a</span>",
		"response": " ",
		"trial": "exp-sent",
		"word": "a",
		"trial_type": "html-keyboard-response",
		"trial_index": 101,
		"time_elapsed": 137460,
		"internal_node_id": "0.0-3.0-1.70"
	},
	{
		"rt": 268,
		"stimulus": "<span style=\"font-size:30px; font-family: monospace\">acrobata</span>",
		"response": " ",
		"trial": "exp-sent",
		"word": "acrobata",
		"trial_type": "html-keyboard-response",
		"trial_index": 102,
		"time_elapsed": 137981,
		"internal_node_id": "0.0-3.0-1.71"
	},
	{
		"rt": 382,
		"stimulus": "<span style=\"font-size:30px; font-family: monospace\">talentosa</span>",
		"response": " ",
		"trial": "exp-sent",
		"word": "talentosa",
		"trial_type": "html-keyboard-response",
		"trial_index": 103,
		"time_elapsed": 138615,
		"internal_node_id": "0.0-3.0-1.72"
	},
	{
		"rt": 355,
		"stimulus": "<span style=\"font-size:30px; font-family: monospace\">no</span>",
		"response": " ",
		"trial": "exp-sent",
		"word": "no",
		"trial_type": "html-keyboard-response",
		"trial_index": 104,
		"time_elapsed": 139223,
		"internal_node_id": "0.0-3.0-1.73"
	},
	{
		"rt": 329,
		"stimulus": "<span style=\"font-size:30px; font-family: monospace\">circo.</span>",
		"response": " ",
		"trial": "comp",
		"word": "circo.",
		"trial_type": "html-keyboard-response",
		"trial_index": 105,
		"time_elapsed": 139803,
		"internal_node_id": "0.0-3.0-1.74"
	},
	{
		"rt": 2491,
		"stimulus": "<span style=\"font-size:30px; font-family: monospace\">As crianças viram o palhaço no circo?</span>",
		"response": "n",
		"question": "As crianças viram o palhaço no circo?",
		"answer": "não",
		"trial": "comp",
		"trial_type": "html-keyboard-response",
		"trial_index": 106,
		"time_elapsed": 142547,
		"internal_node_id": "0.0-3.0-2.74-0.74",
		"accuracy": false
	},
	{
		"rt": null,
		"stimulus": "<span style= \"font-size:30px; font-family: monospace\">+</span>",
		"response": null,
		"trial_part": "fixation",
		"trial_type": "html-keyboard-response",
		"trial_index": 107,
		"time_elapsed": 144051,
		"internal_node_id": "0.0-3.0-0.75-0.75"
	},
	{
		"rt": 486,
		"stimulus": "<span style=\"font-size:30px; font-family: monospace\">Ganhamos</span>",
		"response": " ",
		"trial": "exp-sent",
		"word": "Ganhamos",
		"trial_type": "html-keyboard-response",
		"trial_index": 108,
		"time_elapsed": 144789,
		"internal_node_id": "0.0-3.0-1.75"
	},
	{
		"rt": 399,
		"stimulus": "<span style=\"font-size:30px; font-family: monospace\">passagem</span>",
		"response": " ",
		"trial": "exp-sent",
		"word": "passagem",
		"trial_type": "html-keyboard-response",
		"trial_index": 109,
		"time_elapsed": 145440,
		"internal_node_id": "0.0-3.0-1.76"
	},
	{
		"rt": 315,
		"stimulus": "<span style=\"font-size:30px; font-family: monospace\">para</span>",
		"response": " ",
		"trial": "exp-sent",
		"word": "para",
		"trial_type": "html-keyboard-response",
		"trial_index": 110,
		"time_elapsed": 146007,
		"internal_node_id": "0.0-3.0-1.77"
	},
	{
		"rt": 243,
		"stimulus": "<span style=\"font-size:30px; font-family: monospace\">uma</span>",
		"response": " ",
		"trial": "exp-sent",
		"word": "uma",
		"trial_type": "html-keyboard-response",
		"trial_index": 111,
		"time_elapsed": 146503,
		"internal_node_id": "0.0-3.0-1.78"
	},
	{
		"rt": 177,
		"stimulus": "<span style=\"font-size:30px; font-family: monospace\">viagem</span>",
		"response": " ",
		"trial": "exp-sent",
		"word": "viagem",
		"trial_type": "html-keyboard-response",
		"trial_index": 112,
		"time_elapsed": 146932,
		"internal_node_id": "0.0-3.0-1.79"
	},
	{
		"rt": 247,
		"stimulus": "<span style=\"font-size:30px; font-family: monospace\">de</span>",
		"response": " ",
		"trial": "exp-sent",
		"word": "de",
		"trial_type": "html-keyboard-response",
		"trial_index": 113,
		"time_elapsed": 147431,
		"internal_node_id": "0.0-3.0-1.80"
	},
	{
		"rt": 217,
		"stimulus": "<span style=\"font-size:30px; font-family: monospace\">férias.</span>",
		"response": " ",
		"trial": "exp-sent",
		"word": "férias.",
		"trial_type": "html-keyboard-response",
		"trial_index": 114,
		"time_elapsed": 147900,
		"internal_node_id": "0.0-3.0-1.81"
	},
	{
		"rt": null,
		"stimulus": "<span style= \"font-size:30px; font-family: monospace\">+</span>",
		"response": null,
		"trial_part": "fixation",
		"trial_type": "html-keyboard-response",
		"trial_index": 115,
		"time_elapsed": 149153,
		"internal_node_id": "0.0-3.0-0.82-0.82"
	},
	{
		"rt": 562,
		"stimulus": "<span style=\"font-size:30px; font-family: monospace\">Caiu</span>",
		"response": " ",
		"trial": "exp-sent",
		"word": "Caiu",
		"trial_type": "html-keyboard-response",
		"trial_index": 116,
		"time_elapsed": 149967,
		"internal_node_id": "0.0-3.0-1.82"
	},
	{
		"rt": 239,
		"stimulus": "<span style=\"font-size:30px; font-family: monospace\">algo</span>",
		"response": " ",
		"trial": "exp-sent",
		"word": "algo",
		"trial_type": "html-keyboard-response",
		"trial_index": 117,
		"time_elapsed": 150458,
		"internal_node_id": "0.0-3.0-1.83"
	},
	{
		"rt": 240,
		"stimulus": "<span style=\"font-size:30px; font-family: monospace\">no</span>",
		"response": " ",
		"trial": "exp-sent",
		"word": "no",
		"trial_type": "html-keyboard-response",
		"trial_index": 118,
		"time_elapsed": 150950,
		"internal_node_id": "0.0-3.0-1.84"
	},
	{
		"rt": 202,
		"stimulus": "<span style=\"font-size:30px; font-family: monospace\">meu</span>",
		"response": " ",
		"trial": "exp-sent",
		"word": "meu",
		"trial_type": "html-keyboard-response",
		"trial_index": 119,
		"time_elapsed": 151406,
		"internal_node_id": "0.0-3.0-1.85"
	},
	{
		"rt": 315,
		"stimulus": "<span style=\"font-size:30px; font-family: monospace\">olho</span>",
		"response": " ",
		"trial": "exp-sent",
		"word": "olho",
		"trial_type": "html-keyboard-response",
		"trial_index": 120,
		"time_elapsed": 151974,
		"internal_node_id": "0.0-3.0-1.86"
	},
	{
		"rt": 989,
		"stimulus": "<span style=\"font-size:30px; font-family: monospace\">ontem</span>",
		"response": " ",
		"trial": "exp-sent",
		"word": "ontem",
		"trial_type": "html-keyboard-response",
		"trial_index": 121,
		"time_elapsed": 153216,
		"internal_node_id": "0.0-3.0-1.87"
	},
	{
		"rt": 416,
		"stimulus": "<span style=\"font-size:30px; font-family: monospace\">de</span>",
		"response": " ",
		"trial": "exp-sent",
		"word": "de",
		"trial_type": "html-keyboard-response",
		"trial_index": 122,
		"time_elapsed": 153885,
		"internal_node_id": "0.0-3.0-1.88"
	},
	{
		"rt": 291,
		"stimulus": "<span style=\"font-size:30px; font-family: monospace\">tarde.</span>",
		"response": " ",
		"trial": "exp-sent",
		"word": "tarde.",
		"trial_type": "html-keyboard-response",
		"trial_index": 123,
		"time_elapsed": 154427,
		"internal_node_id": "0.0-3.0-1.89"
	},
	{
		"rt": null,
		"stimulus": "<span style= \"font-size:30px; font-family: monospace\">+</span>",
		"response": null,
		"trial_part": "fixation",
		"trial_type": "html-keyboard-response",
		"trial_index": 124,
		"time_elapsed": 155681,
		"internal_node_id": "0.0-3.0-0.90-0.90"
	},
	{
		"rt": 562,
		"stimulus": "<span style=\"font-size:30px; font-family: monospace\">Não</span>",
		"response": " ",
		"trial": "exp-sent",
		"word": "Não",
		"trial_type": "html-keyboard-response",
		"trial_index": 125,
		"time_elapsed": 156494,
		"internal_node_id": "0.0-3.0-1.90"
	},
	{
		"rt": 196,
		"stimulus": "<span style=\"font-size:30px; font-family: monospace\">havia</span>",
		"response": " ",
		"trial": "exp-sent",
		"word": "havia",
		"trial_type": "html-keyboard-response",
		"trial_index": 126,
		"time_elapsed": 156943,
		"internal_node_id": "0.0-3.0-1.91"
	},
	{
		"rt": 209,
		"stimulus": "<span style=\"font-size:30px; font-family: monospace\">mais</span>",
		"response": " ",
		"trial": "exp-sent",
		"word": "mais",
		"trial_type": "html-keyboard-response",
		"trial_index": 127,
		"time_elapsed": 157404,
		"internal_node_id": "0.0-3.0-1.92"
	},
	{
		"rt": 210,
		"stimulus": "<span style=\"font-size:30px; font-family: monospace\">nenhum</span>",
		"response": " ",
		"trial": "exp-sent",
		"word": "nenhum",
		"trial_type": "html-keyboard-response",
		"trial_index": 128,
		"time_elapsed": 157866,
		"internal_node_id": "0.0-3.0-1.93"
	},
	{
		"rt": 255,
		"stimulus": "<span style=\"font-size:30px; font-family: monospace\">ingresso</span>",
		"response": " ",
		"trial": "exp-sent",
		"word": "ingresso",
		"trial_type": "html-keyboard-response",
		"trial_index": 129,
		"time_elapsed": 158373,
		"internal_node_id": "0.0-3.0-1.94"
	},
	{
		"rt": 271,
		"stimulus": "<span style=\"font-size:30px; font-family: monospace\">para</span>",
		"response": " ",
		"trial": "exp-sent",
		"word": "para",
		"trial_type": "html-keyboard-response",
		"trial_index": 130,
		"time_elapsed": 158896,
		"internal_node_id": "0.0-3.0-1.95"
	},
	{
		"rt": 270,
		"stimulus": "<span style=\"font-size:30px; font-family: monospace\">o</span>",
		"response": " ",
		"trial": "exp-sent",
		"word": "o",
		"trial_type": "html-keyboard-response",
		"trial_index": 131,
		"time_elapsed": 159418,
		"internal_node_id": "0.0-3.0-1.96"
	},
	{
		"rt": 252,
		"stimulus": "<span style=\"font-size:30px; font-family: monospace\">evento.</span>",
		"response": " ",
		"trial": "exp-sent",
		"word": "evento.",
		"trial_type": "html-keyboard-response",
		"trial_index": 132,
		"time_elapsed": 159922,
		"internal_node_id": "0.0-3.0-1.97"
	},
	{
		"rt": null,
		"stimulus": "<span style= \"font-size:30px; font-family: monospace\">+</span>",
		"response": null,
		"trial_part": "fixation",
		"trial_type": "html-keyboard-response",
		"trial_index": 133,
		"time_elapsed": 161176,
		"internal_node_id": "0.0-3.0-0.98-0.98"
	},
	{
		"rt": 526,
		"stimulus": "<span style=\"font-size:30px; font-family: monospace\">A</span>",
		"response": " ",
		"trial": "exp-sent",
		"word": "A",
		"trial_type": "html-keyboard-response",
		"trial_index": 134,
		"time_elapsed": 161954,
		"internal_node_id": "0.0-3.0-1.98"
	},
	{
		"rt": 289,
		"stimulus": "<span style=\"font-size:30px; font-family: monospace\">médica</span>",
		"response": " ",
		"trial": "exp-sent",
		"word": "médica",
		"trial_type": "html-keyboard-response",
		"trial_index": 135,
		"time_elapsed": 162495,
		"internal_node_id": "0.0-3.0-1.99"
	},
	{
		"rt": 434,
		"stimulus": "<span style=\"font-size:30px; font-family: monospace\">descobriu</span>",
		"response": " ",
		"trial": "exp-sent",
		"word": "descobriu",
		"trial_type": "html-keyboard-response",
		"trial_index": 136,
		"time_elapsed": 163181,
		"internal_node_id": "0.0-3.0-1.100"
	},
	{
		"rt": 267,
		"stimulus": "<span style=\"font-size:30px; font-family: monospace\">uma</span>",
		"response": " ",
		"trial": "exp-sent",
		"word": "uma",
		"trial_type": "html-keyboard-response",
		"trial_index": 137,
		"time_elapsed": 163701,
		"internal_node_id": "0.0-3.0-1.101"
	},
	{
		"rt": 223,
		"stimulus": "<span style=\"font-size:30px; font-family: monospace\">cura</span>",
		"response": " ",
		"trial": "exp-sent",
		"word": "cura",
		"trial_type": "html-keyboard-response",
		"trial_index": 138,
		"time_elapsed": 164176,
		"internal_node_id": "0.0-3.0-1.102"
	},
	{
		"rt": 254,
		"stimulus": "<span style=\"font-size:30px; font-family: monospace\">para</span>",
		"response": " ",
		"trial": "exp-sent",
		"word": "para",
		"trial_type": "html-keyboard-response",
		"trial_index": 139,
		"time_elapsed": 164682,
		"internal_node_id": "0.0-3.0-1.103"
	},
	{
		"rt": 241,
		"stimulus": "<span style=\"font-size:30px; font-family: monospace\">a</span>",
		"response": " ",
		"trial": "exp-sent",
		"word": "a",
		"trial_type": "html-keyboard-response",
		"trial_index": 140,
		"time_elapsed": 165175,
		"internal_node_id": "0.0-3.0-1.104"
	},
	{
		"rt": 312,
		"stimulus": "<span style=\"font-size:30px; font-family: monospace\">doença.</span>",
		"response": " ",
		"trial": "exp-sent",
		"word": "doença.",
		"trial_type": "html-keyboard-response",
		"trial_index": 141,
		"time_elapsed": 165739,
		"internal_node_id": "0.0-3.0-1.105"
	},
	{
		"rt": null,
		"stimulus": "<span style= \"font-size:30px; font-family: monospace\">+</span>",
		"response": null,
		"trial_part": "fixation",
		"trial_type": "html-keyboard-response",
		"trial_index": 142,
		"time_elapsed": 166993,
		"internal_node_id": "0.0-3.0-0.106-0.106"
	},
	{
		"rt": 541,
		"stimulus": "<span style=\"font-size:30px; font-family: monospace\">O</span>",
		"response": " ",
		"trial": "exp-sent",
		"word": "O",
		"trial_type": "html-keyboard-response",
		"trial_index": 143,
		"time_elapsed": 167786,
		"internal_node_id": "0.0-3.0-1.106"
	},
	{
		"rt": 438,
		"stimulus": "<span style=\"font-size:30px; font-family: monospace\">menino</span>",
		"response": " ",
		"trial": "exp-sent",
		"word": "menino",
		"trial_type": "html-keyboard-response",
		"trial_index": 144,
		"time_elapsed": 168475,
		"internal_node_id": "0.0-3.0-1.107"
	},
	{
		"rt": 286,
		"stimulus": "<span style=\"font-size:30px; font-family: monospace\">riscou</span>",
		"response": " ",
		"trial": "exp-sent",
		"word": "riscou",
		"trial_type": "html-keyboard-response",
		"trial_index": 145,
		"time_elapsed": 169013,
		"internal_node_id": "0.0-3.0-1.108"
	},
	{
		"rt": 241,
		"stimulus": "<span style=\"font-size:30px; font-family: monospace\">o</span>",
		"response": " ",
		"trial": "exp-sent",
		"word": "o",
		"trial_type": "html-keyboard-response",
		"trial_index": 146,
		"time_elapsed": 169506,
		"internal_node_id": "0.0-3.0-1.109"
	},
	{
		"rt": 285,
		"stimulus": "<span style=\"font-size:30px; font-family: monospace\">caderno</span>",
		"response": " ",
		"trial": "exp-sent",
		"word": "caderno",
		"trial_type": "html-keyboard-response",
		"trial_index": 147,
		"time_elapsed": 170043,
		"internal_node_id": "0.0-3.0-1.110"
	},
	{
		"rt": 265,
		"stimulus": "<span style=\"font-size:30px; font-family: monospace\">com</span>",
		"response": " ",
		"trial": "exp-sent",
		"word": "com",
		"trial_type": "html-keyboard-response",
		"trial_index": 148,
		"time_elapsed": 170560,
		"internal_node_id": "0.0-3.0-1.111"
	},
	{
		"rt": 230,
		"stimulus": "<span style=\"font-size:30px; font-family: monospace\">a</span>",
		"response": " ",
		"trial": "exp-sent",
		"word": "a",
		"trial_type": "html-keyboard-response",
		"trial_index": 149,
		"time_elapsed": 171043,
		"internal_node_id": "0.0-3.0-1.112"
	},
	{
		"rt": 187,
		"stimulus": "<span style=\"font-size:30px; font-family: monospace\">caneta.</span>",
		"response": " ",
		"trial": "comp",
		"word": "caneta.",
		"trial_type": "html-keyboard-response",
		"trial_index": 150,
		"time_elapsed": 171481,
		"internal_node_id": "0.0-3.0-1.113"
	},
	{
		"rt": 3058,
		"stimulus": "<span style=\"font-size:30px; font-family: monospace\">O menino riscou a parede com a caneta?</span>",
		"response": "n",
		"question": "O menino riscou a parede com a caneta?",
		"answer": "não",
		"trial": "comp",
		"trial_type": "html-keyboard-response",
		"trial_index": 151,
		"time_elapsed": 174792,
		"internal_node_id": "0.0-3.0-2.113-0.113",
		"accuracy": false
	},
	{
		"rt": null,
		"stimulus": "<span style= \"font-size:30px; font-family: monospace\">+</span>",
		"response": null,
		"trial_part": "fixation",
		"trial_type": "html-keyboard-response",
		"trial_index": 152,
		"time_elapsed": 176295,
		"internal_node_id": "0.0-3.0-0.114-0.114"
	},
	{
		"rt": 362,
		"stimulus": "<span style=\"font-size:30px; font-family: monospace\">O</span>",
		"response": " ",
		"trial": "exp-sent",
		"word": "O",
		"trial_type": "html-keyboard-response",
		"trial_index": 153,
		"time_elapsed": 176909,
		"internal_node_id": "0.0-3.0-1.114"
	},
	{
		"rt": 421,
		"stimulus": "<span style=\"font-size:30px; font-family: monospace\">texto</span>",
		"response": " ",
		"trial": "exp-sent",
		"word": "texto",
		"trial_type": "html-keyboard-response",
		"trial_index": 154,
		"time_elapsed": 177582,
		"internal_node_id": "0.0-3.0-1.115"
	},
	{
		"rt": 282,
		"stimulus": "<span style=\"font-size:30px; font-family: monospace\">trazia</span>",
		"response": " ",
		"trial": "exp-sent",
		"word": "trazia",
		"trial_type": "html-keyboard-response",
		"trial_index": 155,
		"time_elapsed": 178117,
		"internal_node_id": "0.0-3.0-1.116"
	},
	{
		"rt": 198,
		"stimulus": "<span style=\"font-size:30px; font-family: monospace\">um</span>",
		"response": " ",
		"trial": "exp-sent",
		"word": "um",
		"trial_type": "html-keyboard-response",
		"trial_index": 156,
		"time_elapsed": 178566,
		"internal_node_id": "0.0-3.0-1.117"
	},
	{
		"rt": 194,
		"stimulus": "<span style=\"font-size:30px; font-family: monospace\">argumento</span>",
		"response": " ",
		"trial": "exp-sent",
		"word": "argumento",
		"trial_type": "html-keyboard-response",
		"trial_index": 157,
		"time_elapsed": 179012,
		"internal_node_id": "0.0-3.0-1.118"
	},
	{
		"rt": 240,
		"stimulus": "<span style=\"font-size:30px; font-family: monospace\">central</span>",
		"response": " ",
		"trial": "exp-sent",
		"word": "central",
		"trial_type": "html-keyboard-response",
		"trial_index": 158,
		"time_elapsed": 179505,
		"internal_node_id": "0.0-3.0-1.119"
	},
	{
		"rt": 280,
		"stimulus": "<span style=\"font-size:30px; font-family: monospace\">para</span>",
		"response": " ",
		"trial": "exp-sent",
		"word": "para",
		"trial_type": "html-keyboard-response",
		"trial_index": 159,
		"time_elapsed": 180037,
		"internal_node_id": "0.0-3.0-1.120"
	},
	{
		"rt": 256,
		"stimulus": "<span style=\"font-size:30px; font-family: monospace\">a</span>",
		"response": " ",
		"trial": "exp-sent",
		"word": "a",
		"trial_type": "html-keyboard-response",
		"trial_index": 160,
		"time_elapsed": 180546,
		"internal_node_id": "0.0-3.0-1.121"
	},
	{
		"rt": 184,
		"stimulus": "<span style=\"font-size:30px; font-family: monospace\">conversa.</span>",
		"response": " ",
		"trial": "exp-sent",
		"word": "conversa.",
		"trial_type": "html-keyboard-response",
		"trial_index": 161,
		"time_elapsed": 180982,
		"internal_node_id": "0.0-3.0-1.122"
	},
	{
		"rt": null,
		"stimulus": "<span style= \"font-size:30px; font-family: monospace\">+</span>",
		"response": null,
		"trial_part": "fixation",
		"trial_type": "html-keyboard-response",
		"trial_index": 162,
		"time_elapsed": 182234,
		"internal_node_id": "0.0-3.0-0.123-0.123"
	},
	{
		"rt": 333,
		"stimulus": "<span style=\"font-size:30px; font-family: monospace\">Ontem</span>",
		"response": " ",
		"trial": "exp-sent",
		"word": "Ontem",
		"trial_type": "html-keyboard-response",
		"trial_index": 163,
		"time_elapsed": 182820,
		"internal_node_id": "0.0-3.0-1.123"
	},
	{
		"rt": 241,
		"stimulus": "<span style=\"font-size:30px; font-family: monospace\">a</span>",
		"response": " ",
		"trial": "exp-sent",
		"word": "a",
		"trial_type": "html-keyboard-response",
		"trial_index": 164,
		"time_elapsed": 183312,
		"internal_node_id": "0.0-3.0-1.124"
	},
	{
		"rt": 192,
		"stimulus": "<span style=\"font-size:30px; font-family: monospace\">temperatura</span>",
		"response": " ",
		"trial": "exp-sent",
		"word": "temperatura",
		"trial_type": "html-keyboard-response",
		"trial_index": 165,
		"time_elapsed": 183756,
		"internal_node_id": "0.0-3.0-1.125"
	},
	{
		"rt": 279,
		"stimulus": "<span style=\"font-size:30px; font-family: monospace\">estava</span>",
		"response": " ",
		"trial": "exp-sent",
		"word": "estava",
		"trial_type": "html-keyboard-response",
		"trial_index": 166,
		"time_elapsed": 184287,
		"internal_node_id": "0.0-3.0-1.126"
	},
	{
		"rt": 190,
		"stimulus": "<span style=\"font-size:30px; font-family: monospace\">amena</span>",
		"response": " ",
		"trial": "exp-sent",
		"word": "amena",
		"trial_type": "html-keyboard-response",
		"trial_index": 167,
		"time_elapsed": 184728,
		"internal_node_id": "0.0-3.0-1.127"
	},
	{
		"rt": 221,
		"stimulus": "<span style=\"font-size:30px; font-family: monospace\">durante</span>",
		"response": " ",
		"trial": "exp-sent",
		"word": "durante",
		"trial_type": "html-keyboard-response",
		"trial_index": 168,
		"time_elapsed": 185201,
		"internal_node_id": "0.0-3.0-1.128"
	},
	{
		"rt": 263,
		"stimulus": "<span style=\"font-size:30px; font-family: monospace\">o</span>",
		"response": " ",
		"trial": "exp-sent",
		"word": "o",
		"trial_type": "html-keyboard-response",
		"trial_index": 169,
		"time_elapsed": 185716,
		"internal_node_id": "0.0-3.0-1.129"
	},
	{
		"rt": 205,
		"stimulus": "<span style=\"font-size:30px; font-family: monospace\">dia.</span>",
		"response": " ",
		"trial": "exp-sent",
		"word": "dia.",
		"trial_type": "html-keyboard-response",
		"trial_index": 170,
		"time_elapsed": 186174,
		"internal_node_id": "0.0-3.0-1.130"
	},
	{
		"rt": null,
		"stimulus": "<span style= \"font-size:30px; font-family: monospace\">+</span>",
		"response": null,
		"trial_part": "fixation",
		"trial_type": "html-keyboard-response",
		"trial_index": 171,
		"time_elapsed": 187427,
		"internal_node_id": "0.0-3.0-0.131-0.131"
	},
	{
		"rt": 153,
		"stimulus": "<span style=\"font-size:30px; font-family: monospace\">Havia</span>",
		"response": " ",
		"trial": "exp-sent",
		"word": "Havia",
		"trial_type": "html-keyboard-response",
		"trial_index": 172,
		"time_elapsed": 187832,
		"internal_node_id": "0.0-3.0-1.131"
	},
	{
		"rt": 379,
		"stimulus": "<span style=\"font-size:30px; font-family: monospace\">um</span>",
		"response": " ",
		"trial": "exp-sent",
		"word": "um",
		"trial_type": "html-keyboard-response",
		"trial_index": 173,
		"time_elapsed": 188463,
		"internal_node_id": "0.0-3.0-1.132"
	},
	{
		"rt": 287,
		"stimulus": "<span style=\"font-size:30px; font-family: monospace\">machucado</span>",
		"response": " ",
		"trial": "exp-sent",
		"word": "machucado",
		"trial_type": "html-keyboard-response",
		"trial_index": 174,
		"time_elapsed": 189003,
		"internal_node_id": "0.0-3.0-1.133"
	},
	{
		"rt": 284,
		"stimulus": "<span style=\"font-size:30px; font-family: monospace\">no</span>",
		"response": " ",
		"trial": "exp-sent",
		"word": "no",
		"trial_type": "html-keyboard-response",
		"trial_index": 175,
		"time_elapsed": 189539,
		"internal_node_id": "0.0-3.0-1.134"
	},
	{
		"rt": 253,
		"stimulus": "<span style=\"font-size:30px; font-family: monospace\">dedo</span>",
		"response": " ",
		"trial": "exp-sent",
		"word": "dedo",
		"trial_type": "html-keyboard-response",
		"trial_index": 176,
		"time_elapsed": 190044,
		"internal_node_id": "0.0-3.0-1.135"
	},
	{
		"rt": 244,
		"stimulus": "<span style=\"font-size:30px; font-family: monospace\">da</span>",
		"response": " ",
		"trial": "exp-sent",
		"word": "da",
		"trial_type": "html-keyboard-response",
		"trial_index": 177,
		"time_elapsed": 190541,
		"internal_node_id": "0.0-3.0-1.136"
	},
	{
		"rt": 282,
		"stimulus": "<span style=\"font-size:30px; font-family: monospace\">criança.</span>",
		"response": " ",
		"trial": "exp-sent",
		"word": "criança.",
		"trial_type": "html-keyboard-response",
		"trial_index": 178,
		"time_elapsed": 191076,
		"internal_node_id": "0.0-3.0-1.137"
	},
	{
		"rt": null,
		"stimulus": "<span style= \"font-size:30px; font-family: monospace\">+</span>",
		"response": null,
		"trial_part": "fixation",
		"trial_type": "html-keyboard-response",
		"trial_index": 179,
		"time_elapsed": 192329,
		"internal_node_id": "0.0-3.0-0.138-0.138"
	},
	{
		"rt": 159,
		"stimulus": "<span style=\"font-size:30px; font-family: monospace\">A</span>",
		"response": " ",
		"trial": "exp-sent",
		"word": "A",
		"trial_type": "html-keyboard-response",
		"trial_index": 180,
		"time_elapsed": 192740,
		"internal_node_id": "0.0-3.0-1.138"
	},
	{
		"rt": 444,
		"stimulus": "<span style=\"font-size:30px; font-family: monospace\">borboleta</span>",
		"response": " ",
		"trial": "exp-sent",
		"word": "borboleta",
		"trial_type": "html-keyboard-response",
		"trial_index": 181,
		"time_elapsed": 193435,
		"internal_node_id": "0.0-3.0-1.139"
	},
	{
		"rt": 365,
		"stimulus": "<span style=\"font-size:30px; font-family: monospace\">pousou</span>",
		"response": " ",
		"trial": "exp-sent",
		"word": "pousou",
		"trial_type": "html-keyboard-response",
		"trial_index": 182,
		"time_elapsed": 194052,
		"internal_node_id": "0.0-3.0-1.140"
	},
	{
		"rt": 260,
		"stimulus": "<span style=\"font-size:30px; font-family: monospace\">no</span>",
		"response": " ",
		"trial": "exp-sent",
		"word": "no",
		"trial_type": "html-keyboard-response",
		"trial_index": 183,
		"time_elapsed": 194563,
		"internal_node_id": "0.0-3.0-1.141"
	},
	{
		"rt": 205,
		"stimulus": "<span style=\"font-size:30px; font-family: monospace\">ombro</span>",
		"response": " ",
		"trial": "exp-sent",
		"word": "ombro",
		"trial_type": "html-keyboard-response",
		"trial_index": 184,
		"time_elapsed": 195020,
		"internal_node_id": "0.0-3.0-1.142"
	},
	{
		"rt": 334,
		"stimulus": "<span style=\"font-size:30px; font-family: monospace\">daquela</span>",
		"response": " ",
		"trial": "exp-sent",
		"word": "daquela",
		"trial_type": "html-keyboard-response",
		"trial_index": 185,
		"time_elapsed": 195606,
		"internal_node_id": "0.0-3.0-1.143"
	},
	{
		"rt": 229,
		"stimulus": "<span style=\"font-size:30px; font-family: monospace\">moça.</span>",
		"response": " ",
		"trial": "exp-sent",
		"word": "moça.",
		"trial_type": "html-keyboard-response",
		"trial_index": 186,
		"time_elapsed": 196087,
		"internal_node_id": "0.0-3.0-1.144"
	},
	{
		"rt": null,
		"stimulus": "<span style= \"font-size:30px; font-family: monospace\">+</span>",
		"response": null,
		"trial_part": "fixation",
		"trial_type": "html-keyboard-response",
		"trial_index": 187,
		"time_elapsed": 197340,
		"internal_node_id": "0.0-3.0-0.145-0.145"
	},
	{
		"rt": 83,
		"stimulus": "<span style=\"font-size:30px; font-family: monospace\">Eu</span>",
		"response": " ",
		"trial": "exp-sent",
		"word": "Eu",
		"trial_type": "html-keyboard-response",
		"trial_index": 188,
		"time_elapsed": 197675,
		"internal_node_id": "0.0-3.0-1.145"
	},
	{
		"rt": 267,
		"stimulus": "<span style=\"font-size:30px; font-family: monospace\">quero</span>",
		"response": " ",
		"trial": "exp-sent",
		"word": "quero",
		"trial_type": "html-keyboard-response",
		"trial_index": 189,
		"time_elapsed": 198194,
		"internal_node_id": "0.0-3.0-1.146"
	},
	{
		"rt": 314,
		"stimulus": "<span style=\"font-size:30px; font-family: monospace\">um</span>",
		"response": " ",
		"trial": "exp-sent",
		"word": "um",
		"trial_type": "html-keyboard-response",
		"trial_index": 190,
		"time_elapsed": 198760,
		"internal_node_id": "0.0-3.0-1.147"
	},
	{
		"rt": 185,
		"stimulus": "<span style=\"font-size:30px; font-family: monospace\">namorado</span>",
		"response": " ",
		"trial": "exp-sent",
		"word": "namorado",
		"trial_type": "html-keyboard-response",
		"trial_index": 191,
		"time_elapsed": 199197,
		"internal_node_id": "0.0-3.0-1.148"
	},
	{
		"rt": 278,
		"stimulus": "<span style=\"font-size:30px; font-family: monospace\">honesto</span>",
		"response": " ",
		"trial": "exp-sent",
		"word": "honesto",
		"trial_type": "html-keyboard-response",
		"trial_index": 192,
		"time_elapsed": 199727,
		"internal_node_id": "0.0-3.0-1.149"
	},
	{
		"rt": 256,
		"stimulus": "<span style=\"font-size:30px; font-family: monospace\">e</span>",
		"response": " ",
		"trial": "exp-sent",
		"word": "e",
		"trial_type": "html-keyboard-response",
		"trial_index": 193,
		"time_elapsed": 200235,
		"internal_node_id": "0.0-3.0-1.150"
	},
	{
		"rt": 204,
		"stimulus": "<span style=\"font-size:30px; font-family: monospace\">compreensivo.</span>",
		"response": " ",
		"trial": "comp",
		"word": "compreensivo.",
		"trial_type": "html-keyboard-response",
		"trial_index": 194,
		"time_elapsed": 200691,
		"internal_node_id": "0.0-3.0-1.151"
	},
	{
		"rt": 5994,
		"stimulus": "<span style=\"font-size:30px; font-family: monospace\">Eu quero um namorado honesto?</span>",
		"response": "s",
		"question": "Eu quero um namorado honesto?",
		"answer": "sim",
		"trial": "comp",
		"trial_type": "html-keyboard-response",
		"trial_index": 195,
		"time_elapsed": 206937,
		"internal_node_id": "0.0-3.0-2.151-0.151",
		"accuracy": false
	},
	{
		"rt": null,
		"stimulus": "<span style= \"font-size:30px; font-family: monospace\">+</span>",
		"response": null,
		"trial_part": "fixation",
		"trial_type": "html-keyboard-response",
		"trial_index": 196,
		"time_elapsed": 208440,
		"internal_node_id": "0.0-3.0-0.152-0.152"
	},
	{
		"rt": 367,
		"stimulus": "<span style=\"font-size:30px; font-family: monospace\">A</span>",
		"response": " ",
		"trial": "exp-sent",
		"word": "A",
		"trial_type": "html-keyboard-response",
		"trial_index": 197,
		"time_elapsed": 209060,
		"internal_node_id": "0.0-3.0-1.152"
	},
	{
		"rt": 308,
		"stimulus": "<span style=\"font-size:30px; font-family: monospace\">senhora</span>",
		"response": " ",
		"trial": "exp-sent",
		"word": "senhora",
		"trial_type": "html-keyboard-response",
		"trial_index": 198,
		"time_elapsed": 209619,
		"internal_node_id": "0.0-3.0-1.153"
	},
	{
		"rt": 185,
		"stimulus": "<span style=\"font-size:30px; font-family: monospace\">cumprimentou</span>",
		"response": " ",
		"trial": "exp-sent",
		"word": "cumprimentou",
		"trial_type": "html-keyboard-response",
		"trial_index": 199,
		"time_elapsed": 210057,
		"internal_node_id": "0.0-3.0-1.154"
	},
	{
		"rt": 273,
		"stimulus": "<span style=\"font-size:30px; font-family: monospace\">o</span>",
		"response": " ",
		"trial": "exp-sent",
		"word": "o",
		"trial_type": "html-keyboard-response",
		"trial_index": 200,
		"time_elapsed": 210582,
		"internal_node_id": "0.0-3.0-1.155"
	},
	{
		"rt": 229,
		"stimulus": "<span style=\"font-size:30px; font-family: monospace\">operador</span>",
		"response": " ",
		"trial": "exp-sent",
		"word": "operador",
		"trial_type": "html-keyboard-response",
		"trial_index": 201,
		"time_elapsed": 211063,
		"internal_node_id": "0.0-3.0-1.156"
	},
	{
		"rt": 282,
		"stimulus": "<span style=\"font-size:30px; font-family: monospace\">de</span>",
		"response": " ",
		"trial": "exp-sent",
		"word": "de",
		"trial_type": "html-keyboard-response",
		"trial_index": 202,
		"time_elapsed": 211596,
		"internal_node_id": "0.0-3.0-1.157"
	},
	{
		"rt": 211,
		"stimulus": "<span style=\"font-size:30px; font-family: monospace\">caixa.</span>",
		"response": " ",
		"trial": "exp-sent",
		"word": "caixa.",
		"trial_type": "html-keyboard-response",
		"trial_index": 203,
		"time_elapsed": 212059,
		"internal_node_id": "0.0-3.0-1.158"
	},
	{
		"rt": null,
		"stimulus": "<span style= \"font-size:30px; font-family: monospace\">+</span>",
		"response": null,
		"trial_part": "fixation",
		"trial_type": "html-keyboard-response",
		"trial_index": 204,
		"time_elapsed": 213313,
		"internal_node_id": "0.0-3.0-0.159-0.159"
	},
	{
		"rt": 34,
		"stimulus": "<span style=\"font-size:30px; font-family: monospace\">A</span>",
		"response": " ",
		"trial": "exp-sent",
		"word": "A",
		"trial_type": "html-keyboard-response",
		"trial_index": 205,
		"time_elapsed": 213598,
		"internal_node_id": "0.0-3.0-1.159"
	},
	{
		"rt": 211,
		"stimulus": "<span style=\"font-size:30px; font-family: monospace\">gente</span>",
		"response": " ",
		"trial": "exp-sent",
		"word": "gente",
		"trial_type": "html-keyboard-response",
		"trial_index": 206,
		"time_elapsed": 214061,
		"internal_node_id": "0.0-3.0-1.160"
	},
	{
		"rt": 179,
		"stimulus": "<span style=\"font-size:30px; font-family: monospace\">viu</span>",
		"response": " ",
		"trial": "exp-sent",
		"word": "viu",
		"trial_type": "html-keyboard-response",
		"trial_index": 207,
		"time_elapsed": 214493,
		"internal_node_id": "0.0-3.0-1.161"
	},
	{
		"rt": 173,
		"stimulus": "<span style=\"font-size:30px; font-family: monospace\">o</span>",
		"response": " ",
		"trial": "exp-sent",
		"word": "o",
		"trial_type": "html-keyboard-response",
		"trial_index": 208,
		"time_elapsed": 214917,
		"internal_node_id": "0.0-3.0-1.162"
	},
	{
		"rt": 206,
		"stimulus": "<span style=\"font-size:30px; font-family: monospace\">eclipse</span>",
		"response": " ",
		"trial": "exp-sent",
		"word": "eclipse",
		"trial_type": "html-keyboard-response",
		"trial_index": 209,
		"time_elapsed": 215376,
		"internal_node_id": "0.0-3.0-1.163"
	},
	{
		"rt": 273,
		"stimulus": "<span style=\"font-size:30px; font-family: monospace\">lunar</span>",
		"response": " ",
		"trial": "exp-sent",
		"word": "lunar",
		"trial_type": "html-keyboard-response",
		"trial_index": 210,
		"time_elapsed": 215901,
		"internal_node_id": "0.0-3.0-1.164"
	},
	{
		"rt": 248,
		"stimulus": "<span style=\"font-size:30px; font-family: monospace\">durante</span>",
		"response": " ",
		"trial": "exp-sent",
		"word": "durante",
		"trial_type": "html-keyboard-response",
		"trial_index": 211,
		"time_elapsed": 216401,
		"internal_node_id": "0.0-3.0-1.165"
	},
	{
		"rt": 215,
		"stimulus": "<span style=\"font-size:30px; font-family: monospace\">o</span>",
		"response": " ",
		"trial": "exp-sent",
		"word": "o",
		"trial_type": "html-keyboard-response",
		"trial_index": 212,
		"time_elapsed": 216867,
		"internal_node_id": "0.0-3.0-1.166"
	},
	{
		"rt": 126,
		"stimulus": "<span style=\"font-size:30px; font-family: monospace\">dia.</span>",
		"response": " ",
		"trial": "exp-sent",
		"word": "dia.",
		"trial_type": "html-keyboard-response",
		"trial_index": 213,
		"time_elapsed": 217245,
		"internal_node_id": "0.0-3.0-1.167"
	},
	{
		"rt": null,
		"stimulus": "<span style= \"font-size:30px; font-family: monospace\">+</span>",
		"response": null,
		"trial_part": "fixation",
		"trial_type": "html-keyboard-response",
		"trial_index": 214,
		"time_elapsed": 218499,
		"internal_node_id": "0.0-3.0-0.168-0.168"
	},
	{
		"rt": 23,
		"stimulus": "<span style=\"font-size:30px; font-family: monospace\">A</span>",
		"response": " ",
		"trial": "exp-sent",
		"word": "A",
		"trial_type": "html-keyboard-response",
		"trial_index": 215,
		"time_elapsed": 218773,
		"internal_node_id": "0.0-3.0-1.168"
	},
	{
		"rt": 340,
		"stimulus": "<span style=\"font-size:30px; font-family: monospace\">mordida</span>",
		"response": " ",
		"trial": "exp-sent",
		"word": "mordida",
		"trial_type": "html-keyboard-response",
		"trial_index": 216,
		"time_elapsed": 219364,
		"internal_node_id": "0.0-3.0-1.169"
	},
	{
		"rt": 274,
		"stimulus": "<span style=\"font-size:30px; font-family: monospace\">do</span>",
		"response": " ",
		"trial": "exp-sent",
		"word": "do",
		"trial_type": "html-keyboard-response",
		"trial_index": 217,
		"time_elapsed": 219890,
		"internal_node_id": "0.0-3.0-1.170"
	},
	{
		"rt": 254,
		"stimulus": "<span style=\"font-size:30px; font-family: monospace\">cachorro</span>",
		"response": " ",
		"trial": "exp-sent",
		"word": "cachorro",
		"trial_type": "html-keyboard-response",
		"trial_index": 218,
		"time_elapsed": 220396,
		"internal_node_id": "0.0-3.0-1.171"
	},
	{
		"rt": 492,
		"stimulus": "<span style=\"font-size:30px; font-family: monospace\">voraz</span>",
		"response": " ",
		"trial": "exp-sent",
		"word": "voraz",
		"trial_type": "html-keyboard-response",
		"trial_index": 219,
		"time_elapsed": 221140,
		"internal_node_id": "0.0-3.0-1.172"
	},
	{
		"rt": 187,
		"stimulus": "<span style=\"font-size:30px; font-family: monospace\">causou</span>",
		"response": " ",
		"trial": "exp-sent",
		"word": "causou",
		"trial_type": "html-keyboard-response",
		"trial_index": 220,
		"time_elapsed": 221579,
		"internal_node_id": "0.0-3.0-1.173"
	},
	{
		"rt": 296,
		"stimulus": "<span style=\"font-size:30px; font-family: monospace\">uma</span>",
		"response": " ",
		"trial": "exp-sent",
		"word": "uma",
		"trial_type": "html-keyboard-response",
		"trial_index": 221,
		"time_elapsed": 222127,
		"internal_node_id": "0.0-3.0-1.174"
	},
	{
		"rt": 223,
		"stimulus": "<span style=\"font-size:30px; font-family: monospace\">cicatriz.</span>",
		"response": " ",
		"trial": "exp-sent",
		"word": "cicatriz.",
		"trial_type": "html-keyboard-response",
		"trial_index": 222,
		"time_elapsed": 222602,
		"internal_node_id": "0.0-3.0-1.175"
	},
	{
		"rt": null,
		"stimulus": "<span style= \"font-size:30px; font-family: monospace\">+</span>",
		"response": null,
		"trial_part": "fixation",
		"trial_type": "html-keyboard-response",
		"trial_index": 223,
		"time_elapsed": 223856,
		"internal_node_id": "0.0-3.0-0.176-0.176"
	},
	{
		"rt": 467,
		"stimulus": "<span style=\"font-size:30px; font-family: monospace\">Elas</span>",
		"response": " ",
		"trial": "exp-sent",
		"word": "Elas",
		"trial_type": "html-keyboard-response",
		"trial_index": 224,
		"time_elapsed": 224575,
		"internal_node_id": "0.0-3.0-1.176"
	},
	{
		"rt": 214,
		"stimulus": "<span style=\"font-size:30px; font-family: monospace\">não</span>",
		"response": " ",
		"trial": "exp-sent",
		"word": "não",
		"trial_type": "html-keyboard-response",
		"trial_index": 225,
		"time_elapsed": 225042,
		"internal_node_id": "0.0-3.0-1.177"
	},
	{
		"rt": 195,
		"stimulus": "<span style=\"font-size:30px; font-family: monospace\">viram</span>",
		"response": " ",
		"trial": "exp-sent",
		"word": "viram",
		"trial_type": "html-keyboard-response",
		"trial_index": 226,
		"time_elapsed": 225489,
		"internal_node_id": "0.0-3.0-1.178"
	},
	{
		"rt": 189,
		"stimulus": "<span style=\"font-size:30px; font-family: monospace\">nenhuma</span>",
		"response": " ",
		"trial": "exp-sent",
		"word": "nenhuma",
		"trial_type": "html-keyboard-response",
		"trial_index": 227,
		"time_elapsed": 225930,
		"internal_node_id": "0.0-3.0-1.179"
	},
	{
		"rt": 236,
		"stimulus": "<span style=\"font-size:30px; font-family: monospace\">diferença</span>",
		"response": " ",
		"trial": "exp-sent",
		"word": "diferença",
		"trial_type": "html-keyboard-response",
		"trial_index": 228,
		"time_elapsed": 226419,
		"internal_node_id": "0.0-3.0-1.180"
	},
	{
		"rt": 219,
		"stimulus": "<span style=\"font-size:30px; font-family: monospace\">entre</span>",
		"response": " ",
		"trial": "exp-sent",
		"word": "entre",
		"trial_type": "html-keyboard-response",
		"trial_index": 229,
		"time_elapsed": 226891,
		"internal_node_id": "0.0-3.0-1.181"
	},
	{
		"rt": 294,
		"stimulus": "<span style=\"font-size:30px; font-family: monospace\">os</span>",
		"response": " ",
		"trial": "exp-sent",
		"word": "os",
		"trial_type": "html-keyboard-response",
		"trial_index": 230,
		"time_elapsed": 227436,
		"internal_node_id": "0.0-3.0-1.182"
	},
	{
		"rt": 172,
		"stimulus": "<span style=\"font-size:30px; font-family: monospace\">textos.</span>",
		"response": " ",
		"trial": "exp-sent",
		"word": "textos.",
		"trial_type": "html-keyboard-response",
		"trial_index": 231,
		"time_elapsed": 227860,
		"internal_node_id": "0.0-3.0-1.183"
	},
	{
		"rt": null,
		"stimulus": "<span style= \"font-size:30px; font-family: monospace\">+</span>",
		"response": null,
		"trial_part": "fixation",
		"trial_type": "html-keyboard-response",
		"trial_index": 232,
		"time_elapsed": 229114,
		"internal_node_id": "0.0-3.0-0.184-0.184"
	},
	{
		"rt": 293,
		"stimulus": "<span style=\"font-size:30px; font-family: monospace\">Amanhã</span>",
		"response": " ",
		"trial": "exp-sent",
		"word": "Amanhã",
		"trial_type": "html-keyboard-response",
		"trial_index": 233,
		"time_elapsed": 229659,
		"internal_node_id": "0.0-3.0-1.184"
	},
	{
		"rt": 216,
		"stimulus": "<span style=\"font-size:30px; font-family: monospace\">vai</span>",
		"response": " ",
		"trial": "exp-sent",
		"word": "vai",
		"trial_type": "html-keyboard-response",
		"trial_index": 234,
		"time_elapsed": 230127,
		"internal_node_id": "0.0-3.0-1.185"
	},
	{
		"rt": 295,
		"stimulus": "<span style=\"font-size:30px; font-family: monospace\">ter</span>",
		"response": " ",
		"trial": "exp-sent",
		"word": "ter",
		"trial_type": "html-keyboard-response",
		"trial_index": 235,
		"time_elapsed": 230674,
		"internal_node_id": "0.0-3.0-1.186"
	},
	{
		"rt": 422,
		"stimulus": "<span style=\"font-size:30px; font-family: monospace\">um</span>",
		"response": " ",
		"trial": "exp-sent",
		"word": "um",
		"trial_type": "html-keyboard-response",
		"trial_index": 236,
		"time_elapsed": 231349,
		"internal_node_id": "0.0-3.0-1.187"
	},
	{
		"rt": 141,
		"stimulus": "<span style=\"font-size:30px; font-family: monospace\">bazar</span>",
		"response": " ",
		"trial": "exp-sent",
		"word": "bazar",
		"trial_type": "html-keyboard-response",
		"trial_index": 237,
		"time_elapsed": 231741,
		"internal_node_id": "0.0-3.0-1.188"
	},
	{
		"rt": 258,
		"stimulus": "<span style=\"font-size:30px; font-family: monospace\">no</span>",
		"response": " ",
		"trial": "exp-sent",
		"word": "no",
		"trial_type": "html-keyboard-response",
		"trial_index": 238,
		"time_elapsed": 232252,
		"internal_node_id": "0.0-3.0-1.189"
	},
	{
		"rt": 538,
		"stimulus": "<span style=\"font-size:30px; font-family: monospace\">bairro.</span>",
		"response": " ",
		"trial": "comp",
		"word": "bairro.",
		"trial_type": "html-keyboard-response",
		"trial_index": 239,
		"time_elapsed": 233041,
		"internal_node_id": "0.0-3.0-1.190"
	},
	{
		"rt": 2846,
		"stimulus": "<span style=\"font-size:30px; font-family: monospace\">Amanhã vai acontecer um bazar no bairro?</span>",
		"response": "s",
		"question": "Amanhã vai acontecer um bazar no bairro?",
		"answer": "sim",
		"trial": "comp",
		"trial_type": "html-keyboard-response",
		"trial_index": 240,
		"time_elapsed": 236139,
		"internal_node_id": "0.0-3.0-2.190-0.190",
		"accuracy": false
	},
	{
		"rt": null,
		"stimulus": "<span style= \"font-size:30px; font-family: monospace\">+</span>",
		"response": null,
		"trial_part": "fixation",
		"trial_type": "html-keyboard-response",
		"trial_index": 241,
		"time_elapsed": 237642,
		"internal_node_id": "0.0-3.0-0.191-0.191"
	},
	{
		"rt": 372,
		"stimulus": "<span style=\"font-size:30px; font-family: monospace\">O</span>",
		"response": " ",
		"trial": "exp-sent",
		"word": "O",
		"trial_type": "html-keyboard-response",
		"trial_index": 242,
		"time_elapsed": 238266,
		"internal_node_id": "0.0-3.0-1.191"
	},
	{
		"rt": 254,
		"stimulus": "<span style=\"font-size:30px; font-family: monospace\">travesseiro</span>",
		"response": " ",
		"trial": "exp-sent",
		"word": "travesseiro",
		"trial_type": "html-keyboard-response",
		"trial_index": 243,
		"time_elapsed": 238771,
		"internal_node_id": "0.0-3.0-1.192"
	},
	{
		"rt": 168,
		"stimulus": "<span style=\"font-size:30px; font-family: monospace\">era</span>",
		"response": " ",
		"trial": "exp-sent",
		"word": "era",
		"trial_type": "html-keyboard-response",
		"trial_index": 244,
		"time_elapsed": 239191,
		"internal_node_id": "0.0-3.0-1.193"
	},
	{
		"rt": 123,
		"stimulus": "<span style=\"font-size:30px; font-family: monospace\">muito</span>",
		"response": " ",
		"trial": "exp-sent",
		"word": "muito",
		"trial_type": "html-keyboard-response",
		"trial_index": 245,
		"time_elapsed": 239567,
		"internal_node_id": "0.0-3.0-1.194"
	},
	{
		"rt": 190,
		"stimulus": "<span style=\"font-size:30px; font-family: monospace\">macio</span>",
		"response": " ",
		"trial": "exp-sent",
		"word": "macio",
		"trial_type": "html-keyboard-response",
		"trial_index": 246,
		"time_elapsed": 240008,
		"internal_node_id": "0.0-3.0-1.195"
	},
	{
		"rt": 114,
		"stimulus": "<span style=\"font-size:30px; font-family: monospace\">e</span>",
		"response": " ",
		"trial": "exp-sent",
		"word": "e",
		"trial_type": "html-keyboard-response",
		"trial_index": 247,
		"time_elapsed": 240375,
		"internal_node_id": "0.0-3.0-1.196"
	},
	{
		"rt": 231,
		"stimulus": "<span style=\"font-size:30px; font-family: monospace\">confortável.</span>",
		"response": " ",
		"trial": "exp-sent",
		"word": "confortável.",
		"trial_type": "html-keyboard-response",
		"trial_index": 248,
		"time_elapsed": 240859,
		"internal_node_id": "0.0-3.0-1.197"
	},
	{
		"rt": null,
		"stimulus": "<span style= \"font-size:30px; font-family: monospace\">+</span>",
		"response": null,
		"trial_part": "fixation",
		"trial_type": "html-keyboard-response",
		"trial_index": 249,
		"time_elapsed": 242112,
		"internal_node_id": "0.0-3.0-0.198-0.198"
	},
	{
		"rt": 394,
		"stimulus": "<span style=\"font-size:30px; font-family: monospace\">Hoje</span>",
		"response": " ",
		"trial": "exp-sent",
		"word": "Hoje",
		"trial_type": "html-keyboard-response",
		"trial_index": 250,
		"time_elapsed": 242759,
		"internal_node_id": "0.0-3.0-1.198"
	},
	{
		"rt": 225,
		"stimulus": "<span style=\"font-size:30px; font-family: monospace\">a</span>",
		"response": " ",
		"trial": "exp-sent",
		"word": "a",
		"trial_type": "html-keyboard-response",
		"trial_index": 251,
		"time_elapsed": 243237,
		"internal_node_id": "0.0-3.0-1.199"
	},
	{
		"rt": 179,
		"stimulus": "<span style=\"font-size:30px; font-family: monospace\">atendente</span>",
		"response": " ",
		"trial": "exp-sent",
		"word": "atendente",
		"trial_type": "html-keyboard-response",
		"trial_index": 252,
		"time_elapsed": 243668,
		"internal_node_id": "0.0-3.0-1.200"
	},
	{
		"rt": 173,
		"stimulus": "<span style=\"font-size:30px; font-family: monospace\">estava</span>",
		"response": " ",
		"trial": "exp-sent",
		"word": "estava",
		"trial_type": "html-keyboard-response",
		"trial_index": 253,
		"time_elapsed": 244093,
		"internal_node_id": "0.0-3.0-1.201"
	},
	{
		"rt": 202,
		"stimulus": "<span style=\"font-size:30px; font-family: monospace\">furiosa</span>",
		"response": " ",
		"trial": "exp-sent",
		"word": "furiosa",
		"trial_type": "html-keyboard-response",
		"trial_index": 254,
		"time_elapsed": 244547,
		"internal_node_id": "0.0-3.0-1.202"
	},
	{
		"rt": 194,
		"stimulus": "<span style=\"font-size:30px; font-family: monospace\">com</span>",
		"response": " ",
		"trial": "exp-sent",
		"word": "com",
		"trial_type": "html-keyboard-response",
		"trial_index": 255,
		"time_elapsed": 244993,
		"internal_node_id": "0.0-3.0-1.203"
	},
	{
		"rt": 202,
		"stimulus": "<span style=\"font-size:30px; font-family: monospace\">o</span>",
		"response": " ",
		"trial": "exp-sent",
		"word": "o",
		"trial_type": "html-keyboard-response",
		"trial_index": 256,
		"time_elapsed": 245447,
		"internal_node_id": "0.0-3.0-1.204"
	},
	{
		"rt": 313,
		"stimulus": "<span style=\"font-size:30px; font-family: monospace\">cliente.</span>",
		"response": " ",
		"trial": "exp-sent",
		"word": "cliente.",
		"trial_type": "html-keyboard-response",
		"trial_index": 257,
		"time_elapsed": 246012,
		"internal_node_id": "0.0-3.0-1.205"
	},
	{
		"rt": null,
		"stimulus": "<span style= \"font-size:30px; font-family: monospace\">+</span>",
		"response": null,
		"trial_part": "fixation",
		"trial_type": "html-keyboard-response",
		"trial_index": 258,
		"time_elapsed": 247265,
		"internal_node_id": "0.0-3.0-0.206-0.206"
	},
	{
		"rt": 58,
		"stimulus": "<span style=\"font-size:30px; font-family: monospace\">O</span>",
		"response": " ",
		"trial": "exp-sent",
		"word": "O",
		"trial_type": "html-keyboard-response",
		"trial_index": 259,
		"time_elapsed": 247575,
		"internal_node_id": "0.0-3.0-1.206"
	},
	{
		"rt": 316,
		"stimulus": "<span style=\"font-size:30px; font-family: monospace\">vizinho</span>",
		"response": " ",
		"trial": "exp-sent",
		"word": "vizinho",
		"trial_type": "html-keyboard-response",
		"trial_index": 260,
		"time_elapsed": 248144,
		"internal_node_id": "0.0-3.0-1.207"
	},
	{
		"rt": 331,
		"stimulus": "<span style=\"font-size:30px; font-family: monospace\">é</span>",
		"response": " ",
		"trial": "exp-sent",
		"word": "é",
		"trial_type": "html-keyboard-response",
		"trial_index": 261,
		"time_elapsed": 248727,
		"internal_node_id": "0.0-3.0-1.208"
	},
	{
		"rt": 254,
		"stimulus": "<span style=\"font-size:30px; font-family: monospace\">um</span>",
		"response": " ",
		"trial": "exp-sent",
		"word": "um",
		"trial_type": "html-keyboard-response",
		"trial_index": 262,
		"time_elapsed": 249233,
		"internal_node_id": "0.0-3.0-1.209"
	},
	{
		"rt": 250,
		"stimulus": "<span style=\"font-size:30px; font-family: monospace\">arquiteto</span>",
		"response": " ",
		"trial": "exp-sent",
		"word": "arquiteto",
		"trial_type": "html-keyboard-response",
		"trial_index": 263,
		"time_elapsed": 249735,
		"internal_node_id": "0.0-3.0-1.210"
	},
	{
		"rt": 291,
		"stimulus": "<span style=\"font-size:30px; font-family: monospace\">muito</span>",
		"response": " ",
		"trial": "exp-sent",
		"word": "muito",
		"trial_type": "html-keyboard-response",
		"trial_index": 264,
		"time_elapsed": 250278,
		"internal_node_id": "0.0-3.0-1.211"
	},
	{
		"rt": 257,
		"stimulus": "<span style=\"font-size:30px; font-family: monospace\">excêntrico.</span>",
		"response": " ",
		"trial": "exp-sent",
		"word": "excêntrico.",
		"trial_type": "html-keyboard-response",
		"trial_index": 265,
		"time_elapsed": 250786,
		"internal_node_id": "0.0-3.0-1.212"
	},
	{
		"rt": null,
		"stimulus": "<span style= \"font-size:30px; font-family: monospace\">+</span>",
		"response": null,
		"trial_part": "fixation",
		"trial_type": "html-keyboard-response",
		"trial_index": 266,
		"time_elapsed": 252040,
		"internal_node_id": "0.0-3.0-0.213-0.213"
	},
	{
		"rt": 550,
		"stimulus": "<span style=\"font-size:30px; font-family: monospace\">A</span>",
		"response": " ",
		"trial": "exp-sent",
		"word": "A",
		"trial_type": "html-keyboard-response",
		"trial_index": 267,
		"time_elapsed": 252842,
		"internal_node_id": "0.0-3.0-1.213"
	},
	{
		"rt": 195,
		"stimulus": "<span style=\"font-size:30px; font-family: monospace\">nossa</span>",
		"response": " ",
		"trial": "exp-sent",
		"word": "nossa",
		"trial_type": "html-keyboard-response",
		"trial_index": 268,
		"time_elapsed": 253289,
		"internal_node_id": "0.0-3.0-1.214"
	},
	{
		"rt": 254,
		"stimulus": "<span style=\"font-size:30px; font-family: monospace\">colega</span>",
		"response": " ",
		"trial": "exp-sent",
		"word": "colega",
		"trial_type": "html-keyboard-response",
		"trial_index": 269,
		"time_elapsed": 253795,
		"internal_node_id": "0.0-3.0-1.215"
	},
	{
		"rt": 564,
		"stimulus": "<span style=\"font-size:30px; font-family: monospace\">foi</span>",
		"response": " ",
		"trial": "exp-sent",
		"word": "foi",
		"trial_type": "html-keyboard-response",
		"trial_index": 270,
		"time_elapsed": 254612,
		"internal_node_id": "0.0-3.0-1.216"
	},
	{
		"rt": 140,
		"stimulus": "<span style=\"font-size:30px; font-family: monospace\">má</span>",
		"response": " ",
		"trial": "exp-sent",
		"word": "má",
		"trial_type": "html-keyboard-response",
		"trial_index": 271,
		"time_elapsed": 255004,
		"internal_node_id": "0.0-3.0-1.217"
	},
	{
		"rt": 278,
		"stimulus": "<span style=\"font-size:30px; font-family: monospace\">com</span>",
		"response": " ",
		"trial": "exp-sent",
		"word": "com",
		"trial_type": "html-keyboard-response",
		"trial_index": 272,
		"time_elapsed": 255535,
		"internal_node_id": "0.0-3.0-1.218"
	},
	{
		"rt": 194,
		"stimulus": "<span style=\"font-size:30px; font-family: monospace\">as</span>",
		"response": " ",
		"trial": "exp-sent",
		"word": "as",
		"trial_type": "html-keyboard-response",
		"trial_index": 273,
		"time_elapsed": 255981,
		"internal_node_id": "0.0-3.0-1.219"
	},
	{
		"rt": 256,
		"stimulus": "<span style=\"font-size:30px; font-family: monospace\">crianças.</span>",
		"response": " ",
		"trial": "exp-sent",
		"word": "crianças.",
		"trial_type": "html-keyboard-response",
		"trial_index": 274,
		"time_elapsed": 256489,
		"internal_node_id": "0.0-3.0-1.220"
	},
	{
		"rt": null,
		"stimulus": "<span style= \"font-size:30px; font-family: monospace\">+</span>",
		"response": null,
		"trial_part": "fixation",
		"trial_type": "html-keyboard-response",
		"trial_index": 275,
		"time_elapsed": 257742,
		"internal_node_id": "0.0-3.0-0.221-0.221"
	},
	{
		"rt": 486,
		"stimulus": "<span style=\"font-size:30px; font-family: monospace\">Virtudes</span>",
		"response": " ",
		"trial": "exp-sent",
		"word": "Virtudes",
		"trial_type": "html-keyboard-response",
		"trial_index": 276,
		"time_elapsed": 258481,
		"internal_node_id": "0.0-3.0-1.221"
	},
	{
		"rt": 327,
		"stimulus": "<span style=\"font-size:30px; font-family: monospace\">não</span>",
		"response": " ",
		"trial": "exp-sent",
		"word": "não",
		"trial_type": "html-keyboard-response",
		"trial_index": 277,
		"time_elapsed": 259059,
		"internal_node_id": "0.0-3.0-1.222"
	},
	{
		"rt": 289,
		"stimulus": "<span style=\"font-size:30px; font-family: monospace\">são</span>",
		"response": " ",
		"trial": "exp-sent",
		"word": "são",
		"trial_type": "html-keyboard-response",
		"trial_index": 278,
		"time_elapsed": 259600,
		"internal_node_id": "0.0-3.0-1.223"
	},
	{
		"rt": 291,
		"stimulus": "<span style=\"font-size:30px; font-family: monospace\">preguiça,</span>",
		"response": " ",
		"trial": "exp-sent",
		"word": "preguiça,",
		"trial_type": "html-keyboard-response",
		"trial_index": 279,
		"time_elapsed": 260144,
		"internal_node_id": "0.0-3.0-1.224"
	},
	{
		"rt": 317,
		"stimulus": "<span style=\"font-size:30px; font-family: monospace\">gula</span>",
		"response": " ",
		"trial": "exp-sent",
		"word": "gula",
		"trial_type": "html-keyboard-response",
		"trial_index": 280,
		"time_elapsed": 260713,
		"internal_node_id": "0.0-3.0-1.225"
	},
	{
		"rt": 349,
		"stimulus": "<span style=\"font-size:30px; font-family: monospace\">nem</span>",
		"response": " ",
		"trial": "exp-sent",
		"word": "nem",
		"trial_type": "html-keyboard-response",
		"trial_index": 281,
		"time_elapsed": 261314,
		"internal_node_id": "0.0-3.0-1.226"
	},
	{
		"rt": 388,
		"stimulus": "<span style=\"font-size:30px; font-family: monospace\">ganância.</span>",
		"response": " ",
		"trial": "comp",
		"word": "ganância.",
		"trial_type": "html-keyboard-response",
		"trial_index": 282,
		"time_elapsed": 261954,
		"internal_node_id": "0.0-3.0-1.227"
	},
	{
		"rt": 20235,
		"stimulus": "<span style=\"font-size:30px; font-family: monospace\">Preguiça é uma virtude?</span>",
		"response": "n",
		"question": "Preguiça é uma virtude?",
		"answer": "não",
		"trial": "comp",
		"trial_type": "html-keyboard-response",
		"trial_index": 283,
		"time_elapsed": 282442,
		"internal_node_id": "0.0-3.0-2.227-0.227",
		"accuracy": false
	},
	{
		"rt": null,
		"stimulus": "<span style= \"font-size:30px; font-family: monospace\">+</span>",
		"response": null,
		"trial_part": "fixation",
		"trial_type": "html-keyboard-response",
		"trial_index": 284,
		"time_elapsed": 283945,
		"internal_node_id": "0.0-3.0-0.228-0.228"
	},
	{
		"rt": 123,
		"stimulus": "<span style=\"font-size:30px; font-family: monospace\">Ele</span>",
		"response": " ",
		"trial": "exp-sent",
		"word": "Ele",
		"trial_type": "html-keyboard-response",
		"trial_index": 285,
		"time_elapsed": 284321,
		"internal_node_id": "0.0-3.0-1.228"
	},
	{
		"rt": 353,
		"stimulus": "<span style=\"font-size:30px; font-family: monospace\">é</span>",
		"response": " ",
		"trial": "exp-sent",
		"word": "é",
		"trial_type": "html-keyboard-response",
		"trial_index": 286,
		"time_elapsed": 284926,
		"internal_node_id": "0.0-3.0-1.229"
	},
	{
		"rt": 474,
		"stimulus": "<span style=\"font-size:30px; font-family: monospace\">um</span>",
		"response": " ",
		"trial": "exp-sent",
		"word": "um",
		"trial_type": "html-keyboard-response",
		"trial_index": 287,
		"time_elapsed": 285652,
		"internal_node_id": "0.0-3.0-1.230"
	},
	{
		"rt": 128,
		"stimulus": "<span style=\"font-size:30px; font-family: monospace\">pai</span>",
		"response": " ",
		"trial": "exp-sent",
		"word": "pai",
		"trial_type": "html-keyboard-response",
		"trial_index": 288,
		"time_elapsed": 286033,
		"internal_node_id": "0.0-3.0-1.231"
	},
	{
		"rt": 253,
		"stimulus": "<span style=\"font-size:30px; font-family: monospace\">ausente</span>",
		"response": " ",
		"trial": "exp-sent",
		"word": "ausente",
		"trial_type": "html-keyboard-response",
		"trial_index": 289,
		"time_elapsed": 286537,
		"internal_node_id": "0.0-3.0-1.232"
	},
	{
		"rt": 261,
		"stimulus": "<span style=\"font-size:30px; font-family: monospace\">e</span>",
		"response": " ",
		"trial": "exp-sent",
		"word": "e",
		"trial_type": "html-keyboard-response",
		"trial_index": 290,
		"time_elapsed": 287050,
		"internal_node_id": "0.0-3.0-1.233"
	},
	{
		"rt": 286,
		"stimulus": "<span style=\"font-size:30px; font-family: monospace\">muito</span>",
		"response": " ",
		"trial": "exp-sent",
		"word": "muito",
		"trial_type": "html-keyboard-response",
		"trial_index": 291,
		"time_elapsed": 287590,
		"internal_node_id": "0.0-3.0-1.234"
	},
	{
		"rt": 491,
		"stimulus": "<span style=\"font-size:30px; font-family: monospace\">fofoqueiro.</span>",
		"response": " ",
		"trial": "exp-sent",
		"word": "fofoqueiro.",
		"trial_type": "html-keyboard-response",
		"trial_index": 292,
		"time_elapsed": 288334,
		"internal_node_id": "0.0-3.0-1.235"
	},
	{
		"rt": null,
		"stimulus": "<span style= \"font-size:30px; font-family: monospace\">+</span>",
		"response": null,
		"trial_part": "fixation",
		"trial_type": "html-keyboard-response",
		"trial_index": 293,
		"time_elapsed": 289587,
		"internal_node_id": "0.0-3.0-0.236-0.236"
	},
	{
		"rt": 1233,
		"stimulus": "<span style=\"font-size:30px; font-family: monospace\">O</span>",
		"response": " ",
		"trial": "exp-sent",
		"word": "O",
		"trial_type": "html-keyboard-response",
		"trial_index": 294,
		"time_elapsed": 291072,
		"internal_node_id": "0.0-3.0-1.236"
	},
	{
		"rt": 244,
		"stimulus": "<span style=\"font-size:30px; font-family: monospace\">filho</span>",
		"response": " ",
		"trial": "exp-sent",
		"word": "filho",
		"trial_type": "html-keyboard-response",
		"trial_index": 295,
		"time_elapsed": 291568,
		"internal_node_id": "0.0-3.0-1.237"
	},
	{
		"rt": 95,
		"stimulus": "<span style=\"font-size:30px; font-family: monospace\">lavou</span>",
		"response": " ",
		"trial": "exp-sent",
		"word": "lavou",
		"trial_type": "html-keyboard-response",
		"trial_index": 296,
		"time_elapsed": 291916,
		"internal_node_id": "0.0-3.0-1.238"
	},
	{
		"rt": 89,
		"stimulus": "<span style=\"font-size:30px; font-family: monospace\">a</span>",
		"response": " ",
		"trial": "exp-sent",
		"word": "a",
		"trial_type": "html-keyboard-response",
		"trial_index": 297,
		"time_elapsed": 292257,
		"internal_node_id": "0.0-3.0-1.239"
	},
	{
		"rt": 270,
		"stimulus": "<span style=\"font-size:30px; font-family: monospace\">roupa</span>",
		"response": " ",
		"trial": "exp-sent",
		"word": "roupa",
		"trial_type": "html-keyboard-response",
		"trial_index": 298,
		"time_elapsed": 292779,
		"internal_node_id": "0.0-3.0-1.240"
	},
	{
		"rt": 231,
		"stimulus": "<span style=\"font-size:30px; font-family: monospace\">sem</span>",
		"response": " ",
		"trial": "exp-sent",
		"word": "sem",
		"trial_type": "html-keyboard-response",
		"trial_index": 299,
		"time_elapsed": 293263,
		"internal_node_id": "0.0-3.0-1.241"
	},
	{
		"rt": 236,
		"stimulus": "<span style=\"font-size:30px; font-family: monospace\">nenhuma</span>",
		"response": " ",
		"trial": "exp-sent",
		"word": "nenhuma",
		"trial_type": "html-keyboard-response",
		"trial_index": 300,
		"time_elapsed": 293751,
		"internal_node_id": "0.0-3.0-1.242"
	},
	{
		"rt": 214,
		"stimulus": "<span style=\"font-size:30px; font-family: monospace\">ajuda.</span>",
		"response": " ",
		"trial": "exp-sent",
		"word": "ajuda.",
		"trial_type": "html-keyboard-response",
		"trial_index": 301,
		"time_elapsed": 294217,
		"internal_node_id": "0.0-3.0-1.243"
	},
	{
		"rt": null,
		"stimulus": "<span style= \"font-size:30px; font-family: monospace\">+</span>",
		"response": null,
		"trial_part": "fixation",
		"trial_type": "html-keyboard-response",
		"trial_index": 302,
		"time_elapsed": 295470,
		"internal_node_id": "0.0-3.0-0.244-0.244"
	},
	{
		"rt": 482,
		"stimulus": "<span style=\"font-size:30px; font-family: monospace\">O</span>",
		"response": " ",
		"trial": "exp-sent",
		"word": "O",
		"trial_type": "html-keyboard-response",
		"trial_index": 303,
		"time_elapsed": 296204,
		"internal_node_id": "0.0-3.0-1.244"
	},
	{
		"rt": 225,
		"stimulus": "<span style=\"font-size:30px; font-family: monospace\">menino</span>",
		"response": " ",
		"trial": "exp-sent",
		"word": "menino",
		"trial_type": "html-keyboard-response",
		"trial_index": 304,
		"time_elapsed": 296683,
		"internal_node_id": "0.0-3.0-1.245"
	},
	{
		"rt": 289,
		"stimulus": "<span style=\"font-size:30px; font-family: monospace\">quebrou</span>",
		"response": " ",
		"trial": "exp-sent",
		"word": "quebrou",
		"trial_type": "html-keyboard-response",
		"trial_index": 305,
		"time_elapsed": 297225,
		"internal_node_id": "0.0-3.0-1.246"
	},
	{
		"rt": 263,
		"stimulus": "<span style=\"font-size:30px; font-family: monospace\">a</span>",
		"response": " ",
		"trial": "exp-sent",
		"word": "a",
		"trial_type": "html-keyboard-response",
		"trial_index": 306,
		"time_elapsed": 297741,
		"internal_node_id": "0.0-3.0-1.247"
	},
	{
		"rt": 250,
		"stimulus": "<span style=\"font-size:30px; font-family: monospace\">perna</span>",
		"response": " ",
		"trial": "exp-sent",
		"word": "perna",
		"trial_type": "html-keyboard-response",
		"trial_index": 307,
		"time_elapsed": 298243,
		"internal_node_id": "0.0-3.0-1.248"
	},
	{
		"rt": 409,
		"stimulus": "<span style=\"font-size:30px; font-family: monospace\">nos</span>",
		"response": " ",
		"trial": "exp-sent",
		"word": "nos",
		"trial_type": "html-keyboard-response",
		"trial_index": 308,
		"time_elapsed": 298904,
		"internal_node_id": "0.0-3.0-1.249"
	},
	{
		"rt": 514,
		"stimulus": "<span style=\"font-size:30px; font-family: monospace\">esportes.</span>",
		"response": " ",
		"trial": "exp-sent",
		"word": "esportes.",
		"trial_type": "html-keyboard-response",
		"trial_index": 309,
		"time_elapsed": 299670,
		"internal_node_id": "0.0-3.0-1.250"
	},
	{
		"rt": null,
		"stimulus": "<span style= \"font-size:30px; font-family: monospace\">+</span>",
		"response": null,
		"trial_part": "fixation",
		"trial_type": "html-keyboard-response",
		"trial_index": 310,
		"time_elapsed": 300923,
		"internal_node_id": "0.0-3.0-0.251-0.251"
	},
	{
		"rt": 444,
		"stimulus": "<span style=\"font-size:30px; font-family: monospace\">Ela</span>",
		"response": " ",
		"trial": "exp-sent",
		"word": "Ela",
		"trial_type": "html-keyboard-response",
		"trial_index": 311,
		"time_elapsed": 301619,
		"internal_node_id": "0.0-3.0-1.251"
	},
	{
		"rt": 246,
		"stimulus": "<span style=\"font-size:30px; font-family: monospace\">brincou</span>",
		"response": " ",
		"trial": "exp-sent",
		"word": "brincou",
		"trial_type": "html-keyboard-response",
		"trial_index": 312,
		"time_elapsed": 302117,
		"internal_node_id": "0.0-3.0-1.252"
	},
	{
		"rt": 171,
		"stimulus": "<span style=\"font-size:30px; font-family: monospace\">com</span>",
		"response": " ",
		"trial": "exp-sent",
		"word": "com",
		"trial_type": "html-keyboard-response",
		"trial_index": 313,
		"time_elapsed": 302539,
		"internal_node_id": "0.0-3.0-1.253"
	},
	{
		"rt": 219,
		"stimulus": "<span style=\"font-size:30px; font-family: monospace\">uma</span>",
		"response": " ",
		"trial": "exp-sent",
		"word": "uma",
		"trial_type": "html-keyboard-response",
		"trial_index": 314,
		"time_elapsed": 303010,
		"internal_node_id": "0.0-3.0-1.254"
	},
	{
		"rt": 238,
		"stimulus": "<span style=\"font-size:30px; font-family: monospace\">menina</span>",
		"response": " ",
		"trial": "exp-sent",
		"word": "menina",
		"trial_type": "html-keyboard-response",
		"trial_index": 315,
		"time_elapsed": 303502,
		"internal_node_id": "0.0-3.0-1.255"
	},
	{
		"rt": 248,
		"stimulus": "<span style=\"font-size:30px; font-family: monospace\">da</span>",
		"response": " ",
		"trial": "exp-sent",
		"word": "da",
		"trial_type": "html-keyboard-response",
		"trial_index": 316,
		"time_elapsed": 304002,
		"internal_node_id": "0.0-3.0-1.256"
	},
	{
		"rt": 255,
		"stimulus": "<span style=\"font-size:30px; font-family: monospace\">turma.</span>",
		"response": " ",
		"trial": "exp-sent",
		"word": "turma.",
		"trial_type": "html-keyboard-response",
		"trial_index": 317,
		"time_elapsed": 304509,
		"internal_node_id": "0.0-3.0-1.257"
	},
	{
		"rt": null,
		"stimulus": "<span style= \"font-size:30px; font-family: monospace\">+</span>",
		"response": null,
		"trial_part": "fixation",
		"trial_type": "html-keyboard-response",
		"trial_index": 318,
		"time_elapsed": 305762,
		"internal_node_id": "0.0-3.0-0.258-0.258"
	},
	{
		"rt": 57,
		"stimulus": "<span style=\"font-size:30px; font-family: monospace\">Ele</span>",
		"response": " ",
		"trial": "exp-sent",
		"word": "Ele",
		"trial_type": "html-keyboard-response",
		"trial_index": 319,
		"time_elapsed": 306069,
		"internal_node_id": "0.0-3.0-1.258"
	},
	{
		"rt": 340,
		"stimulus": "<span style=\"font-size:30px; font-family: monospace\">esteve</span>",
		"response": " ",
		"trial": "exp-sent",
		"word": "esteve",
		"trial_type": "html-keyboard-response",
		"trial_index": 320,
		"time_elapsed": 306662,
		"internal_node_id": "0.0-3.0-1.259"
	},
	{
		"rt": 303,
		"stimulus": "<span style=\"font-size:30px; font-family: monospace\">no</span>",
		"response": " ",
		"trial": "exp-sent",
		"word": "no",
		"trial_type": "html-keyboard-response",
		"trial_index": 321,
		"time_elapsed": 307217,
		"internal_node_id": "0.0-3.0-1.260"
	},
	{
		"rt": 235,
		"stimulus": "<span style=\"font-size:30px; font-family: monospace\">escritório</span>",
		"response": " ",
		"trial": "exp-sent",
		"word": "escritório",
		"trial_type": "html-keyboard-response",
		"trial_index": 322,
		"time_elapsed": 307704,
		"internal_node_id": "0.0-3.0-1.261"
	},
	{
		"rt": 470,
		"stimulus": "<span style=\"font-size:30px; font-family: monospace\">o</span>",
		"response": " ",
		"trial": "exp-sent",
		"word": "o",
		"trial_type": "html-keyboard-response",
		"trial_index": 323,
		"time_elapsed": 308427,
		"internal_node_id": "0.0-3.0-1.262"
	},
	{
		"rt": 318,
		"stimulus": "<span style=\"font-size:30px; font-family: monospace\">dia</span>",
		"response": " ",
		"trial": "exp-sent",
		"word": "dia",
		"trial_type": "html-keyboard-response",
		"trial_index": 324,
		"time_elapsed": 308996,
		"internal_node_id": "0.0-3.0-1.263"
	},
	{
		"rt": 289,
		"stimulus": "<span style=\"font-size:30px; font-family: monospace\">inteiro.</span>",
		"response": " ",
		"trial": "comp",
		"word": "inteiro.",
		"trial_type": "html-keyboard-response",
		"trial_index": 325,
		"time_elapsed": 309537,
		"internal_node_id": "0.0-3.0-1.264"
	},
	{
		"rt": 2888,
		"stimulus": "<span style=\"font-size:30px; font-family: monospace\">Ele esteve no parque o dia inteiro?</span>",
		"response": "n",
		"question": "Ele esteve no parque o dia inteiro?",
		"answer": "não",
		"trial": "comp",
		"trial_type": "html-keyboard-response",
		"trial_index": 326,
		"time_elapsed": 312677,
		"internal_node_id": "0.0-3.0-2.264-0.264",
		"accuracy": false
	},
	{
		"rt": null,
		"stimulus": "<span style= \"font-size:30px; font-family: monospace\">+</span>",
		"response": null,
		"trial_part": "fixation",
		"trial_type": "html-keyboard-response",
		"trial_index": 327,
		"time_elapsed": 314181,
		"internal_node_id": "0.0-3.0-0.265-0.265"
	},
	{
		"rt": 390,
		"stimulus": "<span style=\"font-size:30px; font-family: monospace\">As</span>",
		"response": " ",
		"trial": "exp-sent",
		"word": "As",
		"trial_type": "html-keyboard-response",
		"trial_index": 328,
		"time_elapsed": 314823,
		"internal_node_id": "0.0-3.0-1.265"
	},
	{
		"rt": 305,
		"stimulus": "<span style=\"font-size:30px; font-family: monospace\">crianças</span>",
		"response": " ",
		"trial": "exp-sent",
		"word": "crianças",
		"trial_type": "html-keyboard-response",
		"trial_index": 329,
		"time_elapsed": 315381,
		"internal_node_id": "0.0-3.0-1.266"
	},
	{
		"rt": 269,
		"stimulus": "<span style=\"font-size:30px; font-family: monospace\">viram</span>",
		"response": " ",
		"trial": "exp-sent",
		"word": "viram",
		"trial_type": "html-keyboard-response",
		"trial_index": 330,
		"time_elapsed": 315903,
		"internal_node_id": "0.0-3.0-1.267"
	},
	{
		"rt": 578,
		"stimulus": "<span style=\"font-size:30px; font-family: monospace\">um</span>",
		"response": " ",
		"trial": "exp-sent",
		"word": "um",
		"trial_type": "html-keyboard-response",
		"trial_index": 331,
		"time_elapsed": 316733,
		"internal_node_id": "0.0-3.0-1.268"
	},
	{
		"rt": 493,
		"stimulus": "<span style=\"font-size:30px; font-family: monospace\">vaga-lume</span>",
		"response": " ",
		"trial": "exp-sent",
		"word": "vaga-lume",
		"trial_type": "html-keyboard-response",
		"trial_index": 332,
		"time_elapsed": 317477,
		"internal_node_id": "0.0-3.0-1.269"
	},
	{
		"rt": 311,
		"stimulus": "<span style=\"font-size:30px; font-family: monospace\">nos</span>",
		"response": " ",
		"trial": "exp-sent",
		"word": "nos",
		"trial_type": "html-keyboard-response",
		"trial_index": 333,
		"time_elapsed": 318041,
		"internal_node_id": "0.0-3.0-1.270"
	},
	{
		"rt": 367,
		"stimulus": "<span style=\"font-size:30px; font-family: monospace\">arbustos.</span>",
		"response": " ",
		"trial": "exp-sent",
		"word": "arbustos.",
		"trial_type": "html-keyboard-response",
		"trial_index": 334,
		"time_elapsed": 318660,
		"internal_node_id": "0.0-3.0-1.271"
	},
	{
		"rt": null,
		"stimulus": "<span style= \"font-size:30px; font-family: monospace\">+</span>",
		"response": null,
		"trial_part": "fixation",
		"trial_type": "html-keyboard-response",
		"trial_index": 335,
		"time_elapsed": 319913,
		"internal_node_id": "0.0-3.0-0.272-0.272"
	},
	{
		"rt": 364,
		"stimulus": "<span style=\"font-size:30px; font-family: monospace\">Ontem</span>",
		"response": " ",
		"trial": "exp-sent",
		"word": "Ontem",
		"trial_type": "html-keyboard-response",
		"trial_index": 336,
		"time_elapsed": 320529,
		"internal_node_id": "0.0-3.0-1.272"
	},
	{
		"rt": 208,
		"stimulus": "<span style=\"font-size:30px; font-family: monospace\">o</span>",
		"response": " ",
		"trial": "exp-sent",
		"word": "o",
		"trial_type": "html-keyboard-response",
		"trial_index": 337,
		"time_elapsed": 320989,
		"internal_node_id": "0.0-3.0-1.273"
	},
	{
		"rt": 158,
		"stimulus": "<span style=\"font-size:30px; font-family: monospace\">funcionário</span>",
		"response": " ",
		"trial": "exp-sent",
		"word": "funcionário",
		"trial_type": "html-keyboard-response",
		"trial_index": 338,
		"time_elapsed": 321400,
		"internal_node_id": "0.0-3.0-1.274"
	},
	{
		"rt": 187,
		"stimulus": "<span style=\"font-size:30px; font-family: monospace\">pediu</span>",
		"response": " ",
		"trial": "exp-sent",
		"word": "pediu",
		"trial_type": "html-keyboard-response",
		"trial_index": 339,
		"time_elapsed": 321838,
		"internal_node_id": "0.0-3.0-1.275"
	},
	{
		"rt": 190,
		"stimulus": "<span style=\"font-size:30px; font-family: monospace\">autorização</span>",
		"response": " ",
		"trial": "exp-sent",
		"word": "autorização",
