"view_history","rt","trial_type","trial_index","time_elapsed","internal_node_id","stimulus","response","trial_part","trial","word","question","answer","accuracy"
"[{""page_index"":0,""viewing_time"":23301},{""page_index"":1,""viewing_time"":8530}]","31832","instructions","0","31833","0.0-0.0","","","","","","","",""
"","null","html-keyboard-response","1","32938","0.0-1.0-0.0-0.0","<span style= ""font-size:30px; font-family: monospace"">+</span>","null","fixation","","","","",""
"","5889","html-keyboard-response","2","39079","0.0-1.0-1.0","<span style=""font-size:30px; font-family: monospace"">O</span>"," ","","prac-sent","O","","",""
"","517","html-keyboard-response","3","39849","0.0-1.0-1.1","<span style=""font-size:30px; font-family: monospace"">dia</span>"," ","","prac-sent","dia","","",""
"","467","html-keyboard-response","4","40568","0.0-1.0-1.2","<span style=""font-size:30px; font-family: monospace"">estará</span>"," ","","prac-sent","estará","","",""
"","519","html-keyboard-response","5","41340","0.0-1.0-1.3","<span style=""font-size:30px; font-family: monospace"">cheio</span>"," ","","prac-sent","cheio","","",""
"","356","html-keyboard-response","6","41949","0.0-1.0-1.4","<span style=""font-size:30px; font-family: monospace"">de</span>"," ","","prac-sent","de","","",""
"","343","html-keyboard-response","7","42544","0.0-1.0-1.5","<span style=""font-size:30px; font-family: monospace"">nuvens</span>"," ","","prac-sent","nuvens","","",""
"","348","html-keyboard-response","8","43144","0.0-1.0-1.6","<span style=""font-size:30px; font-family: monospace"">hoje.</span>"," ","","prac-sent","hoje.","","",""
"","null","html-keyboard-response","9","44398","0.0-1.0-0.7-0.7","<span style= ""font-size:30px; font-family: monospace"">+</span>","null","fixation","","","","",""
"","658","html-keyboard-response","10","45309","0.0-1.0-1.7","<span style=""font-size:30px; font-family: monospace"">A</span>"," ","","prac-sent","A","","",""
"","391","html-keyboard-response","11","45952","0.0-1.0-1.8","<span style=""font-size:30px; font-family: monospace"">caneca</span>"," ","","prac-sent","caneca","","",""
"","440","html-keyboard-response","12","46644","0.0-1.0-1.9","<span style=""font-size:30px; font-family: monospace"">colorida</span>"," ","","prac-sent","colorida","","",""
"","415","html-keyboard-response","13","47311","0.0-1.0-1.10","<span style=""font-size:30px; font-family: monospace"">caiu</span>"," ","","prac-sent","caiu","","",""
"","345","html-keyboard-response","14","47909","0.0-1.0-1.11","<span style=""font-size:30px; font-family: monospace"">da</span>"," ","","prac-sent","da","","",""
"","273","html-keyboard-response","15","48434","0.0-1.0-1.12","<span style=""font-size:30px; font-family: monospace"">mesa</span>"," ","","prac-sent","mesa","","",""
"","432","html-keyboard-response","16","49119","0.0-1.0-1.13","<span style=""font-size:30px; font-family: monospace"">de</span>"," ","","prac-sent","de","","",""
"","269","html-keyboard-response","17","49641","0.0-1.0-1.14","<span style=""font-size:30px; font-family: monospace"">jantar.</span>"," ","","prac-comp","jantar.","","",""
"","8844","html-keyboard-response","18","58738","0.0-1.0-2.14-0.14","<span style=""font-size:30px; font-family: monospace"">A caneca permaneceu na mesa?</span>","n","","prac-comp","","A caneca permaneceu na mesa?","não","false"
"[{""page_index"":0,""viewing_time"":15989}]","15989","instructions","19","75229","0.0-2.0","","","","","","","",""
"","null","html-keyboard-response","20","76332","0.0-3.0-0.0-0.0","<span style= ""font-size:30px; font-family: monospace"">+</span>","null","fixation","","","","",""
"","527","html-keyboard-response","21","77112","0.0-3.0-1.0","<span style=""font-size:30px; font-family: monospace"">O</span>"," ","","exp-sent","O","","",""
"","399","html-keyboard-response","22","77764","0.0-3.0-1.1","<span style=""font-size:30px; font-family: monospace"">moço</span>"," ","","exp-sent","moço","","",""
"","476","html-keyboard-response","23","78492","0.0-3.0-1.2","<span style=""font-size:30px; font-family: monospace"">usou</span>"," ","","exp-sent","usou","","",""
"","348","html-keyboard-response","24","79092","0.0-3.0-1.3","<span style=""font-size:30px; font-family: monospace"">várias</span>"," ","","exp-sent","várias","","",""
"","338","html-keyboard-response","25","79683","0.0-3.0-1.4","<span style=""font-size:30px; font-family: monospace"">velas</span>"," ","","exp-sent","velas","","",""
"","357","html-keyboard-response","26","80292","0.0-3.0-1.5","<span style=""font-size:30px; font-family: monospace"">no</span>"," ","","exp-sent","no","","",""
"","309","html-keyboard-response","27","80854","0.0-3.0-1.6","<span style=""font-size:30px; font-family: monospace"">enfeite</span>"," ","","exp-sent","enfeite","","",""
"","382","html-keyboard-response","28","81488","0.0-3.0-1.7","<span style=""font-size:30px; font-family: monospace"">de</span>"," ","","exp-sent","de","","",""
"","340","html-keyboard-response","29","82080","0.0-3.0-1.8","<span style=""font-size:30px; font-family: monospace"">mesa.</span>"," ","","exp-sent","mesa.","","",""
"","null","html-keyboard-response","30","83334","0.0-3.0-0.9-0.9","<span style= ""font-size:30px; font-family: monospace"">+</span>","null","fixation","","","","",""
"","650","html-keyboard-response","31","84236","0.0-3.0-1.9","<span style=""font-size:30px; font-family: monospace"">Gostamos</span>"," ","","exp-sent","Gostamos","","",""
"","406","html-keyboard-response","32","84894","0.0-3.0-1.10","<span style=""font-size:30px; font-family: monospace"">de</span>"," ","","exp-sent","de","","",""
"","316","html-keyboard-response","33","85462","0.0-3.0-1.11","<span style=""font-size:30px; font-family: monospace"">suco</span>"," ","","exp-sent","suco","","",""
"","482","html-keyboard-response","34","86196","0.0-3.0-1.12","<span style=""font-size:30px; font-family: monospace"">em</span>"," ","","exp-sent","em","","",""
"","288","html-keyboard-response","35","86736","0.0-3.0-1.13","<span style=""font-size:30px; font-family: monospace"">garrafa</span>"," ","","exp-sent","garrafa","","",""
"","320","html-keyboard-response","36","87308","0.0-3.0-1.14","<span style=""font-size:30px; font-family: monospace"">de</span>"," ","","exp-sent","de","","",""
"","345","html-keyboard-response","37","87905","0.0-3.0-1.15","<span style=""font-size:30px; font-family: monospace"">tamanho</span>"," ","","exp-sent","tamanho","","",""
"","386","html-keyboard-response","38","88544","0.0-3.0-1.16","<span style=""font-size:30px; font-family: monospace"">pequeno.</span>"," ","","exp-sent","pequeno.","","",""
"","null","html-keyboard-response","39","89797","0.0-3.0-0.17-0.17","<span style= ""font-size:30px; font-family: monospace"">+</span>","null","fixation","","","","",""
"","1741","html-keyboard-response","40","91790","0.0-3.0-1.17","<span style=""font-size:30px; font-family: monospace"">Sua</span>"," ","","exp-sent","Sua","","",""
"","448","html-keyboard-response","41","92491","0.0-3.0-1.18","<span style=""font-size:30px; font-family: monospace"">filha</span>"," ","","exp-sent","filha","","",""
"","435","html-keyboard-response","42","93178","0.0-3.0-1.19","<span style=""font-size:30px; font-family: monospace"">é</span>"," ","","exp-sent","é","","",""
"","322","html-keyboard-response","43","93752","0.0-3.0-1.20","<span style=""font-size:30px; font-family: monospace"">muito</span>"," ","","exp-sent","muito","","",""
"","326","html-keyboard-response","44","94329","0.0-3.0-1.21","<span style=""font-size:30px; font-family: monospace"">capaz</span>"," ","","exp-sent","capaz","","",""
"","345","html-keyboard-response","45","94926","0.0-3.0-1.22","<span style=""font-size:30px; font-family: monospace"">e</span>"," ","","exp-sent","e","","",""
"","741","html-keyboard-response","46","95919","0.0-3.0-1.23","<span style=""font-size:30px; font-family: monospace"">esforçada.</span>"," ","","exp-sent","esforçada.","","",""
"","null","html-keyboard-response","47","97172","0.0-3.0-0.24-0.24","<span style= ""font-size:30px; font-family: monospace"">+</span>","null","fixation","","","","",""
"","638","html-keyboard-response","48","98063","0.0-3.0-1.24","<span style=""font-size:30px; font-family: monospace"">A</span>"," ","","exp-sent","A","","",""
"","366","html-keyboard-response","49","98682","0.0-3.0-1.25","<span style=""font-size:30px; font-family: monospace"">batida</span>"," ","","exp-sent","batida","","",""
"","703","html-keyboard-response","50","99638","0.0-3.0-1.26","<span style=""font-size:30px; font-family: monospace"">causou</span>"," ","","exp-sent","causou","","",""
"","379","html-keyboard-response","51","100268","0.0-3.0-1.27","<span style=""font-size:30px; font-family: monospace"">muita</span>"," ","","exp-sent","muita","","",""
"","372","html-keyboard-response","52","100893","0.0-3.0-1.28","<span style=""font-size:30px; font-family: monospace"">confusão</span>"," ","","exp-sent","confusão","","",""
"","634","html-keyboard-response","53","101779","0.0-3.0-1.29","<span style=""font-size:30px; font-family: monospace"">na</span>"," ","","exp-sent","na","","",""
"","450","html-keyboard-response","54","102481","0.0-3.0-1.30","<span style=""font-size:30px; font-family: monospace"">estrada.</span>"," ","","exp-sent","estrada.","","",""
"","null","html-keyboard-response","55","103735","0.0-3.0-0.31-0.31","<span style= ""font-size:30px; font-family: monospace"">+</span>","null","fixation","","","","",""
"","454","html-keyboard-response","56","104441","0.0-3.0-1.31","<span style=""font-size:30px; font-family: monospace"">Eu</span>"," ","","exp-sent","Eu","","",""
"","516","html-keyboard-response","57","105209","0.0-3.0-1.32","<span style=""font-size:30px; font-family: monospace"">cozinhei</span>"," ","","exp-sent","cozinhei","","",""
"","289","html-keyboard-response","58","105750","0.0-3.0-1.33","<span style=""font-size:30px; font-family: monospace"">um</span>"," ","","exp-sent","um","","",""
"","234","html-keyboard-response","59","106236","0.0-3.0-1.34","<span style=""font-size:30px; font-family: monospace"">almoço</span>"," ","","exp-sent","almoço","","",""
"","277","html-keyboard-response","60","106765","0.0-3.0-1.35","<span style=""font-size:30px; font-family: monospace"">nutritivo</span>"," ","","exp-sent","nutritivo","","",""
"","322","html-keyboard-response","61","107339","0.0-3.0-1.36","<span style=""font-size:30px; font-family: monospace"">para</span>"," ","","exp-sent","para","","",""
"","300","html-keyboard-response","62","107891","0.0-3.0-1.37","<span style=""font-size:30px; font-family: monospace"">hoje.</span>"," ","","comp","hoje.","","",""
"","2589","html-keyboard-response","63","110733","0.0-3.0-2.37-0.37","<span style=""font-size:30px; font-family: monospace"">O almoço era nutritivo?</span>","s","","comp","","O almoço era nutritivo?","sim","false"
"","null","html-keyboard-response","64","112236","0.0-3.0-0.38-0.38","<span style= ""font-size:30px; font-family: monospace"">+</span>","null","fixation","","","","",""
"","603","html-keyboard-response","65","113091","0.0-3.0-1.38","<span style=""font-size:30px; font-family: monospace"">No</span>"," ","","exp-sent","No","","",""
"","506","html-keyboard-response","66","113849","0.0-3.0-1.39","<span style=""font-size:30px; font-family: monospace"">passado</span>"," ","","exp-sent","passado","","",""
"","367","html-keyboard-response","67","114469","0.0-3.0-1.40","<span style=""font-size:30px; font-family: monospace"">houve</span>"," ","","exp-sent","houve","","",""
"","374","html-keyboard-response","68","115095","0.0-3.0-1.41","<span style=""font-size:30px; font-family: monospace"">uma</span>"," ","","exp-sent","uma","","",""
"","285","html-keyboard-response","69","115632","0.0-3.0-1.42","<span style=""font-size:30px; font-family: monospace"">rebelião</span>"," ","","exp-sent","rebelião","","",""
"","366","html-keyboard-response","70","116250","0.0-3.0-1.43","<span style=""font-size:30px; font-family: monospace"">nesta</span>"," ","","exp-sent","nesta","","",""
"","304","html-keyboard-response","71","116806","0.0-3.0-1.44","<span style=""font-size:30px; font-family: monospace"">cidade.</span>"," ","","exp-sent","cidade.","","",""
"","null","html-keyboard-response","72","118059","0.0-3.0-0.45-0.45","<span style= ""font-size:30px; font-family: monospace"">+</span>","null","fixation","","","","",""
"","256","html-keyboard-response","73","118567","0.0-3.0-1.45","<span style=""font-size:30px; font-family: monospace"">Ele</span>"," ","","exp-sent","Ele","","",""
"","340","html-keyboard-response","74","119160","0.0-3.0-1.46","<span style=""font-size:30px; font-family: monospace"">fundou</span>"," ","","exp-sent","fundou","","",""
"","391","html-keyboard-response","75","119802","0.0-3.0-1.47","<span style=""font-size:30px; font-family: monospace"">uma</span>"," ","","exp-sent","uma","","",""
"","320","html-keyboard-response","76","120374","0.0-3.0-1.48","<span style=""font-size:30px; font-family: monospace"">empresa</span>"," ","","exp-sent","empresa","","",""
"","393","html-keyboard-response","77","121020","0.0-3.0-1.49","<span style=""font-size:30px; font-family: monospace"">privada</span>"," ","","exp-sent","privada","","",""
"","427","html-keyboard-response","78","121698","0.0-3.0-1.50","<span style=""font-size:30px; font-family: monospace"">sem</span>"," ","","exp-sent","sem","","",""
"","301","html-keyboard-response","79","122251","0.0-3.0-1.51","<span style=""font-size:30px; font-family: monospace"">ajuda.</span>"," ","","exp-sent","ajuda.","","",""
"","null","html-keyboard-response","80","123505","0.0-3.0-0.52-0.52","<span style= ""font-size:30px; font-family: monospace"">+</span>","null","fixation","","","","",""
"","319","html-keyboard-response","81","124076","0.0-3.0-1.52","<span style=""font-size:30px; font-family: monospace"">As</span>"," ","","exp-sent","As","","",""
"","365","html-keyboard-response","82","124693","0.0-3.0-1.53","<span style=""font-size:30px; font-family: monospace"">meninas</span>"," ","","exp-sent","meninas","","",""
"","352","html-keyboard-response","83","125297","0.0-3.0-1.54","<span style=""font-size:30px; font-family: monospace"">encontraram</span>"," ","","exp-sent","encontraram","","",""
"","469","html-keyboard-response","84","126018","0.0-3.0-1.55","<span style=""font-size:30px; font-family: monospace"">um</span>"," ","","exp-sent","um","","",""
"","359","html-keyboard-response","85","126629","0.0-3.0-1.56","<span style=""font-size:30px; font-family: monospace"">rato</span>"," ","","exp-sent","rato","","",""
"","290","html-keyboard-response","86","127171","0.0-3.0-1.57","<span style=""font-size:30px; font-family: monospace"">dentro</span>"," ","","exp-sent","dentro","","",""
"","331","html-keyboard-response","87","127754","0.0-3.0-1.58","<span style=""font-size:30px; font-family: monospace"">de</span>"," ","","exp-sent","de","","",""
"","427","html-keyboard-response","88","128433","0.0-3.0-1.59","<span style=""font-size:30px; font-family: monospace"">casa.</span>"," ","","exp-sent","casa.","","",""
"","null","html-keyboard-response","89","129687","0.0-3.0-0.60-0.60","<span style= ""font-size:30px; font-family: monospace"">+</span>","null","fixation","","","","",""
"","350","html-keyboard-response","90","130288","0.0-3.0-1.60","<span style=""font-size:30px; font-family: monospace"">O</span>"," ","","exp-sent","O","","",""
"","325","html-keyboard-response","91","130866","0.0-3.0-1.61","<span style=""font-size:30px; font-family: monospace"">texto</span>"," ","","exp-sent","texto","","",""
"","315","html-keyboard-response","92","131433","0.0-3.0-1.62","<span style=""font-size:30px; font-family: monospace"">tinha</span>"," ","","exp-sent","tinha","","",""
"","287","html-keyboard-response","93","131971","0.0-3.0-1.63","<span style=""font-size:30px; font-family: monospace"">ideias</span>"," ","","exp-sent","ideias","","",""
"","301","html-keyboard-response","94","132524","0.0-3.0-1.64","<span style=""font-size:30px; font-family: monospace"">vagas</span>"," ","","exp-sent","vagas","","",""
"","344","html-keyboard-response","95","133120","0.0-3.0-1.65","<span style=""font-size:30px; font-family: monospace"">e</span>"," ","","exp-sent","e","","",""
"","272","html-keyboard-response","96","133645","0.0-3.0-1.66","<span style=""font-size:30px; font-family: monospace"">confusas.</span>"," ","","exp-sent","confusas.","","",""
"","null","html-keyboard-response","97","134898","0.0-3.0-0.67-0.67","<span style= ""font-size:30px; font-family: monospace"">+</span>","null","fixation","","","","",""
"","362","html-keyboard-response","98","135513","0.0-3.0-1.67","<span style=""font-size:30px; font-family: monospace"">As</span>"," ","","exp-sent","As","","",""
"","338","html-keyboard-response","99","136103","0.0-3.0-1.68","<span style=""font-size:30px; font-family: monospace"">crianças</span>"," ","","exp-sent","crianças","","",""
"","510","html-keyboard-response","100","136865","0.0-3.0-1.69","<span style=""font-size:30px; font-family: monospace"">viram</span>"," ","","exp-sent","viram","","",""
"","343","html-keyboard-response","101","137460","0.0-3.0-1.70","<span style=""font-size:30px; font-family: monospace"">a</span>"," ","","exp-sent","a","","",""
"","268","html-keyboard-response","102","137981","0.0-3.0-1.71","<span style=""font-size:30px; font-family: monospace"">acrobata</span>"," ","","exp-sent","acrobata","","",""
"","382","html-keyboard-response","103","138615","0.0-3.0-1.72","<span style=""font-size:30px; font-family: monospace"">talentosa</span>"," ","","exp-sent","talentosa","","",""
"","355","html-keyboard-response","104","139223","0.0-3.0-1.73","<span style=""font-size:30px; font-family: monospace"">no</span>"," ","","exp-sent","no","","",""
"","329","html-keyboard-response","105","139803","0.0-3.0-1.74","<span style=""font-size:30px; font-family: monospace"">circo.</span>"," ","","comp","circo.","","",""
"","2491","html-keyboard-response","106","142547","0.0-3.0-2.74-0.74","<span style=""font-size:30px; font-family: monospace"">As crianças viram o palhaço no circo?</span>","n","","comp","","As crianças viram o palhaço no circo?","não","false"
"","null","html-keyboard-response","107","144051","0.0-3.0-0.75-0.75","<span style= ""font-size:30px; font-family: monospace"">+</span>","null","fixation","","","","",""
"","486","html-keyboard-response","108","144789","0.0-3.0-1.75","<span style=""font-size:30px; font-family: monospace"">Ganhamos</span>"," ","","exp-sent","Ganhamos","","",""
"","399","html-keyboard-response","109","145440","0.0-3.0-1.76","<span style=""font-size:30px; font-family: monospace"">passagem</span>"," ","","exp-sent","passagem","","",""
"","315","html-keyboard-response","110","146007","0.0-3.0-1.77","<span style=""font-size:30px; font-family: monospace"">para</span>"," ","","exp-sent","para","","",""
"","243","html-keyboard-response","111","146503","0.0-3.0-1.78","<span style=""font-size:30px; font-family: monospace"">uma</span>"," ","","exp-sent","uma","","",""
"","177","html-keyboard-response","112","146932","0.0-3.0-1.79","<span style=""font-size:30px; font-family: monospace"">viagem</span>"," ","","exp-sent","viagem","","",""
"","247","html-keyboard-response","113","147431","0.0-3.0-1.80","<span style=""font-size:30px; font-family: monospace"">de</span>"," ","","exp-sent","de","","",""
"","217","html-keyboard-response","114","147900","0.0-3.0-1.81","<span style=""font-size:30px; font-family: monospace"">férias.</span>"," ","","exp-sent","férias.","","",""
"","null","html-keyboard-response","115","149153","0.0-3.0-0.82-0.82","<span style= ""font-size:30px; font-family: monospace"">+</span>","null","fixation","","","","",""
"","562","html-keyboard-response","116","149967","0.0-3.0-1.82","<span style=""font-size:30px; font-family: monospace"">Caiu</span>"," ","","exp-sent","Caiu","","",""
"","239","html-keyboard-response","117","150458","0.0-3.0-1.83","<span style=""font-size:30px; font-family: monospace"">algo</span>"," ","","exp-sent","algo","","",""
"","240","html-keyboard-response","118","150950","0.0-3.0-1.84","<span style=""font-size:30px; font-family: monospace"">no</span>"," ","","exp-sent","no","","",""
"","202","html-keyboard-response","119","151406","0.0-3.0-1.85","<span style=""font-size:30px; font-family: monospace"">meu</span>"," ","","exp-sent","meu","","",""
"","315","html-keyboard-response","120","151974","0.0-3.0-1.86","<span style=""font-size:30px; font-family: monospace"">olho</span>"," ","","exp-sent","olho","","",""
"","989","html-keyboard-response","121","153216","0.0-3.0-1.87","<span style=""font-size:30px; font-family: monospace"">ontem</span>"," ","","exp-sent","ontem","","",""
"","416","html-keyboard-response","122","153885","0.0-3.0-1.88","<span style=""font-size:30px; font-family: monospace"">de</span>"," ","","exp-sent","de","","",""
"","291","html-keyboard-response","123","154427","0.0-3.0-1.89","<span style=""font-size:30px; font-family: monospace"">tarde.</span>"," ","","exp-sent","tarde.","","",""
"","null","html-keyboard-response","124","155681","0.0-3.0-0.90-0.90","<span style= ""font-size:30px; font-family: monospace"">+</span>","null","fixation","","","","",""
"","562","html-keyboard-response","125","156494","0.0-3.0-1.90","<span style=""font-size:30px; font-family: monospace"">Não</span>"," ","","exp-sent","Não","","",""
"","196","html-keyboard-response","126","156943","0.0-3.0-1.91","<span style=""font-size:30px; font-family: monospace"">havia</span>"," ","","exp-sent","havia","","",""
"","209","html-keyboard-response","127","157404","0.0-3.0-1.92","<span style=""font-size:30px; font-family: monospace"">mais</span>"," ","","exp-sent","mais","","",""
"","210","html-keyboard-response","128","157866","0.0-3.0-1.93","<span style=""font-size:30px; font-family: monospace"">nenhum</span>"," ","","exp-sent","nenhum","","",""
"","255","html-keyboard-response","129","158373","0.0-3.0-1.94","<span style=""font-size:30px; font-family: monospace"">ingresso</span>"," ","","exp-sent","ingresso","","",""
"","271","html-keyboard-response","130","158896","0.0-3.0-1.95","<span style=""font-size:30px; font-family: monospace"">para</span>"," ","","exp-sent","para","","",""
"","270","html-keyboard-response","131","159418","0.0-3.0-1.96","<span style=""font-size:30px; font-family: monospace"">o</span>"," ","","exp-sent","o","","",""
"","252","html-keyboard-response","132","159922","0.0-3.0-1.97","<span style=""font-size:30px; font-family: monospace"">evento.</span>"," ","","exp-sent","evento.","","",""
"","null","html-keyboard-response","133","161176","0.0-3.0-0.98-0.98","<span style= ""font-size:30px; font-family: monospace"">+</span>","null","fixation","","","","",""
"","526","html-keyboard-response","134","161954","0.0-3.0-1.98","<span style=""font-size:30px; font-family: monospace"">A</span>"," ","","exp-sent","A","","",""
"","289","html-keyboard-response","135","162495","0.0-3.0-1.99","<span style=""font-size:30px; font-family: monospace"">médica</span>"," ","","exp-sent","médica","","",""
"","434","html-keyboard-response","136","163181","0.0-3.0-1.100","<span style=""font-size:30px; font-family: monospace"">descobriu</span>"," ","","exp-sent","descobriu","","",""
"","267","html-keyboard-response","137","163701","0.0-3.0-1.101","<span style=""font-size:30px; font-family: monospace"">uma</span>"," ","","exp-sent","uma","","",""
"","223","html-keyboard-response","138","164176","0.0-3.0-1.102","<span style=""font-size:30px; font-family: monospace"">cura</span>"," ","","exp-sent","cura","","",""
"","254","html-keyboard-response","139","164682","0.0-3.0-1.103","<span style=""font-size:30px; font-family: monospace"">para</span>"," ","","exp-sent","para","","",""
"","241","html-keyboard-response","140","165175","0.0-3.0-1.104","<span style=""font-size:30px; font-family: monospace"">a</span>"," ","","exp-sent","a","","",""
"","312","html-keyboard-response","141","165739","0.0-3.0-1.105","<span style=""font-size:30px; font-family: monospace"">doença.</span>"," ","","exp-sent","doença.","","",""
"","null","html-keyboard-response","142","166993","0.0-3.0-0.106-0.106","<span style= ""font-size:30px; font-family: monospace"">+</span>","null","fixation","","","","",""
"","541","html-keyboard-response","143","167786","0.0-3.0-1.106","<span style=""font-size:30px; font-family: monospace"">O</span>"," ","","exp-sent","O","","",""
"","438","html-keyboard-response","144","168475","0.0-3.0-1.107","<span style=""font-size:30px; font-family: monospace"">menino</span>"," ","","exp-sent","menino","","",""
"","286","html-keyboard-response","145","169013","0.0-3.0-1.108","<span style=""font-size:30px; font-family: monospace"">riscou</span>"," ","","exp-sent","riscou","","",""
"","241","html-keyboard-response","146","169506","0.0-3.0-1.109","<span style=""font-size:30px; font-family: monospace"">o</span>"," ","","exp-sent","o","","",""
"","285","html-keyboard-response","147","170043","0.0-3.0-1.110","<span style=""font-size:30px; font-family: monospace"">caderno</span>"," ","","exp-sent","caderno","","",""
"","265","html-keyboard-response","148","170560","0.0-3.0-1.111","<span style=""font-size:30px; font-family: monospace"">com</span>"," ","","exp-sent","com","","",""
"","230","html-keyboard-response","149","171043","0.0-3.0-1.112","<span style=""font-size:30px; font-family: monospace"">a</span>"," ","","exp-sent","a","","",""
"","187","html-keyboard-response","150","171481","0.0-3.0-1.113","<span style=""font-size:30px; font-family: monospace"">caneta.</span>"," ","","comp","caneta.","","",""
"","3058","html-keyboard-response","151","174792","0.0-3.0-2.113-0.113","<span style=""font-size:30px; font-family: monospace"">O menino riscou a parede com a caneta?</span>","n","","comp","","O menino riscou a parede com a caneta?","não","false"
"","null","html-keyboard-response","152","176295","0.0-3.0-0.114-0.114","<span style= ""font-size:30px; font-family: monospace"">+</span>","null","fixation","","","","",""
"","362","html-keyboard-response","153","176909","0.0-3.0-1.114","<span style=""font-size:30px; font-family: monospace"">O</span>"," ","","exp-sent","O","","",""
"","421","html-keyboard-response","154","177582","0.0-3.0-1.115","<span style=""font-size:30px; font-family: monospace"">texto</span>"," ","","exp-sent","texto","","",""
"","282","html-keyboard-response","155","178117","0.0-3.0-1.116","<span style=""font-size:30px; font-family: monospace"">trazia</span>"," ","","exp-sent","trazia","","",""
"","198","html-keyboard-response","156","178566","0.0-3.0-1.117","<span style=""font-size:30px; font-family: monospace"">um</span>"," ","","exp-sent","um","","",""
"","194","html-keyboard-response","157","179012","0.0-3.0-1.118","<span style=""font-size:30px; font-family: monospace"">argumento</span>"," ","","exp-sent","argumento","","",""
"","240","html-keyboard-response","158","179505","0.0-3.0-1.119","<span style=""font-size:30px; font-family: monospace"">central</span>"," ","","exp-sent","central","","",""
"","280","html-keyboard-response","159","180037","0.0-3.0-1.120","<span style=""font-size:30px; font-family: monospace"">para</span>"," ","","exp-sent","para","","",""
"","256","html-keyboard-response","160","180546","0.0-3.0-1.121","<span style=""font-size:30px; font-family: monospace"">a</span>"," ","","exp-sent","a","","",""
"","184","html-keyboard-response","161","180982","0.0-3.0-1.122","<span style=""font-size:30px; font-family: monospace"">conversa.</span>"," ","","exp-sent","conversa.","","",""
"","null","html-keyboard-response","162","182234","0.0-3.0-0.123-0.123","<span style= ""font-size:30px; font-family: monospace"">+</span>","null","fixation","","","","",""
"","333","html-keyboard-response","163","182820","0.0-3.0-1.123","<span style=""font-size:30px; font-family: monospace"">Ontem</span>"," ","","exp-sent","Ontem","","",""
"","241","html-keyboard-response","164","183312","0.0-3.0-1.124","<span style=""font-size:30px; font-family: monospace"">a</span>"," ","","exp-sent","a","","",""
"","192","html-keyboard-response","165","183756","0.0-3.0-1.125","<span style=""font-size:30px; font-family: monospace"">temperatura</span>"," ","","exp-sent","temperatura","","",""
"","279","html-keyboard-response","166","184287","0.0-3.0-1.126","<span style=""font-size:30px; font-family: monospace"">estava</span>"," ","","exp-sent","estava","","",""
"","190","html-keyboard-response","167","184728","0.0-3.0-1.127","<span style=""font-size:30px; font-family: monospace"">amena</span>"," ","","exp-sent","amena","","",""
"","221","html-keyboard-response","168","185201","0.0-3.0-1.128","<span style=""font-size:30px; font-family: monospace"">durante</span>"," ","","exp-sent","durante","","",""
"","263","html-keyboard-response","169","185716","0.0-3.0-1.129","<span style=""font-size:30px; font-family: monospace"">o</span>"," ","","exp-sent","o","","",""
"","205","html-keyboard-response","170","186174","0.0-3.0-1.130","<span style=""font-size:30px; font-family: monospace"">dia.</span>"," ","","exp-sent","dia.","","",""
"","null","html-keyboard-response","171","187427","0.0-3.0-0.131-0.131","<span style= ""font-size:30px; font-family: monospace"">+</span>","null","fixation","","","","",""
"","153","html-keyboard-response","172","187832","0.0-3.0-1.131","<span style=""font-size:30px; font-family: monospace"">Havia</span>"," ","","exp-sent","Havia","","",""
"","379","html-keyboard-response","173","188463","0.0-3.0-1.132","<span style=""font-size:30px; font-family: monospace"">um</span>"," ","","exp-sent","um","","",""
"","287","html-keyboard-response","174","189003","0.0-3.0-1.133","<span style=""font-size:30px; font-family: monospace"">machucado</span>"," ","","exp-sent","machucado","","",""
"","284","html-keyboard-response","175","189539","0.0-3.0-1.134","<span style=""font-size:30px; font-family: monospace"">no</span>"," ","","exp-sent","no","","",""
"","253","html-keyboard-response","176","190044","0.0-3.0-1.135","<span style=""font-size:30px; font-family: monospace"">dedo</span>"," ","","exp-sent","dedo","","",""
"","244","html-keyboard-response","177","190541","0.0-3.0-1.136","<span style=""font-size:30px; font-family: monospace"">da</span>"," ","","exp-sent","da","","",""
"","282","html-keyboard-response","178","191076","0.0-3.0-1.137","<span style=""font-size:30px; font-family: monospace"">criança.</span>"," ","","exp-sent","criança.","","",""
"","null","html-keyboard-response","179","192329","0.0-3.0-0.138-0.138","<span style= ""font-size:30px; font-family: monospace"">+</span>","null","fixation","","","","",""
"","159","html-keyboard-response","180","192740","0.0-3.0-1.138","<span style=""font-size:30px; font-family: monospace"">A</span>"," ","","exp-sent","A","","",""
"","444","html-keyboard-response","181","193435","0.0-3.0-1.139","<span style=""font-size:30px; font-family: monospace"">borboleta</span>"," ","","exp-sent","borboleta","","",""
"","365","html-keyboard-response","182","194052","0.0-3.0-1.140","<span style=""font-size:30px; font-family: monospace"">pousou</span>"," ","","exp-sent","pousou","","",""
"","260","html-keyboard-response","183","194563","0.0-3.0-1.141","<span style=""font-size:30px; font-family: monospace"">no</span>"," ","","exp-sent","no","","",""
"","205","html-keyboard-response","184","195020","0.0-3.0-1.142","<span style=""font-size:30px; font-family: monospace"">ombro</span>"," ","","exp-sent","ombro","","",""
"","334","html-keyboard-response","185","195606","0.0-3.0-1.143","<span style=""font-size:30px; font-family: monospace"">daquela</span>"," ","","exp-sent","daquela","","",""
"","229","html-keyboard-response","186","196087","0.0-3.0-1.144","<span style=""font-size:30px; font-family: monospace"">moça.</span>"," ","","exp-sent","moça.","","",""
"","null","html-keyboard-response","187","197340","0.0-3.0-0.145-0.145","<span style= ""font-size:30px; font-family: monospace"">+</span>","null","fixation","","","","",""
"","83","html-keyboard-response","188","197675","0.0-3.0-1.145","<span style=""font-size:30px; font-family: monospace"">Eu</span>"," ","","exp-sent","Eu","","",""
"","267","html-keyboard-response","189","198194","0.0-3.0-1.146","<span style=""font-size:30px; font-family: monospace"">quero</span>"," ","","exp-sent","quero","","",""
"","314","html-keyboard-response","190","198760","0.0-3.0-1.147","<span style=""font-size:30px; font-family: monospace"">um</span>"," ","","exp-sent","um","","",""
"","185","html-keyboard-response","191","199197","0.0-3.0-1.148","<span style=""font-size:30px; font-family: monospace"">namorado</span>"," ","","exp-sent","namorado","","",""
"","278","html-keyboard-response","192","199727","0.0-3.0-1.149","<span style=""font-size:30px; font-family: monospace"">honesto</span>"," ","","exp-sent","honesto","","",""
"","256","html-keyboard-response","193","200235","0.0-3.0-1.150","<span style=""font-size:30px; font-family: monospace"">e</span>"," ","","exp-sent","e","","",""
"","204","html-keyboard-response","194","200691","0.0-3.0-1.151","<span style=""font-size:30px; font-family: monospace"">compreensivo.</span>"," ","","comp","compreensivo.","","",""
"","5994","html-keyboard-response","195","206937","0.0-3.0-2.151-0.151","<span style=""font-size:30px; font-family: monospace"">Eu quero um namorado honesto?</span>","s","","comp","","Eu quero um namorado honesto?","sim","false"
"","null","html-keyboard-response","196","208440","0.0-3.0-0.152-0.152","<span style= ""font-size:30px; font-family: monospace"">+</span>","null","fixation","","","","",""
"","367","html-keyboard-response","197","209060","0.0-3.0-1.152","<span style=""font-size:30px; font-family: monospace"">A</span>"," ","","exp-sent","A","","",""
"","308","html-keyboard-response","198","209619","0.0-3.0-1.153","<span style=""font-size:30px; font-family: monospace"">senhora</span>"," ","","exp-sent","senhora","","",""
"","185","html-keyboard-response","199","210057","0.0-3.0-1.154","<span style=""font-size:30px; font-family: monospace"">cumprimentou</span>"," ","","exp-sent","cumprimentou","","",""
"","273","html-keyboard-response","200","210582","0.0-3.0-1.155","<span style=""font-size:30px; font-family: monospace"">o</span>"," ","","exp-sent","o","","",""
"","229","html-keyboard-response","201","211063","0.0-3.0-1.156","<span style=""font-size:30px; font-family: monospace"">operador</span>"," ","","exp-sent","operador","","",""
"","282","html-keyboard-response","202","211596","0.0-3.0-1.157","<span style=""font-size:30px; font-family: monospace"">de</span>"," ","","exp-sent","de","","",""
"","211","html-keyboard-response","203","212059","0.0-3.0-1.158","<span style=""font-size:30px; font-family: monospace"">caixa.</span>"," ","","exp-sent","caixa.","","",""
"","null","html-keyboard-response","204","213313","0.0-3.0-0.159-0.159","<span style= ""font-size:30px; font-family: monospace"">+</span>","null","fixation","","","","",""
"","34","html-keyboard-response","205","213598","0.0-3.0-1.159","<span style=""font-size:30px; font-family: monospace"">A</span>"," ","","exp-sent","A","","",""
"","211","html-keyboard-response","206","214061","0.0-3.0-1.160","<span style=""font-size:30px; font-family: monospace"">gente</span>"," ","","exp-sent","gente","","",""
"","179","html-keyboard-response","207","214493","0.0-3.0-1.161","<span style=""font-size:30px; font-family: monospace"">viu</span>"," ","","exp-sent","viu","","",""
"","173","html-keyboard-response","208","214917","0.0-3.0-1.162","<span style=""font-size:30px; font-family: monospace"">o</span>"," ","","exp-sent","o","","",""
"","206","html-keyboard-response","209","215376","0.0-3.0-1.163","<span style=""font-size:30px; font-family: monospace"">eclipse</span>"," ","","exp-sent","eclipse","","",""
"","273","html-keyboard-response","210","215901","0.0-3.0-1.164","<span style=""font-size:30px; font-family: monospace"">lunar</span>"," ","","exp-sent","lunar","","",""
"","248","html-keyboard-response","211","216401","0.0-3.0-1.165","<span style=""font-size:30px; font-family: monospace"">durante</span>"," ","","exp-sent","durante","","",""
"","215","html-keyboard-response","212","216867","0.0-3.0-1.166","<span style=""font-size:30px; font-family: monospace"">o</span>"," ","","exp-sent","o","","",""
"","126","html-keyboard-response","213","217245","0.0-3.0-1.167","<span style=""font-size:30px; font-family: monospace"">dia.</span>"," ","","exp-sent","dia.","","",""
"","null","html-keyboard-response","214","218499","0.0-3.0-0.168-0.168","<span style= ""font-size:30px; font-family: monospace"">+</span>","null","fixation","","","","",""
"","23","html-keyboard-response","215","218773","0.0-3.0-1.168","<span style=""font-size:30px; font-family: monospace"">A</span>"," ","","exp-sent","A","","",""
"","340","html-keyboard-response","216","219364","0.0-3.0-1.169","<span style=""font-size:30px; font-family: monospace"">mordida</span>"," ","","exp-sent","mordida","","",""
"","274","html-keyboard-response","217","219890","0.0-3.0-1.170","<span style=""font-size:30px; font-family: monospace"">do</span>"," ","","exp-sent","do","","",""
"","254","html-keyboard-response","218","220396","0.0-3.0-1.171","<span style=""font-size:30px; font-family: monospace"">cachorro</span>"," ","","exp-sent","cachorro","","",""
"","492","html-keyboard-response","219","221140","0.0-3.0-1.172","<span style=""font-size:30px; font-family: monospace"">voraz</span>"," ","","exp-sent","voraz","","",""
"","187","html-keyboard-response","220","221579","0.0-3.0-1.173","<span style=""font-size:30px; font-family: monospace"">causou</span>"," ","","exp-sent","causou","","",""
"","296","html-keyboard-response","221","222127","0.0-3.0-1.174","<span style=""font-size:30px; font-family: monospace"">uma</span>"," ","","exp-sent","uma","","",""
"","223","html-keyboard-response","222","222602","0.0-3.0-1.175","<span style=""font-size:30px; font-family: monospace"">cicatriz.</span>"," ","","exp-sent","cicatriz.","","",""
"","null","html-keyboard-response","223","223856","0.0-3.0-0.176-0.176","<span style= ""font-size:30px; font-family: monospace"">+</span>","null","fixation","","","","",""
"","467","html-keyboard-response","224","224575","0.0-3.0-1.176","<span style=""font-size:30px; font-family: monospace"">Elas</span>"," ","","exp-sent","Elas","","",""
"","214","html-keyboard-response","225","225042","0.0-3.0-1.177","<span style=""font-size:30px; font-family: monospace"">não</span>"," ","","exp-sent","não","","",""
"","195","html-keyboard-response","226","225489","0.0-3.0-1.178","<span style=""font-size:30px; font-family: monospace"">viram</span>"," ","","exp-sent","viram","","",""
"","189","html-keyboard-response","227","225930","0.0-3.0-1.179","<span style=""font-size:30px; font-family: monospace"">nenhuma</span>"," ","","exp-sent","nenhuma","","",""
"","236","html-keyboard-response","228","226419","0.0-3.0-1.180","<span style=""font-size:30px; font-family: monospace"">diferença</span>"," ","","exp-sent","diferença","","",""
"","219","html-keyboard-response","229","226891","0.0-3.0-1.181","<span style=""font-size:30px; font-family: monospace"">entre</span>"," ","","exp-sent","entre","","",""
"","294","html-keyboard-response","230","227436","0.0-3.0-1.182","<span style=""font-size:30px; font-family: monospace"">os</span>"," ","","exp-sent","os","","",""
"","172","html-keyboard-response","231","227860","0.0-3.0-1.183","<span style=""font-size:30px; font-family: monospace"">textos.</span>"," ","","exp-sent","textos.","","",""
"","null","html-keyboard-response","232","229114","0.0-3.0-0.184-0.184","<span style= ""font-size:30px; font-family: monospace"">+</span>","null","fixation","","","","",""
"","293","html-keyboard-response","233","229659","0.0-3.0-1.184","<span style=""font-size:30px; font-family: monospace"">Amanhã</span>"," ","","exp-sent","Amanhã","","",""
"","216","html-keyboard-response","234","230127","0.0-3.0-1.185","<span style=""font-size:30px; font-family: monospace"">vai</span>"," ","","exp-sent","vai","","",""
"","295","html-keyboard-response","235","230674","0.0-3.0-1.186","<span style=""font-size:30px; font-family: monospace"">ter</span>"," ","","exp-sent","ter","","",""
"","422","html-keyboard-response","236","231349","0.0-3.0-1.187","<span style=""font-size:30px; font-family: monospace"">um</span>"," ","","exp-sent","um","","",""
"","141","html-keyboard-response","237","231741","0.0-3.0-1.188","<span style=""font-size:30px; font-family: monospace"">bazar</span>"," ","","exp-sent","bazar","","",""
"","258","html-keyboard-response","238","232252","0.0-3.0-1.189","<span style=""font-size:30px; font-family: monospace"">no</span>"," ","","exp-sent","no","","",""
"","538","html-keyboard-response","239","233041","0.0-3.0-1.190","<span style=""font-size:30px; font-family: monospace"">bairro.</span>"," ","","comp","bairro.","","",""
"","2846","html-keyboard-response","240","236139","0.0-3.0-2.190-0.190","<span style=""font-size:30px; font-family: monospace"">Amanhã vai acontecer um bazar no bairro?</span>","s","","comp","","Amanhã vai acontecer um bazar no bairro?","sim","false"
"","null","html-keyboard-response","241","237642","0.0-3.0-0.191-0.191","<span style= ""font-size:30px; font-family: monospace"">+</span>","null","fixation","","","","",""
"","372","html-keyboard-response","242","238266","0.0-3.0-1.191","<span style=""font-size:30px; font-family: monospace"">O</span>"," ","","exp-sent","O","","",""
"","254","html-keyboard-response","243","238771","0.0-3.0-1.192","<span style=""font-size:30px; font-family: monospace"">travesseiro</span>"," ","","exp-sent","travesseiro","","",""
"","168","html-keyboard-response","244","239191","0.0-3.0-1.193","<span style=""font-size:30px; font-family: monospace"">era</span>"," ","","exp-sent","era","","",""
"","123","html-keyboard-response","245","239567","0.0-3.0-1.194","<span style=""font-size:30px; font-family: monospace"">muito</span>"," ","","exp-sent","muito","","",""
"","190","html-keyboard-response","246","240008","0.0-3.0-1.195","<span style=""font-size:30px; font-family: monospace"">macio</span>"," ","","exp-sent","macio","","",""
"","114","html-keyboard-response","247","240375","0.0-3.0-1.196","<span style=""font-size:30px; font-family: monospace"">e</span>"," ","","exp-sent","e","","",""
"","231","html-keyboard-response","248","240859","0.0-3.0-1.197","<span style=""font-size:30px; font-family: monospace"">confortável.</span>"," ","","exp-sent","confortável.","","",""
"","null","html-keyboard-response","249","242112","0.0-3.0-0.198-0.198","<span style= ""font-size:30px; font-family: monospace"">+</span>","null","fixation","","","","",""
"","394","html-keyboard-response","250","242759","0.0-3.0-1.198","<span style=""font-size:30px; font-family: monospace"">Hoje</span>"," ","","exp-sent","Hoje","","",""
"","225","html-keyboard-response","251","243237","0.0-3.0-1.199","<span style=""font-size:30px; font-family: monospace"">a</span>"," ","","exp-sent","a","","",""
"","179","html-keyboard-response","252","243668","0.0-3.0-1.200","<span style=""font-size:30px; font-family: monospace"">atendente</span>"," ","","exp-sent","atendente","","",""
"","173","html-keyboard-response","253","244093","0.0-3.0-1.201","<span style=""font-size:30px; font-family: monospace"">estava</span>"," ","","exp-sent","estava","","",""
"","202","html-keyboard-response","254","244547","0.0-3.0-1.202","<span style=""font-size:30px; font-family: monospace"">furiosa</span>"," ","","exp-sent","furiosa","","",""
"","194","html-keyboard-response","255","244993","0.0-3.0-1.203","<span style=""font-size:30px; font-family: monospace"">com</span>"," ","","exp-sent","com","","",""
"","202","html-keyboard-response","256","245447","0.0-3.0-1.204","<span style=""font-size:30px; font-family: monospace"">o</span>"," ","","exp-sent","o","","",""
"","313","html-keyboard-response","257","246012","0.0-3.0-1.205","<span style=""font-size:30px; font-family: monospace"">cliente.</span>"," ","","exp-sent","cliente.","","",""
"","null","html-keyboard-response","258","247265","0.0-3.0-0.206-0.206","<span style= ""font-size:30px; font-family: monospace"">+</span>","null","fixation","","","","",""
"","58","html-keyboard-response","259","247575","0.0-3.0-1.206","<span style=""font-size:30px; font-family: monospace"">O</span>"," ","","exp-sent","O","","",""
"","316","html-keyboard-response","260","248144","0.0-3.0-1.207","<span style=""font-size:30px; font-family: monospace"">vizinho</span>"," ","","exp-sent","vizinho","","",""
"","331","html-keyboard-response","261","248727","0.0-3.0-1.208","<span style=""font-size:30px; font-family: monospace"">é</span>"," ","","exp-sent","é","","",""
"","254","html-keyboard-response","262","249233","0.0-3.0-1.209","<span style=""font-size:30px; font-family: monospace"">um</span>"," ","","exp-sent","um","","",""
"","250","html-keyboard-response","263","249735","0.0-3.0-1.210","<span style=""font-size:30px; font-family: monospace"">arquiteto</span>"," ","","exp-sent","arquiteto","","",""
"","291","html-keyboard-response","264","250278","0.0-3.0-1.211","<span style=""font-size:30px; font-family: monospace"">muito</span>"," ","","exp-sent","muito","","",""
"","257","html-keyboard-response","265","250786","0.0-3.0-1.212","<span style=""font-size:30px; font-family: monospace"">excêntrico.</span>"," ","","exp-sent","excêntrico.","","",""
"","null","html-keyboard-response","266","252040","0.0-3.0-0.213-0.213","<span style= ""font-size:30px; font-family: monospace"">+</span>","null","fixation","","","","",""
"","550","html-keyboard-response","267","252842","0.0-3.0-1.213","<span style=""font-size:30px; font-family: monospace"">A</span>"," ","","exp-sent","A","","",""
"","195","html-keyboard-response","268","253289","0.0-3.0-1.214","<span style=""font-size:30px; font-family: monospace"">nossa</span>"," ","","exp-sent","nossa","","",""
"","254","html-keyboard-response","269","253795","0.0-3.0-1.215","<span style=""font-size:30px; font-family: monospace"">colega</span>"," ","","exp-sent","colega","","",""
"","564","html-keyboard-response","270","254612","0.0-3.0-1.216","<span style=""font-size:30px; font-family: monospace"">foi</span>"," ","","exp-sent","foi","","",""
"","140","html-keyboard-response","271","255004","0.0-3.0-1.217","<span style=""font-size:30px; font-family: monospace"">má</span>"," ","","exp-sent","má","","",""
"","278","html-keyboard-response","272","255535","0.0-3.0-1.218","<span style=""font-size:30px; font-family: monospace"">com</span>"," ","","exp-sent","com","","",""
"","194","html-keyboard-response","273","255981","0.0-3.0-1.219","<span style=""font-size:30px; font-family: monospace"">as</span>"," ","","exp-sent","as","","",""
"","256","html-keyboard-response","274","256489","0.0-3.0-1.220","<span style=""font-size:30px; font-family: monospace"">crianças.</span>"," ","","exp-sent","crianças.","","",""
"","null","html-keyboard-response","275","257742","0.0-3.0-0.221-0.221","<span style= ""font-size:30px; font-family: monospace"">+</span>","null","fixation","","","","",""
"","486","html-keyboard-response","276","258481","0.0-3.0-1.221","<span style=""font-size:30px; font-family: monospace"">Virtudes</span>"," ","","exp-sent","Virtudes","","",""
"","327","html-keyboard-response","277","259059","0.0-3.0-1.222","<span style=""font-size:30px; font-family: monospace"">não</span>"," ","","exp-sent","não","","",""
"","289","html-keyboard-response","278","259600","0.0-3.0-1.223","<span style=""font-size:30px; font-family: monospace"">são</span>"," ","","exp-sent","são","","",""
"","291","html-keyboard-response","279","260144","0.0-3.0-1.224","<span style=""font-size:30px; font-family: monospace"">preguiça,</span>"," ","","exp-sent","preguiça,","","",""
"","317","html-keyboard-response","280","260713","0.0-3.0-1.225","<span style=""font-size:30px; font-family: monospace"">gula</span>"," ","","exp-sent","gula","","",""
"","349","html-keyboard-response","281","261314","0.0-3.0-1.226","<span style=""font-size:30px; font-family: monospace"">nem</span>"," ","","exp-sent","nem","","",""
"","388","html-keyboard-response","282","261954","0.0-3.0-1.227","<span style=""font-size:30px; font-family: monospace"">ganância.</span>"," ","","comp","ganância.","","",""
"","20235","html-keyboard-response","283","282442","0.0-3.0-2.227-0.227","<span style=""font-size:30px; font-family: monospace"">Preguiça é uma virtude?</span>","n","","comp","","Preguiça é uma virtude?","não","false"
"","null","html-keyboard-response","284","283945","0.0-3.0-0.228-0.228","<span style= ""font-size:30px; font-family: monospace"">+</span>","null","fixation","","","","",""
"","123","html-keyboard-response","285","284321","0.0-3.0-1.228","<span style=""font-size:30px; font-family: monospace"">Ele</span>"," ","","exp-sent","Ele","","",""
"","353","html-keyboard-response","286","284926","0.0-3.0-1.229","<span style=""font-size:30px; font-family: monospace"">é</span>"," ","","exp-sent","é","","",""
"","474","html-keyboard-response","287","285652","0.0-3.0-1.230","<span style=""font-size:30px; font-family: monospace"">um</span>"," ","","exp-sent","um","","",""
"","128","html-keyboard-response","288","286033","0.0-3.0-1.231","<span style=""font-size:30px; font-family: monospace"">pai</span>"," ","","exp-sent","pai","","",""
"","253","html-keyboard-response","289","286537","0.0-3.0-1.232","<span style=""font-size:30px; font-family: monospace"">ausente</span>"," ","","exp-sent","ausente","","",""
"","261","html-keyboard-response","290","287050","0.0-3.0-1.233","<span style=""font-size:30px; font-family: monospace"">e</span>"," ","","exp-sent","e","","",""
"","286","html-keyboard-response","291","287590","0.0-3.0-1.234","<span style=""font-size:30px; font-family: monospace"">muito</span>"," ","","exp-sent","muito","","",""
"","491","html-keyboard-response","292","288334","0.0-3.0-1.235","<span style=""font-size:30px; font-family: monospace"">fofoqueiro.</span>"," ","","exp-sent","fofoqueiro.","","",""
"","null","html-keyboard-response","293","289587","0.0-3.0-0.236-0.236","<span style= ""font-size:30px; font-family: monospace"">+</span>","null","fixation","","","","",""
"","1233","html-keyboard-response","294","291072","0.0-3.0-1.236","<span style=""font-size:30px; font-family: monospace"">O</span>"," ","","exp-sent","O","","",""
"","244","html-keyboard-response","295","291568","0.0-3.0-1.237","<span style=""font-size:30px; font-family: monospace"">filho</span>"," ","","exp-sent","filho","","",""
"","95","html-keyboard-response","296","291916","0.0-3.0-1.238","<span style=""font-size:30px; font-family: monospace"">lavou</span>"," ","","exp-sent","lavou","","",""
"","89","html-keyboard-response","297","292257","0.0-3.0-1.239","<span style=""font-size:30px; font-family: monospace"">a</span>"," ","","exp-sent","a","","",""
"","270","html-keyboard-response","298","292779","0.0-3.0-1.240","<span style=""font-size:30px; font-family: monospace"">roupa</span>"," ","","exp-sent","roupa","","",""
"","231","html-keyboard-response","299","293263","0.0-3.0-1.241","<span style=""font-size:30px; font-family: monospace"">sem</span>"," ","","exp-sent","sem","","",""
"","236","html-keyboard-response","300","293751","0.0-3.0-1.242","<span style=""font-size:30px; font-family: monospace"">nenhuma</span>"," ","","exp-sent","nenhuma","","",""
"","214","html-keyboard-response","301","294217","0.0-3.0-1.243","<span style=""font-size:30px; font-family: monospace"">ajuda.</span>"," ","","exp-sent","ajuda.","","",""
"","null","html-keyboard-response","302","295470","0.0-3.0-0.244-0.244","<span style= ""font-size:30px; font-family: monospace"">+</span>","null","fixation","","","","",""
"","482","html-keyboard-response","303","296204","0.0-3.0-1.244","<span style=""font-size:30px; font-family: monospace"">O</span>"," ","","exp-sent","O","","",""
"","225","html-keyboard-response","304","296683","0.0-3.0-1.245","<span style=""font-size:30px; font-family: monospace"">menino</span>"," ","","exp-sent","menino","","",""
"","289","html-keyboard-response","305","297225","0.0-3.0-1.246","<span style=""font-size:30px; font-family: monospace"">quebrou</span>"," ","","exp-sent","quebrou","","",""
"","263","html-keyboard-response","306","297741","0.0-3.0-1.247","<span style=""font-size:30px; font-family: monospace"">a</span>"," ","","exp-sent","a","","",""
"","250","html-keyboard-response","307","298243","0.0-3.0-1.248","<span style=""font-size:30px; font-family: monospace"">perna</span>"," ","","exp-sent","perna","","",""
"","409","html-keyboard-response","308","298904","0.0-3.0-1.249","<span style=""font-size:30px; font-family: monospace"">nos</span>"," ","","exp-sent","nos","","",""
"","514","html-keyboard-response","309","299670","0.0-3.0-1.250","<span style=""font-size:30px; font-family: monospace"">esportes.</span>"," ","","exp-sent","esportes.","","",""
"","null","html-keyboard-response","310","300923","0.0-3.0-0.251-0.251","<span style= ""font-size:30px; font-family: monospace"">+</span>","null","fixation","","","","",""
"","444","html-keyboard-response","311","301619","0.0-3.0-1.251","<span style=""font-size:30px; font-family: monospace"">Ela</span>"," ","","exp-sent","Ela","","",""
"","246","html-keyboard-response","312","302117","0.0-3.0-1.252","<span style=""font-size:30px; font-family: monospace"">brincou</span>"," ","","exp-sent","brincou","","",""
"","171","html-keyboard-response","313","302539","0.0-3.0-1.253","<span style=""font-size:30px; font-family: monospace"">com</span>"," ","","exp-sent","com","","",""
"","219","html-keyboard-response","314","303010","0.0-3.0-1.254","<span style=""font-size:30px; font-family: monospace"">uma</span>"," ","","exp-sent","uma","","",""
"","238","html-keyboard-response","315","303502","0.0-3.0-1.255","<span style=""font-size:30px; font-family: monospace"">menina</span>"," ","","exp-sent","menina","","",""
"","248","html-keyboard-response","316","304002","0.0-3.0-1.256","<span style=""font-size:30px; font-family: monospace"">da</span>"," ","","exp-sent","da","","",""
"","255","html-keyboard-response","317","304509","0.0-3.0-1.257","<span style=""font-size:30px; font-family: monospace"">turma.</span>"," ","","exp-sent","turma.","","",""
"","null","html-keyboard-response","318","305762","0.0-3.0-0.258-0.258","<span style= ""font-size:30px; font-family: monospace"">+</span>","null","fixation","","","","",""
"","57","html-keyboard-response","319","306069","0.0-3.0-1.258","<span style=""font-size:30px; font-family: monospace"">Ele</span>"," ","","exp-sent","Ele","","",""
"","340","html-keyboard-response","320","306662","0.0-3.0-1.259","<span style=""font-size:30px; font-family: monospace"">esteve</span>"," ","","exp-sent","esteve","","",""
"","303","html-keyboard-response","321","307217","0.0-3.0-1.260","<span style=""font-size:30px; font-family: monospace"">no</span>"," ","","exp-sent","no","","",""
"","235","html-keyboard-response","322","307704","0.0-3.0-1.261","<span style=""font-size:30px; font-family: monospace"">escritório</span>"," ","","exp-sent","escritório","","",""
"","470","html-keyboard-response","323","308427","0.0-3.0-1.262","<span style=""font-size:30px; font-family: monospace"">o</span>"," ","","exp-sent","o","","",""
"","318","html-keyboard-response","324","308996","0.0-3.0-1.263","<span style=""font-size:30px; font-family: monospace"">dia</span>"," ","","exp-sent","dia","","",""
"","289","html-keyboard-response","325","309537","0.0-3.0-1.264","<span style=""font-size:30px; font-family: monospace"">inteiro.</span>"," ","","comp","inteiro.","","",""
"","2888","html-keyboard-response","326","312677","0.0-3.0-2.264-0.264","<span style=""font-size:30px; font-family: monospace"">Ele esteve no parque o dia inteiro?</span>","n","","comp","","Ele esteve no parque o dia inteiro?","não","false"
"","null","html-keyboard-response","327","314181","0.0-3.0-0.265-0.265","<span style= ""font-size:30px; font-family: monospace"">+</span>","null","fixation","","","","",""
"","390","html-keyboard-response","328","314823","0.0-3.0-1.265","<span style=""font-size:30px; font-family: monospace"">As</span>"," ","","exp-sent","As","","",""
"","305","html-keyboard-response","329","315381","0.0-3.0-1.266","<span style=""font-size:30px; font-family: monospace"">crianças</span>"," ","","exp-sent","crianças","","",""
"","269","html-keyboard-response","330","315903","0.0-3.0-1.267","<span style=""font-size:30px; font-family: monospace"">viram</span>"," ","","exp-sent","viram","","",""
"","578","html-keyboard-response","331","316733","0.0-3.0-1.268","<span style=""font-size:30px; font-family: monospace"">um</span>"," ","","exp-sent","um","","",""
"","493","html-keyboard-response","332","317477","0.0-3.0-1.269","<span style=""font-size:30px; font-family: monospace"">vaga-lume</span>"," ","","exp-sent","vaga-lume","","",""
"","311","html-keyboard-response","333","318041","0.0-3.0-1.270","<span style=""font-size:30px; font-family: monospace"">nos</span>"," ","","exp-sent","nos","","",""
"","367","html-keyboard-response","334","318660","0.0-3.0-1.271","<span style=""font-size:30px; font-family: monospace"">arbustos.</span>"," ","","exp-sent","arbustos.","","",""
"","null","html-keyboard-response","335","319913","0.0-3.0-0.272-0.272","<span style= ""font-size:30px; font-family: monospace"">+</span>","null","fixation","","","","",""
"","364","html-keyboard-response","336","320529","0.0-3.0-1.272","<span style=""font-size:30px; font-family: monospace"">Ontem</span>"," ","","exp-sent","Ontem","","",""
"","208","html-keyboard-response","337","320989","0.0-3.0-1.273","<span style=""font-size:30px; font-family: monospace"">o</span>"," ","","exp-sent","o","","",""
"","158","html-keyboard-response","338","321400","0.0-3.0-1.274","<span style=""font-size:30px; font-family: monospace"">funcionário</span>"," ","","exp-sent","funcionário","","",""
"","187","html-keyboard-response","339","321838","0.0-3.0-1.275","<span style=""font-size:30px; font-family: monospace"">pediu</span>"," ","","exp-sent","pediu","","",""
"","190","html-keyboard-response","340","322280","0.0-3.0-1.276","<span style=""font-size:30px; font-family: monospace"">autorização</span>"," ","","exp-sent","autorização","","",""
"","263","html-keyboard-response","341","322796","0.0-3.0-1.277","<span style=""font-size:30px; font-family: monospace"">para</span>"," ","","exp-sent","para","","",""
"","231","html-keyboard-response","342","323279","0.0-3.0-1.278","<span style=""font-size:30px; font-family: monospace"">a</span>"," ","","exp-sent","a","","",""
"","179","html-keyboard-response","343","323710","0.0-3.0-1.279","<span style=""font-size:30px; font-family: monospace"">colega.</span>"," ","","exp-sent","colega.","","",""
"","null","html-keyboard-response","344","324964","0.0-3.0-0.280-0.280","<span style= ""font-size:30px; font-family: monospace"">+</span>","null","fixation","","","","",""
"","330","html-keyboard-response","345","325547","0.0-3.0-1.280","<span style=""font-size:30px; font-family: monospace"">Eu</span>"," ","","exp-sent","Eu","","",""
"","195","html-keyboard-response","346","325994","0.0-3.0-1.281","<span style=""font-size:30px; font-family: monospace"">sempre</span>"," ","","exp-sent","sempre","","",""
"","177","html-keyboard-response","347","326423","0.0-3.0-1.282","<span style=""font-size:30px; font-family: monospace"">fujo</span>"," ","","exp-sent","fujo","","",""
"","225","html-keyboard-response","348","326900","0.0-3.0-1.283","<span style=""font-size:30px; font-family: monospace"">de</span>"," ","","exp-sent","de","","",""
"","142","html-keyboard-response","349","327294","0.0-3.0-1.284","<span style=""font-size:30px; font-family: monospace"">conflito</span>"," ","","exp-sent","conflito","","",""
"","152","html-keyboard-response","350","327698","0.0-3.0-1.285","<span style=""font-size:30px; font-family: monospace"">com</span>"," ","","exp-sent","com","","",""
"","186","html-keyboard-response","351","328137","0.0-3.0-1.286","<span style=""font-size:30px; font-family: monospace"">as</span>"," ","","exp-sent","as","","",""
"","177","html-keyboard-response","352","328566","0.0-3.0-1.287","<span style=""font-size:30px; font-family: monospace"">pessoas.</span>"," ","","exp-sent","pessoas.","","",""
"","null","html-keyboard-response","353","329820","0.0-3.0-0.288-0.288","<span style= ""font-size:30px; font-family: monospace"">+</span>","null","fixation","","","","",""
"","299","html-keyboard-response","354","330371","0.0-3.0-1.288","<span style=""font-size:30px; font-family: monospace"">O</span>"," ","","exp-sent","O","","",""
"","150","html-keyboard-response","355","330773","0.0-3.0-1.289","<span style=""font-size:30px; font-family: monospace"">bolo</span>"," ","","exp-sent","bolo","","",""
"","159","html-keyboard-response","356","331185","0.0-3.0-1.290","<span style=""font-size:30px; font-family: monospace"">era</span>"," ","","exp-sent","era","","",""
"","170","html-keyboard-response","357","331606","0.0-3.0-1.291","<span style=""font-size:30px; font-family: monospace"">de</span>"," ","","exp-sent","de","","",""
"","178","html-keyboard-response","358","332037","0.0-3.0-1.292","<span style=""font-size:30px; font-family: monospace"">abacaxi</span>"," ","","exp-sent","abacaxi","","",""
"","178","html-keyboard-response","359","332466","0.0-3.0-1.293","<span style=""font-size:30px; font-family: monospace"">e</span>"," ","","exp-sent","e","","",""
"","199","html-keyboard-response","360","332919","0.0-3.0-1.294","<span style=""font-size:30px; font-family: monospace"">creme</span>"," ","","exp-sent","creme","","",""
"","183","html-keyboard-response","361","333353","0.0-3.0-1.295","<span style=""font-size:30px; font-family: monospace"">de</span>"," ","","exp-sent","de","","",""
"","161","html-keyboard-response","362","333767","0.0-3.0-1.296","<span style=""font-size:30px; font-family: monospace"">coco.</span>"," ","","exp-sent","coco.","","",""
"","null","html-keyboard-response","363","335020","0.0-3.0-0.297-0.297","<span style= ""font-size:30px; font-family: monospace"">+</span>","null","fixation","","","","",""
"","444","html-keyboard-response","364","335715","0.0-3.0-1.297","<span style=""font-size:30px; font-family: monospace"">As</span>"," ","","exp-sent","As","","",""
"","136","html-keyboard-response","365","336102","0.0-3.0-1.298","<span style=""font-size:30px; font-family: monospace"">crianças</span>"," ","","exp-sent","crianças","","",""
"","171","html-keyboard-response","366","336525","0.0-3.0-1.299","<span style=""font-size:30px; font-family: monospace"">brincaram</span>"," ","","exp-sent","brincaram","","",""
"","220","html-keyboard-response","367","336998","0.0-3.0-1.300","<span style=""font-size:30px; font-family: monospace"">com</span>"," ","","exp-sent","com","","",""
"","211","html-keyboard-response","368","337461","0.0-3.0-1.301","<span style=""font-size:30px; font-family: monospace"">bolhas</span>"," ","","exp-sent","bolhas","","",""
"","179","html-keyboard-response","369","337893","0.0-3.0-1.302","<span style=""font-size:30px; font-family: monospace"">no</span>"," ","","exp-sent","no","","",""
"","155","html-keyboard-response","370","338301","0.0-3.0-1.303","<span style=""font-size:30px; font-family: monospace"">banho.</span>"," ","","comp","banho.","","",""
"","3084","html-keyboard-response","371","341637","0.0-3.0-2.303-0.303","<span style=""font-size:30px; font-family: monospace"">As crianças brincaram com bolhas?</span>","s","","comp","","As crianças brincaram com bolhas?","sim","false"
"","null","html-keyboard-response","372","343140","0.0-3.0-0.304-0.304","<span style= ""font-size:30px; font-family: monospace"">+</span>","null","fixation","","","","",""
"","442","html-keyboard-response","373","343834","0.0-3.0-1.304","<span style=""font-size:30px; font-family: monospace"">A</span>"," ","","exp-sent","A","","",""
"","80","html-keyboard-response","374","344166","0.0-3.0-1.305","<span style=""font-size:30px; font-family: monospace"">motorista</span>"," ","","exp-sent","motorista","","",""
"","129","html-keyboard-response","375","344548","0.0-3.0-1.306","<span style=""font-size:30px; font-family: monospace"">fez</span>"," ","","exp-sent","fez","","",""
"","220","html-keyboard-response","376","345020","0.0-3.0-1.307","<span style=""font-size:30px; font-family: monospace"">o</span>"," ","","exp-sent","o","","",""
"","211","html-keyboard-response","377","345483","0.0-3.0-1.308","<span style=""font-size:30px; font-family: monospace"">retorno</span>"," ","","exp-sent","retorno","","",""
"","278","html-keyboard-response","378","346014","0.0-3.0-1.309","<span style=""font-size:30px; font-family: monospace"">com</span>"," ","","exp-sent","com","","",""
"","301","html-keyboard-response","379","346567","0.0-3.0-1.310","<span style=""font-size:30px; font-family: monospace"">cuidado.</span>"," ","","exp-sent","cuidado.","","",""
"","null","html-keyboard-response","380","347820","0.0-3.0-0.311-0.311","<span style= ""font-size:30px; font-family: monospace"">+</span>","null","fixation","","","","",""
"","173","html-keyboard-response","381","348245","0.0-3.0-1.311","<span style=""font-size:30px; font-family: monospace"">Contos</span>"," ","","exp-sent","Contos","","",""
"","223","html-keyboard-response","382","348721","0.0-3.0-1.312","<span style=""font-size:30px; font-family: monospace"">de</span>"," ","","exp-sent","de","","",""
"","245","html-keyboard-response","383","349219","0.0-3.0-1.313","<span style=""font-size:30px; font-family: monospace"">ação</span>"," ","","exp-sent","ação","","",""
"","182","html-keyboard-response","384","349653","0.0-3.0-1.314","<span style=""font-size:30px; font-family: monospace"">têm</span>"," ","","exp-sent","têm","","",""
"","236","html-keyboard-response","385","350142","0.0-3.0-1.315","<span style=""font-size:30px; font-family: monospace"">chantagem</span>"," ","","exp-sent","chantagem","","",""
"","270","html-keyboard-response","386","350663","0.0-3.0-1.316","<span style=""font-size:30px; font-family: monospace"">e</span>"," ","","exp-sent","e","","",""
"","227","html-keyboard-response","387","351142","0.0-3.0-1.317","<span style=""font-size:30px; font-family: monospace"">muita</span>"," ","","exp-sent","muita","","",""
"","231","html-keyboard-response","388","351625","0.0-3.0-1.318","<span style=""font-size:30px; font-family: monospace"">luta.</span>"," ","","exp-sent","luta.","","",""
"","null","html-keyboard-response","389","352879","0.0-3.0-0.319-0.319","<span style= ""font-size:30px; font-family: monospace"">+</span>","null","fixation","","","","",""
"","427","html-keyboard-response","390","353559","0.0-3.0-1.319","<span style=""font-size:30px; font-family: monospace"">A</span>"," ","","exp-sent","A","","",""
"","183","html-keyboard-response","391","353995","0.0-3.0-1.320","<span style=""font-size:30px; font-family: monospace"">bisavó</span>"," ","","exp-sent","bisavó","","",""
"","198","html-keyboard-response","392","354445","0.0-3.0-1.321","<span style=""font-size:30px; font-family: monospace"">recebeu</span>"," ","","exp-sent","recebeu","","",""
"","228","html-keyboard-response","393","354926","0.0-3.0-1.322","<span style=""font-size:30px; font-family: monospace"">um</span>"," ","","exp-sent","um","","",""
"","209","html-keyboard-response","394","355388","0.0-3.0-1.323","<span style=""font-size:30px; font-family: monospace"">benefício</span>"," ","","exp-sent","benefício","","",""
"","207","html-keyboard-response","395","355846","0.0-3.0-1.324","<span style=""font-size:30px; font-family: monospace"">temporário</span>"," ","","exp-sent","temporário","","",""
"","291","html-keyboard-response","396","356389","0.0-3.0-1.325","<span style=""font-size:30px; font-family: monospace"">do</span>"," ","","exp-sent","do","","",""
"","194","html-keyboard-response","397","356835","0.0-3.0-1.326","<span style=""font-size:30px; font-family: monospace"">governo.</span>"," ","","exp-sent","governo.","","",""
"","null","html-keyboard-response","398","358088","0.0-3.0-0.327-0.327","<span style= ""font-size:30px; font-family: monospace"">+</span>","null","fixation","","","","",""
"","35","html-keyboard-response","399","358376","0.0-3.0-1.327","<span style=""font-size:30px; font-family: monospace"">As</span>"," ","","exp-sent","As","","",""
"","195","html-keyboard-response","400","358822","0.0-3.0-1.328","<span style=""font-size:30px; font-family: monospace"">crianças</span>"," ","","exp-sent","crianças","","",""
"","270","html-keyboard-response","401","359345","0.0-3.0-1.329","<span style=""font-size:30px; font-family: monospace"">brincaram</span>"," ","","exp-sent","brincaram","","",""
"","201","html-keyboard-response","402","359798","0.0-3.0-1.330","<span style=""font-size:30px; font-family: monospace"">no</span>"," ","","exp-sent","no","","",""
"","224","html-keyboard-response","403","360276","0.0-3.0-1.331","<span style=""font-size:30px; font-family: monospace"">balanço</span>"," ","","exp-sent","balanço","","",""
"","241","html-keyboard-response","404","360770","0.0-3.0-1.332","<span style=""font-size:30px; font-family: monospace"">a</span>"," ","","exp-sent","a","","",""
"","223","html-keyboard-response","405","361245","0.0-3.0-1.333","<span style=""font-size:30px; font-family: monospace"">tarde</span>"," ","","exp-sent","tarde","","",""
"","171","html-keyboard-response","406","361669","0.0-3.0-1.334","<span style=""font-size:30px; font-family: monospace"">toda.</span>"," ","","exp-sent","toda.","","",""
"","null","html-keyboard-response","407","362923","0.0-3.0-0.335-0.335","<span style= ""font-size:30px; font-family: monospace"">+</span>","null","fixation","","","","",""
"","26","html-keyboard-response","408","363200","0.0-3.0-1.335","<span style=""font-size:30px; font-family: monospace"">Ela</span>"," ","","exp-sent","Ela","","",""
"","360","html-keyboard-response","409","363812","0.0-3.0-1.336","<span style=""font-size:30px; font-family: monospace"">gosta</span>"," ","","exp-sent","gosta","","",""
"","274","html-keyboard-response","410","364339","0.0-3.0-1.337","<span style=""font-size:30px; font-family: monospace"">de</span>"," ","","exp-sent","de","","",""
"","223","html-keyboard-response","411","364814","0.0-3.0-1.338","<span style=""font-size:30px; font-family: monospace"">comida</span>"," ","","exp-sent","comida","","",""
"","270","html-keyboard-response","412","365337","0.0-3.0-1.339","<span style=""font-size:30px; font-family: monospace"">natural</span>"," ","","exp-sent","natural","","",""
"","311","html-keyboard-response","413","365900","0.0-3.0-1.340","<span style=""font-size:30px; font-family: monospace"">no</span>"," ","","exp-sent","no","","",""
"","253","html-keyboard-response","414","366405","0.0-3.0-1.341","<span style=""font-size:30px; font-family: monospace"">almoço.</span>"," ","","comp","almoço.","","",""
"","2344","html-keyboard-response","415","369001","0.0-3.0-2.341-0.341","<span style=""font-size:30px; font-family: monospace"">Ela gosta de comida natural no almoço?</span>","s","","comp","","Ela gosta de comida natural no almoço?","sim","false"
"","null","html-keyboard-response","416","370505","0.0-3.0-0.342-0.342","<span style= ""font-size:30px; font-family: monospace"">+</span>","null","fixation","","","","",""
"","613","html-keyboard-response","417","371369","0.0-3.0-1.342","<span style=""font-size:30px; font-family: monospace"">A</span>"," ","","exp-sent","A","","",""
"","231","html-keyboard-response","418","371852","0.0-3.0-1.343","<span style=""font-size:30px; font-family: monospace"">força</span>"," ","","exp-sent","força","","",""
"","161","html-keyboard-response","419","372266","0.0-3.0-1.344","<span style=""font-size:30px; font-family: monospace"">d'água</span>"," ","","exp-sent","d'água","","",""
"","196","html-keyboard-response","420","372714","0.0-3.0-1.345","<span style=""font-size:30px; font-family: monospace"">estava</span>"," ","","exp-sent","estava","","",""
"","199","html-keyboard-response","421","373166","0.0-3.0-1.346","<span style=""font-size:30px; font-family: monospace"">normal</span>"," ","","exp-sent","normal","","",""
"","189","html-keyboard-response","422","373607","0.0-3.0-1.347","<span style=""font-size:30px; font-family: monospace"">naquele</span>"," ","","exp-sent","naquele","","",""
"","166","html-keyboard-response","423","374025","0.0-3.0-1.348","<span style=""font-size:30px; font-family: monospace"">dia.</span>"," ","","exp-sent","dia.","","",""
"","null","html-keyboard-response","424","375278","0.0-3.0-0.349-0.349","<span style= ""font-size:30px; font-family: monospace"">+</span>","null","fixation","","","","",""
"","392","html-keyboard-response","425","375923","0.0-3.0-1.349","<span style=""font-size:30px; font-family: monospace"">A</span>"," ","","exp-sent","A","","",""
"","366","html-keyboard-response","426","376541","0.0-3.0-1.350","<span style=""font-size:30px; font-family: monospace"">médica</span>"," ","","exp-sent","médica","","",""
"","233","html-keyboard-response","427","377027","0.0-3.0-1.351","<span style=""font-size:30px; font-family: monospace"">ofereceu</span>"," ","","exp-sent","ofereceu","","",""
"","245","html-keyboard-response","428","377524","0.0-3.0-1.352","<span style=""font-size:30px; font-family: monospace"">a</span>"," ","","exp-sent","a","","",""
"","169","html-keyboard-response","429","377945","0.0-3.0-1.353","<span style=""font-size:30px; font-family: monospace"">pomada</span>"," ","","exp-sent","pomada","","",""
"","202","html-keyboard-response","430","378399","0.0-3.0-1.354","<span style=""font-size:30px; font-family: monospace"">para</span>"," ","","exp-sent","para","","",""
"","267","html-keyboard-response","431","378919","0.0-3.0-1.355","<span style=""font-size:30px; font-family: monospace"">o</span>"," ","","exp-sent","o","","",""
"","187","html-keyboard-response","432","379357","0.0-3.0-1.356","<span style=""font-size:30px; font-family: monospace"">avô.</span>"," ","","exp-sent","avô.","","",""
"","null","html-keyboard-response","433","380611","0.0-3.0-0.357-0.357","<span style= ""font-size:30px; font-family: monospace"">+</span>","null","fixation","","","","",""
"","297","html-keyboard-response","434","381161","0.0-3.0-1.357","<span style=""font-size:30px; font-family: monospace"">Ele</span>"," ","","exp-sent","Ele","","",""
"","285","html-keyboard-response","435","381699","0.0-3.0-1.358","<span style=""font-size:30px; font-family: monospace"">conversou</span>"," ","","exp-sent","conversou","","",""
"","155","html-keyboard-response","436","382107","0.0-3.0-1.359","<span style=""font-size:30px; font-family: monospace"">com</span>"," ","","exp-sent","com","","",""
"","229","html-keyboard-response","437","382588","0.0-3.0-1.360","<span style=""font-size:30px; font-family: monospace"">o</span>"," ","","exp-sent","o","","",""
"","261","html-keyboard-response","438","383100","0.0-3.0-1.361","<span style=""font-size:30px; font-family: monospace"">patrão</span>"," ","","exp-sent","patrão","","",""
"","223","html-keyboard-response","439","383575","0.0-3.0-1.362","<span style=""font-size:30px; font-family: monospace"">durante</span>"," ","","exp-sent","durante","","",""
"","265","html-keyboard-response","440","384093","0.0-3.0-1.363","<span style=""font-size:30px; font-family: monospace"">a</span>"," ","","exp-sent","a","","",""
"","227","html-keyboard-response","441","384573","0.0-3.0-1.364","<span style=""font-size:30px; font-family: monospace"">tarde.</span>"," ","","exp-sent","tarde.","","",""
"","null","html-keyboard-response","442","385826","0.0-3.0-0.365-0.365","<span style= ""font-size:30px; font-family: monospace"">+</span>","null","fixation","","","","",""
"","506","html-keyboard-response","443","386584","0.0-3.0-1.365","<span style=""font-size:30px; font-family: monospace"">Algumas</span>"," ","","exp-sent","Algumas","","",""
"","207","html-keyboard-response","444","387043","0.0-3.0-1.366","<span style=""font-size:30px; font-family: monospace"">pessoas</span>"," ","","exp-sent","pessoas","","",""
"","167","html-keyboard-response","445","387462","0.0-3.0-1.367","<span style=""font-size:30px; font-family: monospace"">acreditam</span>"," ","","exp-sent","acreditam","","",""
"","229","html-keyboard-response","446","387945","0.0-3.0-1.368","<span style=""font-size:30px; font-family: monospace"">em</span>"," ","","exp-sent","em","","",""
"","184","html-keyboard-response","447","388382","0.0-3.0-1.369","<span style=""font-size:30px; font-family: monospace"">espíritos</span>"," ","","exp-sent","espíritos","","",""
"","336","html-keyboard-response","448","388970","0.0-3.0-1.370","<span style=""font-size:30px; font-family: monospace"">e</span>"," ","","exp-sent","e","","",""
"","266","html-keyboard-response","449","389490","0.0-3.0-1.371","<span style=""font-size:30px; font-family: monospace"">em</span>"," ","","exp-sent","em","","",""
"","171","html-keyboard-response","450","389914","0.0-3.0-1.372","<span style=""font-size:30px; font-family: monospace"">outras</span>"," ","","exp-sent","outras","","",""
"","195","html-keyboard-response","451","390362","0.0-3.0-1.373","<span style=""font-size:30px; font-family: monospace"">vidas.</span>"," ","","exp-sent","vidas.","","",""
"","null","html-keyboard-response","452","391615","0.0-3.0-0.374-0.374","<span style= ""font-size:30px; font-family: monospace"">+</span>","null","fixation","","","","",""
"","328","html-keyboard-response","453","392195","0.0-3.0-1.374","<span style=""font-size:30px; font-family: monospace"">Ela</span>"," ","","exp-sent","Ela","","",""
"","288","html-keyboard-response","454","392736","0.0-3.0-1.375","<span style=""font-size:30px; font-family: monospace"">gosta</span>"," ","","exp-sent","gosta","","",""
"","101","html-keyboard-response","455","393089","0.0-3.0-1.376","<span style=""font-size:30px; font-family: monospace"">de</span>"," ","","exp-sent","de","","",""
"","153","html-keyboard-response","456","393494","0.0-3.0-1.377","<span style=""font-size:30px; font-family: monospace"">estudar</span>"," ","","exp-sent","estudar","","",""
"","273","html-keyboard-response","457","394019","0.0-3.0-1.378","<span style=""font-size:30px; font-family: monospace"">matemática</span>"," ","","exp-sent","matemática","","",""
"","222","html-keyboard-response","458","394494","0.0-3.0-1.379","<span style=""font-size:30px; font-family: monospace"">com</span>"," ","","exp-sent","com","","",""
"","637","html-keyboard-response","459","395384","0.0-3.0-1.380","<span style=""font-size:30px; font-family: monospace"">colegas.</span>"," ","","comp","colegas.","","",""
"","2052","html-keyboard-response","460","397689","0.0-3.0-2.380-0.380","<span style=""font-size:30px; font-family: monospace"">Ela gosta de estudar física?</span>","n","","comp","","Ela gosta de estudar física?","não","false"
"","null","html-keyboard-response","461","399192","0.0-3.0-0.381-0.381","<span style= ""font-size:30px; font-family: monospace"">+</span>","null","fixation","","","","",""
"","437","html-keyboard-response","462","399882","0.0-3.0-1.381","<span style=""font-size:30px; font-family: monospace"">Preciso</span>"," ","","exp-sent","Preciso","","",""
"","238","html-keyboard-response","463","400372","0.0-3.0-1.382","<span style=""font-size:30px; font-family: monospace"">de</span>"," ","","exp-sent","de","","",""
"","175","html-keyboard-response","464","400800","0.0-3.0-1.383","<span style=""font-size:30px; font-family: monospace"">um</span>"," ","","exp-sent","um","","",""
"","186","html-keyboard-response","465","401239","0.0-3.0-1.384","<span style=""font-size:30px; font-family: monospace"">relatório</span>"," ","","exp-sent","relatório","","",""
"","269","html-keyboard-response","466","401760","0.0-3.0-1.385","<span style=""font-size:30px; font-family: monospace"">oficial</span>"," ","","exp-sent","oficial","","",""
"","250","html-keyboard-response","467","402262","0.0-3.0-1.386","<span style=""font-size:30px; font-family: monospace"">para</span>"," ","","exp-sent","para","","",""
"","460","html-keyboard-response","468","402975","0.0-3.0-1.387","<span style=""font-size:30px; font-family: monospace"">amanhã.</span>"," ","","exp-sent","amanhã.","","",""
"","null","html-keyboard-response","469","404231","0.0-3.0-0.388-0.388","<span style= ""font-size:30px; font-family: monospace"">+</span>","null","fixation","","","","",""
"","237","html-keyboard-response","470","404720","0.0-3.0-1.388","<span style=""font-size:30px; font-family: monospace"">Ele</span>"," ","","exp-sent","Ele","","",""
"","203","html-keyboard-response","471","405176","0.0-3.0-1.389","<span style=""font-size:30px; font-family: monospace"">viu</span>"," ","","exp-sent","viu","","",""
"","188","html-keyboard-response","472","405616","0.0-3.0-1.390","<span style=""font-size:30px; font-family: monospace"">um</span>"," ","","exp-sent","um","","",""
"","190","html-keyboard-response","473","406059","0.0-3.0-1.391","<span style=""font-size:30px; font-family: monospace"">inseto</span>"," ","","exp-sent","inseto","","",""
"","212","html-keyboard-response","474","406523","0.0-3.0-1.392","<span style=""font-size:30px; font-family: monospace"">marrom</span>"," ","","exp-sent","marrom","","",""
"","241","html-keyboard-response","475","407017","0.0-3.0-1.393","<span style=""font-size:30px; font-family: monospace"">na</span>"," ","","exp-sent","na","","",""
"","181","html-keyboard-response","476","407449","0.0-3.0-1.394","<span style=""font-size:30px; font-family: monospace"">parede.</span>"," ","","exp-sent","parede.","","",""
"","null","html-keyboard-response","477","408703","0.0-3.0-0.395-0.395","<span style= ""font-size:30px; font-family: monospace"">+</span>","null","fixation","","","","",""
"","404","html-keyboard-response","478","409360","0.0-3.0-1.395","<span style=""font-size:30px; font-family: monospace"">O</span>"," ","","exp-sent","O","","",""
"","222","html-keyboard-response","479","409835","0.0-3.0-1.396","<span style=""font-size:30px; font-family: monospace"">avô</span>"," ","","exp-sent","avô","","",""
"","175","html-keyboard-response","480","410263","0.0-3.0-1.397","<span style=""font-size:30px; font-family: monospace"">fez</span>"," ","","exp-sent","fez","","",""
"","167","html-keyboard-response","481","410681","0.0-3.0-1.398","<span style=""font-size:30px; font-family: monospace"">uma</span>"," ","","exp-sent","uma","","",""
"","164","html-keyboard-response","482","411097","0.0-3.0-1.399","<span style=""font-size:30px; font-family: monospace"">lista</span>"," ","","exp-sent","lista","","",""
"","195","html-keyboard-response","483","411544","0.0-3.0-1.400","<span style=""font-size:30px; font-family: monospace"">de</span>"," ","","exp-sent","de","","",""
"","186","html-keyboard-response","484","411983","0.0-3.0-1.401","<span style=""font-size:30px; font-family: monospace"">compras</span>"," ","","exp-sent","compras","","",""
"","212","html-keyboard-response","485","412447","0.0-3.0-1.402","<span style=""font-size:30px; font-family: monospace"">do</span>"," ","","exp-sent","do","","",""
"","170","html-keyboard-response","486","412870","0.0-3.0-1.403","<span style=""font-size:30px; font-family: monospace"">mercado.</span>"," ","","exp-sent","mercado.","","",""
"","null","html-keyboard-response","487","414123","0.0-3.0-0.404-0.404","<span style= ""font-size:30px; font-family: monospace"">+</span>","null","fixation","","","","",""
"","419","html-keyboard-response","488","414794","0.0-3.0-1.404","<span style=""font-size:30px; font-family: monospace"">As</span>"," ","","exp-sent","As","","",""
"","199","html-keyboard-response","489","415245","0.0-3.0-1.405","<span style=""font-size:30px; font-family: monospace"">pessoas</span>"," ","","exp-sent","pessoas","","",""
"","191","html-keyboard-response","490","415688","0.0-3.0-1.406","<span style=""font-size:30px; font-family: monospace"">não</span>"," ","","exp-sent","não","","",""
"","217","html-keyboard-response","491","416158","0.0-3.0-1.407","<span style=""font-size:30px; font-family: monospace"">enviam</span>"," ","","exp-sent","enviam","","",""
"","181","html-keyboard-response","492","416591","0.0-3.0-1.408","<span style=""font-size:30px; font-family: monospace"">telegrama</span>"," ","","exp-sent","telegrama","","",""
"","242","html-keyboard-response","493","417086","0.0-3.0-1.409","<span style=""font-size:30px; font-family: monospace"">nos</span>"," ","","exp-sent","nos","","",""
"","459","html-keyboard-response","494","417798","0.0-3.0-1.410","<span style=""font-size:30px; font-family: monospace"">dias</span>"," ","","exp-sent","dias","","",""
"","315","html-keyboard-response","495","418365","0.0-3.0-1.411","<span style=""font-size:30px; font-family: monospace"">de</span>"," ","","exp-sent","de","","",""
"","298","html-keyboard-response","496","418916","0.0-3.0-1.412","<span style=""font-size:30px; font-family: monospace"">hoje.</span>"," ","","exp-sent","hoje.","","",""
"","null","html-keyboard-response","497","420169","0.0-3.0-0.413-0.413","<span style= ""font-size:30px; font-family: monospace"">+</span>","null","fixation","","","","",""
"","310","html-keyboard-response","498","420732","0.0-3.0-1.413","<span style=""font-size:30px; font-family: monospace"">Ele</span>"," ","","exp-sent","Ele","","",""
"","304","html-keyboard-response","499","421288","0.0-3.0-1.414","<span style=""font-size:30px; font-family: monospace"">não</span>"," ","","exp-sent","não","","",""
"","266","html-keyboard-response","500","421807","0.0-3.0-1.415","<span style=""font-size:30px; font-family: monospace"">gosta</span>"," ","","exp-sent","gosta","","",""
"","298","html-keyboard-response","501","422356","0.0-3.0-1.416","<span style=""font-size:30px; font-family: monospace"">de</span>"," ","","exp-sent","de","","",""
"","156","html-keyboard-response","502","422764","0.0-3.0-1.417","<span style=""font-size:30px; font-family: monospace"">tomate</span>"," ","","exp-sent","tomate","","",""
"","262","html-keyboard-response","503","423279","0.0-3.0-1.418","<span style=""font-size:30px; font-family: monospace"">misturado</span>"," ","","exp-sent","misturado","","",""
"","358","html-keyboard-response","504","423889","0.0-3.0-1.419","<span style=""font-size:30px; font-family: monospace"">na</span>"," ","","exp-sent","na","","",""
"","254","html-keyboard-response","505","424396","0.0-3.0-1.420","<span style=""font-size:30px; font-family: monospace"">comida.</span>"," ","","comp","comida.","","",""
"","3103","html-keyboard-response","506","427752","0.0-3.0-2.420-0.420","<span style=""font-size:30px; font-family: monospace"">Ele gosta de tomate na comida?</span>","n","","comp","","Ele gosta de tomate na comida?","não","false"
"","null","html-keyboard-response","507","429255","0.0-3.0-0.421-0.421","<span style= ""font-size:30px; font-family: monospace"">+</span>","null","fixation","","","","",""
"","1186","html-keyboard-response","508","430694","0.0-3.0-1.421","<span style=""font-size:30px; font-family: monospace"">Este</span>"," ","","exp-sent","Este","","",""
"","223","html-keyboard-response","509","431170","0.0-3.0-1.422","<span style=""font-size:30px; font-family: monospace"">conto</span>"," ","","exp-sent","conto","","",""
"","207","html-keyboard-response","510","431629","0.0-3.0-1.423","<span style=""font-size:30px; font-family: monospace"">tem</span>"," ","","exp-sent","tem","","",""
"","183","html-keyboard-response","511","432065","0.0-3.0-1.424","<span style=""font-size:30px; font-family: monospace"">um</span>"," ","","exp-sent","um","","",""
"","218","html-keyboard-response","512","432536","0.0-3.0-1.425","<span style=""font-size:30px; font-family: monospace"">final</span>"," ","","exp-sent","final","","",""
"","201","html-keyboard-response","513","432989","0.0-3.0-1.426","<span style=""font-size:30px; font-family: monospace"">perfeito.</span>"," ","","exp-sent","perfeito.","","",""
"","null","html-keyboard-response","514","434242","0.0-3.0-0.427-0.427","<span style= ""font-size:30px; font-family: monospace"">+</span>","null","fixation","","","","",""
"","265","html-keyboard-response","515","434759","0.0-3.0-1.427","<span style=""font-size:30px; font-family: monospace"">Ele</span>"," ","","exp-sent","Ele","","",""
"","315","html-keyboard-response","516","435326","0.0-3.0-1.428","<span style=""font-size:30px; font-family: monospace"">precisa</span>"," ","","exp-sent","precisa","","",""
"","248","html-keyboard-response","517","435826","0.0-3.0-1.429","<span style=""font-size:30px; font-family: monospace"">de</span>"," ","","exp-sent","de","","",""
"","234","html-keyboard-response","518","436313","0.0-3.0-1.430","<span style=""font-size:30px; font-family: monospace"">um</span>"," ","","exp-sent","um","","",""
"","215","html-keyboard-response","519","436781","0.0-3.0-1.431","<span style=""font-size:30px; font-family: monospace"">protetor</span>"," ","","exp-sent","protetor","","",""
"","268","html-keyboard-response","520","437302","0.0-3.0-1.432","<span style=""font-size:30px; font-family: monospace"">de</span>"," ","","exp-sent","de","","",""
"","262","html-keyboard-response","521","437815","0.0-3.0-1.433","<span style=""font-size:30px; font-family: monospace"">ouvido.</span>"," ","","exp-sent","ouvido.","","",""
"","null","html-keyboard-response","522","439069","0.0-3.0-0.434-0.434","<span style= ""font-size:30px; font-family: monospace"">+</span>","null","fixation","","","","",""
"","246","html-keyboard-response","523","439567","0.0-3.0-1.434","<span style=""font-size:30px; font-family: monospace"">Os</span>"," ","","exp-sent","Os","","",""
"","325","html-keyboard-response","524","440144","0.0-3.0-1.435","<span style=""font-size:30px; font-family: monospace"">hábitos</span>"," ","","exp-sent","hábitos","","",""
"","271","html-keyboard-response","525","440668","0.0-3.0-1.436","<span style=""font-size:30px; font-family: monospace"">de</span>"," ","","exp-sent","de","","",""
"","291","html-keyboard-response","526","441212","0.0-3.0-1.437","<span style=""font-size:30px; font-family: monospace"">lugares</span>"," ","","exp-sent","lugares","","",""
"","293","html-keyboard-response","527","441758","0.0-3.0-1.438","<span style=""font-size:30px; font-family: monospace"">diferentes</span>"," ","","exp-sent","diferentes","","",""
"","387","html-keyboard-response","528","442397","0.0-3.0-1.439","<span style=""font-size:30px; font-family: monospace"">são</span>"," ","","exp-sent","são","","",""
"","276","html-keyboard-response","529","442926","0.0-3.0-1.440","<span style=""font-size:30px; font-family: monospace"">muito</span>"," ","","exp-sent","muito","","",""
"","278","html-keyboard-response","530","443456","0.0-3.0-1.441","<span style=""font-size:30px; font-family: monospace"">lindos.</span>"," ","","exp-sent","lindos.","","",""
"","null","html-keyboard-response","531","444709","0.0-3.0-0.442-0.442","<span style= ""font-size:30px; font-family: monospace"">+</span>","null","fixation","","","","",""
"","252","html-keyboard-response","532","445214","0.0-3.0-1.442","<span style=""font-size:30px; font-family: monospace"">O</span>"," ","","exp-sent","O","","",""
"","392","html-keyboard-response","533","445857","0.0-3.0-1.443","<span style=""font-size:30px; font-family: monospace"">médico</span>"," ","","exp-sent","médico","","",""
"","190","html-keyboard-response","534","446300","0.0-3.0-1.444","<span style=""font-size:30px; font-family: monospace"">corrigiu</span>"," ","","exp-sent","corrigiu","","",""
"","259","html-keyboard-response","535","446811","0.0-3.0-1.445","<span style=""font-size:30px; font-family: monospace"">a</span>"," ","","exp-sent","a","","",""
"","213","html-keyboard-response","536","447277","0.0-3.0-1.446","<span style=""font-size:30px; font-family: monospace"">postura</span>"," ","","exp-sent","postura","","",""
"","259","html-keyboard-response","537","447788","0.0-3.0-1.447","<span style=""font-size:30px; font-family: monospace"">das</span>"," ","","exp-sent","das","","",""
"","217","html-keyboard-response","538","448257","0.0-3.0-1.448","<span style=""font-size:30px; font-family: monospace"">costas</span>"," ","","exp-sent","costas","","",""
"","219","html-keyboard-response","539","448728","0.0-3.0-1.449","<span style=""font-size:30px; font-family: monospace"">da</span>"," ","","exp-sent","da","","",""
"","276","html-keyboard-response","540","449256","0.0-3.0-1.450","<span style=""font-size:30px; font-family: monospace"">pessoa.</span>"," ","","exp-sent","pessoa.","","",""
"","null","html-keyboard-response","541","450510","0.0-3.0-0.451-0.451","<span style= ""font-size:30px; font-family: monospace"">+</span>","null","fixation","","","","",""
"","191","html-keyboard-response","542","450954","0.0-3.0-1.451","<span style=""font-size:30px; font-family: monospace"">Aquele</span>"," ","","exp-sent","Aquele","","",""
"","258","html-keyboard-response","543","451465","0.0-3.0-1.452","<span style=""font-size:30px; font-family: monospace"">era</span>"," ","","exp-sent","era","","",""
"","190","html-keyboard-response","544","451908","0.0-3.0-1.453","<span style=""font-size:30px; font-family: monospace"">um</span>"," ","","exp-sent","um","","",""
"","211","html-keyboard-response","545","452372","0.0-3.0-1.454","<span style=""font-size:30px; font-family: monospace"">caso</span>"," ","","exp-sent","caso","","",""
"","247","html-keyboard-response","546","452872","0.0-3.0-1.455","<span style=""font-size:30px; font-family: monospace"">real</span>"," ","","exp-sent","real","","",""
"","292","html-keyboard-response","547","453417","0.0-3.0-1.456","<span style=""font-size:30px; font-family: monospace"">de</span>"," ","","exp-sent","de","","",""
"","238","html-keyboard-response","548","453908","0.0-3.0-1.457","<span style=""font-size:30px; font-family: monospace"">sequestro</span>"," ","","exp-sent","sequestro","","",""
"","332","html-keyboard-response","549","454492","0.0-3.0-1.458","<span style=""font-size:30px; font-family: monospace"">premeditado.</span>"," ","","comp","premeditado.","","",""
"","3089","html-keyboard-response","550","457833","0.0-3.0-2.458-0.458","<span style=""font-size:30px; font-family: monospace"">Aquele era um caso real de roubo?</span>","n","","comp","","Aquele era um caso real de roubo?","não","false"
"","null","html-keyboard-response","551","459336","0.0-3.0-0.459-0.459","<span style= ""font-size:30px; font-family: monospace"">+</span>","null","fixation","","","","",""
"","606","html-keyboard-response","552","460194","0.0-3.0-1.459","<span style=""font-size:30px; font-family: monospace"">Eu</span>"," ","","exp-sent","Eu","","",""
"","148","html-keyboard-response","553","460595","0.0-3.0-1.460","<span style=""font-size:30px; font-family: monospace"">gosto</span>"," ","","exp-sent","gosto","","",""
"","259","html-keyboard-response","554","461107","0.0-3.0-1.461","<span style=""font-size:30px; font-family: monospace"">de</span>"," ","","exp-sent","de","","",""
"","232","html-keyboard-response","555","461591","0.0-3.0-1.462","<span style=""font-size:30px; font-family: monospace"">molho</span>"," ","","exp-sent","molho","","",""
"","232","html-keyboard-response","556","462076","0.0-3.0-1.463","<span style=""font-size:30px; font-family: monospace"">picante</span>"," ","","exp-sent","picante","","",""
"","119","html-keyboard-response","557","462447","0.0-3.0-1.464","<span style=""font-size:30px; font-family: monospace"">nas</span>"," ","","exp-sent","nas","","",""
"","182","html-keyboard-response","558","462882","0.0-3.0-1.465","<span style=""font-size:30px; font-family: monospace"">batatas.</span>"," ","","exp-sent","batatas.","","",""
"","null","html-keyboard-response","559","464135","0.0-3.0-0.466-0.466","<span style= ""font-size:30px; font-family: monospace"">+</span>","null","fixation","","","","",""
"","314","html-keyboard-response","560","464702","0.0-3.0-1.466","<span style=""font-size:30px; font-family: monospace"">As</span>"," ","","exp-sent","As","","",""
"","189","html-keyboard-response","561","465144","0.0-3.0-1.467","<span style=""font-size:30px; font-family: monospace"">pessoas</span>"," ","","exp-sent","pessoas","","",""
"","155","html-keyboard-response","562","465552","0.0-3.0-1.468","<span style=""font-size:30px; font-family: monospace"">têm</span>"," ","","exp-sent","têm","","",""
"","181","html-keyboard-response","563","465985","0.0-3.0-1.469","<span style=""font-size:30px; font-family: monospace"">sua</span>"," ","","exp-sent","sua","","",""
"","154","html-keyboard-response","564","466392","0.0-3.0-1.470","<span style=""font-size:30px; font-family: monospace"">liberdade</span>"," ","","exp-sent","liberdade","","",""
"","179","html-keyboard-response","565","466824","0.0-3.0-1.471","<span style=""font-size:30px; font-family: monospace"">até</span>"," ","","exp-sent","até","","",""
"","245","html-keyboard-response","566","467321","0.0-3.0-1.472","<span style=""font-size:30px; font-family: monospace"">certo</span>"," ","","exp-sent","certo","","",""
"","169","html-keyboard-response","567","467742","0.0-3.0-1.473","<span style=""font-size:30px; font-family: monospace"">ponto.</span>"," ","","exp-sent","ponto.","","",""
"","null","html-keyboard-response","568","468996","0.0-3.0-0.474-0.474","<span style= ""font-size:30px; font-family: monospace"">+</span>","null","fixation","","","","",""
"","405","html-keyboard-response","569","469652","0.0-3.0-1.474","<span style=""font-size:30px; font-family: monospace"">A</span>"," ","","exp-sent","A","","",""
"","156","html-keyboard-response","570","470060","0.0-3.0-1.475","<span style=""font-size:30px; font-family: monospace"">empresa</span>"," ","","exp-sent","empresa","","",""
"","191","html-keyboard-response","571","470504","0.0-3.0-1.476","<span style=""font-size:30px; font-family: monospace"">enviou</span>"," ","","exp-sent","enviou","","",""
"","228","html-keyboard-response","572","470985","0.0-3.0-1.477","<span style=""font-size:30px; font-family: monospace"">o</span>"," ","","exp-sent","o","","",""
"","203","html-keyboard-response","573","471441","0.0-3.0-1.478","<span style=""font-size:30px; font-family: monospace"">aviso</span>"," ","","exp-sent","aviso","","",""
"","159","html-keyboard-response","574","471852","0.0-3.0-1.479","<span style=""font-size:30px; font-family: monospace"">hoje</span>"," ","","exp-sent","hoje","","",""
"","226","html-keyboard-response","575","472330","0.0-3.0-1.480","<span style=""font-size:30px; font-family: monospace"">de</span>"," ","","exp-sent","de","","",""
"","165","html-keyboard-response","576","472748","0.0-3.0-1.481","<span style=""font-size:30px; font-family: monospace"">tarde.</span>"," ","","exp-sent","tarde.","","",""
"","null","html-keyboard-response","577","474001","0.0-3.0-0.482-0.482","<span style= ""font-size:30px; font-family: monospace"">+</span>","null","fixation","","","","",""
"","292","html-keyboard-response","578","474547","0.0-3.0-1.482","<span style=""font-size:30px; font-family: monospace"">A</span>"," ","","exp-sent","A","","",""
"","168","html-keyboard-response","579","474968","0.0-3.0-1.483","<span style=""font-size:30px; font-family: monospace"">loja</span>"," ","","exp-sent","loja","","",""
"","168","html-keyboard-response","580","475388","0.0-3.0-1.484","<span style=""font-size:30px; font-family: monospace"">vende</span>"," ","","exp-sent","vende","","",""
"","247","html-keyboard-response","581","475888","0.0-3.0-1.485","<span style=""font-size:30px; font-family: monospace"">tanto</span>"," ","","exp-sent","tanto","","",""
"","220","html-keyboard-response","582","476359","0.0-3.0-1.486","<span style=""font-size:30px; font-family: monospace"">frituras</span>"," ","","exp-sent","frituras","","",""
"","413","html-keyboard-response","583","477026","0.0-3.0-1.487","<span style=""font-size:30px; font-family: monospace"">quanto</span>"," ","","exp-sent","quanto","","",""
"","371","html-keyboard-response","584","477649","0.0-3.0-1.488","<span style=""font-size:30px; font-family: monospace"">comidas</span>"," ","","exp-sent","comidas","","",""
