"view_history","rt","trial_type","trial_index","time_elapsed","internal_node_id","stimulus","response","trial_part","trial","word","question","answer","accuracy"
"[{""page_index"":0,""viewing_time"":195421},{""page_index"":1,""viewing_time"":1528}]","196949","instructions","0","196948","0.0-0.0","","","","","","","",""
"","null","html-keyboard-response","1","198051","0.0-1.0-0.0-0.0","<span style= ""font-size:30px; font-family: monospace"">+</span>","null","fixation","","","","",""
"","4767","html-keyboard-response","2","203069","0.0-1.0-1.0","<span style=""font-size:30px; font-family: monospace"">O</span>"," ","","prac-sent","O","","",""
"","2387","html-keyboard-response","3","205708","0.0-1.0-1.1","<span style=""font-size:30px; font-family: monospace"">dia</span>"," ","","prac-sent","dia","","",""
"","1940","html-keyboard-response","4","207899","0.0-1.0-1.2","<span style=""font-size:30px; font-family: monospace"">estará</span>"," ","","prac-sent","estará","","",""
"","1877","html-keyboard-response","5","210028","0.0-1.0-1.3","<span style=""font-size:30px; font-family: monospace"">cheio</span>"," ","","prac-sent","cheio","","",""
"","1797","html-keyboard-response","6","212076","0.0-1.0-1.4","<span style=""font-size:30px; font-family: monospace"">de</span>"," ","","prac-sent","de","","",""
"","2997","html-keyboard-response","7","215323","0.0-1.0-1.5","<span style=""font-size:30px; font-family: monospace"">nuvens</span>"," ","","prac-sent","nuvens","","",""
"","3365","html-keyboard-response","8","218939","0.0-1.0-1.6","<span style=""font-size:30px; font-family: monospace"">hoje.</span>"," ","","prac-sent","hoje.","","",""
"","null","html-keyboard-response","9","220192","0.0-1.0-0.7-0.7","<span style= ""font-size:30px; font-family: monospace"">+</span>","null","fixation","","","","",""
"","4272","html-keyboard-response","10","224715","0.0-1.0-1.7","<span style=""font-size:30px; font-family: monospace"">A</span>"," ","","prac-sent","A","","",""
"","6805","html-keyboard-response","11","231771","0.0-1.0-1.8","<span style=""font-size:30px; font-family: monospace"">caneca</span>"," ","","prac-sent","caneca","","",""
"","26437","html-keyboard-response","12","258460","0.0-1.0-1.9","<span style=""font-size:30px; font-family: monospace"">colorida</span>"," ","","prac-sent","colorida","","",""
"","1348","html-keyboard-response","13","260059","0.0-1.0-1.10","<span style=""font-size:30px; font-family: monospace"">caiu</span>"," ","","prac-sent","caiu","","",""
"","2421","html-keyboard-response","14","262731","0.0-1.0-1.11","<span style=""font-size:30px; font-family: monospace"">da</span>"," ","","prac-sent","da","","",""
"","6326","html-keyboard-response","15","269308","0.0-1.0-1.12","<span style=""font-size:30px; font-family: monospace"">mesa</span>"," ","","prac-sent","mesa","","",""
"","3970","html-keyboard-response","16","273531","0.0-1.0-1.13","<span style=""font-size:30px; font-family: monospace"">de</span>"," ","","prac-sent","de","","",""
"","3349","html-keyboard-response","17","277131","0.0-1.0-1.14","<span style=""font-size:30px; font-family: monospace"">jantar.</span>"," ","","prac-comp","jantar.","","",""
"","60501","html-keyboard-response","18","337883","0.0-1.0-2.14-0.14","<span style=""font-size:30px; font-family: monospace"">A caneca permaneceu na mesa?</span>","s","","prac-comp","","A caneca permaneceu na mesa?","não","false"
"[{""page_index"":0,""viewing_time"":58859}]","58859","instructions","19","397243","0.0-2.0","","","","","","","",""
"","null","html-keyboard-response","20","398344","0.0-3.0-0.0-0.0","<span style= ""font-size:30px; font-family: monospace"">+</span>","null","fixation","","","","",""
"","14006","html-keyboard-response","21","412602","0.0-3.0-1.0","<span style=""font-size:30px; font-family: monospace"">O</span>"," ","","exp-sent","O","","",""
"","33157","html-keyboard-response","22","446010","0.0-3.0-1.1","<span style=""font-size:30px; font-family: monospace"">moço</span>"," ","","exp-sent","moço","","",""
"","2068","html-keyboard-response","23","448330","0.0-3.0-1.2","<span style=""font-size:30px; font-family: monospace"">usou</span>"," ","","exp-sent","usou","","",""
"","149445","html-keyboard-response","24","598025","0.0-3.0-1.3","<span style=""font-size:30px; font-family: monospace"">várias</span>"," ","","exp-sent","várias","","",""
"","2741","html-keyboard-response","25","601016","0.0-3.0-1.4","<span style=""font-size:30px; font-family: monospace"">velas</span>"," ","","exp-sent","velas","","",""
"","8070","html-keyboard-response","26","609337","0.0-3.0-1.5","<span style=""font-size:30px; font-family: monospace"">no</span>"," ","","exp-sent","no","","",""
"","4816","html-keyboard-response","27","614409","0.0-3.0-1.6","<span style=""font-size:30px; font-family: monospace"">enfeite</span>"," ","","exp-sent","enfeite","","",""
"","4085","html-keyboard-response","28","618745","0.0-3.0-1.7","<span style=""font-size:30px; font-family: monospace"">de</span>"," ","","exp-sent","de","","",""
"","5189","html-keyboard-response","29","624185","0.0-3.0-1.8","<span style=""font-size:30px; font-family: monospace"">mesa.</span>"," ","","exp-sent","mesa.","","",""
"","null","html-keyboard-response","30","625437","0.0-3.0-0.9-0.9","<span style= ""font-size:30px; font-family: monospace"">+</span>","null","fixation","","","","",""
"","35009","html-keyboard-response","31","660696","0.0-3.0-1.9","<span style=""font-size:30px; font-family: monospace"">Gostamos</span>"," ","","exp-sent","Gostamos","","",""
"","3604","html-keyboard-response","32","664552","0.0-3.0-1.10","<span style=""font-size:30px; font-family: monospace"">de</span>"," ","","exp-sent","de","","",""
"","4773","html-keyboard-response","33","669576","0.0-3.0-1.11","<span style=""font-size:30px; font-family: monospace"">suco</span>"," ","","exp-sent","suco","","",""
"","3205","html-keyboard-response","34","673032","0.0-3.0-1.12","<span style=""font-size:30px; font-family: monospace"">em</span>"," ","","exp-sent","em","","",""
"","4740","html-keyboard-response","35","678024","0.0-3.0-1.13","<span style=""font-size:30px; font-family: monospace"">garrafa</span>"," ","","exp-sent","garrafa","","",""
"","1877","html-keyboard-response","36","680152","0.0-3.0-1.14","<span style=""font-size:30px; font-family: monospace"">de</span>"," ","","exp-sent","de","","",""
"","5862","html-keyboard-response","37","686264","0.0-3.0-1.15","<span style=""font-size:30px; font-family: monospace"">tamanho</span>"," ","","exp-sent","tamanho","","",""
"","11076","html-keyboard-response","38","697592","0.0-3.0-1.16","<span style=""font-size:30px; font-family: monospace"">pequeno.</span>"," ","","exp-sent","pequeno.","","",""
"","null","html-keyboard-response","39","698844","0.0-3.0-0.17-0.17","<span style= ""font-size:30px; font-family: monospace"">+</span>","null","fixation","","","","",""
"","2017","html-keyboard-response","40","701112","0.0-3.0-1.17","<span style=""font-size:30px; font-family: monospace"">Sua</span>"," ","","exp-sent","Sua","","",""
"","4389","html-keyboard-response","41","705752","0.0-3.0-1.18","<span style=""font-size:30px; font-family: monospace"">filha</span>"," ","","exp-sent","filha","","",""
"","2165","html-keyboard-response","42","708168","0.0-3.0-1.19","<span style=""font-size:30px; font-family: monospace"">é</span>"," ","","exp-sent","é","","",""
"","2869","html-keyboard-response","43","711288","0.0-3.0-1.20","<span style=""font-size:30px; font-family: monospace"">muito</span>"," ","","exp-sent","muito","","",""
"","3765","html-keyboard-response","44","715304","0.0-3.0-1.21","<span style=""font-size:30px; font-family: monospace"">capaz</span>"," ","","exp-sent","capaz","","",""
"","2820","html-keyboard-response","45","718376","0.0-3.0-1.22","<span style=""font-size:30px; font-family: monospace"">e</span>"," ","","exp-sent","e","","",""
"","4420","html-keyboard-response","46","723048","0.0-3.0-1.23","<span style=""font-size:30px; font-family: monospace"">esforçada.</span>"," ","","exp-sent","esforçada.","","",""
"","null","html-keyboard-response","47","724300","0.0-3.0-0.24-0.24","<span style= ""font-size:30px; font-family: monospace"">+</span>","null","fixation","","","","",""
"","832","html-keyboard-response","48","725384","0.0-3.0-1.24","<span style=""font-size:30px; font-family: monospace"">A</span>"," ","","exp-sent","A","","",""
"","3298","html-keyboard-response","49","728936","0.0-3.0-1.25","<span style=""font-size:30px; font-family: monospace"">batida</span>"," ","","exp-sent","batida","","",""
"","3733","html-keyboard-response","50","732920","0.0-3.0-1.26","<span style=""font-size:30px; font-family: monospace"">causou</span>"," ","","exp-sent","causou","","",""
"","2997","html-keyboard-response","51","736168","0.0-3.0-1.27","<span style=""font-size:30px; font-family: monospace"">muita</span>"," ","","exp-sent","muita","","",""
"","3141","html-keyboard-response","52","739560","0.0-3.0-1.28","<span style=""font-size:30px; font-family: monospace"">confusão</span>"," ","","exp-sent","confusão","","",""
"","1957","html-keyboard-response","53","741768","0.0-3.0-1.29","<span style=""font-size:30px; font-family: monospace"">na</span>"," ","","exp-sent","na","","",""
"","2644","html-keyboard-response","54","744664","0.0-3.0-1.30","<span style=""font-size:30px; font-family: monospace"">estrada.</span>"," ","","exp-sent","estrada.","","",""
"","null","html-keyboard-response","55","745921","0.0-3.0-0.31-0.31","<span style= ""font-size:30px; font-family: monospace"">+</span>","null","fixation","","","","",""
"","2380","html-keyboard-response","56","748552","0.0-3.0-1.31","<span style=""font-size:30px; font-family: monospace"">Eu</span>"," ","","exp-sent","Eu","","",""
"","6133","html-keyboard-response","57","754935","0.0-3.0-1.32","<span style=""font-size:30px; font-family: monospace"">cozinhei</span>"," ","","exp-sent","cozinhei","","",""
"","2917","html-keyboard-response","58","758103","0.0-3.0-1.33","<span style=""font-size:30px; font-family: monospace"">um</span>"," ","","exp-sent","um","","",""
"","3956","html-keyboard-response","59","762311","0.0-3.0-1.34","<span style=""font-size:30px; font-family: monospace"">almoço</span>"," ","","exp-sent","almoço","","",""
"","4148","html-keyboard-response","60","766711","0.0-3.0-1.35","<span style=""font-size:30px; font-family: monospace"">nutritivo</span>"," ","","exp-sent","nutritivo","","",""
"","1781","html-keyboard-response","61","768743","0.0-3.0-1.36","<span style=""font-size:30px; font-family: monospace"">para</span>"," ","","exp-sent","para","","",""
"","1735","html-keyboard-response","62","770743","0.0-3.0-1.37","<span style=""font-size:30px; font-family: monospace"">hoje.</span>"," ","","comp","hoje.","","",""
"","38942","html-keyboard-response","63","809944","0.0-3.0-2.37-0.37","<span style=""font-size:30px; font-family: monospace"">O almoço era nutritivo?</span>","s","","comp","","O almoço era nutritivo?","sim","false"
"","null","html-keyboard-response","64","811446","0.0-3.0-0.38-0.38","<span style= ""font-size:30px; font-family: monospace"">+</span>","null","fixation","","","","",""
"","3526","html-keyboard-response","65","815223","0.0-3.0-1.38","<span style=""font-size:30px; font-family: monospace"">O</span>"," ","","exp-sent","O","","",""
"","3093","html-keyboard-response","66","818567","0.0-3.0-1.39","<span style=""font-size:30px; font-family: monospace"">texto</span>"," ","","exp-sent","texto","","",""
"","5685","html-keyboard-response","67","824503","0.0-3.0-1.40","<span style=""font-size:30px; font-family: monospace"">trazia</span>"," ","","exp-sent","trazia","","",""
"","2323","html-keyboard-response","68","827079","0.0-3.0-1.41","<span style=""font-size:30px; font-family: monospace"">um</span>"," ","","exp-sent","um","","",""
"","6212","html-keyboard-response","69","833543","0.0-3.0-1.42","<span style=""font-size:30px; font-family: monospace"">argumento</span>"," ","","exp-sent","argumento","","",""
"","3269","html-keyboard-response","70","837063","0.0-3.0-1.43","<span style=""font-size:30px; font-family: monospace"">central</span>"," ","","exp-sent","central","","",""
"","2340","html-keyboard-response","71","839655","0.0-3.0-1.44","<span style=""font-size:30px; font-family: monospace"">para</span>"," ","","exp-sent","para","","",""
"","2485","html-keyboard-response","72","842391","0.0-3.0-1.45","<span style=""font-size:30px; font-family: monospace"">a</span>"," ","","exp-sent","a","","",""
"","3876","html-keyboard-response","73","846519","0.0-3.0-1.46","<span style=""font-size:30px; font-family: monospace"">conversa.</span>"," ","","exp-sent","conversa.","","",""
"","null","html-keyboard-response","74","847770","0.0-3.0-0.47-0.47","<span style= ""font-size:30px; font-family: monospace"">+</span>","null","fixation","","","","",""
"","8897","html-keyboard-response","75","856919","0.0-3.0-1.47","<span style=""font-size:30px; font-family: monospace"">Ontem</span>"," ","","exp-sent","Ontem","","",""
"","1845","html-keyboard-response","76","859015","0.0-3.0-1.48","<span style=""font-size:30px; font-family: monospace"">a</span>"," ","","exp-sent","a","","",""
"","11701","html-keyboard-response","77","870967","0.0-3.0-1.49","<span style=""font-size:30px; font-family: monospace"">temperatura</span>"," ","","exp-sent","temperatura","","",""
"","3237","html-keyboard-response","78","874455","0.0-3.0-1.50","<span style=""font-size:30px; font-family: monospace"">estava</span>"," ","","exp-sent","estava","","",""
"","2821","html-keyboard-response","79","877526","0.0-3.0-1.51","<span style=""font-size:30px; font-family: monospace"">amena</span>"," ","","exp-sent","amena","","",""
"","3524","html-keyboard-response","80","881302","0.0-3.0-1.52","<span style=""font-size:30px; font-family: monospace"">durante</span>"," ","","exp-sent","durante","","",""
"","2085","html-keyboard-response","81","883638","0.0-3.0-1.53","<span style=""font-size:30px; font-family: monospace"">o</span>"," ","","exp-sent","o","","",""
"","1653","html-keyboard-response","82","885542","0.0-3.0-1.54","<span style=""font-size:30px; font-family: monospace"">dia.</span>"," ","","exp-sent","dia.","","",""
"","null","html-keyboard-response","83","886794","0.0-3.0-0.55-0.55","<span style= ""font-size:30px; font-family: monospace"">+</span>","null","fixation","","","","",""
"","2241","html-keyboard-response","84","889286","0.0-3.0-1.55","<span style=""font-size:30px; font-family: monospace"">Havia</span>"," ","","exp-sent","Havia","","",""
"","2086","html-keyboard-response","85","891623","0.0-3.0-1.56","<span style=""font-size:30px; font-family: monospace"">um</span>"," ","","exp-sent","um","","",""
"","5859","html-keyboard-response","86","897734","0.0-3.0-1.57","<span style=""font-size:30px; font-family: monospace"">machucado</span>"," ","","exp-sent","machucado","","",""
"","2101","html-keyboard-response","87","900086","0.0-3.0-1.58","<span style=""font-size:30px; font-family: monospace"">no</span>"," ","","exp-sent","no","","",""
"","3845","html-keyboard-response","88","904182","0.0-3.0-1.59","<span style=""font-size:30px; font-family: monospace"">dedo</span>"," ","","exp-sent","dedo","","",""
"","2611","html-keyboard-response","89","907046","0.0-3.0-1.60","<span style=""font-size:30px; font-family: monospace"">da</span>"," ","","exp-sent","da","","",""
"","3253","html-keyboard-response","90","910550","0.0-3.0-1.61","<span style=""font-size:30px; font-family: monospace"">criança.</span>"," ","","exp-sent","criança.","","",""
"","null","html-keyboard-response","91","911803","0.0-3.0-0.62-0.62","<span style= ""font-size:30px; font-family: monospace"">+</span>","null","fixation","","","","",""
"","880","html-keyboard-response","92","912934","0.0-3.0-1.62","<span style=""font-size:30px; font-family: monospace"">A</span>"," ","","exp-sent","A","","",""
"","4245","html-keyboard-response","93","917431","0.0-3.0-1.63","<span style=""font-size:30px; font-family: monospace"">borboleta</span>"," ","","exp-sent","borboleta","","",""
"","4420","html-keyboard-response","94","922102","0.0-3.0-1.64","<span style=""font-size:30px; font-family: monospace"">pousou</span>"," ","","exp-sent","pousou","","",""
"","3542","html-keyboard-response","95","925910","0.0-3.0-1.65","<span style=""font-size:30px; font-family: monospace"">no</span>"," ","","exp-sent","no","","",""
"","3829","html-keyboard-response","96","929990","0.0-3.0-1.66","<span style=""font-size:30px; font-family: monospace"">ombro</span>"," ","","exp-sent","ombro","","",""
"","5349","html-keyboard-response","97","935590","0.0-3.0-1.67","<span style=""font-size:30px; font-family: monospace"">daquela</span>"," ","","exp-sent","daquela","","",""
"","2468","html-keyboard-response","98","938310","0.0-3.0-1.68","<span style=""font-size:30px; font-family: monospace"">moça.</span>"," ","","exp-sent","moça.","","",""
"","null","html-keyboard-response","99","939561","0.0-3.0-0.69-0.69","<span style= ""font-size:30px; font-family: monospace"">+</span>","null","fixation","","","","",""
"","1905","html-keyboard-response","100","941718","0.0-3.0-1.69","<span style=""font-size:30px; font-family: monospace"">Eu</span>"," ","","exp-sent","Eu","","",""
"","2997","html-keyboard-response","101","944966","0.0-3.0-1.70","<span style=""font-size:30px; font-family: monospace"">quero</span>"," ","","exp-sent","quero","","",""
"","2005","html-keyboard-response","102","947222","0.0-3.0-1.71","<span style=""font-size:30px; font-family: monospace"">um</span>"," ","","exp-sent","um","","",""
"","7253","html-keyboard-response","103","954726","0.0-3.0-1.72","<span style=""font-size:30px; font-family: monospace"">namorado</span>"," ","","exp-sent","namorado","","",""
"","4260","html-keyboard-response","104","959238","0.0-3.0-1.73","<span style=""font-size:30px; font-family: monospace"">honesto</span>"," ","","exp-sent","honesto","","",""
"","1653","html-keyboard-response","105","961142","0.0-3.0-1.74","<span style=""font-size:30px; font-family: monospace"">e</span>"," ","","exp-sent","e","","",""
"","3765","html-keyboard-response","106","965158","0.0-3.0-1.75","<span style=""font-size:30px; font-family: monospace"">compreensivo.</span>"," ","","comp","compreensivo.","","",""
"","103766","html-keyboard-response","107","1069173","0.0-3.0-2.75-0.75","<span style=""font-size:30px; font-family: monospace"">Eu quero um namorado honesto?</span>","n","","comp","","Eu quero um namorado honesto?","sim","false"
"","null","html-keyboard-response","108","1070675","0.0-3.0-0.76-0.76","<span style= ""font-size:30px; font-family: monospace"">+</span>","null","fixation","","","","",""
"","3847","html-keyboard-response","109","1074773","0.0-3.0-1.76","<span style=""font-size:30px; font-family: monospace"">O</span>"," ","","exp-sent","O","","",""
"","3765","html-keyboard-response","110","1078789","0.0-3.0-1.77","<span style=""font-size:30px; font-family: monospace"">travesseiro</span>"," ","","exp-sent","travesseiro","","",""
"","2694","html-keyboard-response","111","1081733","0.0-3.0-1.78","<span style=""font-size:30px; font-family: monospace"">era</span>"," ","","exp-sent","era","","",""
"","2165","html-keyboard-response","112","1084149","0.0-3.0-1.79","<span style=""font-size:30px; font-family: monospace"">muito</span>"," ","","exp-sent","muito","","",""
"","3397","html-keyboard-response","113","1087797","0.0-3.0-1.80","<span style=""font-size:30px; font-family: monospace"">macio</span>"," ","","exp-sent","macio","","",""
"","1637","html-keyboard-response","114","1089685","0.0-3.0-1.81","<span style=""font-size:30px; font-family: monospace"">e</span>"," ","","exp-sent","e","","",""
"","5061","html-keyboard-response","115","1094997","0.0-3.0-1.82","<span style=""font-size:30px; font-family: monospace"">confortável.</span>"," ","","exp-sent","confortável.","","",""
"","null","html-keyboard-response","116","1096249","0.0-3.0-0.83-0.83","<span style= ""font-size:30px; font-family: monospace"">+</span>","null","fixation","","","","",""
"","978","html-keyboard-response","117","1097477","0.0-3.0-1.83","<span style=""font-size:30px; font-family: monospace"">Hoje</span>"," ","","exp-sent","Hoje","","",""
"","1829","html-keyboard-response","118","1099557","0.0-3.0-1.84","<span style=""font-size:30px; font-family: monospace"">a</span>"," ","","exp-sent","a","","",""
"","3173","html-keyboard-response","119","1102981","0.0-3.0-1.85","<span style=""font-size:30px; font-family: monospace"">atendente</span>"," ","","exp-sent","atendente","","",""
"","2277","html-keyboard-response","120","1105509","0.0-3.0-1.86","<span style=""font-size:30px; font-family: monospace"">estava</span>"," ","","exp-sent","estava","","",""
"","3365","html-keyboard-response","121","1109125","0.0-3.0-1.87","<span style=""font-size:30px; font-family: monospace"">furiosa</span>"," ","","exp-sent","furiosa","","",""
"","3333","html-keyboard-response","122","1112709","0.0-3.0-1.88","<span style=""font-size:30px; font-family: monospace"">com</span>"," ","","exp-sent","com","","",""
"","2229","html-keyboard-response","123","1115189","0.0-3.0-1.89","<span style=""font-size:30px; font-family: monospace"">o</span>"," ","","exp-sent","o","","",""
"","4069","html-keyboard-response","124","1119509","0.0-3.0-1.90","<span style=""font-size:30px; font-family: monospace"">cliente.</span>"," ","","exp-sent","cliente.","","",""
"","null","html-keyboard-response","125","1120760","0.0-3.0-0.91-0.91","<span style= ""font-size:30px; font-family: monospace"">+</span>","null","fixation","","","","",""
"","562","html-keyboard-response","126","1121573","0.0-3.0-1.91","<span style=""font-size:30px; font-family: monospace"">O</span>"," ","","exp-sent","O","","",""
"","3109","html-keyboard-response","127","1124933","0.0-3.0-1.92","<span style=""font-size:30px; font-family: monospace"">vizinho</span>"," ","","exp-sent","vizinho","","",""
"","2757","html-keyboard-response","128","1127941","0.0-3.0-1.93","<span style=""font-size:30px; font-family: monospace"">é</span>"," ","","exp-sent","é","","",""
"","3397","html-keyboard-response","129","1131589","0.0-3.0-1.94","<span style=""font-size:30px; font-family: monospace"">um</span>"," ","","exp-sent","um","","",""
"","5573","html-keyboard-response","130","1137413","0.0-3.0-1.95","<span style=""font-size:30px; font-family: monospace"">arquiteto</span>"," ","","exp-sent","arquiteto","","",""
"","3045","html-keyboard-response","131","1140709","0.0-3.0-1.96","<span style=""font-size:30px; font-family: monospace"">muito</span>"," ","","exp-sent","muito","","",""
"","3365","html-keyboard-response","132","1144325","0.0-3.0-1.97","<span style=""font-size:30px; font-family: monospace"">excêntrico.</span>"," ","","exp-sent","excêntrico.","","",""
"","null","html-keyboard-response","133","1145577","0.0-3.0-0.98-0.98","<span style= ""font-size:30px; font-family: monospace"">+</span>","null","fixation","","","","",""
"","816","html-keyboard-response","134","1146644","0.0-3.0-1.98","<span style=""font-size:30px; font-family: monospace"">A</span>"," ","","exp-sent","A","","",""
"","2933","html-keyboard-response","135","1149829","0.0-3.0-1.99","<span style=""font-size:30px; font-family: monospace"">nossa</span>"," ","","exp-sent","nossa","","",""
"","1604","html-keyboard-response","136","1151684","0.0-3.0-1.100","<span style=""font-size:30px; font-family: monospace"">colega</span>"," ","","exp-sent","colega","","",""
"","1333","html-keyboard-response","137","1153269","0.0-3.0-1.101","<span style=""font-size:30px; font-family: monospace"">foi</span>"," ","","exp-sent","foi","","",""
"","1622","html-keyboard-response","138","1155141","0.0-3.0-1.102","<span style=""font-size:30px; font-family: monospace"">má</span>"," ","","exp-sent","má","","",""
"","1284","html-keyboard-response","139","1156677","0.0-3.0-1.103","<span style=""font-size:30px; font-family: monospace"">com</span>"," ","","exp-sent","com","","",""
"","1861","html-keyboard-response","140","1158789","0.0-3.0-1.104","<span style=""font-size:30px; font-family: monospace"">as</span>"," ","","exp-sent","as","","",""
"","3397","html-keyboard-response","141","1162437","0.0-3.0-1.105","<span style=""font-size:30px; font-family: monospace"">crianças.</span>"," ","","exp-sent","crianças.","","",""
"","null","html-keyboard-response","142","1163689","0.0-3.0-0.106-0.106","<span style= ""font-size:30px; font-family: monospace"">+</span>","null","fixation","","","","",""
"","240","html-keyboard-response","143","1164181","0.0-3.0-1.106","<span style=""font-size:30px; font-family: monospace"">Virtudes</span>"," ","","exp-sent","Virtudes","","",""
"","1957","html-keyboard-response","144","1166389","0.0-3.0-1.107","<span style=""font-size:30px; font-family: monospace"">não</span>"," ","","exp-sent","não","","",""
"","1717","html-keyboard-response","145","1168357","0.0-3.0-1.108","<span style=""font-size:30px; font-family: monospace"">são</span>"," ","","exp-sent","são","","",""
"","2549","html-keyboard-response","146","1171157","0.0-3.0-1.109","<span style=""font-size:30px; font-family: monospace"">preguiça,</span>"," ","","exp-sent","preguiça,","","",""
"","2182","html-keyboard-response","147","1173589","0.0-3.0-1.110","<span style=""font-size:30px; font-family: monospace"">gula</span>"," ","","exp-sent","gula","","",""
"","1941","html-keyboard-response","148","1175780","0.0-3.0-1.111","<span style=""font-size:30px; font-family: monospace"">nem</span>"," ","","exp-sent","nem","","",""
"","3781","html-keyboard-response","149","1179812","0.0-3.0-1.112","<span style=""font-size:30px; font-family: monospace"">ganância.</span>"," ","","comp","ganância.","","",""
"","28661","html-keyboard-response","150","1208724","0.0-3.0-2.112-0.112","<span style=""font-size:30px; font-family: monospace"">Preguiça é uma virtude?</span>","s","","comp","","Preguiça é uma virtude?","não","false"
"","null","html-keyboard-response","151","1210226","0.0-3.0-0.113-0.113","<span style= ""font-size:30px; font-family: monospace"">+</span>","null","fixation","","","","",""
"","1495","html-keyboard-response","152","1211972","0.0-3.0-1.113","<span style=""font-size:30px; font-family: monospace"">A</span>"," ","","exp-sent","A","","",""
"","2485","html-keyboard-response","153","1214708","0.0-3.0-1.114","<span style=""font-size:30px; font-family: monospace"">força</span>"," ","","exp-sent","força","","",""
"","2021","html-keyboard-response","154","1216980","0.0-3.0-1.115","<span style=""font-size:30px; font-family: monospace"">d'água</span>"," ","","exp-sent","d'água","","",""
"","1142","html-keyboard-response","155","1218372","0.0-3.0-1.116","<span style=""font-size:30px; font-family: monospace"">estava</span>"," ","","exp-sent","estava","","",""
"","1141","html-keyboard-response","156","1219764","0.0-3.0-1.117","<span style=""font-size:30px; font-family: monospace"">normal</span>"," ","","exp-sent","normal","","",""
"","1381","html-keyboard-response","157","1221396","0.0-3.0-1.118","<span style=""font-size:30px; font-family: monospace"">naquele</span>"," ","","exp-sent","naquele","","",""
"","1830","html-keyboard-response","158","1223476","0.0-3.0-1.119","<span style=""font-size:30px; font-family: monospace"">dia.</span>"," ","","exp-sent","dia.","","",""
"","null","html-keyboard-response","159","1224729","0.0-3.0-0.120-0.120","<span style= ""font-size:30px; font-family: monospace"">+</span>","null","fixation","","","","",""
"","1152","html-keyboard-response","160","1226132","0.0-3.0-1.120","<span style=""font-size:30px; font-family: monospace"">A</span>"," ","","exp-sent","A","","",""
"","2085","html-keyboard-response","161","1228468","0.0-3.0-1.121","<span style=""font-size:30px; font-family: monospace"">médica</span>"," ","","exp-sent","médica","","",""
"","2598","html-keyboard-response","162","1231316","0.0-3.0-1.122","<span style=""font-size:30px; font-family: monospace"">ofereceu</span>"," ","","exp-sent","ofereceu","","",""
"","3173","html-keyboard-response","163","1234740","0.0-3.0-1.123","<span style=""font-size:30px; font-family: monospace"">a</span>"," ","","exp-sent","a","","",""
"","3077","html-keyboard-response","164","1238068","0.0-3.0-1.124","<span style=""font-size:30px; font-family: monospace"">pomada</span>"," ","","exp-sent","pomada","","",""
"","1205","html-keyboard-response","165","1239524","0.0-3.0-1.125","<span style=""font-size:30px; font-family: monospace"">para</span>"," ","","exp-sent","para","","",""
"","1029","html-keyboard-response","166","1240804","0.0-3.0-1.126","<span style=""font-size:30px; font-family: monospace"">o</span>"," ","","exp-sent","o","","",""
"","1573","html-keyboard-response","167","1242628","0.0-3.0-1.127","<span style=""font-size:30px; font-family: monospace"">avô.</span>"," ","","exp-sent","avô.","","",""
"","null","html-keyboard-response","168","1243880","0.0-3.0-0.128-0.128","<span style= ""font-size:30px; font-family: monospace"">+</span>","null","fixation","","","","",""
"","1168","html-keyboard-response","169","1245300","0.0-3.0-1.128","<span style=""font-size:30px; font-family: monospace"">Ele</span>"," ","","exp-sent","Ele","","",""
"","2597","html-keyboard-response","170","1248148","0.0-3.0-1.129","<span style=""font-size:30px; font-family: monospace"">conversou</span>"," ","","exp-sent","conversou","","",""
"","1765","html-keyboard-response","171","1250164","0.0-3.0-1.130","<span style=""font-size:30px; font-family: monospace"">com</span>"," ","","exp-sent","com","","",""
"","1860","html-keyboard-response","172","1252276","0.0-3.0-1.131","<span style=""font-size:30px; font-family: monospace"">o</span>"," ","","exp-sent","o","","",""
"","2789","html-keyboard-response","173","1255316","0.0-3.0-1.132","<span style=""font-size:30px; font-family: monospace"">patrão</span>"," ","","exp-sent","patrão","","",""
"","3205","html-keyboard-response","174","1258772","0.0-3.0-1.133","<span style=""font-size:30px; font-family: monospace"">durante</span>"," ","","exp-sent","durante","","",""
"","2053","html-keyboard-response","175","1261076","0.0-3.0-1.134","<span style=""font-size:30px; font-family: monospace"">a</span>"," ","","exp-sent","a","","",""
"","2405","html-keyboard-response","176","1263732","0.0-3.0-1.135","<span style=""font-size:30px; font-family: monospace"">tarde.</span>"," ","","exp-sent","tarde.","","",""
"","null","html-keyboard-response","177","1264984","0.0-3.0-0.136-0.136","<span style= ""font-size:30px; font-family: monospace"">+</span>","null","fixation","","","","",""
"","528","html-keyboard-response","178","1265764","0.0-3.0-1.136","<span style=""font-size:30px; font-family: monospace"">Algumas</span>"," ","","exp-sent","Algumas","","",""
"","2579","html-keyboard-response","179","1268595","0.0-3.0-1.137","<span style=""font-size:30px; font-family: monospace"">pessoas</span>"," ","","exp-sent","pessoas","","",""
"","3974","html-keyboard-response","180","1272820","0.0-3.0-1.138","<span style=""font-size:30px; font-family: monospace"">acreditam</span>"," ","","exp-sent","acreditam","","",""
"","2405","html-keyboard-response","181","1275476","0.0-3.0-1.139","<span style=""font-size:30px; font-family: monospace"">em</span>"," ","","exp-sent","em","","",""
"","2965","html-keyboard-response","182","1278692","0.0-3.0-1.140","<span style=""font-size:30px; font-family: monospace"">espíritos</span>"," ","","exp-sent","espíritos","","",""
"","1861","html-keyboard-response","183","1280804","0.0-3.0-1.141","<span style=""font-size:30px; font-family: monospace"">e</span>"," ","","exp-sent","e","","",""
"","2421","html-keyboard-response","184","1283476","0.0-3.0-1.142","<span style=""font-size:30px; font-family: monospace"">em</span>"," ","","exp-sent","em","","",""
"","2383","html-keyboard-response","185","1286116","0.0-3.0-1.143","<span style=""font-size:30px; font-family: monospace"">outras</span>"," ","","exp-sent","outras","","",""
"","2822","html-keyboard-response","186","1289188","0.0-3.0-1.144","<span style=""font-size:30px; font-family: monospace"">vidas.</span>"," ","","exp-sent","vidas.","","",""
"","null","html-keyboard-response","187","1290439","0.0-3.0-0.145-0.145","<span style= ""font-size:30px; font-family: monospace"">+</span>","null","fixation","","","","",""
"","2641","html-keyboard-response","188","1293331","0.0-3.0-1.145","<span style=""font-size:30px; font-family: monospace"">Ela</span>"," ","","exp-sent","Ela","","",""
"","2021","html-keyboard-response","189","1295603","0.0-3.0-1.146","<span style=""font-size:30px; font-family: monospace"">gosta</span>"," ","","exp-sent","gosta","","",""
"","2102","html-keyboard-response","190","1297956","0.0-3.0-1.147","<span style=""font-size:30px; font-family: monospace"">de</span>"," ","","exp-sent","de","","",""
"","2901","html-keyboard-response","191","1301108","0.0-3.0-1.148","<span style=""font-size:30px; font-family: monospace"">estudar</span>"," ","","exp-sent","estudar","","",""
"","4948","html-keyboard-response","192","1306307","0.0-3.0-1.149","<span style=""font-size:30px; font-family: monospace"">matemática</span>"," ","","exp-sent","matemática","","",""
"","1973","html-keyboard-response","193","1308531","0.0-3.0-1.150","<span style=""font-size:30px; font-family: monospace"">com</span>"," ","","exp-sent","com","","",""
"","2789","html-keyboard-response","194","1311572","0.0-3.0-1.151","<span style=""font-size:30px; font-family: monospace"">colegas.</span>"," ","","comp","colegas.","","",""
"","14629","html-keyboard-response","195","1326451","0.0-3.0-2.151-0.151","<span style=""font-size:30px; font-family: monospace"">Ela gosta de estudar física?</span>","s","","comp","","Ela gosta de estudar física?","não","false"
"","null","html-keyboard-response","196","1327954","0.0-3.0-0.152-0.152","<span style= ""font-size:30px; font-family: monospace"">+</span>","null","fixation","","","","",""
"","2262","html-keyboard-response","197","1330467","0.0-3.0-1.152","<span style=""font-size:30px; font-family: monospace"">Eu</span>"," ","","exp-sent","Eu","","",""
"","3204","html-keyboard-response","198","1333923","0.0-3.0-1.153","<span style=""font-size:30px; font-family: monospace"">gosto</span>"," ","","exp-sent","gosto","","",""
"","1862","html-keyboard-response","199","1336035","0.0-3.0-1.154","<span style=""font-size:30px; font-family: monospace"">de</span>"," ","","exp-sent","de","","",""
"","4437","html-keyboard-response","200","1340723","0.0-3.0-1.155","<span style=""font-size:30px; font-family: monospace"">molho</span>"," ","","exp-sent","molho","","",""
"","3924","html-keyboard-response","201","1344899","0.0-3.0-1.156","<span style=""font-size:30px; font-family: monospace"">picante</span>"," ","","exp-sent","picante","","",""
"","2101","html-keyboard-response","202","1347251","0.0-3.0-1.157","<span style=""font-size:30px; font-family: monospace"">nas</span>"," ","","exp-sent","nas","","",""
"","2245","html-keyboard-response","203","1349747","0.0-3.0-1.158","<span style=""font-size:30px; font-family: monospace"">batatas.</span>"," ","","exp-sent","batatas.","","",""
"","null","html-keyboard-response","204","1351000","0.0-3.0-0.159-0.159","<span style= ""font-size:30px; font-family: monospace"">+</span>","null","fixation","","","","",""
"","1426","html-keyboard-response","205","1352691","0.0-3.0-1.159","<span style=""font-size:30px; font-family: monospace"">As</span>"," ","","exp-sent","As","","",""
"","23894","html-keyboard-response","206","1376835","0.0-3.0-1.160","<span style=""font-size:30px; font-family: monospace"">pessoas</span>"," ","","exp-sent","pessoas","","",""
"","3429","html-keyboard-response","207","1380515","0.0-3.0-1.161","<span style=""font-size:30px; font-family: monospace"">têm</span>"," ","","exp-sent","têm","","",""
"","1765","html-keyboard-response","208","1382531","0.0-3.0-1.162","<span style=""font-size:30px; font-family: monospace"">sua</span>"," ","","exp-sent","sua","","",""
"","4518","html-keyboard-response","209","1387300","0.0-3.0-1.163","<span style=""font-size:30px; font-family: monospace"">liberdade</span>"," ","","exp-sent","liberdade","","",""
"","2116","html-keyboard-response","210","1389667","0.0-3.0-1.164","<span style=""font-size:30px; font-family: monospace"">até</span>"," ","","exp-sent","até","","",""
"","2998","html-keyboard-response","211","1392915","0.0-3.0-1.165","<span style=""font-size:30px; font-family: monospace"">certo</span>"," ","","exp-sent","certo","","",""
"","2596","html-keyboard-response","212","1395763","0.0-3.0-1.166","<span style=""font-size:30px; font-family: monospace"">ponto.</span>"," ","","exp-sent","ponto.","","",""
"","null","html-keyboard-response","213","1397014","0.0-3.0-0.167-0.167","<span style= ""font-size:30px; font-family: monospace"">+</span>","null","fixation","","","","",""
"","14690","html-keyboard-response","214","1411955","0.0-3.0-1.167","<span style=""font-size:30px; font-family: monospace"">A</span>"," ","","exp-sent","A","","",""
"","3796","html-keyboard-response","215","1416002","0.0-3.0-1.168","<span style=""font-size:30px; font-family: monospace"">empresa</span>"," ","","exp-sent","empresa","","",""
"","3557","html-keyboard-response","216","1419810","0.0-3.0-1.169","<span style=""font-size:30px; font-family: monospace"">enviou</span>"," ","","exp-sent","enviou","","",""
"","2100","html-keyboard-response","217","1422162","0.0-3.0-1.170","<span style=""font-size:30px; font-family: monospace"">o</span>"," ","","exp-sent","o","","",""
"","4837","html-keyboard-response","218","1427250","0.0-3.0-1.171","<span style=""font-size:30px; font-family: monospace"">aviso</span>"," ","","exp-sent","aviso","","",""
"","4101","html-keyboard-response","219","1431603","0.0-3.0-1.172","<span style=""font-size:30px; font-family: monospace"">hoje</span>"," ","","exp-sent","hoje","","",""
"","2404","html-keyboard-response","220","1434259","0.0-3.0-1.173","<span style=""font-size:30px; font-family: monospace"">de</span>"," ","","exp-sent","de","","",""
"","5253","html-keyboard-response","221","1439762","0.0-3.0-1.174","<span style=""font-size:30px; font-family: monospace"">tarde.</span>"," ","","exp-sent","tarde.","","",""
"","null","html-keyboard-response","222","1441015","0.0-3.0-0.175-0.175","<span style= ""font-size:30px; font-family: monospace"">+</span>","null","fixation","","","","",""
"","4897","html-keyboard-response","223","1446162","0.0-3.0-1.175","<span style=""font-size:30px; font-family: monospace"">A</span>"," ","","exp-sent","A","","",""
"","2533","html-keyboard-response","224","1448946","0.0-3.0-1.176","<span style=""font-size:30px; font-family: monospace"">loja</span>"," ","","exp-sent","loja","","",""
"","2164","html-keyboard-response","225","1451362","0.0-3.0-1.177","<span style=""font-size:30px; font-family: monospace"">vende</span>"," ","","exp-sent","vende","","",""
"","2213","html-keyboard-response","226","1453826","0.0-3.0-1.178","<span style=""font-size:30px; font-family: monospace"">tanto</span>"," ","","exp-sent","tanto","","",""
"","4021","html-keyboard-response","227","1458099","0.0-3.0-1.179","<span style=""font-size:30px; font-family: monospace"">frituras</span>"," ","","exp-sent","frituras","","",""
"","2645","html-keyboard-response","228","1460994","0.0-3.0-1.180","<span style=""font-size:30px; font-family: monospace"">quanto</span>"," ","","exp-sent","quanto","","",""
"","3413","html-keyboard-response","229","1464658","0.0-3.0-1.181","<span style=""font-size:30px; font-family: monospace"">comidas</span>"," ","","exp-sent","comidas","","",""
"","2437","html-keyboard-response","230","1467346","0.0-3.0-1.182","<span style=""font-size:30px; font-family: monospace"">leves.</span>"," ","","exp-sent","leves.","","",""
"","null","html-keyboard-response","231","1468598","0.0-3.0-0.183-0.183","<span style= ""font-size:30px; font-family: monospace"">+</span>","null","fixation","","","","",""
"","491","html-keyboard-response","232","1469346","0.0-3.0-1.183","<span style=""font-size:30px; font-family: monospace"">As</span>"," ","","exp-sent","As","","",""
"","2532","html-keyboard-response","233","1472130","0.0-3.0-1.184","<span style=""font-size:30px; font-family: monospace"">cadeiras</span>"," ","","exp-sent","cadeiras","","",""
"","3173","html-keyboard-response","234","1475554","0.0-3.0-1.185","<span style=""font-size:30px; font-family: monospace"">azuis</span>"," ","","exp-sent","azuis","","",""
"","2453","html-keyboard-response","235","1478258","0.0-3.0-1.186","<span style=""font-size:30px; font-family: monospace"">da</span>"," ","","exp-sent","da","","",""
"","1973","html-keyboard-response","236","1480482","0.0-3.0-1.187","<span style=""font-size:30px; font-family: monospace"">sala</span>"," ","","exp-sent","sala","","",""
"","2517","html-keyboard-response","237","1483250","0.0-3.0-1.188","<span style=""font-size:30px; font-family: monospace"">eram</span>"," ","","exp-sent","eram","","",""
"","1669","html-keyboard-response","238","1485170","0.0-3.0-1.189","<span style=""font-size:30px; font-family: monospace"">da</span>"," ","","exp-sent","da","","",""
"","2470","html-keyboard-response","239","1487890","0.0-3.0-1.190","<span style=""font-size:30px; font-family: monospace"">minha</span>"," ","","exp-sent","minha","","",""
"","2165","html-keyboard-response","240","1490306","0.0-3.0-1.191","<span style=""font-size:30px; font-family: monospace"">vó.</span>"," ","","comp","vó.","","",""
"","39893","html-keyboard-response","241","1530450","0.0-3.0-2.191-0.191","<span style=""font-size:30px; font-family: monospace"">As cadeiras eram da avó?</span>","n","","comp","","As cadeiras eram da avó?","sim","false"
"","null","html-keyboard-response","242","1531952","0.0-3.0-0.192-0.192","<span style= ""font-size:30px; font-family: monospace"">+</span>","null","fixation","","","","",""
"","1783","html-keyboard-response","243","1533986","0.0-3.0-1.192","<span style=""font-size:30px; font-family: monospace"">A</span>"," ","","exp-sent","A","","",""
"","3269","html-keyboard-response","244","1537506","0.0-3.0-1.193","<span style=""font-size:30px; font-family: monospace"">motorista</span>"," ","","exp-sent","motorista","","",""
"","1925","html-keyboard-response","245","1539682","0.0-3.0-1.194","<span style=""font-size:30px; font-family: monospace"">fez</span>"," ","","exp-sent","fez","","",""
"","1781","html-keyboard-response","246","1541714","0.0-3.0-1.195","<span style=""font-size:30px; font-family: monospace"">o</span>"," ","","exp-sent","o","","",""
"","3109","html-keyboard-response","247","1545074","0.0-3.0-1.196","<span style=""font-size:30px; font-family: monospace"">retorno</span>"," ","","exp-sent","retorno","","",""
"","2021","html-keyboard-response","248","1547346","0.0-3.0-1.197","<span style=""font-size:30px; font-family: monospace"">com</span>"," ","","exp-sent","com","","",""
"","2869","html-keyboard-response","249","1550466","0.0-3.0-1.198","<span style=""font-size:30px; font-family: monospace"">cuidado.</span>"," ","","exp-sent","cuidado.","","",""
"","null","html-keyboard-response","250","1551718","0.0-3.0-0.199-0.199","<span style= ""font-size:30px; font-family: monospace"">+</span>","null","fixation","","","","",""
"","3008","html-keyboard-response","251","1554978","0.0-3.0-1.199","<span style=""font-size:30px; font-family: monospace"">Contos</span>"," ","","exp-sent","Contos","","",""
"","1780","html-keyboard-response","252","1557010","0.0-3.0-1.200","<span style=""font-size:30px; font-family: monospace"">de</span>"," ","","exp-sent","de","","",""
"","2068","html-keyboard-response","253","1559329","0.0-3.0-1.201","<span style=""font-size:30px; font-family: monospace"">ação</span>"," ","","exp-sent","ação","","",""
"","2341","html-keyboard-response","254","1561922","0.0-3.0-1.202","<span style=""font-size:30px; font-family: monospace"">têm</span>"," ","","exp-sent","têm","","",""
"","7924","html-keyboard-response","255","1570098","0.0-3.0-1.203","<span style=""font-size:30px; font-family: monospace"">chantagem</span>"," ","","exp-sent","chantagem","","",""
"","1813","html-keyboard-response","256","1572162","0.0-3.0-1.204","<span style=""font-size:30px; font-family: monospace"">e</span>"," ","","exp-sent","e","","",""
"","1829","html-keyboard-response","257","1574242","0.0-3.0-1.205","<span style=""font-size:30px; font-family: monospace"">muita</span>"," ","","exp-sent","muita","","",""
"","2277","html-keyboard-response","258","1576769","0.0-3.0-1.206","<span style=""font-size:30px; font-family: monospace"">luta.</span>"," ","","exp-sent","luta.","","",""
"","null","html-keyboard-response","259","1578021","0.0-3.0-0.207-0.207","<span style= ""font-size:30px; font-family: monospace"">+</span>","null","fixation","","","","",""
"","946","html-keyboard-response","260","1579218","0.0-3.0-1.207","<span style=""font-size:30px; font-family: monospace"">A</span>"," ","","exp-sent","A","","",""
"","5509","html-keyboard-response","261","1584978","0.0-3.0-1.208","<span style=""font-size:30px; font-family: monospace"">bisavó</span>"," ","","exp-sent","bisavó","","",""
"","3317","html-keyboard-response","262","1588545","0.0-3.0-1.209","<span style=""font-size:30px; font-family: monospace"">recebeu</span>"," ","","exp-sent","recebeu","","",""
"","2149","html-keyboard-response","263","1590946","0.0-3.0-1.210","<span style=""font-size:30px; font-family: monospace"">um</span>"," ","","exp-sent","um","","",""
"","2933","html-keyboard-response","264","1594129","0.0-3.0-1.211","<span style=""font-size:30px; font-family: monospace"">benefício</span>"," ","","exp-sent","benefício","","",""
"","5461","html-keyboard-response","265","1599841","0.0-3.0-1.212","<span style=""font-size:30px; font-family: monospace"">temporário</span>"," ","","exp-sent","temporário","","",""
"","1652","html-keyboard-response","266","1601745","0.0-3.0-1.213","<span style=""font-size:30px; font-family: monospace"">do</span>"," ","","exp-sent","do","","",""
"","4037","html-keyboard-response","267","1606033","0.0-3.0-1.214","<span style=""font-size:30px; font-family: monospace"">governo.</span>"," ","","exp-sent","governo.","","",""
"","null","html-keyboard-response","268","1607285","0.0-3.0-0.215-0.215","<span style= ""font-size:30px; font-family: monospace"">+</span>","null","fixation","","","","",""
"","2305","html-keyboard-response","269","1609841","0.0-3.0-1.215","<span style=""font-size:30px; font-family: monospace"">As</span>"," ","","exp-sent","As","","",""
"","2709","html-keyboard-response","270","1612801","0.0-3.0-1.216","<span style=""font-size:30px; font-family: monospace"">crianças</span>"," ","","exp-sent","crianças","","",""
"","3043","html-keyboard-response","271","1616097","0.0-3.0-1.217","<span style=""font-size:30px; font-family: monospace"">brincaram</span>"," ","","exp-sent","brincaram","","",""
"","2357","html-keyboard-response","272","1618705","0.0-3.0-1.218","<span style=""font-size:30px; font-family: monospace"">no</span>"," ","","exp-sent","no","","",""
"","3205","html-keyboard-response","273","1622161","0.0-3.0-1.219","<span style=""font-size:30px; font-family: monospace"">balanço</span>"," ","","exp-sent","balanço","","",""
"","2020","html-keyboard-response","274","1624433","0.0-3.0-1.220","<span style=""font-size:30px; font-family: monospace"">a</span>"," ","","exp-sent","a","","",""
"","2324","html-keyboard-response","275","1627009","0.0-3.0-1.221","<span style=""font-size:30px; font-family: monospace"">tarde</span>"," ","","exp-sent","tarde","","",""
"","3124","html-keyboard-response","276","1630385","0.0-3.0-1.222","<span style=""font-size:30px; font-family: monospace"">toda.</span>"," ","","exp-sent","toda.","","",""
"","null","html-keyboard-response","277","1631637","0.0-3.0-0.223-0.223","<span style= ""font-size:30px; font-family: monospace"">+</span>","null","fixation","","","","",""
"","1841","html-keyboard-response","278","1633729","0.0-3.0-1.223","<span style=""font-size:30px; font-family: monospace"">Ela</span>"," ","","exp-sent","Ela","","",""
"","2118","html-keyboard-response","279","1636097","0.0-3.0-1.224","<span style=""font-size:30px; font-family: monospace"">gosta</span>"," ","","exp-sent","gosta","","",""
"","1780","html-keyboard-response","280","1638129","0.0-3.0-1.225","<span style=""font-size:30px; font-family: monospace"">de</span>"," ","","exp-sent","de","","",""
"","1989","html-keyboard-response","281","1640369","0.0-3.0-1.226","<span style=""font-size:30px; font-family: monospace"">comida</span>"," ","","exp-sent","comida","","",""
"","3365","html-keyboard-response","282","1643985","0.0-3.0-1.227","<span style=""font-size:30px; font-family: monospace"">natural</span>"," ","","exp-sent","natural","","",""
"","1813","html-keyboard-response","283","1646049","0.0-3.0-1.228","<span style=""font-size:30px; font-family: monospace"">no</span>"," ","","exp-sent","no","","",""
"","2309","html-keyboard-response","284","1648609","0.0-3.0-1.229","<span style=""font-size:30px; font-family: monospace"">almoço.</span>"," ","","comp","almoço.","","",""
"","11365","html-keyboard-response","285","1660225","0.0-3.0-2.229-0.229","<span style=""font-size:30px; font-family: monospace"">Ela gosta de comida natural no almoço?</span>","s","","comp","","Ela gosta de comida natural no almoço?","sim","false"
"","null","html-keyboard-response","286","1661727","0.0-3.0-0.230-0.230","<span style= ""font-size:30px; font-family: monospace"">+</span>","null","fixation","","","","",""
"","3318","html-keyboard-response","287","1665297","0.0-3.0-1.230","<span style=""font-size:30px; font-family: monospace"">Barulho</span>"," ","","exp-sent","Barulho","","",""
"","2095","html-keyboard-response","288","1667649","0.0-3.0-1.231","<span style=""font-size:30px; font-family: monospace"">de</span>"," ","","exp-sent","de","","",""
"","2308","html-keyboard-response","289","1670209","0.0-3.0-1.232","<span style=""font-size:30px; font-family: monospace"">carros</span>"," ","","exp-sent","carros","","",""
"","2437","html-keyboard-response","290","1672897","0.0-3.0-1.233","<span style=""font-size:30px; font-family: monospace"">é</span>"," ","","exp-sent","é","","",""
"","4820","html-keyboard-response","291","1677968","0.0-3.0-1.234","<span style=""font-size:30px; font-family: monospace"">irritante</span>"," ","","exp-sent","irritante","","",""
"","2069","html-keyboard-response","292","1680289","0.0-3.0-1.235","<span style=""font-size:30px; font-family: monospace"">para</span>"," ","","exp-sent","para","","",""
"","1301","html-keyboard-response","293","1681841","0.0-3.0-1.236","<span style=""font-size:30px; font-family: monospace"">a</span>"," ","","exp-sent","a","","",""
"","661","html-keyboard-response","294","1682753","0.0-3.0-1.237","<span style=""font-size:30px; font-family: monospace"">moça.</span>"," ","","exp-sent","moça.","","",""
"","null","html-keyboard-response","295","1684005","0.0-3.0-0.238-0.238","<span style= ""font-size:30px; font-family: monospace"">+</span>","null","fixation","","","","",""
"","1105","html-keyboard-response","296","1685360","0.0-3.0-1.238","<span style=""font-size:30px; font-family: monospace"">A</span>"," ","","exp-sent","A","","",""
"","1973","html-keyboard-response","297","1687585","0.0-3.0-1.239","<span style=""font-size:30px; font-family: monospace"">loja</span>"," ","","exp-sent","loja","","",""
"","2053","html-keyboard-response","298","1689888","0.0-3.0-1.240","<span style=""font-size:30px; font-family: monospace"">também</span>"," ","","exp-sent","também","","",""
"","2293","html-keyboard-response","299","1692433","0.0-3.0-1.241","<span style=""font-size:30px; font-family: monospace"">vende</span>"," ","","exp-sent","vende","","",""
"","2117","html-keyboard-response","300","1694801","0.0-3.0-1.242","<span style=""font-size:30px; font-family: monospace"">taça</span>"," ","","exp-sent","taça","","",""
"","2069","html-keyboard-response","301","1697121","0.0-3.0-1.243","<span style=""font-size:30px; font-family: monospace"">de</span>"," ","","exp-sent","de","","",""
"","1765","html-keyboard-response","302","1699137","0.0-3.0-1.244","<span style=""font-size:30px; font-family: monospace"">vinho</span>"," ","","exp-sent","vinho","","",""
"","1988","html-keyboard-response","303","1701376","0.0-3.0-1.245","<span style=""font-size:30px; font-family: monospace"">e</span>"," ","","exp-sent","e","","",""
"","6966","html-keyboard-response","304","1708593","0.0-3.0-1.246","<span style=""font-size:30px; font-family: monospace"">espumante.</span>"," ","","exp-sent","espumante.","","",""
"","null","html-keyboard-response","305","1709845","0.0-3.0-0.247-0.247","<span style= ""font-size:30px; font-family: monospace"">+</span>","null","fixation","","","","",""
"","4304","html-keyboard-response","306","1714401","0.0-3.0-1.247","<span style=""font-size:30px; font-family: monospace"">A</span>"," ","","exp-sent","A","","",""
"","7574","html-keyboard-response","307","1722224","0.0-3.0-1.248","<span style=""font-size:30px; font-family: monospace"">bruxa</span>"," ","","exp-sent","bruxa","","",""
"","2708","html-keyboard-response","308","1725184","0.0-3.0-1.249","<span style=""font-size:30px; font-family: monospace"">tinha</span>"," ","","exp-sent","tinha","","",""
"","3237","html-keyboard-response","309","1728672","0.0-3.0-1.250","<span style=""font-size:30px; font-family: monospace"">uma</span>"," ","","exp-sent","uma","","",""
"","5077","html-keyboard-response","310","1734001","0.0-3.0-1.251","<span style=""font-size:30px; font-family: monospace"">vassoura</span>"," ","","exp-sent","vassoura","","",""
"","2340","html-keyboard-response","311","1736592","0.0-3.0-1.252","<span style=""font-size:30px; font-family: monospace"">e</span>"," ","","exp-sent","e","","",""
"","2773","html-keyboard-response","312","1739616","0.0-3.0-1.253","<span style=""font-size:30px; font-family: monospace"">um</span>"," ","","exp-sent","um","","",""
"","3733","html-keyboard-response","313","1743600","0.0-3.0-1.254","<span style=""font-size:30px; font-family: monospace"">gato.</span>"," ","","exp-sent","gato.","","",""
"","null","html-keyboard-response","314","1744852","0.0-3.0-0.255-0.255","<span style= ""font-size:30px; font-family: monospace"">+</span>","null","fixation","","","","",""
"","1346","html-keyboard-response","315","1746448","0.0-3.0-1.255","<span style=""font-size:30px; font-family: monospace"">Eu</span>"," ","","exp-sent","Eu","","",""
"","2405","html-keyboard-response","316","1749104","0.0-3.0-1.256","<span style=""font-size:30px; font-family: monospace"">me</span>"," ","","exp-sent","me","","",""
"","3349","html-keyboard-response","317","1752704","0.0-3.0-1.257","<span style=""font-size:30px; font-family: monospace"">divirto</span>"," ","","exp-sent","divirto","","",""
"","2981","html-keyboard-response","318","1755936","0.0-3.0-1.258","<span style=""font-size:30px; font-family: monospace"">em</span>"," ","","exp-sent","em","","",""
"","3749","html-keyboard-response","319","1759936","0.0-3.0-1.259","<span style=""font-size:30px; font-family: monospace"">festas</span>"," ","","exp-sent","festas","","",""
"","2308","html-keyboard-response","320","1762496","0.0-3.0-1.260","<span style=""font-size:30px; font-family: monospace"">de</span>"," ","","exp-sent","de","","",""
"","6820","html-keyboard-response","321","1769568","0.0-3.0-1.261","<span style=""font-size:30px; font-family: monospace"">criança.</span>"," ","","exp-sent","criança.","","",""
"","null","html-keyboard-response","322","1770821","0.0-3.0-0.262-0.262","<span style= ""font-size:30px; font-family: monospace"">+</span>","null","fixation","","","","",""
"","1393","html-keyboard-response","323","1772464","0.0-3.0-1.262","<span style=""font-size:30px; font-family: monospace"">A</span>"," ","","exp-sent","A","","",""
"","5044","html-keyboard-response","324","1777760","0.0-3.0-1.263","<span style=""font-size:30px; font-family: monospace"">janela</span>"," ","","exp-sent","janela","","",""
"","2005","html-keyboard-response","325","1780016","0.0-3.0-1.264","<span style=""font-size:30px; font-family: monospace"">alta</span>"," ","","exp-sent","alta","","",""
"","2724","html-keyboard-response","326","1782992","0.0-3.0-1.265","<span style=""font-size:30px; font-family: monospace"">estava</span>"," ","","exp-sent","estava","","",""
"","4501","html-keyboard-response","327","1787744","0.0-3.0-1.266","<span style=""font-size:30px; font-family: monospace"">quebrada</span>"," ","","exp-sent","quebrada","","",""
"","2692","html-keyboard-response","328","1790688","0.0-3.0-1.267","<span style=""font-size:30px; font-family: monospace"">desde</span>"," ","","exp-sent","desde","","",""
"","2902","html-keyboard-response","329","1793840","0.0-3.0-1.268","<span style=""font-size:30px; font-family: monospace"">ontem.</span>"," ","","comp","ontem.","","",""
"","26116","html-keyboard-response","330","1820208","0.0-3.0-2.268-0.268","<span style=""font-size:30px; font-family: monospace"">A janela alta estava quebrada?</span>","s","","comp","","A janela alta estava quebrada?","sim","false"
"","null","html-keyboard-response","331","1821710","0.0-3.0-0.269-0.269","<span style= ""font-size:30px; font-family: monospace"">+</span>","null","fixation","","","","",""
"","3623","html-keyboard-response","332","1825584","0.0-3.0-1.269","<span style=""font-size:30px; font-family: monospace"">Ursos</span>"," ","","exp-sent","Ursos","","",""
"","3701","html-keyboard-response","333","1829536","0.0-3.0-1.270","<span style=""font-size:30px; font-family: monospace"">têm</span>"," ","","exp-sent","têm","","",""
"","2325","html-keyboard-response","334","1832112","0.0-3.0-1.271","<span style=""font-size:30px; font-family: monospace"">uma</span>"," ","","exp-sent","uma","","",""
"","8470","html-keyboard-response","335","1840831","0.0-3.0-1.272","<span style=""font-size:30px; font-family: monospace"">patada</span>"," ","","exp-sent","patada","","",""
"","4436","html-keyboard-response","336","1845519","0.0-3.0-1.273","<span style=""font-size:30px; font-family: monospace"">brutal</span>"," ","","exp-sent","brutal","","",""
"","2421","html-keyboard-response","337","1848191","0.0-3.0-1.274","<span style=""font-size:30px; font-family: monospace"">e</span>"," ","","exp-sent","e","","",""
"","4853","html-keyboard-response","338","1853295","0.0-3.0-1.275","<span style=""font-size:30px; font-family: monospace"">poderosa.</span>"," ","","exp-sent","poderosa.","","",""
"","null","html-keyboard-response","339","1854547","0.0-3.0-0.276-0.276","<span style= ""font-size:30px; font-family: monospace"">+</span>","null","fixation","","","","",""
"","1394","html-keyboard-response","340","1856191","0.0-3.0-1.276","<span style=""font-size:30px; font-family: monospace"">Eu</span>"," ","","exp-sent","Eu","","",""
"","1989","html-keyboard-response","341","1858431","0.0-3.0-1.277","<span style=""font-size:30px; font-family: monospace"">fiz</span>"," ","","exp-sent","fiz","","",""
"","2309","html-keyboard-response","342","1860991","0.0-3.0-1.278","<span style=""font-size:30px; font-family: monospace"">aulas</span>"," ","","exp-sent","aulas","","",""
"","1926","html-keyboard-response","343","1863167","0.0-3.0-1.279","<span style=""font-size:30px; font-family: monospace"">de</span>"," ","","exp-sent","de","","",""
"","4453","html-keyboard-response","344","1867871","0.0-3.0-1.280","<span style=""font-size:30px; font-family: monospace"">espanhol</span>"," ","","exp-sent","espanhol","","",""
"","2341","html-keyboard-response","345","1870463","0.0-3.0-1.281","<span style=""font-size:30px; font-family: monospace"">nesta</span>"," ","","exp-sent","nesta","","",""
"","6820","html-keyboard-response","346","1877535","0.0-3.0-1.282","<span style=""font-size:30px; font-family: monospace"">cidade.</span>"," ","","exp-sent","cidade.","","",""
"","null","html-keyboard-response","347","1878788","0.0-3.0-0.283-0.283","<span style= ""font-size:30px; font-family: monospace"">+</span>","null","fixation","","","","",""
"","3856","html-keyboard-response","348","1882896","0.0-3.0-1.283","<span style=""font-size:30px; font-family: monospace"">Ele</span>"," ","","exp-sent","Ele","","",""
"","3477","html-keyboard-response","349","1886623","0.0-3.0-1.284","<span style=""font-size:30px; font-family: monospace"">comprou</span>"," ","","exp-sent","comprou","","",""
"","2645","html-keyboard-response","350","1889519","0.0-3.0-1.285","<span style=""font-size:30px; font-family: monospace"">mais</span>"," ","","exp-sent","mais","","",""
"","1876","html-keyboard-response","351","1891647","0.0-3.0-1.286","<span style=""font-size:30px; font-family: monospace"">uma</span>"," ","","exp-sent","uma","","",""
"","4661","html-keyboard-response","352","1896559","0.0-3.0-1.287","<span style=""font-size:30px; font-family: monospace"">esponja</span>"," ","","exp-sent","esponja","","",""
"","2213","html-keyboard-response","353","1899023","0.0-3.0-1.288","<span style=""font-size:30px; font-family: monospace"">para</span>"," ","","exp-sent","para","","",""
"","2277","html-keyboard-response","354","1901551","0.0-3.0-1.289","<span style=""font-size:30px; font-family: monospace"">a</span>"," ","","exp-sent","a","","",""
"","3445","html-keyboard-response","355","1905247","0.0-3.0-1.290","<span style=""font-size:30px; font-family: monospace"">cozinha.</span>"," ","","exp-sent","cozinha.","","",""
"","null","html-keyboard-response","356","1906499","0.0-3.0-0.291-0.291","<span style= ""font-size:30px; font-family: monospace"">+</span>","null","fixation","","","","",""
"","1025","html-keyboard-response","357","1907775","0.0-3.0-1.291","<span style=""font-size:30px; font-family: monospace"">Ele</span>"," ","","exp-sent","Ele","","",""
"","2677","html-keyboard-response","358","1910703","0.0-3.0-1.292","<span style=""font-size:30px; font-family: monospace"">teve</span>"," ","","exp-sent","teve","","",""
"","2181","html-keyboard-response","359","1913135","0.0-3.0-1.293","<span style=""font-size:30px; font-family: monospace"">um</span>"," ","","exp-sent","um","","",""
"","2341","html-keyboard-response","360","1915727","0.0-3.0-1.294","<span style=""font-size:30px; font-family: monospace"">sono</span>"," ","","exp-sent","sono","","",""
"","3109","html-keyboard-response","361","1919087","0.0-3.0-1.295","<span style=""font-size:30px; font-family: monospace"">bizarro</span>"," ","","exp-sent","bizarro","","",""
"","2436","html-keyboard-response","362","1921775","0.0-3.0-1.296","<span style=""font-size:30px; font-family: monospace"">sem</span>"," ","","exp-sent","sem","","",""
"","3029","html-keyboard-response","363","1925055","0.0-3.0-1.297","<span style=""font-size:30px; font-family: monospace"">nenhum</span>"," ","","exp-sent","nenhum","","",""
"","2613","html-keyboard-response","364","1927919","0.0-3.0-1.298","<span style=""font-size:30px; font-family: monospace"">motivo.</span>"," ","","exp-sent","motivo.","","",""
"","null","html-keyboard-response","365","1929170","0.0-3.0-0.299-0.299","<span style= ""font-size:30px; font-family: monospace"">+</span>","null","fixation","","","","",""
"","1250","html-keyboard-response","366","1930671","0.0-3.0-1.299","<span style=""font-size:30px; font-family: monospace"">A</span>"," ","","exp-sent","A","","",""
"","3060","html-keyboard-response","367","1933983","0.0-3.0-1.300","<span style=""font-size:30px; font-family: monospace"">moça</span>"," ","","exp-sent","moça","","",""
"","3253","html-keyboard-response","368","1937487","0.0-3.0-1.301","<span style=""font-size:30px; font-family: monospace"">comprou</span>"," ","","exp-sent","comprou","","",""
"","2357","html-keyboard-response","369","1940095","0.0-3.0-1.302","<span style=""font-size:30px; font-family: monospace"">um</span>"," ","","exp-sent","um","","",""
"","3989","html-keyboard-response","370","1944335","0.0-3.0-1.303","<span style=""font-size:30px; font-family: monospace"">diamante</span>"," ","","exp-sent","diamante","","",""
"","2244","html-keyboard-response","371","1946831","0.0-3.0-1.304","<span style=""font-size:30px; font-family: monospace"">para</span>"," ","","exp-sent","para","","",""
"","2149","html-keyboard-response","372","1949231","0.0-3.0-1.305","<span style=""font-size:30px; font-family: monospace"">sua</span>"," ","","exp-sent","sua","","",""
"","3109","html-keyboard-response","373","1952591","0.0-3.0-1.306","<span style=""font-size:30px; font-family: monospace"">prima.</span>"," ","","comp","prima.","","",""
"","53878","html-keyboard-response","374","2006719","0.0-3.0-2.306-0.306","<span style=""font-size:30px; font-family: monospace"">A moça comprou um diamante?</span>","n","","comp","","A moça comprou um diamante?","sim","false"
"","null","html-keyboard-response","375","2008221","0.0-3.0-0.307-0.307","<span style= ""font-size:30px; font-family: monospace"">+</span>","null","fixation","","","","",""
"","343","html-keyboard-response","376","2008815","0.0-3.0-1.307","<span style=""font-size:30px; font-family: monospace"">Este</span>"," ","","exp-sent","Este","","",""
"","2655","html-keyboard-response","377","2011726","0.0-3.0-1.308","<span style=""font-size:30px; font-family: monospace"">conto</span>"," ","","exp-sent","conto","","",""
"","2773","html-keyboard-response","378","2014750","0.0-3.0-1.309","<span style=""font-size:30px; font-family: monospace"">tem</span>"," ","","exp-sent","tem","","",""
"","2806","html-keyboard-response","379","2017807","0.0-3.0-1.310","<span style=""font-size:30px; font-family: monospace"">um</span>"," ","","exp-sent","um","","",""
"","2021","html-keyboard-response","380","2020078","0.0-3.0-1.311","<span style=""font-size:30px; font-family: monospace"">final</span>"," ","","exp-sent","final","","",""
"","3396","html-keyboard-response","381","2023726","0.0-3.0-1.312","<span style=""font-size:30px; font-family: monospace"">perfeito.</span>"," ","","exp-sent","perfeito.","","",""
"","null","html-keyboard-response","382","2024977","0.0-3.0-0.313-0.313","<span style= ""font-size:30px; font-family: monospace"">+</span>","null","fixation","","","","",""
"","1570","html-keyboard-response","383","2026798","0.0-3.0-1.313","<span style=""font-size:30px; font-family: monospace"">Ele</span>"," ","","exp-sent","Ele","","",""
"","4806","html-keyboard-response","384","2031854","0.0-3.0-1.314","<span style=""font-size:30px; font-family: monospace"">precisa</span>"," ","","exp-sent","precisa","","",""
"","3429","html-keyboard-response","385","2035534","0.0-3.0-1.315","<span style=""font-size:30px; font-family: monospace"">de</span>"," ","","exp-sent","de","","",""
"","3189","html-keyboard-response","386","2038974","0.0-3.0-1.316","<span style=""font-size:30px; font-family: monospace"">um</span>"," ","","exp-sent","um","","",""
"","4101","html-keyboard-response","387","2043326","0.0-3.0-1.317","<span style=""font-size:30px; font-family: monospace"">protetor</span>"," ","","exp-sent","protetor","","",""
"","3269","html-keyboard-response","388","2046846","0.0-3.0-1.318","<span style=""font-size:30px; font-family: monospace"">de</span>"," ","","exp-sent","de","","",""
"","3877","html-keyboard-response","389","2050974","0.0-3.0-1.319","<span style=""font-size:30px; font-family: monospace"">ouvido.</span>"," ","","exp-sent","ouvido.","","",""
"","null","html-keyboard-response","390","2052225","0.0-3.0-0.320-0.320","<span style= ""font-size:30px; font-family: monospace"">+</span>","null","fixation","","","","",""
"","1330","html-keyboard-response","391","2053806","0.0-3.0-1.320","<span style=""font-size:30px; font-family: monospace"">Os</span>"," ","","exp-sent","Os","","",""
"","2357","html-keyboard-response","392","2056414","0.0-3.0-1.321","<span style=""font-size:30px; font-family: monospace"">hábitos</span>"," ","","exp-sent","hábitos","","",""
"","1877","html-keyboard-response","393","2058542","0.0-3.0-1.322","<span style=""font-size:30px; font-family: monospace"">de</span>"," ","","exp-sent","de","","",""
"","4341","html-keyboard-response","394","2063134","0.0-3.0-1.323","<span style=""font-size:30px; font-family: monospace"">lugares</span>"," ","","exp-sent","lugares","","",""
"","3589","html-keyboard-response","395","2066974","0.0-3.0-1.324","<span style=""font-size:30px; font-family: monospace"">diferentes</span>"," ","","exp-sent","diferentes","","",""
"","1779","html-keyboard-response","396","2069006","0.0-3.0-1.325","<span style=""font-size:30px; font-family: monospace"">são</span>"," ","","exp-sent","são","","",""
"","3237","html-keyboard-response","397","2072494","0.0-3.0-1.326","<span style=""font-size:30px; font-family: monospace"">muito</span>"," ","","exp-sent","muito","","",""
"","2421","html-keyboard-response","398","2075165","0.0-3.0-1.327","<span style=""font-size:30px; font-family: monospace"">lindos.</span>"," ","","exp-sent","lindos.","","",""
"","null","html-keyboard-response","399","2076417","0.0-3.0-0.328-0.328","<span style= ""font-size:30px; font-family: monospace"">+</span>","null","fixation","","","","",""
"","1458","html-keyboard-response","400","2078126","0.0-3.0-1.328","<span style=""font-size:30px; font-family: monospace"">O</span>"," ","","exp-sent","O","","",""
"","3781","html-keyboard-response","401","2082157","0.0-3.0-1.329","<span style=""font-size:30px; font-family: monospace"">médico</span>"," ","","exp-sent","médico","","",""
"","4037","html-keyboard-response","402","2086445","0.0-3.0-1.330","<span style=""font-size:30px; font-family: monospace"">corrigiu</span>"," ","","exp-sent","corrigiu","","",""
"","2629","html-keyboard-response","403","2089325","0.0-3.0-1.331","<span style=""font-size:30px; font-family: monospace"">a</span>"," ","","exp-sent","a","","",""
"","3781","html-keyboard-response","404","2093358","0.0-3.0-1.332","<span style=""font-size:30px; font-family: monospace"">postura</span>"," ","","exp-sent","postura","","",""
"","2181","html-keyboard-response","405","2095790","0.0-3.0-1.333","<span style=""font-size:30px; font-family: monospace"">das</span>"," ","","exp-sent","das","","",""
"","2852","html-keyboard-response","406","2098894","0.0-3.0-1.334","<span style=""font-size:30px; font-family: monospace"">costas</span>"," ","","exp-sent","costas","","",""
"","2006","html-keyboard-response","407","2101150","0.0-3.0-1.335","<span style=""font-size:30px; font-family: monospace"">da</span>"," ","","exp-sent","da","","",""
"","4005","html-keyboard-response","408","2105406","0.0-3.0-1.336","<span style=""font-size:30px; font-family: monospace"">pessoa.</span>"," ","","exp-sent","pessoa.","","",""
"","null","html-keyboard-response","409","2106658","0.0-3.0-0.337-0.337","<span style= ""font-size:30px; font-family: monospace"">+</span>","null","fixation","","","","",""
"","2449","html-keyboard-response","410","2109358","0.0-3.0-1.337","<span style=""font-size:30px; font-family: monospace"">Aquele</span>"," ","","exp-sent","Aquele","","",""
"","2309","html-keyboard-response","411","2111918","0.0-3.0-1.338","<span style=""font-size:30px; font-family: monospace"">era</span>"," ","","exp-sent","era","","",""
"","2309","html-keyboard-response","412","2114478","0.0-3.0-1.339","<span style=""font-size:30px; font-family: monospace"">um</span>"," ","","exp-sent","um","","",""
"","2820","html-keyboard-response","413","2117550","0.0-3.0-1.340","<span style=""font-size:30px; font-family: monospace"">caso</span>"," ","","exp-sent","caso","","",""
"","2788","html-keyboard-response","414","2120590","0.0-3.0-1.341","<span style=""font-size:30px; font-family: monospace"">real</span>"," ","","exp-sent","real","","",""
"","2484","html-keyboard-response","415","2123325","0.0-3.0-1.342","<span style=""font-size:30px; font-family: monospace"">de</span>"," ","","exp-sent","de","","",""
"","4822","html-keyboard-response","416","2128398","0.0-3.0-1.343","<span style=""font-size:30px; font-family: monospace"">sequestro</span>"," ","","exp-sent","sequestro","","",""
"","19653","html-keyboard-response","417","2148301","0.0-3.0-1.344","<span style=""font-size:30px; font-family: monospace"">premeditado.</span>"," ","","comp","premeditado.","","",""
"","43685","html-keyboard-response","418","2192237","0.0-3.0-2.344-0.344","<span style=""font-size:30px; font-family: monospace"">Aquele era um caso real de roubo?</span>","n","","comp","","Aquele era um caso real de roubo?","não","false"
"","null","html-keyboard-response","419","2193739","0.0-3.0-0.345-0.345","<span style= ""font-size:30px; font-family: monospace"">+</span>","null","fixation","","","","",""
"","5798","html-keyboard-response","420","2199789","0.0-3.0-1.345","<span style=""font-size:30px; font-family: monospace"">Ganhamos</span>"," ","","exp-sent","Ganhamos","","",""
"","3205","html-keyboard-response","421","2203245","0.0-3.0-1.346","<span style=""font-size:30px; font-family: monospace"">passagem</span>"," ","","exp-sent","passagem","","",""
"","2517","html-keyboard-response","422","2206013","0.0-3.0-1.347","<span style=""font-size:30px; font-family: monospace"">para</span>"," ","","exp-sent","para","","",""
"","1685","html-keyboard-response","423","2207949","0.0-3.0-1.348","<span style=""font-size:30px; font-family: monospace"">uma</span>"," ","","exp-sent","uma","","",""
"","1989","html-keyboard-response","424","2210189","0.0-3.0-1.349","<span style=""font-size:30px; font-family: monospace"">viagem</span>"," ","","exp-sent","viagem","","",""
"","1908","html-keyboard-response","425","2212349","0.0-3.0-1.350","<span style=""font-size:30px; font-family: monospace"">de</span>"," ","","exp-sent","de","","",""
"","2261","html-keyboard-response","426","2214861","0.0-3.0-1.351","<span style=""font-size:30px; font-family: monospace"">férias.</span>"," ","","exp-sent","férias.","","",""
"","null","html-keyboard-response","427","2216124","0.0-3.0-0.352-0.352","<span style= ""font-size:30px; font-family: monospace"">+</span>","null","fixation","","","","",""
"","1174","html-keyboard-response","428","2217549","0.0-3.0-1.352","<span style=""font-size:30px; font-family: monospace"">Caiu</span>"," ","","exp-sent","Caiu","","",""
"","1861","html-keyboard-response","429","2219661","0.0-3.0-1.353","<span style=""font-size:30px; font-family: monospace"">algo</span>"," ","","exp-sent","algo","","",""
"","2309","html-keyboard-response","430","2222221","0.0-3.0-1.354","<span style=""font-size:30px; font-family: monospace"">no</span>"," ","","exp-sent","no","","",""
"","2437","html-keyboard-response","431","2224909","0.0-3.0-1.355","<span style=""font-size:30px; font-family: monospace"">meu</span>"," ","","exp-sent","meu","","",""
"","2356","html-keyboard-response","432","2227517","0.0-3.0-1.356","<span style=""font-size:30px; font-family: monospace"">olho</span>"," ","","exp-sent","olho","","",""
"","3269","html-keyboard-response","433","2231037","0.0-3.0-1.357","<span style=""font-size:30px; font-family: monospace"">ontem</span>"," ","","exp-sent","ontem","","",""
"","2516","html-keyboard-response","434","2233805","0.0-3.0-1.358","<span style=""font-size:30px; font-family: monospace"">de</span>"," ","","exp-sent","de","","",""
"","1908","html-keyboard-response","435","2235965","0.0-3.0-1.359","<span style=""font-size:30px; font-family: monospace"">tarde.</span>"," ","","exp-sent","tarde.","","",""
"","null","html-keyboard-response","436","2237217","0.0-3.0-0.360-0.360","<span style= ""font-size:30px; font-family: monospace"">+</span>","null","fixation","","","","",""
"","2657","html-keyboard-response","437","2240125","0.0-3.0-1.360","<span style=""font-size:30px; font-family: monospace"">Não</span>"," ","","exp-sent","Não","","",""
"","3317","html-keyboard-response","438","2243693","0.0-3.0-1.361","<span style=""font-size:30px; font-family: monospace"">havia</span>"," ","","exp-sent","havia","","",""
"","1908","html-keyboard-response","439","2245853","0.0-3.0-1.362","<span style=""font-size:30px; font-family: monospace"">mais</span>"," ","","exp-sent","mais","","",""
"","2005","html-keyboard-response","440","2248109","0.0-3.0-1.363","<span style=""font-size:30px; font-family: monospace"">nenhum</span>"," ","","exp-sent","nenhum","","",""
"","5124","html-keyboard-response","441","2253485","0.0-3.0-1.364","<span style=""font-size:30px; font-family: monospace"">ingresso</span>"," ","","exp-sent","ingresso","","",""
"","2948","html-keyboard-response","442","2256684","0.0-3.0-1.365","<span style=""font-size:30px; font-family: monospace"">para</span>"," ","","exp-sent","para","","",""
"","1509","html-keyboard-response","443","2258444","0.0-3.0-1.366","<span style=""font-size:30px; font-family: monospace"">o</span>"," ","","exp-sent","o","","",""
"","4516","html-keyboard-response","444","2263212","0.0-3.0-1.367","<span style=""font-size:30px; font-family: monospace"">evento.</span>"," ","","exp-sent","evento.","","",""
"","null","html-keyboard-response","445","2264464","0.0-3.0-0.368-0.368","<span style= ""font-size:30px; font-family: monospace"">+</span>","null","fixation","","","","",""
"","1074","html-keyboard-response","446","2265789","0.0-3.0-1.368","<span style=""font-size:30px; font-family: monospace"">A</span>"," ","","exp-sent","A","","",""
"","2804","html-keyboard-response","447","2268844","0.0-3.0-1.369","<span style=""font-size:30px; font-family: monospace"">médica</span>"," ","","exp-sent","médica","","",""
"","3476","html-keyboard-response","448","2272572","0.0-3.0-1.370","<span style=""font-size:30px; font-family: monospace"">descobriu</span>"," ","","exp-sent","descobriu","","",""
"","2758","html-keyboard-response","449","2275580","0.0-3.0-1.371","<span style=""font-size:30px; font-family: monospace"">uma</span>"," ","","exp-sent","uma","","",""
"","2645","html-keyboard-response","450","2278476","0.0-3.0-1.372","<span style=""font-size:30px; font-family: monospace"">cura</span>"," ","","exp-sent","cura","","",""
"","1701","html-keyboard-response","451","2280429","0.0-3.0-1.373","<span style=""font-size:30px; font-family: monospace"">para</span>"," ","","exp-sent","para","","",""
"","1701","html-keyboard-response","452","2282380","0.0-3.0-1.374","<span style=""font-size:30px; font-family: monospace"">a</span>"," ","","exp-sent","a","","",""
"","3813","html-keyboard-response","453","2286444","0.0-3.0-1.375","<span style=""font-size:30px; font-family: monospace"">doença.</span>"," ","","exp-sent","doença.","","",""
"","null","html-keyboard-response","454","2287696","0.0-3.0-0.376-0.376","<span style= ""font-size:30px; font-family: monospace"">+</span>","null","fixation","","","","",""
"","1153","html-keyboard-response","455","2289100","0.0-3.0-1.376","<span style=""font-size:30px; font-family: monospace"">O</span>"," ","","exp-sent","O","","",""
"","2965","html-keyboard-response","456","2292316","0.0-3.0-1.377","<span style=""font-size:30px; font-family: monospace"">menino</span>"," ","","exp-sent","menino","","",""
"","3109","html-keyboard-response","457","2295676","0.0-3.0-1.378","<span style=""font-size:30px; font-family: monospace"">riscou</span>"," ","","exp-sent","riscou","","",""
"","1684","html-keyboard-response","458","2297612","0.0-3.0-1.379","<span style=""font-size:30px; font-family: monospace"">o</span>"," ","","exp-sent","o","","",""
"","6533","html-keyboard-response","459","2304396","0.0-3.0-1.380","<span style=""font-size:30px; font-family: monospace"">caderno</span>"," ","","exp-sent","caderno","","",""
"","1733","html-keyboard-response","460","2306380","0.0-3.0-1.381","<span style=""font-size:30px; font-family: monospace"">com</span>"," ","","exp-sent","com","","",""
"","2005","html-keyboard-response","461","2308636","0.0-3.0-1.382","<span style=""font-size:30px; font-family: monospace"">a</span>"," ","","exp-sent","a","","",""
"","3669","html-keyboard-response","462","2312556","0.0-3.0-1.383","<span style=""font-size:30px; font-family: monospace"">caneta.</span>"," ","","comp","caneta.","","",""
"","20453","html-keyboard-response","463","2333260","0.0-3.0-2.383-0.383","<span style=""font-size:30px; font-family: monospace"">O menino riscou a parede com a caneta?</span>","s","","comp","","O menino riscou a parede com a caneta?","não","false"
"","null","html-keyboard-response","464","2334761","0.0-3.0-0.384-0.384","<span style= ""font-size:30px; font-family: monospace"">+</span>","null","fixation","","","","",""
"","4014","html-keyboard-response","465","2339036","0.0-3.0-1.384","<span style=""font-size:30px; font-family: monospace"">Minha</span>"," ","","exp-sent","Minha","","",""
"","1556","html-keyboard-response","466","2340844","0.0-3.0-1.385","<span style=""font-size:30px; font-family: monospace"">prima</span>"," ","","exp-sent","prima","","",""
"","4517","html-keyboard-response","467","2345612","0.0-3.0-1.386","<span style=""font-size:30px; font-family: monospace"">trocou</span>"," ","","exp-sent","trocou","","",""
"","1893","html-keyboard-response","468","2347756","0.0-3.0-1.387","<span style=""font-size:30px; font-family: monospace"">a</span>"," ","","exp-sent","a","","",""
"","2245","html-keyboard-response","469","2350252","0.0-3.0-1.388","<span style=""font-size:30px; font-family: monospace"">tela</span>"," ","","exp-sent","tela","","",""
"","1893","html-keyboard-response","470","2352396","0.0-3.0-1.389","<span style=""font-size:30px; font-family: monospace"">do</span>"," ","","exp-sent","do","","",""
"","7526","html-keyboard-response","471","2360172","0.0-3.0-1.390","<span style=""font-size:30px; font-family: monospace"">celular</span>"," ","","exp-sent","celular","","",""
"","1957","html-keyboard-response","472","2362380","0.0-3.0-1.391","<span style=""font-size:30px; font-family: monospace"">duas</span>"," ","","exp-sent","duas","","",""
"","4389","html-keyboard-response","473","2367020","0.0-3.0-1.392","<span style=""font-size:30px; font-family: monospace"">vezes.</span>"," ","","exp-sent","vezes.","","",""
"","null","html-keyboard-response","474","2368280","0.0-3.0-0.393-0.393","<span style= ""font-size:30px; font-family: monospace"">+</span>","null","fixation","","","","",""
"","2777","html-keyboard-response","475","2371308","0.0-3.0-1.393","<span style=""font-size:30px; font-family: monospace"">Agora</span>"," ","","exp-sent","Agora","","",""
"","2085","html-keyboard-response","476","2373644","0.0-3.0-1.394","<span style=""font-size:30px; font-family: monospace"">a</span>"," ","","exp-sent","a","","",""
"","3749","html-keyboard-response","477","2377643","0.0-3.0-1.395","<span style=""font-size:30px; font-family: monospace"">minha</span>"," ","","exp-sent","minha","","",""
"","3301","html-keyboard-response","478","2381195","0.0-3.0-1.396","<span style=""font-size:30px; font-family: monospace"">única</span>"," ","","exp-sent","única","","",""
"","31253","html-keyboard-response","479","2412700","0.0-3.0-1.397","<span style=""font-size:30px; font-family: monospace"">preocupação</span>"," ","","exp-sent","preocupação","","",""
"","1988","html-keyboard-response","480","2414939","0.0-3.0-1.398","<span style=""font-size:30px; font-family: monospace"">é</span>"," ","","exp-sent","é","","",""
"","1669","html-keyboard-response","481","2416860","0.0-3.0-1.399","<span style=""font-size:30px; font-family: monospace"">um</span>"," ","","exp-sent","um","","",""
"","4341","html-keyboard-response","482","2421451","0.0-3.0-1.400","<span style=""font-size:30px; font-family: monospace"">descanso</span>"," ","","exp-sent","descanso","","",""
"","3189","html-keyboard-response","483","2424892","0.0-3.0-1.401","<span style=""font-size:30px; font-family: monospace"">tranquilo.</span>"," ","","exp-sent","tranquilo.","","",""
"","null","html-keyboard-response","484","2426146","0.0-3.0-0.402-0.402","<span style= ""font-size:30px; font-family: monospace"">+</span>","null","fixation","","","","",""
"","926","html-keyboard-response","485","2427323","0.0-3.0-1.402","<span style=""font-size:30px; font-family: monospace"">A</span>"," ","","exp-sent","A","","",""
"","2598","html-keyboard-response","486","2430171","0.0-3.0-1.403","<span style=""font-size:30px; font-family: monospace"">criança</span>"," ","","exp-sent","criança","","",""
"","3749","html-keyboard-response","487","2434171","0.0-3.0-1.404","<span style=""font-size:30px; font-family: monospace"">ganhou</span>"," ","","exp-sent","ganhou","","",""
"","1700","html-keyboard-response","488","2436123","0.0-3.0-1.405","<span style=""font-size:30px; font-family: monospace"">um</span>"," ","","exp-sent","um","","",""
"","2373","html-keyboard-response","489","2438747","0.0-3.0-1.406","<span style=""font-size:30px; font-family: monospace"">presente</span>"," ","","exp-sent","presente","","",""
"","4790","html-keyboard-response","490","2443787","0.0-3.0-1.407","<span style=""font-size:30px; font-family: monospace"">maravilhoso.</span>"," ","","exp-sent","maravilhoso.","","",""
"","null","html-keyboard-response","491","2445040","0.0-3.0-0.408-0.408","<span style= ""font-size:30px; font-family: monospace"">+</span>","null","fixation","","","","",""
"","862","html-keyboard-response","492","2446155","0.0-3.0-1.408","<span style=""font-size:30px; font-family: monospace"">Os</span>"," ","","exp-sent","Os","","",""
"","2229","html-keyboard-response","493","2448635","0.0-3.0-1.409","<span style=""font-size:30px; font-family: monospace"">bichos</span>"," ","","exp-sent","bichos","","",""
"","2373","html-keyboard-response","494","2451259","0.0-3.0-1.410","<span style=""font-size:30px; font-family: monospace"">têm</span>"," ","","exp-sent","têm","","",""
"","2293","html-keyboard-response","495","2453803","0.0-3.0-1.411","<span style=""font-size:30px; font-family: monospace"">um</span>"," ","","exp-sent","um","","",""
"","3877","html-keyboard-response","496","2457931","0.0-3.0-1.412","<span style=""font-size:30px; font-family: monospace"">instinto</span>"," ","","exp-sent","instinto","","",""
"","2148","html-keyboard-response","497","2460331","0.0-3.0-1.413","<span style=""font-size:30px; font-family: monospace"">de</span>"," ","","exp-sent","de","","",""
"","4820","html-keyboard-response","498","2465403","0.0-3.0-1.414","<span style=""font-size:30px; font-family: monospace"">sobrevivência</span>"," ","","exp-sent","sobrevivência","","",""
"","2340","html-keyboard-response","499","2467995","0.0-3.0-1.415","<span style=""font-size:30px; font-family: monospace"">forte.</span>"," ","","exp-sent","forte.","","",""
"","null","html-keyboard-response","500","2469248","0.0-3.0-0.416-0.416","<span style= ""font-size:30px; font-family: monospace"">+</span>","null","fixation","","","","",""
"","2160","html-keyboard-response","501","2471659","0.0-3.0-1.416","<span style=""font-size:30px; font-family: monospace"">Aquele</span>"," ","","exp-sent","Aquele","","",""
"","3445","html-keyboard-response","502","2475355","0.0-3.0-1.417","<span style=""font-size:30px; font-family: monospace"">menino</span>"," ","","exp-sent","menino","","",""
"","1829","html-keyboard-response","503","2477435","0.0-3.0-1.418","<span style=""font-size:30px; font-family: monospace"">alto</span>"," ","","exp-sent","alto","","",""
"","2550","html-keyboard-response","504","2480235","0.0-3.0-1.419","<span style=""font-size:30px; font-family: monospace"">é</span>"," ","","exp-sent","é","","",""
"","3476","html-keyboard-response","505","2483963","0.0-3.0-1.420","<span style=""font-size:30px; font-family: monospace"">exibido</span>"," ","","exp-sent","exibido","","",""
"","2708","html-keyboard-response","506","2486923","0.0-3.0-1.421","<span style=""font-size:30px; font-family: monospace"">e</span>"," ","","exp-sent","e","","",""
"","3958","html-keyboard-response","507","2491131","0.0-3.0-1.422","<span style=""font-size:30px; font-family: monospace"">sovina.</span>"," ","","comp","sovina.","","",""
"","36132","html-keyboard-response","508","2527515","0.0-3.0-2.422-0.422","<span style=""font-size:30px; font-family: monospace"">Aquele menino é humilde?</span>","n","","comp","","Aquele menino é humilde?","não","false"
"","null","html-keyboard-response","509","2529017","0.0-3.0-0.423-0.423","<span style= ""font-size:30px; font-family: monospace"">+</span>","null","fixation","","","","",""
"","519","html-keyboard-response","510","2529787","0.0-3.0-1.423","<span style=""font-size:30px; font-family: monospace"">As</span>"," ","","exp-sent","As","","",""
"","3381","html-keyboard-response","511","2533419","0.0-3.0-1.424","<span style=""font-size:30px; font-family: monospace"">crianças</span>"," ","","exp-sent","crianças","","",""
"","2516","html-keyboard-response","512","2536186","0.0-3.0-1.425","<span style=""font-size:30px; font-family: monospace"">viram</span>"," ","","exp-sent","viram","","",""
"","2053","html-keyboard-response","513","2538491","0.0-3.0-1.426","<span style=""font-size:30px; font-family: monospace"">um</span>"," ","","exp-sent","um","","",""
"","4595","html-keyboard-response","514","2543339","0.0-3.0-1.427","<span style=""font-size:30px; font-family: monospace"">vaga-lume</span>"," ","","exp-sent","vaga-lume","","",""
"","2372","html-keyboard-response","515","2545963","0.0-3.0-1.428","<span style=""font-size:30px; font-family: monospace"">nos</span>"," ","","exp-sent","nos","","",""
"","5638","html-keyboard-response","516","2551851","0.0-3.0-1.429","<span style=""font-size:30px; font-family: monospace"">arbustos.</span>"," ","","exp-sent","arbustos.","","",""
"","null","html-keyboard-response","517","2553103","0.0-3.0-0.430-0.430","<span style= ""font-size:30px; font-family: monospace"">+</span>","null","fixation","","","","",""
"","369","html-keyboard-response","518","2553723","0.0-3.0-1.430","<span style=""font-size:30px; font-family: monospace"">Ontem</span>"," ","","exp-sent","Ontem","","",""
"","2662","html-keyboard-response","519","2556634","0.0-3.0-1.431","<span style=""font-size:30px; font-family: monospace"">o</span>"," ","","exp-sent","o","","",""
"","5286","html-keyboard-response","520","2562171","0.0-3.0-1.432","<span style=""font-size:30px; font-family: monospace"">funcionário</span>"," ","","exp-sent","funcionário","","",""
"","2597","html-keyboard-response","521","2565018","0.0-3.0-1.433","<span style=""font-size:30px; font-family: monospace"">pediu</span>"," ","","exp-sent","pediu","","",""
"","4861","html-keyboard-response","522","2570138","0.0-3.0-1.434","<span style=""font-size:30px; font-family: monospace"">autorização</span>"," ","","exp-sent","autorização","","",""
"","2005","html-keyboard-response","523","2572394","0.0-3.0-1.435","<span style=""font-size:30px; font-family: monospace"">para</span>"," ","","exp-sent","para","","",""
"","2869","html-keyboard-response","524","2575514","0.0-3.0-1.436","<span style=""font-size:30px; font-family: monospace"">a</span>"," ","","exp-sent","a","","",""
"","2533","html-keyboard-response","525","2578298","0.0-3.0-1.437","<span style=""font-size:30px; font-family: monospace"">colega.</span>"," ","","exp-sent","colega.","","",""
"","null","html-keyboard-response","526","2579552","0.0-3.0-0.438-0.438","<span style= ""font-size:30px; font-family: monospace"">+</span>","null","fixation","","","","",""
"","1151","html-keyboard-response","527","2580954","0.0-3.0-1.438","<span style=""font-size:30px; font-family: monospace"">Eu</span>"," ","","exp-sent","Eu","","",""
"","2406","html-keyboard-response","528","2583610","0.0-3.0-1.439","<span style=""font-size:30px; font-family: monospace"">sempre</span>"," ","","exp-sent","sempre","","",""
"","2100","html-keyboard-response","529","2585962","0.0-3.0-1.440","<span style=""font-size:30px; font-family: monospace"">fujo</span>"," ","","exp-sent","fujo","","",""
"","1813","html-keyboard-response","530","2588026","0.0-3.0-1.441","<span style=""font-size:30px; font-family: monospace"">de</span>"," ","","exp-sent","de","","",""
"","4325","html-keyboard-response","531","2592602","0.0-3.0-1.442","<span style=""font-size:30px; font-family: monospace"">conflito</span>"," ","","exp-sent","conflito","","",""
"","5878","html-keyboard-response","532","2598730","0.0-3.0-1.443","<span style=""font-size:30px; font-family: monospace"">com</span>"," ","","exp-sent","com","","",""
"","2565","html-keyboard-response","533","2601546","0.0-3.0-1.444","<span style=""font-size:30px; font-family: monospace"">as</span>"," ","","exp-sent","as","","",""
"","2053","html-keyboard-response","534","2603850","0.0-3.0-1.445","<span style=""font-size:30px; font-family: monospace"">pessoas.</span>"," ","","exp-sent","pessoas.","","",""
"","null","html-keyboard-response","535","2605103","0.0-3.0-0.446-0.446","<span style= ""font-size:30px; font-family: monospace"">+</span>","null","fixation","","","","",""
"","1103","html-keyboard-response","536","2606458","0.0-3.0-1.446","<span style=""font-size:30px; font-family: monospace"">O</span>"," ","","exp-sent","O","","",""
"","1477","html-keyboard-response","537","2608186","0.0-3.0-1.447","<span style=""font-size:30px; font-family: monospace"">bolo</span>"," ","","exp-sent","bolo","","",""
"","1797","html-keyboard-response","538","2610234","0.0-3.0-1.448","<span style=""font-size:30px; font-family: monospace"">era</span>"," ","","exp-sent","era","","",""
"","1925","html-keyboard-response","539","2612410","0.0-3.0-1.449","<span style=""font-size:30px; font-family: monospace"">de</span>"," ","","exp-sent","de","","",""
"","8293","html-keyboard-response","540","2620954","0.0-3.0-1.450","<span style=""font-size:30px; font-family: monospace"">abacaxi</span>"," ","","exp-sent","abacaxi","","",""
"","1733","html-keyboard-response","541","2622938","0.0-3.0-1.451","<span style=""font-size:30px; font-family: monospace"">e</span>"," ","","exp-sent","e","","",""
"","2517","html-keyboard-response","542","2625706","0.0-3.0-1.452","<span style=""font-size:30px; font-family: monospace"">creme</span>"," ","","exp-sent","creme","","",""
"","1749","html-keyboard-response","543","2627706","0.0-3.0-1.453","<span style=""font-size:30px; font-family: monospace"">de</span>"," ","","exp-sent","de","","",""
"","1909","html-keyboard-response","544","2629866","0.0-3.0-1.454","<span style=""font-size:30px; font-family: monospace"">coco.</span>"," ","","exp-sent","coco.","","",""
"","null","html-keyboard-response","545","2631117","0.0-3.0-0.455-0.455","<span style= ""font-size:30px; font-family: monospace"">+</span>","null","fixation","","","","",""
"","1203","html-keyboard-response","546","2632570","0.0-3.0-1.455","<span style=""font-size:30px; font-family: monospace"">As</span>"," ","","exp-sent","As","","",""
"","2372","html-keyboard-response","547","2635194","0.0-3.0-1.456","<span style=""font-size:30px; font-family: monospace"">crianças</span>"," ","","exp-sent","crianças","","",""
"","4709","html-keyboard-response","548","2640154","0.0-3.0-1.457","<span style=""font-size:30px; font-family: monospace"">brincaram</span>"," ","","exp-sent","brincaram","","",""
"","2005","html-keyboard-response","549","2642410","0.0-3.0-1.458","<span style=""font-size:30px; font-family: monospace"">com</span>"," ","","exp-sent","com","","",""
"","3877","html-keyboard-response","550","2646538","0.0-3.0-1.459","<span style=""font-size:30px; font-family: monospace"">bolhas</span>"," ","","exp-sent","bolhas","","",""
"","1988","html-keyboard-response","551","2648778","0.0-3.0-1.460","<span style=""font-size:30px; font-family: monospace"">no</span>"," ","","exp-sent","no","","",""
"","3541","html-keyboard-response","552","2652570","0.0-3.0-1.461","<span style=""font-size:30px; font-family: monospace"">banho.</span>"," ","","comp","banho.","","",""
"","38341","html-keyboard-response","553","2691161","0.0-3.0-2.461-0.461","<span style=""font-size:30px; font-family: monospace"">As crianças brincaram com bolhas?</span>","s","","comp","","As crianças brincaram com bolhas?","sim","false"
"","null","html-keyboard-response","554","2692662","0.0-3.0-0.462-0.462","<span style= ""font-size:30px; font-family: monospace"">+</span>","null","fixation","","","","",""
"","1032","html-keyboard-response","555","2693945","0.0-3.0-1.462","<span style=""font-size:30px; font-family: monospace"">No</span>"," ","","exp-sent","No","","",""
"","2740","html-keyboard-response","556","2696937","0.0-3.0-1.463","<span style=""font-size:30px; font-family: monospace"">passado</span>"," ","","exp-sent","passado","","",""
"","3412","html-keyboard-response","557","2700601","0.0-3.0-1.464","<span style=""font-size:30px; font-family: monospace"">houve</span>"," ","","exp-sent","houve","","",""
"","1940","html-keyboard-response","558","2702793","0.0-3.0-1.465","<span style=""font-size:30px; font-family: monospace"">uma</span>"," ","","exp-sent","uma","","",""
"","3221","html-keyboard-response","559","2706265","0.0-3.0-1.466","<span style=""font-size:30px; font-family: monospace"">rebelião</span>"," ","","exp-sent","rebelião","","",""
"","2069","html-keyboard-response","560","2708586","0.0-3.0-1.467","<span style=""font-size:30px; font-family: monospace"">nesta</span>"," ","","exp-sent","nesta","","",""
"","3205","html-keyboard-response","561","2712042","0.0-3.0-1.468","<span style=""font-size:30px; font-family: monospace"">cidade.</span>"," ","","exp-sent","cidade.","","",""
"","null","html-keyboard-response","562","2713294","0.0-3.0-0.469-0.469","<span style= ""font-size:30px; font-family: monospace"">+</span>","null","fixation","","","","",""
"","912","html-keyboard-response","563","2714458","0.0-3.0-1.469","<span style=""font-size:30px; font-family: monospace"">Ele</span>"," ","","exp-sent","Ele","","",""
"","2356","html-keyboard-response","564","2717065","0.0-3.0-1.470","<span style=""font-size:30px; font-family: monospace"">fundou</span>"," ","","exp-sent","fundou","","",""
"","1861","html-keyboard-response","565","2719177","0.0-3.0-1.471","<span style=""font-size:30px; font-family: monospace"">uma</span>"," ","","exp-sent","uma","","",""
"","2341","html-keyboard-response","566","2721770","0.0-3.0-1.472","<span style=""font-size:30px; font-family: monospace"">empresa</span>"," ","","exp-sent","empresa","","",""
"","2756","html-keyboard-response","567","2724778","0.0-3.0-1.473","<span style=""font-size:30px; font-family: monospace"">privada</span>"," ","","exp-sent","privada","","",""
"","1797","html-keyboard-response","568","2726825","0.0-3.0-1.474","<span style=""font-size:30px; font-family: monospace"">sem</span>"," ","","exp-sent","sem","","",""
"","3269","html-keyboard-response","569","2730345","0.0-3.0-1.475","<span style=""font-size:30px; font-family: monospace"">ajuda.</span>"," ","","exp-sent","ajuda.","","",""
"","null","html-keyboard-response","570","2731598","0.0-3.0-0.476-0.476","<span style= ""font-size:30px; font-family: monospace"">+</span>","null","fixation","","","","",""
"","2288","html-keyboard-response","571","2734137","0.0-3.0-1.476","<span style=""font-size:30px; font-family: monospace"">As</span>"," ","","exp-sent","As","","",""
"","3349","html-keyboard-response","572","2737737","0.0-3.0-1.477","<span style=""font-size:30px; font-family: monospace"">meninas</span>"," ","","exp-sent","meninas","","",""
"","9541","html-keyboard-response","573","2747529","0.0-3.0-1.478","<span style=""font-size:30px; font-family: monospace"">encontraram</span>"," ","","exp-sent","encontraram","","",""
"","2373","html-keyboard-response","574","2750153","0.0-3.0-1.479","<span style=""font-size:30px; font-family: monospace"">um</span>"," ","","exp-sent","um","","",""
"","3109","html-keyboard-response","575","2753513","0.0-3.0-1.480","<span style=""font-size:30px; font-family: monospace"">rato</span>"," ","","exp-sent","rato","","",""
"","1989","html-keyboard-response","576","2755753","0.0-3.0-1.481","<span style=""font-size:30px; font-family: monospace"">dentro</span>"," ","","exp-sent","dentro","","",""
"","1829","html-keyboard-response","577","2757833","0.0-3.0-1.482","<span style=""font-size:30px; font-family: monospace"">de</span>"," ","","exp-sent","de","","",""
"","2597","html-keyboard-response","578","2760681","0.0-3.0-1.483","<span style=""font-size:30px; font-family: monospace"">casa.</span>"," ","","exp-sent","casa.","","",""
"","null","html-keyboard-response","579","2761933","0.0-3.0-0.484-0.484","<span style= ""font-size:30px; font-family: monospace"">+</span>","null","fixation","","","","",""
