[
	{
		"view_history": [
			{
				"page_index": 0,
				"viewing_time": 195421
			},
			{
				"page_index": 1,
				"viewing_time": 1528
			}
		],
		"rt": 196949,
		"trial_type": "instructions",
		"trial_index": 0,
		"time_elapsed": 196948,
		"internal_node_id": "0.0-0.0"
	},
	{
		"rt": null,
		"stimulus": "<span style= \"font-size:30px; font-family: monospace\">+</span>",
		"response": null,
		"trial_part": "fixation",
		"trial_type": "html-keyboard-response",
		"trial_index": 1,
		"time_elapsed": 198051,
		"internal_node_id": "0.0-1.0-0.0-0.0"
	},
	{
		"rt": 4767,
		"stimulus": "<span style=\"font-size:30px; font-family: monospace\">O</span>",
		"response": " ",
		"trial": "prac-sent",
		"word": "O",
		"trial_type": "html-keyboard-response",
		"trial_index": 2,
		"time_elapsed": 203069,
		"internal_node_id": "0.0-1.0-1.0"
	},
	{
		"rt": 2387,
		"stimulus": "<span style=\"font-size:30px; font-family: monospace\">dia</span>",
		"response": " ",
		"trial": "prac-sent",
		"word": "dia",
		"trial_type": "html-keyboard-response",
		"trial_index": 3,
		"time_elapsed": 205708,
		"internal_node_id": "0.0-1.0-1.1"
	},
	{
		"rt": 1940,
		"stimulus": "<span style=\"font-size:30px; font-family: monospace\">estará</span>",
		"response": " ",
		"trial": "prac-sent",
		"word": "estará",
		"trial_type": "html-keyboard-response",
		"trial_index": 4,
		"time_elapsed": 207899,
		"internal_node_id": "0.0-1.0-1.2"
	},
	{
		"rt": 1877,
		"stimulus": "<span style=\"font-size:30px; font-family: monospace\">cheio</span>",
		"response": " ",
		"trial": "prac-sent",
		"word": "cheio",
		"trial_type": "html-keyboard-response",
		"trial_index": 5,
		"time_elapsed": 210028,
		"internal_node_id": "0.0-1.0-1.3"
	},
	{
		"rt": 1797,
		"stimulus": "<span style=\"font-size:30px; font-family: monospace\">de</span>",
		"response": " ",
		"trial": "prac-sent",
		"word": "de",
		"trial_type": "html-keyboard-response",
		"trial_index": 6,
		"time_elapsed": 212076,
		"internal_node_id": "0.0-1.0-1.4"
	},
	{
		"rt": 2997,
		"stimulus": "<span style=\"font-size:30px; font-family: monospace\">nuvens</span>",
		"response": " ",
		"trial": "prac-sent",
		"word": "nuvens",
		"trial_type": "html-keyboard-response",
		"trial_index": 7,
		"time_elapsed": 215323,
		"internal_node_id": "0.0-1.0-1.5"
	},
	{
		"rt": 3365,
		"stimulus": "<span style=\"font-size:30px; font-family: monospace\">hoje.</span>",
		"response": " ",
		"trial": "prac-sent",
		"word": "hoje.",
		"trial_type": "html-keyboard-response",
		"trial_index": 8,
		"time_elapsed": 218939,
		"internal_node_id": "0.0-1.0-1.6"
	},
	{
		"rt": null,
		"stimulus": "<span style= \"font-size:30px; font-family: monospace\">+</span>",
		"response": null,
		"trial_part": "fixation",
		"trial_type": "html-keyboard-response",
		"trial_index": 9,
		"time_elapsed": 220192,
		"internal_node_id": "0.0-1.0-0.7-0.7"
	},
	{
		"rt": 4272,
		"stimulus": "<span style=\"font-size:30px; font-family: monospace\">A</span>",
		"response": " ",
		"trial": "prac-sent",
		"word": "A",
		"trial_type": "html-keyboard-response",
		"trial_index": 10,
		"time_elapsed": 224715,
		"internal_node_id": "0.0-1.0-1.7"
	},
	{
		"rt": 6805,
		"stimulus": "<span style=\"font-size:30px; font-family: monospace\">caneca</span>",
		"response": " ",
		"trial": "prac-sent",
		"word": "caneca",
		"trial_type": "html-keyboard-response",
		"trial_index": 11,
		"time_elapsed": 231771,
		"internal_node_id": "0.0-1.0-1.8"
	},
	{
		"rt": 26437,
		"stimulus": "<span style=\"font-size:30px; font-family: monospace\">colorida</span>",
		"response": " ",
		"trial": "prac-sent",
		"word": "colorida",
		"trial_type": "html-keyboard-response",
		"trial_index": 12,
		"time_elapsed": 258460,
		"internal_node_id": "0.0-1.0-1.9"
	},
	{
		"rt": 1348,
		"stimulus": "<span style=\"font-size:30px; font-family: monospace\">caiu</span>",
		"response": " ",
		"trial": "prac-sent",
		"word": "caiu",
		"trial_type": "html-keyboard-response",
		"trial_index": 13,
		"time_elapsed": 260059,
		"internal_node_id": "0.0-1.0-1.10"
	},
	{
		"rt": 2421,
		"stimulus": "<span style=\"font-size:30px; font-family: monospace\">da</span>",
		"response": " ",
		"trial": "prac-sent",
		"word": "da",
		"trial_type": "html-keyboard-response",
		"trial_index": 14,
		"time_elapsed": 262731,
		"internal_node_id": "0.0-1.0-1.11"
	},
	{
		"rt": 6326,
		"stimulus": "<span style=\"font-size:30px; font-family: monospace\">mesa</span>",
		"response": " ",
		"trial": "prac-sent",
		"word": "mesa",
		"trial_type": "html-keyboard-response",
		"trial_index": 15,
		"time_elapsed": 269308,
		"internal_node_id": "0.0-1.0-1.12"
	},
	{
		"rt": 3970,
		"stimulus": "<span style=\"font-size:30px; font-family: monospace\">de</span>",
		"response": " ",
		"trial": "prac-sent",
		"word": "de",
		"trial_type": "html-keyboard-response",
		"trial_index": 16,
		"time_elapsed": 273531,
		"internal_node_id": "0.0-1.0-1.13"
	},
	{
		"rt": 3349,
		"stimulus": "<span style=\"font-size:30px; font-family: monospace\">jantar.</span>",
		"response": " ",
		"trial": "prac-comp",
		"word": "jantar.",
		"trial_type": "html-keyboard-response",
		"trial_index": 17,
		"time_elapsed": 277131,
		"internal_node_id": "0.0-1.0-1.14"
	},
	{
		"rt": 60501,
		"stimulus": "<span style=\"font-size:30px; font-family: monospace\">A caneca permaneceu na mesa?</span>",
		"response": "s",
		"question": "A caneca permaneceu na mesa?",
		"answer": "não",
		"trial": "prac-comp",
		"trial_type": "html-keyboard-response",
		"trial_index": 18,
		"time_elapsed": 337883,
		"internal_node_id": "0.0-1.0-2.14-0.14",
		"accuracy": false
	},
	{
		"view_history": [
			{
				"page_index": 0,
				"viewing_time": 58859
			}
		],
		"rt": 58859,
		"trial_type": "instructions",
		"trial_index": 19,
		"time_elapsed": 397243,
		"internal_node_id": "0.0-2.0"
	},
	{
		"rt": null,
		"stimulus": "<span style= \"font-size:30px; font-family: monospace\">+</span>",
		"response": null,
		"trial_part": "fixation",
		"trial_type": "html-keyboard-response",
		"trial_index": 20,
		"time_elapsed": 398344,
		"internal_node_id": "0.0-3.0-0.0-0.0"
	},
	{
		"rt": 14006,
		"stimulus": "<span style=\"font-size:30px; font-family: monospace\">O</span>",
		"response": " ",
		"trial": "exp-sent",
		"word": "O",
		"trial_type": "html-keyboard-response",
		"trial_index": 21,
		"time_elapsed": 412602,
		"internal_node_id": "0.0-3.0-1.0"
	},
	{
		"rt": 33157,
		"stimulus": "<span style=\"font-size:30px; font-family: monospace\">moço</span>",
		"response": " ",
		"trial": "exp-sent",
		"word": "moço",
		"trial_type": "html-keyboard-response",
		"trial_index": 22,
		"time_elapsed": 446010,
		"internal_node_id": "0.0-3.0-1.1"
	},
	{
		"rt": 2068,
		"stimulus": "<span style=\"font-size:30px; font-family: monospace\">usou</span>",
		"response": " ",
		"trial": "exp-sent",
		"word": "usou",
		"trial_type": "html-keyboard-response",
		"trial_index": 23,
		"time_elapsed": 448330,
		"internal_node_id": "0.0-3.0-1.2"
	},
	{
		"rt": 149445,
		"stimulus": "<span style=\"font-size:30px; font-family: monospace\">várias</span>",
		"response": " ",
		"trial": "exp-sent",
		"word": "várias",
		"trial_type": "html-keyboard-response",
		"trial_index": 24,
		"time_elapsed": 598025,
		"internal_node_id": "0.0-3.0-1.3"
	},
	{
		"rt": 2741,
		"stimulus": "<span style=\"font-size:30px; font-family: monospace\">velas</span>",
		"response": " ",
		"trial": "exp-sent",
		"word": "velas",
		"trial_type": "html-keyboard-response",
		"trial_index": 25,
		"time_elapsed": 601016,
		"internal_node_id": "0.0-3.0-1.4"
	},
	{
		"rt": 8070,
		"stimulus": "<span style=\"font-size:30px; font-family: monospace\">no</span>",
		"response": " ",
		"trial": "exp-sent",
		"word": "no",
		"trial_type": "html-keyboard-response",
		"trial_index": 26,
		"time_elapsed": 609337,
		"internal_node_id": "0.0-3.0-1.5"
	},
	{
		"rt": 4816,
		"stimulus": "<span style=\"font-size:30px; font-family: monospace\">enfeite</span>",
		"response": " ",
		"trial": "exp-sent",
		"word": "enfeite",
		"trial_type": "html-keyboard-response",
		"trial_index": 27,
		"time_elapsed": 614409,
		"internal_node_id": "0.0-3.0-1.6"
	},
	{
		"rt": 4085,
		"stimulus": "<span style=\"font-size:30px; font-family: monospace\">de</span>",
		"response": " ",
		"trial": "exp-sent",
		"word": "de",
		"trial_type": "html-keyboard-response",
		"trial_index": 28,
		"time_elapsed": 618745,
		"internal_node_id": "0.0-3.0-1.7"
	},
	{
		"rt": 5189,
		"stimulus": "<span style=\"font-size:30px; font-family: monospace\">mesa.</span>",
		"response": " ",
		"trial": "exp-sent",
		"word": "mesa.",
		"trial_type": "html-keyboard-response",
		"trial_index": 29,
		"time_elapsed": 624185,
		"internal_node_id": "0.0-3.0-1.8"
	},
	{
		"rt": null,
		"stimulus": "<span style= \"font-size:30px; font-family: monospace\">+</span>",
		"response": null,
		"trial_part": "fixation",
		"trial_type": "html-keyboard-response",
		"trial_index": 30,
		"time_elapsed": 625437,
		"internal_node_id": "0.0-3.0-0.9-0.9"
	},
	{
		"rt": 35009,
		"stimulus": "<span style=\"font-size:30px; font-family: monospace\">Gostamos</span>",
		"response": " ",
		"trial": "exp-sent",
		"word": "Gostamos",
		"trial_type": "html-keyboard-response",
		"trial_index": 31,
		"time_elapsed": 660696,
		"internal_node_id": "0.0-3.0-1.9"
	},
	{
		"rt": 3604,
		"stimulus": "<span style=\"font-size:30px; font-family: monospace\">de</span>",
		"response": " ",
		"trial": "exp-sent",
		"word": "de",
		"trial_type": "html-keyboard-response",
		"trial_index": 32,
		"time_elapsed": 664552,
		"internal_node_id": "0.0-3.0-1.10"
	},
	{
		"rt": 4773,
		"stimulus": "<span style=\"font-size:30px; font-family: monospace\">suco</span>",
		"response": " ",
		"trial": "exp-sent",
		"word": "suco",
		"trial_type": "html-keyboard-response",
		"trial_index": 33,
		"time_elapsed": 669576,
		"internal_node_id": "0.0-3.0-1.11"
	},
	{
		"rt": 3205,
		"stimulus": "<span style=\"font-size:30px; font-family: monospace\">em</span>",
		"response": " ",
		"trial": "exp-sent",
		"word": "em",
		"trial_type": "html-keyboard-response",
		"trial_index": 34,
		"time_elapsed": 673032,
		"internal_node_id": "0.0-3.0-1.12"
	},
	{
		"rt": 4740,
		"stimulus": "<span style=\"font-size:30px; font-family: monospace\">garrafa</span>",
		"response": " ",
		"trial": "exp-sent",
		"word": "garrafa",
		"trial_type": "html-keyboard-response",
		"trial_index": 35,
		"time_elapsed": 678024,
		"internal_node_id": "0.0-3.0-1.13"
	},
	{
		"rt": 1877,
		"stimulus": "<span style=\"font-size:30px; font-family: monospace\">de</span>",
		"response": " ",
		"trial": "exp-sent",
		"word": "de",
		"trial_type": "html-keyboard-response",
		"trial_index": 36,
		"time_elapsed": 680152,
		"internal_node_id": "0.0-3.0-1.14"
	},
	{
		"rt": 5862,
		"stimulus": "<span style=\"font-size:30px; font-family: monospace\">tamanho</span>",
		"response": " ",
		"trial": "exp-sent",
		"word": "tamanho",
		"trial_type": "html-keyboard-response",
		"trial_index": 37,
		"time_elapsed": 686264,
		"internal_node_id": "0.0-3.0-1.15"
	},
	{
		"rt": 11076,
		"stimulus": "<span style=\"font-size:30px; font-family: monospace\">pequeno.</span>",
		"response": " ",
		"trial": "exp-sent",
		"word": "pequeno.",
		"trial_type": "html-keyboard-response",
		"trial_index": 38,
		"time_elapsed": 697592,
		"internal_node_id": "0.0-3.0-1.16"
	},
	{
		"rt": null,
		"stimulus": "<span style= \"font-size:30px; font-family: monospace\">+</span>",
		"response": null,
		"trial_part": "fixation",
		"trial_type": "html-keyboard-response",
		"trial_index": 39,
		"time_elapsed": 698844,
		"internal_node_id": "0.0-3.0-0.17-0.17"
	},
	{
		"rt": 2017,
		"stimulus": "<span style=\"font-size:30px; font-family: monospace\">Sua</span>",
		"response": " ",
		"trial": "exp-sent",
		"word": "Sua",
		"trial_type": "html-keyboard-response",
		"trial_index": 40,
		"time_elapsed": 701112,
		"internal_node_id": "0.0-3.0-1.17"
	},
	{
		"rt": 4389,
		"stimulus": "<span style=\"font-size:30px; font-family: monospace\">filha</span>",
		"response": " ",
		"trial": "exp-sent",
		"word": "filha",
		"trial_type": "html-keyboard-response",
		"trial_index": 41,
		"time_elapsed": 705752,
		"internal_node_id": "0.0-3.0-1.18"
	},
	{
		"rt": 2165,
		"stimulus": "<span style=\"font-size:30px; font-family: monospace\">é</span>",
		"response": " ",
		"trial": "exp-sent",
		"word": "é",
		"trial_type": "html-keyboard-response",
		"trial_index": 42,
		"time_elapsed": 708168,
		"internal_node_id": "0.0-3.0-1.19"
	},
	{
		"rt": 2869,
		"stimulus": "<span style=\"font-size:30px; font-family: monospace\">muito</span>",
		"response": " ",
		"trial": "exp-sent",
		"word": "muito",
		"trial_type": "html-keyboard-response",
		"trial_index": 43,
		"time_elapsed": 711288,
		"internal_node_id": "0.0-3.0-1.20"
	},
	{
		"rt": 3765,
		"stimulus": "<span style=\"font-size:30px; font-family: monospace\">capaz</span>",
		"response": " ",
		"trial": "exp-sent",
		"word": "capaz",
		"trial_type": "html-keyboard-response",
		"trial_index": 44,
		"time_elapsed": 715304,
		"internal_node_id": "0.0-3.0-1.21"
	},
	{
		"rt": 2820,
		"stimulus": "<span style=\"font-size:30px; font-family: monospace\">e</span>",
		"response": " ",
		"trial": "exp-sent",
		"word": "e",
		"trial_type": "html-keyboard-response",
		"trial_index": 45,
		"time_elapsed": 718376,
		"internal_node_id": "0.0-3.0-1.22"
	},
	{
		"rt": 4420,
		"stimulus": "<span style=\"font-size:30px; font-family: monospace\">esforçada.</span>",
		"response": " ",
		"trial": "exp-sent",
		"word": "esforçada.",
		"trial_type": "html-keyboard-response",
		"trial_index": 46,
		"time_elapsed": 723048,
		"internal_node_id": "0.0-3.0-1.23"
	},
	{
		"rt": null,
		"stimulus": "<span style= \"font-size:30px; font-family: monospace\">+</span>",
		"response": null,
		"trial_part": "fixation",
		"trial_type": "html-keyboard-response",
		"trial_index": 47,
		"time_elapsed": 724300,
		"internal_node_id": "0.0-3.0-0.24-0.24"
	},
	{
		"rt": 832,
		"stimulus": "<span style=\"font-size:30px; font-family: monospace\">A</span>",
		"response": " ",
		"trial": "exp-sent",
		"word": "A",
		"trial_type": "html-keyboard-response",
		"trial_index": 48,
		"time_elapsed": 725384,
		"internal_node_id": "0.0-3.0-1.24"
	},
	{
		"rt": 3298,
		"stimulus": "<span style=\"font-size:30px; font-family: monospace\">batida</span>",
		"response": " ",
		"trial": "exp-sent",
		"word": "batida",
		"trial_type": "html-keyboard-response",
		"trial_index": 49,
		"time_elapsed": 728936,
		"internal_node_id": "0.0-3.0-1.25"
	},
	{
		"rt": 3733,
		"stimulus": "<span style=\"font-size:30px; font-family: monospace\">causou</span>",
		"response": " ",
		"trial": "exp-sent",
		"word": "causou",
		"trial_type": "html-keyboard-response",
		"trial_index": 50,
		"time_elapsed": 732920,
		"internal_node_id": "0.0-3.0-1.26"
	},
	{
		"rt": 2997,
		"stimulus": "<span style=\"font-size:30px; font-family: monospace\">muita</span>",
		"response": " ",
		"trial": "exp-sent",
		"word": "muita",
		"trial_type": "html-keyboard-response",
		"trial_index": 51,
		"time_elapsed": 736168,
		"internal_node_id": "0.0-3.0-1.27"
	},
	{
		"rt": 3141,
		"stimulus": "<span style=\"font-size:30px; font-family: monospace\">confusão</span>",
		"response": " ",
		"trial": "exp-sent",
		"word": "confusão",
		"trial_type": "html-keyboard-response",
		"trial_index": 52,
		"time_elapsed": 739560,
		"internal_node_id": "0.0-3.0-1.28"
	},
	{
		"rt": 1957,
		"stimulus": "<span style=\"font-size:30px; font-family: monospace\">na</span>",
		"response": " ",
		"trial": "exp-sent",
		"word": "na",
		"trial_type": "html-keyboard-response",
		"trial_index": 53,
		"time_elapsed": 741768,
		"internal_node_id": "0.0-3.0-1.29"
	},
	{
		"rt": 2644,
		"stimulus": "<span style=\"font-size:30px; font-family: monospace\">estrada.</span>",
		"response": " ",
		"trial": "exp-sent",
		"word": "estrada.",
		"trial_type": "html-keyboard-response",
		"trial_index": 54,
		"time_elapsed": 744664,
		"internal_node_id": "0.0-3.0-1.30"
	},
	{
		"rt": null,
		"stimulus": "<span style= \"font-size:30px; font-family: monospace\">+</span>",
		"response": null,
		"trial_part": "fixation",
		"trial_type": "html-keyboard-response",
		"trial_index": 55,
		"time_elapsed": 745921,
		"internal_node_id": "0.0-3.0-0.31-0.31"
	},
	{
		"rt": 2380,
		"stimulus": "<span style=\"font-size:30px; font-family: monospace\">Eu</span>",
		"response": " ",
		"trial": "exp-sent",
		"word": "Eu",
		"trial_type": "html-keyboard-response",
		"trial_index": 56,
		"time_elapsed": 748552,
		"internal_node_id": "0.0-3.0-1.31"
	},
	{
		"rt": 6133,
		"stimulus": "<span style=\"font-size:30px; font-family: monospace\">cozinhei</span>",
		"response": " ",
		"trial": "exp-sent",
		"word": "cozinhei",
		"trial_type": "html-keyboard-response",
		"trial_index": 57,
		"time_elapsed": 754935,
		"internal_node_id": "0.0-3.0-1.32"
	},
	{
		"rt": 2917,
		"stimulus": "<span style=\"font-size:30px; font-family: monospace\">um</span>",
		"response": " ",
		"trial": "exp-sent",
		"word": "um",
		"trial_type": "html-keyboard-response",
		"trial_index": 58,
		"time_elapsed": 758103,
		"internal_node_id": "0.0-3.0-1.33"
	},
	{
		"rt": 3956,
		"stimulus": "<span style=\"font-size:30px; font-family: monospace\">almoço</span>",
		"response": " ",
		"trial": "exp-sent",
		"word": "almoço",
		"trial_type": "html-keyboard-response",
		"trial_index": 59,
		"time_elapsed": 762311,
		"internal_node_id": "0.0-3.0-1.34"
	},
	{
		"rt": 4148,
		"stimulus": "<span style=\"font-size:30px; font-family: monospace\">nutritivo</span>",
		"response": " ",
		"trial": "exp-sent",
		"word": "nutritivo",
		"trial_type": "html-keyboard-response",
		"trial_index": 60,
		"time_elapsed": 766711,
		"internal_node_id": "0.0-3.0-1.35"
	},
	{
		"rt": 1781,
		"stimulus": "<span style=\"font-size:30px; font-family: monospace\">para</span>",
		"response": " ",
		"trial": "exp-sent",
		"word": "para",
		"trial_type": "html-keyboard-response",
		"trial_index": 61,
		"time_elapsed": 768743,
		"internal_node_id": "0.0-3.0-1.36"
	},
	{
		"rt": 1735,
		"stimulus": "<span style=\"font-size:30px; font-family: monospace\">hoje.</span>",
		"response": " ",
		"trial": "comp",
		"word": "hoje.",
		"trial_type": "html-keyboard-response",
		"trial_index": 62,
		"time_elapsed": 770743,
		"internal_node_id": "0.0-3.0-1.37"
	},
	{
		"rt": 38942,
		"stimulus": "<span style=\"font-size:30px; font-family: monospace\">O almoço era nutritivo?</span>",
		"response": "s",
		"question": "O almoço era nutritivo?",
		"answer": "sim",
		"trial": "comp",
		"trial_type": "html-keyboard-response",
		"trial_index": 63,
		"time_elapsed": 809944,
		"internal_node_id": "0.0-3.0-2.37-0.37",
		"accuracy": false
	},
	{
		"rt": null,
		"stimulus": "<span style= \"font-size:30px; font-family: monospace\">+</span>",
		"response": null,
		"trial_part": "fixation",
		"trial_type": "html-keyboard-response",
		"trial_index": 64,
		"time_elapsed": 811446,
		"internal_node_id": "0.0-3.0-0.38-0.38"
	},
	{
		"rt": 3526,
		"stimulus": "<span style=\"font-size:30px; font-family: monospace\">O</span>",
		"response": " ",
		"trial": "exp-sent",
		"word": "O",
		"trial_type": "html-keyboard-response",
		"trial_index": 65,
		"time_elapsed": 815223,
		"internal_node_id": "0.0-3.0-1.38"
	},
	{
		"rt": 3093,
		"stimulus": "<span style=\"font-size:30px; font-family: monospace\">texto</span>",
		"response": " ",
		"trial": "exp-sent",
		"word": "texto",
		"trial_type": "html-keyboard-response",
		"trial_index": 66,
		"time_elapsed": 818567,
		"internal_node_id": "0.0-3.0-1.39"
	},
	{
		"rt": 5685,
		"stimulus": "<span style=\"font-size:30px; font-family: monospace\">trazia</span>",
		"response": " ",
		"trial": "exp-sent",
		"word": "trazia",
		"trial_type": "html-keyboard-response",
		"trial_index": 67,
		"time_elapsed": 824503,
		"internal_node_id": "0.0-3.0-1.40"
	},
	{
		"rt": 2323,
		"stimulus": "<span style=\"font-size:30px; font-family: monospace\">um</span>",
		"response": " ",
		"trial": "exp-sent",
		"word": "um",
		"trial_type": "html-keyboard-response",
		"trial_index": 68,
		"time_elapsed": 827079,
		"internal_node_id": "0.0-3.0-1.41"
	},
	{
		"rt": 6212,
		"stimulus": "<span style=\"font-size:30px; font-family: monospace\">argumento</span>",
		"response": " ",
		"trial": "exp-sent",
		"word": "argumento",
		"trial_type": "html-keyboard-response",
		"trial_index": 69,
		"time_elapsed": 833543,
		"internal_node_id": "0.0-3.0-1.42"
	},
	{
		"rt": 3269,
		"stimulus": "<span style=\"font-size:30px; font-family: monospace\">central</span>",
		"response": " ",
		"trial": "exp-sent",
		"word": "central",
		"trial_type": "html-keyboard-response",
		"trial_index": 70,
		"time_elapsed": 837063,
		"internal_node_id": "0.0-3.0-1.43"
	},
	{
		"rt": 2340,
		"stimulus": "<span style=\"font-size:30px; font-family: monospace\">para</span>",
		"response": " ",
		"trial": "exp-sent",
		"word": "para",
		"trial_type": "html-keyboard-response",
		"trial_index": 71,
		"time_elapsed": 839655,
		"internal_node_id": "0.0-3.0-1.44"
	},
	{
		"rt": 2485,
		"stimulus": "<span style=\"font-size:30px; font-family: monospace\">a</span>",
		"response": " ",
		"trial": "exp-sent",
		"word": "a",
		"trial_type": "html-keyboard-response",
		"trial_index": 72,
		"time_elapsed": 842391,
		"internal_node_id": "0.0-3.0-1.45"
	},
	{
		"rt": 3876,
		"stimulus": "<span style=\"font-size:30px; font-family: monospace\">conversa.</span>",
		"response": " ",
		"trial": "exp-sent",
		"word": "conversa.",
		"trial_type": "html-keyboard-response",
		"trial_index": 73,
		"time_elapsed": 846519,
		"internal_node_id": "0.0-3.0-1.46"
	},
	{
		"rt": null,
		"stimulus": "<span style= \"font-size:30px; font-family: monospace\">+</span>",
		"response": null,
		"trial_part": "fixation",
		"trial_type": "html-keyboard-response",
		"trial_index": 74,
		"time_elapsed": 847770,
		"internal_node_id": "0.0-3.0-0.47-0.47"
	},
	{
		"rt": 8897,
		"stimulus": "<span style=\"font-size:30px; font-family: monospace\">Ontem</span>",
		"response": " ",
		"trial": "exp-sent",
		"word": "Ontem",
		"trial_type": "html-keyboard-response",
		"trial_index": 75,
		"time_elapsed": 856919,
		"internal_node_id": "0.0-3.0-1.47"
	},
	{
		"rt": 1845,
		"stimulus": "<span style=\"font-size:30px; font-family: monospace\">a</span>",
		"response": " ",
		"trial": "exp-sent",
		"word": "a",
		"trial_type": "html-keyboard-response",
		"trial_index": 76,
		"time_elapsed": 859015,
		"internal_node_id": "0.0-3.0-1.48"
	},
	{
		"rt": 11701,
		"stimulus": "<span style=\"font-size:30px; font-family: monospace\">temperatura</span>",
		"response": " ",
		"trial": "exp-sent",
		"word": "temperatura",
		"trial_type": "html-keyboard-response",
		"trial_index": 77,
		"time_elapsed": 870967,
		"internal_node_id": "0.0-3.0-1.49"
	},
	{
		"rt": 3237,
		"stimulus": "<span style=\"font-size:30px; font-family: monospace\">estava</span>",
		"response": " ",
		"trial": "exp-sent",
		"word": "estava",
		"trial_type": "html-keyboard-response",
		"trial_index": 78,
		"time_elapsed": 874455,
		"internal_node_id": "0.0-3.0-1.50"
	},
	{
		"rt": 2821,
		"stimulus": "<span style=\"font-size:30px; font-family: monospace\">amena</span>",
		"response": " ",
		"trial": "exp-sent",
		"word": "amena",
		"trial_type": "html-keyboard-response",
		"trial_index": 79,
		"time_elapsed": 877526,
		"internal_node_id": "0.0-3.0-1.51"
	},
	{
		"rt": 3524,
		"stimulus": "<span style=\"font-size:30px; font-family: monospace\">durante</span>",
		"response": " ",
		"trial": "exp-sent",
		"word": "durante",
		"trial_type": "html-keyboard-response",
		"trial_index": 80,
		"time_elapsed": 881302,
		"internal_node_id": "0.0-3.0-1.52"
	},
	{
		"rt": 2085,
		"stimulus": "<span style=\"font-size:30px; font-family: monospace\">o</span>",
		"response": " ",
		"trial": "exp-sent",
		"word": "o",
		"trial_type": "html-keyboard-response",
		"trial_index": 81,
		"time_elapsed": 883638,
		"internal_node_id": "0.0-3.0-1.53"
	},
	{
		"rt": 1653,
		"stimulus": "<span style=\"font-size:30px; font-family: monospace\">dia.</span>",
		"response": " ",
		"trial": "exp-sent",
		"word": "dia.",
		"trial_type": "html-keyboard-response",
		"trial_index": 82,
		"time_elapsed": 885542,
		"internal_node_id": "0.0-3.0-1.54"
	},
	{
		"rt": null,
		"stimulus": "<span style= \"font-size:30px; font-family: monospace\">+</span>",
		"response": null,
		"trial_part": "fixation",
		"trial_type": "html-keyboard-response",
		"trial_index": 83,
		"time_elapsed": 886794,
		"internal_node_id": "0.0-3.0-0.55-0.55"
	},
	{
		"rt": 2241,
		"stimulus": "<span style=\"font-size:30px; font-family: monospace\">Havia</span>",
		"response": " ",
		"trial": "exp-sent",
		"word": "Havia",
		"trial_type": "html-keyboard-response",
		"trial_index": 84,
		"time_elapsed": 889286,
		"internal_node_id": "0.0-3.0-1.55"
	},
	{
		"rt": 2086,
		"stimulus": "<span style=\"font-size:30px; font-family: monospace\">um</span>",
		"response": " ",
		"trial": "exp-sent",
		"word": "um",
		"trial_type": "html-keyboard-response",
		"trial_index": 85,
		"time_elapsed": 891623,
		"internal_node_id": "0.0-3.0-1.56"
	},
	{
		"rt": 5859,
		"stimulus": "<span style=\"font-size:30px; font-family: monospace\">machucado</span>",
		"response": " ",
		"trial": "exp-sent",
		"word": "machucado",
		"trial_type": "html-keyboard-response",
		"trial_index": 86,
		"time_elapsed": 897734,
		"internal_node_id": "0.0-3.0-1.57"
	},
	{
		"rt": 2101,
		"stimulus": "<span style=\"font-size:30px; font-family: monospace\">no</span>",
		"response": " ",
		"trial": "exp-sent",
		"word": "no",
		"trial_type": "html-keyboard-response",
		"trial_index": 87,
		"time_elapsed": 900086,
		"internal_node_id": "0.0-3.0-1.58"
	},
	{
		"rt": 3845,
		"stimulus": "<span style=\"font-size:30px; font-family: monospace\">dedo</span>",
		"response": " ",
		"trial": "exp-sent",
		"word": "dedo",
		"trial_type": "html-keyboard-response",
		"trial_index": 88,
		"time_elapsed": 904182,
		"internal_node_id": "0.0-3.0-1.59"
	},
	{
		"rt": 2611,
		"stimulus": "<span style=\"font-size:30px; font-family: monospace\">da</span>",
		"response": " ",
		"trial": "exp-sent",
		"word": "da",
		"trial_type": "html-keyboard-response",
		"trial_index": 89,
		"time_elapsed": 907046,
		"internal_node_id": "0.0-3.0-1.60"
	},
	{
		"rt": 3253,
		"stimulus": "<span style=\"font-size:30px; font-family: monospace\">criança.</span>",
		"response": " ",
		"trial": "exp-sent",
		"word": "criança.",
		"trial_type": "html-keyboard-response",
		"trial_index": 90,
		"time_elapsed": 910550,
		"internal_node_id": "0.0-3.0-1.61"
	},
	{
		"rt": null,
		"stimulus": "<span style= \"font-size:30px; font-family: monospace\">+</span>",
		"response": null,
		"trial_part": "fixation",
		"trial_type": "html-keyboard-response",
		"trial_index": 91,
		"time_elapsed": 911803,
		"internal_node_id": "0.0-3.0-0.62-0.62"
	},
	{
		"rt": 880,
		"stimulus": "<span style=\"font-size:30px; font-family: monospace\">A</span>",
		"response": " ",
		"trial": "exp-sent",
		"word": "A",
		"trial_type": "html-keyboard-response",
		"trial_index": 92,
		"time_elapsed": 912934,
		"internal_node_id": "0.0-3.0-1.62"
	},
	{
		"rt": 4245,
		"stimulus": "<span style=\"font-size:30px; font-family: monospace\">borboleta</span>",
		"response": " ",
		"trial": "exp-sent",
		"word": "borboleta",
		"trial_type": "html-keyboard-response",
		"trial_index": 93,
		"time_elapsed": 917431,
		"internal_node_id": "0.0-3.0-1.63"
	},
	{
		"rt": 4420,
		"stimulus": "<span style=\"font-size:30px; font-family: monospace\">pousou</span>",
		"response": " ",
		"trial": "exp-sent",
		"word": "pousou",
		"trial_type": "html-keyboard-response",
		"trial_index": 94,
		"time_elapsed": 922102,
		"internal_node_id": "0.0-3.0-1.64"
	},
	{
		"rt": 3542,
		"stimulus": "<span style=\"font-size:30px; font-family: monospace\">no</span>",
		"response": " ",
		"trial": "exp-sent",
		"word": "no",
		"trial_type": "html-keyboard-response",
		"trial_index": 95,
		"time_elapsed": 925910,
		"internal_node_id": "0.0-3.0-1.65"
	},
	{
		"rt": 3829,
		"stimulus": "<span style=\"font-size:30px; font-family: monospace\">ombro</span>",
		"response": " ",
		"trial": "exp-sent",
		"word": "ombro",
		"trial_type": "html-keyboard-response",
		"trial_index": 96,
		"time_elapsed": 929990,
		"internal_node_id": "0.0-3.0-1.66"
	},
	{
		"rt": 5349,
		"stimulus": "<span style=\"font-size:30px; font-family: monospace\">daquela</span>",
		"response": " ",
		"trial": "exp-sent",
		"word": "daquela",
		"trial_type": "html-keyboard-response",
		"trial_index": 97,
		"time_elapsed": 935590,
		"internal_node_id": "0.0-3.0-1.67"
	},
	{
		"rt": 2468,
		"stimulus": "<span style=\"font-size:30px; font-family: monospace\">moça.</span>",
		"response": " ",
		"trial": "exp-sent",
		"word": "moça.",
		"trial_type": "html-keyboard-response",
		"trial_index": 98,
		"time_elapsed": 938310,
		"internal_node_id": "0.0-3.0-1.68"
	},
	{
		"rt": null,
		"stimulus": "<span style= \"font-size:30px; font-family: monospace\">+</span>",
		"response": null,
		"trial_part": "fixation",
		"trial_type": "html-keyboard-response",
		"trial_index": 99,
		"time_elapsed": 939561,
		"internal_node_id": "0.0-3.0-0.69-0.69"
	},
	{
		"rt": 1905,
		"stimulus": "<span style=\"font-size:30px; font-family: monospace\">Eu</span>",
		"response": " ",
		"trial": "exp-sent",
		"word": "Eu",
		"trial_type": "html-keyboard-response",
		"trial_index": 100,
		"time_elapsed": 941718,
		"internal_node_id": "0.0-3.0-1.69"
	},
	{
		"rt": 2997,
		"stimulus": "<span style=\"font-size:30px; font-family: monospace\">quero</span>",
		"response": " ",
		"trial": "exp-sent",
		"word": "quero",
		"trial_type": "html-keyboard-response",
		"trial_index": 101,
		"time_elapsed": 944966,
		"internal_node_id": "0.0-3.0-1.70"
	},
	{
		"rt": 2005,
		"stimulus": "<span style=\"font-size:30px; font-family: monospace\">um</span>",
		"response": " ",
		"trial": "exp-sent",
		"word": "um",
		"trial_type": "html-keyboard-response",
		"trial_index": 102,
		"time_elapsed": 947222,
		"internal_node_id": "0.0-3.0-1.71"
	},
	{
		"rt": 7253,
		"stimulus": "<span style=\"font-size:30px; font-family: monospace\">namorado</span>",
		"response": " ",
		"trial": "exp-sent",
		"word": "namorado",
		"trial_type": "html-keyboard-response",
		"trial_index": 103,
		"time_elapsed": 954726,
		"internal_node_id": "0.0-3.0-1.72"
	},
	{
		"rt": 4260,
		"stimulus": "<span style=\"font-size:30px; font-family: monospace\">honesto</span>",
		"response": " ",
		"trial": "exp-sent",
		"word": "honesto",
		"trial_type": "html-keyboard-response",
		"trial_index": 104,
		"time_elapsed": 959238,
		"internal_node_id": "0.0-3.0-1.73"
	},
	{
		"rt": 1653,
		"stimulus": "<span style=\"font-size:30px; font-family: monospace\">e</span>",
		"response": " ",
		"trial": "exp-sent",
		"word": "e",
		"trial_type": "html-keyboard-response",
		"trial_index": 105,
		"time_elapsed": 961142,
		"internal_node_id": "0.0-3.0-1.74"
	},
	{
		"rt": 3765,
		"stimulus": "<span style=\"font-size:30px; font-family: monospace\">compreensivo.</span>",
		"response": " ",
		"trial": "comp",
		"word": "compreensivo.",
		"trial_type": "html-keyboard-response",
		"trial_index": 106,
		"time_elapsed": 965158,
		"internal_node_id": "0.0-3.0-1.75"
	},
	{
		"rt": 103766,
		"stimulus": "<span style=\"font-size:30px; font-family: monospace\">Eu quero um namorado honesto?</span>",
		"response": "n",
		"question": "Eu quero um namorado honesto?",
		"answer": "sim",
		"trial": "comp",
		"trial_type": "html-keyboard-response",
		"trial_index": 107,
		"time_elapsed": 1069173,
		"internal_node_id": "0.0-3.0-2.75-0.75",
		"accuracy": false
	},
	{
		"rt": null,
		"stimulus": "<span style= \"font-size:30px; font-family: monospace\">+</span>",
		"response": null,
		"trial_part": "fixation",
		"trial_type": "html-keyboard-response",
		"trial_index": 108,
		"time_elapsed": 1070675,
		"internal_node_id": "0.0-3.0-0.76-0.76"
	},
	{
		"rt": 3847,
		"stimulus": "<span style=\"font-size:30px; font-family: monospace\">O</span>",
		"response": " ",
		"trial": "exp-sent",
		"word": "O",
		"trial_type": "html-keyboard-response",
		"trial_index": 109,
		"time_elapsed": 1074773,
		"internal_node_id": "0.0-3.0-1.76"
	},
	{
		"rt": 3765,
		"stimulus": "<span style=\"font-size:30px; font-family: monospace\">travesseiro</span>",
		"response": " ",
		"trial": "exp-sent",
		"word": "travesseiro",
		"trial_type": "html-keyboard-response",
		"trial_index": 110,
		"time_elapsed": 1078789,
		"internal_node_id": "0.0-3.0-1.77"
	},
	{
		"rt": 2694,
		"stimulus": "<span style=\"font-size:30px; font-family: monospace\">era</span>",
		"response": " ",
		"trial": "exp-sent",
		"word": "era",
		"trial_type": "html-keyboard-response",
		"trial_index": 111,
		"time_elapsed": 1081733,
		"internal_node_id": "0.0-3.0-1.78"
	},
	{
		"rt": 2165,
		"stimulus": "<span style=\"font-size:30px; font-family: monospace\">muito</span>",
		"response": " ",
		"trial": "exp-sent",
		"word": "muito",
		"trial_type": "html-keyboard-response",
		"trial_index": 112,
		"time_elapsed": 1084149,
		"internal_node_id": "0.0-3.0-1.79"
	},
	{
		"rt": 3397,
		"stimulus": "<span style=\"font-size:30px; font-family: monospace\">macio</span>",
		"response": " ",
		"trial": "exp-sent",
		"word": "macio",
		"trial_type": "html-keyboard-response",
		"trial_index": 113,
		"time_elapsed": 1087797,
		"internal_node_id": "0.0-3.0-1.80"
	},
	{
		"rt": 1637,
		"stimulus": "<span style=\"font-size:30px; font-family: monospace\">e</span>",
		"response": " ",
		"trial": "exp-sent",
		"word": "e",
		"trial_type": "html-keyboard-response",
		"trial_index": 114,
		"time_elapsed": 1089685,
		"internal_node_id": "0.0-3.0-1.81"
	},
	{
		"rt": 5061,
		"stimulus": "<span style=\"font-size:30px; font-family: monospace\">confortável.</span>",
		"response": " ",
		"trial": "exp-sent",
		"word": "confortável.",
		"trial_type": "html-keyboard-response",
		"trial_index": 115,
		"time_elapsed": 1094997,
		"internal_node_id": "0.0-3.0-1.82"
	},
	{
		"rt": null,
		"stimulus": "<span style= \"font-size:30px; font-family: monospace\">+</span>",
		"response": null,
		"trial_part": "fixation",
		"trial_type": "html-keyboard-response",
		"trial_index": 116,
		"time_elapsed": 1096249,
		"internal_node_id": "0.0-3.0-0.83-0.83"
	},
	{
		"rt": 978,
		"stimulus": "<span style=\"font-size:30px; font-family: monospace\">Hoje</span>",
		"response": " ",
		"trial": "exp-sent",
		"word": "Hoje",
		"trial_type": "html-keyboard-response",
		"trial_index": 117,
		"time_elapsed": 1097477,
		"internal_node_id": "0.0-3.0-1.83"
	},
	{
		"rt": 1829,
		"stimulus": "<span style=\"font-size:30px; font-family: monospace\">a</span>",
		"response": " ",
		"trial": "exp-sent",
		"word": "a",
		"trial_type": "html-keyboard-response",
		"trial_index": 118,
		"time_elapsed": 1099557,
		"internal_node_id": "0.0-3.0-1.84"
	},
	{
		"rt": 3173,
		"stimulus": "<span style=\"font-size:30px; font-family: monospace\">atendente</span>",
		"response": " ",
		"trial": "exp-sent",
		"word": "atendente",
		"trial_type": "html-keyboard-response",
		"trial_index": 119,
		"time_elapsed": 1102981,
		"internal_node_id": "0.0-3.0-1.85"
	},
	{
		"rt": 2277,
		"stimulus": "<span style=\"font-size:30px; font-family: monospace\">estava</span>",
		"response": " ",
		"trial": "exp-sent",
		"word": "estava",
		"trial_type": "html-keyboard-response",
		"trial_index": 120,
		"time_elapsed": 1105509,
		"internal_node_id": "0.0-3.0-1.86"
	},
	{
		"rt": 3365,
		"stimulus": "<span style=\"font-size:30px; font-family: monospace\">furiosa</span>",
		"response": " ",
		"trial": "exp-sent",
		"word": "furiosa",
		"trial_type": "html-keyboard-response",
		"trial_index": 121,
		"time_elapsed": 1109125,
		"internal_node_id": "0.0-3.0-1.87"
	},
	{
		"rt": 3333,
		"stimulus": "<span style=\"font-size:30px; font-family: monospace\">com</span>",
		"response": " ",
		"trial": "exp-sent",
		"word": "com",
		"trial_type": "html-keyboard-response",
		"trial_index": 122,
		"time_elapsed": 1112709,
		"internal_node_id": "0.0-3.0-1.88"
	},
	{
		"rt": 2229,
		"stimulus": "<span style=\"font-size:30px; font-family: monospace\">o</span>",
		"response": " ",
		"trial": "exp-sent",
		"word": "o",
		"trial_type": "html-keyboard-response",
		"trial_index": 123,
		"time_elapsed": 1115189,
		"internal_node_id": "0.0-3.0-1.89"
	},
	{
		"rt": 4069,
		"stimulus": "<span style=\"font-size:30px; font-family: monospace\">cliente.</span>",
		"response": " ",
		"trial": "exp-sent",
		"word": "cliente.",
		"trial_type": "html-keyboard-response",
		"trial_index": 124,
		"time_elapsed": 1119509,
		"internal_node_id": "0.0-3.0-1.90"
	},
	{
		"rt": null,
		"stimulus": "<span style= \"font-size:30px; font-family: monospace\">+</span>",
		"response": null,
		"trial_part": "fixation",
		"trial_type": "html-keyboard-response",
		"trial_index": 125,
		"time_elapsed": 1120760,
		"internal_node_id": "0.0-3.0-0.91-0.91"
	},
	{
		"rt": 562,
		"stimulus": "<span style=\"font-size:30px; font-family: monospace\">O</span>",
		"response": " ",
		"trial": "exp-sent",
		"word": "O",
		"trial_type": "html-keyboard-response",
		"trial_index": 126,
		"time_elapsed": 1121573,
		"internal_node_id": "0.0-3.0-1.91"
	},
	{
		"rt": 3109,
		"stimulus": "<span style=\"font-size:30px; font-family: monospace\">vizinho</span>",
		"response": " ",
		"trial": "exp-sent",
		"word": "vizinho",
		"trial_type": "html-keyboard-response",
		"trial_index": 127,
		"time_elapsed": 1124933,
		"internal_node_id": "0.0-3.0-1.92"
	},
	{
		"rt": 2757,
		"stimulus": "<span style=\"font-size:30px; font-family: monospace\">é</span>",
		"response": " ",
		"trial": "exp-sent",
		"word": "é",
		"trial_type": "html-keyboard-response",
		"trial_index": 128,
		"time_elapsed": 1127941,
		"internal_node_id": "0.0-3.0-1.93"
	},
	{
		"rt": 3397,
		"stimulus": "<span style=\"font-size:30px; font-family: monospace\">um</span>",
		"response": " ",
		"trial": "exp-sent",
		"word": "um",
		"trial_type": "html-keyboard-response",
		"trial_index": 129,
		"time_elapsed": 1131589,
		"internal_node_id": "0.0-3.0-1.94"
	},
	{
		"rt": 5573,
		"stimulus": "<span style=\"font-size:30px; font-family: monospace\">arquiteto</span>",
		"response": " ",
		"trial": "exp-sent",
		"word": "arquiteto",
		"trial_type": "html-keyboard-response",
		"trial_index": 130,
		"time_elapsed": 1137413,
		"internal_node_id": "0.0-3.0-1.95"
	},
	{
		"rt": 3045,
		"stimulus": "<span style=\"font-size:30px; font-family: monospace\">muito</span>",
		"response": " ",
		"trial": "exp-sent",
		"word": "muito",
		"trial_type": "html-keyboard-response",
		"trial_index": 131,
		"time_elapsed": 1140709,
		"internal_node_id": "0.0-3.0-1.96"
	},
	{
		"rt": 3365,
		"stimulus": "<span style=\"font-size:30px; font-family: monospace\">excêntrico.</span>",
		"response": " ",
		"trial": "exp-sent",
		"word": "excêntrico.",
		"trial_type": "html-keyboard-response",
		"trial_index": 132,
		"time_elapsed": 1144325,
		"internal_node_id": "0.0-3.0-1.97"
	},
	{
		"rt": null,
		"stimulus": "<span style= \"font-size:30px; font-family: monospace\">+</span>",
		"response": null,
		"trial_part": "fixation",
		"trial_type": "html-keyboard-response",
		"trial_index": 133,
		"time_elapsed": 1145577,
		"internal_node_id": "0.0-3.0-0.98-0.98"
	},
	{
		"rt": 816,
		"stimulus": "<span style=\"font-size:30px; font-family: monospace\">A</span>",
		"response": " ",
		"trial": "exp-sent",
		"word": "A",
		"trial_type": "html-keyboard-response",
		"trial_index": 134,
		"time_elapsed": 1146644,
		"internal_node_id": "0.0-3.0-1.98"
	},
	{
		"rt": 2933,
		"stimulus": "<span style=\"font-size:30px; font-family: monospace\">nossa</span>",
		"response": " ",
		"trial": "exp-sent",
		"word": "nossa",
		"trial_type": "html-keyboard-response",
		"trial_index": 135,
		"time_elapsed": 1149829,
		"internal_node_id": "0.0-3.0-1.99"
	},
	{
		"rt": 1604,
		"stimulus": "<span style=\"font-size:30px; font-family: monospace\">colega</span>",
		"response": " ",
		"trial": "exp-sent",
		"word": "colega",
		"trial_type": "html-keyboard-response",
		"trial_index": 136,
		"time_elapsed": 1151684,
		"internal_node_id": "0.0-3.0-1.100"
	},
	{
		"rt": 1333,
		"stimulus": "<span style=\"font-size:30px; font-family: monospace\">foi</span>",
		"response": " ",
		"trial": "exp-sent",
		"word": "foi",
		"trial_type": "html-keyboard-response",
		"trial_index": 137,
		"time_elapsed": 1153269,
		"internal_node_id": "0.0-3.0-1.101"
	},
	{
		"rt": 1622,
		"stimulus": "<span style=\"font-size:30px; font-family: monospace\">má</span>",
		"response": " ",
		"trial": "exp-sent",
		"word": "má",
		"trial_type": "html-keyboard-response",
		"trial_index": 138,
		"time_elapsed": 1155141,
		"internal_node_id": "0.0-3.0-1.102"
	},
	{
		"rt": 1284,
		"stimulus": "<span style=\"font-size:30px; font-family: monospace\">com</span>",
		"response": " ",
		"trial": "exp-sent",
		"word": "com",
		"trial_type": "html-keyboard-response",
		"trial_index": 139,
		"time_elapsed": 1156677,
		"internal_node_id": "0.0-3.0-1.103"
	},
	{
		"rt": 1861,
		"stimulus": "<span style=\"font-size:30px; font-family: monospace\">as</span>",
		"response": " ",
		"trial": "exp-sent",
		"word": "as",
		"trial_type": "html-keyboard-response",
		"trial_index": 140,
		"time_elapsed": 1158789,
		"internal_node_id": "0.0-3.0-1.104"
	},
	{
		"rt": 3397,
		"stimulus": "<span style=\"font-size:30px; font-family: monospace\">crianças.</span>",
		"response": " ",
		"trial": "exp-sent",
		"word": "crianças.",
		"trial_type": "html-keyboard-response",
		"trial_index": 141,
		"time_elapsed": 1162437,
		"internal_node_id": "0.0-3.0-1.105"
	},
	{
		"rt": null,
		"stimulus": "<span style= \"font-size:30px; font-family: monospace\">+</span>",
		"response": null,
		"trial_part": "fixation",
		"trial_type": "html-keyboard-response",
		"trial_index": 142,
		"time_elapsed": 1163689,
		"internal_node_id": "0.0-3.0-0.106-0.106"
	},
	{
		"rt": 240,
		"stimulus": "<span style=\"font-size:30px; font-family: monospace\">Virtudes</span>",
		"response": " ",
		"trial": "exp-sent",
		"word": "Virtudes",
		"trial_type": "html-keyboard-response",
		"trial_index": 143,
		"time_elapsed": 1164181,
		"internal_node_id": "0.0-3.0-1.106"
	},
	{
		"rt": 1957,
		"stimulus": "<span style=\"font-size:30px; font-family: monospace\">não</span>",
		"response": " ",
		"trial": "exp-sent",
		"word": "não",
		"trial_type": "html-keyboard-response",
		"trial_index": 144,
		"time_elapsed": 1166389,
		"internal_node_id": "0.0-3.0-1.107"
	},
	{
		"rt": 1717,
		"stimulus": "<span style=\"font-size:30px; font-family: monospace\">são</span>",
		"response": " ",
		"trial": "exp-sent",
		"word": "são",
		"trial_type": "html-keyboard-response",
		"trial_index": 145,
		"time_elapsed": 1168357,
		"internal_node_id": "0.0-3.0-1.108"
	},
	{
		"rt": 2549,
		"stimulus": "<span style=\"font-size:30px; font-family: monospace\">preguiça,</span>",
		"response": " ",
		"trial": "exp-sent",
		"word": "preguiça,",
		"trial_type": "html-keyboard-response",
		"trial_index": 146,
		"time_elapsed": 1171157,
		"internal_node_id": "0.0-3.0-1.109"
	},
	{
		"rt": 2182,
		"stimulus": "<span style=\"font-size:30px; font-family: monospace\">gula</span>",
		"response": " ",
		"trial": "exp-sent",
		"word": "gula",
		"trial_type": "html-keyboard-response",
		"trial_index": 147,
		"time_elapsed": 1173589,
		"internal_node_id": "0.0-3.0-1.110"
	},
	{
		"rt": 1941,
		"stimulus": "<span style=\"font-size:30px; font-family: monospace\">nem</span>",
		"response": " ",
		"trial": "exp-sent",
		"word": "nem",
		"trial_type": "html-keyboard-response",
		"trial_index": 148,
		"time_elapsed": 1175780,
		"internal_node_id": "0.0-3.0-1.111"
	},
	{
		"rt": 3781,
		"stimulus": "<span style=\"font-size:30px; font-family: monospace\">ganância.</span>",
		"response": " ",
		"trial": "comp",
		"word": "ganância.",
		"trial_type": "html-keyboard-response",
		"trial_index": 149,
		"time_elapsed": 1179812,
		"internal_node_id": "0.0-3.0-1.112"
	},
	{
		"rt": 28661,
		"stimulus": "<span style=\"font-size:30px; font-family: monospace\">Preguiça é uma virtude?</span>",
		"response": "s",
		"question": "Preguiça é uma virtude?",
		"answer": "não",
		"trial": "comp",
		"trial_type": "html-keyboard-response",
		"trial_index": 150,
		"time_elapsed": 1208724,
		"internal_node_id": "0.0-3.0-2.112-0.112",
		"accuracy": false
	},
	{
		"rt": null,
		"stimulus": "<span style= \"font-size:30px; font-family: monospace\">+</span>",
		"response": null,
		"trial_part": "fixation",
		"trial_type": "html-keyboard-response",
		"trial_index": 151,
		"time_elapsed": 1210226,
		"internal_node_id": "0.0-3.0-0.113-0.113"
	},
	{
		"rt": 1495,
		"stimulus": "<span style=\"font-size:30px; font-family: monospace\">A</span>",
		"response": " ",
		"trial": "exp-sent",
		"word": "A",
		"trial_type": "html-keyboard-response",
		"trial_index": 152,
		"time_elapsed": 1211972,
		"internal_node_id": "0.0-3.0-1.113"
	},
	{
		"rt": 2485,
		"stimulus": "<span style=\"font-size:30px; font-family: monospace\">força</span>",
		"response": " ",
		"trial": "exp-sent",
		"word": "força",
		"trial_type": "html-keyboard-response",
		"trial_index": 153,
		"time_elapsed": 1214708,
		"internal_node_id": "0.0-3.0-1.114"
	},
	{
		"rt": 2021,
		"stimulus": "<span style=\"font-size:30px; font-family: monospace\">d'água</span>",
		"response": " ",
		"trial": "exp-sent",
		"word": "d'água",
		"trial_type": "html-keyboard-response",
		"trial_index": 154,
		"time_elapsed": 1216980,
		"internal_node_id": "0.0-3.0-1.115"
	},
	{
		"rt": 1142,
		"stimulus": "<span style=\"font-size:30px; font-family: monospace\">estava</span>",
		"response": " ",
		"trial": "exp-sent",
		"word": "estava",
		"trial_type": "html-keyboard-response",
		"trial_index": 155,
		"time_elapsed": 1218372,
		"internal_node_id": "0.0-3.0-1.116"
	},
	{
		"rt": 1141,
		"stimulus": "<span style=\"font-size:30px; font-family: monospace\">normal</span>",
		"response": " ",
		"trial": "exp-sent",
		"word": "normal",
		"trial_type": "html-keyboard-response",
		"trial_index": 156,
		"time_elapsed": 1219764,
		"internal_node_id": "0.0-3.0-1.117"
	},
	{
		"rt": 1381,
		"stimulus": "<span style=\"font-size:30px; font-family: monospace\">naquele</span>",
		"response": " ",
		"trial": "exp-sent",
		"word": "naquele",
		"trial_type": "html-keyboard-response",
		"trial_index": 157,
		"time_elapsed": 1221396,
		"internal_node_id": "0.0-3.0-1.118"
	},
	{
		"rt": 1830,
		"stimulus": "<span style=\"font-size:30px; font-family: monospace\">dia.</span>",
		"response": " ",
		"trial": "exp-sent",
		"word": "dia.",
		"trial_type": "html-keyboard-response",
		"trial_index": 158,
		"time_elapsed": 1223476,
		"internal_node_id": "0.0-3.0-1.119"
	},
	{
		"rt": null,
		"stimulus": "<span style= \"font-size:30px; font-family: monospace\">+</span>",
		"response": null,
		"trial_part": "fixation",
		"trial_type": "html-keyboard-response",
		"trial_index": 159,
		"time_elapsed": 1224729,
		"internal_node_id": "0.0-3.0-0.120-0.120"
	},
	{
		"rt": 1152,
		"stimulus": "<span style=\"font-size:30px; font-family: monospace\">A</span>",
		"response": " ",
		"trial": "exp-sent",
		"word": "A",
		"trial_type": "html-keyboard-response",
		"trial_index": 160,
		"time_elapsed": 1226132,
		"internal_node_id": "0.0-3.0-1.120"
	},
	{
		"rt": 2085,
		"stimulus": "<span style=\"font-size:30px; font-family: monospace\">médica</span>",
		"response": " ",
		"trial": "exp-sent",
		"word": "médica",
		"trial_type": "html-keyboard-response",
		"trial_index": 161,
		"time_elapsed": 1228468,
		"internal_node_id": "0.0-3.0-1.121"
	},
	{
		"rt": 2598,
		"stimulus": "<span style=\"font-size:30px; font-family: monospace\">ofereceu</span>",
		"response": " ",
		"trial": "exp-sent",
		"word": "ofereceu",
		"trial_type": "html-keyboard-response",
		"trial_index": 162,
		"time_elapsed": 1231316,
		"internal_node_id": "0.0-3.0-1.122"
	},
	{
		"rt": 3173,
		"stimulus": "<span style=\"font-size:30px; font-family: monospace\">a</span>",
		"response": " ",
		"trial": "exp-sent",
		"word": "a",
		"trial_type": "html-keyboard-response",
		"trial_index": 163,
		"time_elapsed": 1234740,
		"internal_node_id": "0.0-3.0-1.123"
	},
	{
		"rt": 3077,
		"stimulus": "<span style=\"font-size:30px; font-family: monospace\">pomada</span>",
		"response": " ",
		"trial": "exp-sent",
		"word": "pomada",
		"trial_type": "html-keyboard-response",
		"trial_index": 164,
		"time_elapsed": 1238068,
		"internal_node_id": "0.0-3.0-1.124"
	},
	{
		"rt": 1205,
		"stimulus": "<span style=\"font-size:30px; font-family: monospace\">para</span>",
		"response": " ",
		"trial": "exp-sent",
		"word": "para",
		"trial_type": "html-keyboard-response",
		"trial_index": 165,
		"time_elapsed": 1239524,
		"internal_node_id": "0.0-3.0-1.125"
	},
	{
		"rt": 1029,
		"stimulus": "<span style=\"font-size:30px; font-family: monospace\">o</span>",
		"response": " ",
		"trial": "exp-sent",
		"word": "o",
		"trial_type": "html-keyboard-response",
		"trial_index": 166,
		"time_elapsed": 1240804,
		"internal_node_id": "0.0-3.0-1.126"
	},
	{
		"rt": 1573,
		"stimulus": "<span style=\"font-size:30px; font-family: monospace\">avô.</span>",
		"response": " ",
		"trial": "exp-sent",
		"word": "avô.",
		"trial_type": "html-keyboard-response",
		"trial_index": 167,
		"time_elapsed": 1242628,
		"internal_node_id": "0.0-3.0-1.127"
	},
	{
		"rt": null,
		"stimulus": "<span style= \"font-size:30px; font-family: monospace\">+</span>",
		"response": null,
		"trial_part": "fixation",
		"trial_type": "html-keyboard-response",
		"trial_index": 168,
		"time_elapsed": 1243880,
		"internal_node_id": "0.0-3.0-0.128-0.128"
	},
	{
		"rt": 1168,
		"stimulus": "<span style=\"font-size:30px; font-family: monospace\">Ele</span>",
		"response": " ",
		"trial": "exp-sent",
		"word": "Ele",
		"trial_type": "html-keyboard-response",
		"trial_index": 169,
		"time_elapsed": 1245300,
		"internal_node_id": "0.0-3.0-1.128"
	},
	{
		"rt": 2597,
		"stimulus": "<span style=\"font-size:30px; font-family: monospace\">conversou</span>",
		"response": " ",
		"trial": "exp-sent",
		"word": "conversou",
		"trial_type": "html-keyboard-response",
		"trial_index": 170,
		"time_elapsed": 1248148,
		"internal_node_id": "0.0-3.0-1.129"
	},
	{
		"rt": 1765,
		"stimulus": "<span style=\"font-size:30px; font-family: monospace\">com</span>",
		"response": " ",
		"trial": "exp-sent",
		"word": "com",
		"trial_type": "html-keyboard-response",
		"trial_index": 171,
		"time_elapsed": 1250164,
		"internal_node_id": "0.0-3.0-1.130"
	},
	{
		"rt": 1860,
		"stimulus": "<span style=\"font-size:30px; font-family: monospace\">o</span>",
		"response": " ",
		"trial": "exp-sent",
		"word": "o",
		"trial_type": "html-keyboard-response",
		"trial_index": 172,
		"time_elapsed": 1252276,
		"internal_node_id": "0.0-3.0-1.131"
	},
	{
		"rt": 2789,
		"stimulus": "<span style=\"font-size:30px; font-family: monospace\">patrão</span>",
		"response": " ",
		"trial": "exp-sent",
		"word": "patrão",
		"trial_type": "html-keyboard-response",
		"trial_index": 173,
		"time_elapsed": 1255316,
		"internal_node_id": "0.0-3.0-1.132"
	},
	{
		"rt": 3205,
		"stimulus": "<span style=\"font-size:30px; font-family: monospace\">durante</span>",
		"response": " ",
		"trial": "exp-sent",
		"word": "durante",
		"trial_type": "html-keyboard-response",
		"trial_index": 174,
		"time_elapsed": 1258772,
		"internal_node_id": "0.0-3.0-1.133"
	},
	{
		"rt": 2053,
		"stimulus": "<span style=\"font-size:30px; font-family: monospace\">a</span>",
		"response": " ",
		"trial": "exp-sent",
		"word": "a",
		"trial_type": "html-keyboard-response",
		"trial_index": 175,
		"time_elapsed": 1261076,
		"internal_node_id": "0.0-3.0-1.134"
	},
	{
		"rt": 2405,
		"stimulus": "<span style=\"font-size:30px; font-family: monospace\">tarde.</span>",
		"response": " ",
		"trial": "exp-sent",
		"word": "tarde.",
		"trial_type": "html-keyboard-response",
		"trial_index": 176,
		"time_elapsed": 1263732,
		"internal_node_id": "0.0-3.0-1.135"
	},
	{
		"rt": null,
		"stimulus": "<span style= \"font-size:30px; font-family: monospace\">+</span>",
		"response": null,
		"trial_part": "fixation",
		"trial_type": "html-keyboard-response",
		"trial_index": 177,
		"time_elapsed": 1264984,
		"internal_node_id": "0.0-3.0-0.136-0.136"
	},
	{
		"rt": 528,
		"stimulus": "<span style=\"font-size:30px; font-family: monospace\">Algumas</span>",
		"response": " ",
		"trial": "exp-sent",
		"word": "Algumas",
		"trial_type": "html-keyboard-response",
		"trial_index": 178,
		"time_elapsed": 1265764,
		"internal_node_id": "0.0-3.0-1.136"
	},
	{
		"rt": 2579,
		"stimulus": "<span style=\"font-size:30px; font-family: monospace\">pessoas</span>",
		"response": " ",
		"trial": "exp-sent",
		"word": "pessoas",
		"trial_type": "html-keyboard-response",
		"trial_index": 179,
		"time_elapsed": 1268595,
		"internal_node_id": "0.0-3.0-1.137"
	},
	{
		"rt": 3974,
		"stimulus": "<span style=\"font-size:30px; font-family: monospace\">acreditam</span>",
		"response": " ",
		"trial": "exp-sent",
		"word": "acreditam",
		"trial_type": "html-keyboard-response",
		"trial_index": 180,
		"time_elapsed": 1272820,
		"internal_node_id": "0.0-3.0-1.138"
	},
	{
		"rt": 2405,
		"stimulus": "<span style=\"font-size:30px; font-family: monospace\">em</span>",
		"response": " ",
		"trial": "exp-sent",
		"word": "em",
		"trial_type": "html-keyboard-response",
		"trial_index": 181,
		"time_elapsed": 1275476,
		"internal_node_id": "0.0-3.0-1.139"
	},
	{
		"rt": 2965,
		"stimulus": "<span style=\"font-size:30px; font-family: monospace\">espíritos</span>",
		"response": " ",
		"trial": "exp-sent",
		"word": "espíritos",
		"trial_type": "html-keyboard-response",
		"trial_index": 182,
		"time_elapsed": 1278692,
		"internal_node_id": "0.0-3.0-1.140"
	},
	{
		"rt": 1861,
		"stimulus": "<span style=\"font-size:30px; font-family: monospace\">e</span>",
		"response": " ",
		"trial": "exp-sent",
		"word": "e",
		"trial_type": "html-keyboard-response",
		"trial_index": 183,
		"time_elapsed": 1280804,
		"internal_node_id": "0.0-3.0-1.141"
	},
	{
		"rt": 2421,
		"stimulus": "<span style=\"font-size:30px; font-family: monospace\">em</span>",
		"response": " ",
		"trial": "exp-sent",
		"word": "em",
		"trial_type": "html-keyboard-response",
		"trial_index": 184,
		"time_elapsed": 1283476,
		"internal_node_id": "0.0-3.0-1.142"
	},
	{
		"rt": 2383,
		"stimulus": "<span style=\"font-size:30px; font-family: monospace\">outras</span>",
		"response": " ",
		"trial": "exp-sent",
		"word": "outras",
		"trial_type": "html-keyboard-response",
		"trial_index": 185,
		"time_elapsed": 1286116,
		"internal_node_id": "0.0-3.0-1.143"
	},
	{
		"rt": 2822,
		"stimulus": "<span style=\"font-size:30px; font-family: monospace\">vidas.</span>",
		"response": " ",
		"trial": "exp-sent",
		"word": "vidas.",
		"trial_type": "html-keyboard-response",
		"trial_index": 186,
		"time_elapsed": 1289188,
		"internal_node_id": "0.0-3.0-1.144"
	},
	{
		"rt": null,
		"stimulus": "<span style= \"font-size:30px; font-family: monospace\">+</span>",
		"response": null,
		"trial_part": "fixation",
		"trial_type": "html-keyboard-response",
		"trial_index": 187,
		"time_elapsed": 1290439,
		"internal_node_id": "0.0-3.0-0.145-0.145"
	},
	{
		"rt": 2641,
		"stimulus": "<span style=\"font-size:30px; font-family: monospace\">Ela</span>",
		"response": " ",
		"trial": "exp-sent",
		"word": "Ela",
		"trial_type": "html-keyboard-response",
		"trial_index": 188,
		"time_elapsed": 1293331,
		"internal_node_id": "0.0-3.0-1.145"
	},
	{
		"rt": 2021,
		"stimulus": "<span style=\"font-size:30px; font-family: monospace\">gosta</span>",
		"response": " ",
		"trial": "exp-sent",
		"word": "gosta",
		"trial_type": "html-keyboard-response",
		"trial_index": 189,
		"time_elapsed": 1295603,
		"internal_node_id": "0.0-3.0-1.146"
	},
	{
		"rt": 2102,
		"stimulus": "<span style=\"font-size:30px; font-family: monospace\">de</span>",
		"response": " ",
		"trial": "exp-sent",
		"word": "de",
		"trial_type": "html-keyboard-response",
		"trial_index": 190,
		"time_elapsed": 1297956,
		"internal_node_id": "0.0-3.0-1.147"
	},
	{
		"rt": 2901,
		"stimulus": "<span style=\"font-size:30px; font-family: monospace\">estudar</span>",
		"response": " ",
		"trial": "exp-sent",
		"word": "estudar",
		"trial_type": "html-keyboard-response",
		"trial_index": 191,
		"time_elapsed": 1301108,
		"internal_node_id": "0.0-3.0-1.148"
	},
	{
		"rt": 4948,
		"stimulus": "<span style=\"font-size:30px; font-family: monospace\">matemática</span>",
		"response": " ",
		"trial": "exp-sent",
		"word": "matemática",
		"trial_type": "html-keyboard-response",
		"trial_index": 192,
		"time_elapsed": 1306307,
		"internal_node_id": "0.0-3.0-1.149"
	},
	{
		"rt": 1973,
		"stimulus": "<span style=\"font-size:30px; font-family: monospace\">com</span>",
		"response": " ",
		"trial": "exp-sent",
		"word": "com",
		"trial_type": "html-keyboard-response",
		"trial_index": 193,
		"time_elapsed": 1308531,
		"internal_node_id": "0.0-3.0-1.150"
	},
	{
		"rt": 2789,
		"stimulus": "<span style=\"font-size:30px; font-family: monospace\">colegas.</span>",
		"response": " ",
		"trial": "comp",
		"word": "colegas.",
		"trial_type": "html-keyboard-response",
		"trial_index": 194,
		"time_elapsed": 1311572,
		"internal_node_id": "0.0-3.0-1.151"
	},
	{
		"rt": 14629,
		"stimulus": "<span style=\"font-size:30px; font-family: monospace\">Ela gosta de estudar física?</span>",
		"response": "s",
		"question": "Ela gosta de estudar física?",
		"answer": "não",
		"trial": "comp",
		"trial_type": "html-keyboard-response",
		"trial_index": 195,
		"time_elapsed": 1326451,
		"internal_node_id": "0.0-3.0-2.151-0.151",
		"accuracy": false
	},
	{
		"rt": null,
		"stimulus": "<span style= \"font-size:30px; font-family: monospace\">+</span>",
		"response": null,
		"trial_part": "fixation",
		"trial_type": "html-keyboard-response",
		"trial_index": 196,
		"time_elapsed": 1327954,
		"internal_node_id": "0.0-3.0-0.152-0.152"
	},
	{
		"rt": 2262,
		"stimulus": "<span style=\"font-size:30px; font-family: monospace\">Eu</span>",
		"response": " ",
		"trial": "exp-sent",
		"word": "Eu",
		"trial_type": "html-keyboard-response",
		"trial_index": 197,
		"time_elapsed": 1330467,
		"internal_node_id": "0.0-3.0-1.152"
	},
	{
		"rt": 3204,
		"stimulus": "<span style=\"font-size:30px; font-family: monospace\">gosto</span>",
		"response": " ",
		"trial": "exp-sent",
		"word": "gosto",
		"trial_type": "html-keyboard-response",
		"trial_index": 198,
		"time_elapsed": 1333923,
		"internal_node_id": "0.0-3.0-1.153"
	},
	{
		"rt": 1862,
		"stimulus": "<span style=\"font-size:30px; font-family: monospace\">de</span>",
		"response": " ",
		"trial": "exp-sent",
		"word": "de",
		"trial_type": "html-keyboard-response",
		"trial_index": 199,
		"time_elapsed": 1336035,
		"internal_node_id": "0.0-3.0-1.154"
	},
	{
		"rt": 4437,
		"stimulus": "<span style=\"font-size:30px; font-family: monospace\">molho</span>",
		"response": " ",
		"trial": "exp-sent",
		"word": "molho",
		"trial_type": "html-keyboard-response",
		"trial_index": 200,
		"time_elapsed": 1340723,
		"internal_node_id": "0.0-3.0-1.155"
	},
	{
		"rt": 3924,
		"stimulus": "<span style=\"font-size:30px; font-family: monospace\">picante</span>",
		"response": " ",
		"trial": "exp-sent",
		"word": "picante",
		"trial_type": "html-keyboard-response",
		"trial_index": 201,
		"time_elapsed": 1344899,
		"internal_node_id": "0.0-3.0-1.156"
	},
	{
		"rt": 2101,
		"stimulus": "<span style=\"font-size:30px; font-family: monospace\">nas</span>",
		"response": " ",
		"trial": "exp-sent",
		"word": "nas",
		"trial_type": "html-keyboard-response",
		"trial_index": 202,
		"time_elapsed": 1347251,
		"internal_node_id": "0.0-3.0-1.157"
	},
	{
		"rt": 2245,
		"stimulus": "<span style=\"font-size:30px; font-family: monospace\">batatas.</span>",
		"response": " ",
		"trial": "exp-sent",
		"word": "batatas.",
		"trial_type": "html-keyboard-response",
		"trial_index": 203,
		"time_elapsed": 1349747,
		"internal_node_id": "0.0-3.0-1.158"
	},
	{
		"rt": null,
		"stimulus": "<span style= \"font-size:30px; font-family: monospace\">+</span>",
		"response": null,
		"trial_part": "fixation",
		"trial_type": "html-keyboard-response",
		"trial_index": 204,
		"time_elapsed": 1351000,
		"internal_node_id": "0.0-3.0-0.159-0.159"
	},
	{
		"rt": 1426,
		"stimulus": "<span style=\"font-size:30px; font-family: monospace\">As</span>",
		"response": " ",
		"trial": "exp-sent",
		"word": "As",
		"trial_type": "html-keyboard-response",
		"trial_index": 205,
		"time_elapsed": 1352691,
		"internal_node_id": "0.0-3.0-1.159"
	},
	{
		"rt": 23894,
		"stimulus": "<span style=\"font-size:30px; font-family: monospace\">pessoas</span>",
		"response": " ",
		"trial": "exp-sent",
		"word": "pessoas",
		"trial_type": "html-keyboard-response",
		"trial_index": 206,
		"time_elapsed": 1376835,
		"internal_node_id": "0.0-3.0-1.160"
	},
	{
		"rt": 3429,
		"stimulus": "<span style=\"font-size:30px; font-family: monospace\">têm</span>",
		"response": " ",
		"trial": "exp-sent",
		"word": "têm",
		"trial_type": "html-keyboard-response",
		"trial_index": 207,
		"time_elapsed": 1380515,
		"internal_node_id": "0.0-3.0-1.161"
	},
	{
		"rt": 1765,
		"stimulus": "<span style=\"font-size:30px; font-family: monospace\">sua</span>",
		"response": " ",
		"trial": "exp-sent",
		"word": "sua",
		"trial_type": "html-keyboard-response",
		"trial_index": 208,
		"time_elapsed": 1382531,
		"internal_node_id": "0.0-3.0-1.162"
	},
	{
		"rt": 4518,
		"stimulus": "<span style=\"font-size:30px; font-family: monospace\">liberdade</span>",
		"response": " ",
		"trial": "exp-sent",
		"word": "liberdade",
		"trial_type": "html-keyboard-response",
		"trial_index": 209,
		"time_elapsed": 1387300,
		"internal_node_id": "0.0-3.0-1.163"
	},
	{
		"rt": 2116,
		"stimulus": "<span style=\"font-size:30px; font-family: monospace\">até</span>",
		"response": " ",
		"trial": "exp-sent",
		"word": "até",
		"trial_type": "html-keyboard-response",
		"trial_index": 210,
		"time_elapsed": 1389667,
		"internal_node_id": "0.0-3.0-1.164"
	},
	{
		"rt": 2998,
		"stimulus": "<span style=\"font-size:30px; font-family: monospace\">certo</span>",
		"response": " ",
		"trial": "exp-sent",
		"word": "certo",
		"trial_type": "html-keyboard-response",
		"trial_index": 211,
		"time_elapsed": 1392915,
		"internal_node_id": "0.0-3.0-1.165"
	},
	{
		"rt": 2596,
		"stimulus": "<span style=\"font-size:30px; font-family: monospace\">ponto.</span>",
		"response": " ",
		"trial": "exp-sent",
		"word": "ponto.",
		"trial_type": "html-keyboard-response",
		"trial_index": 212,
		"time_elapsed": 1395763,
		"internal_node_id": "0.0-3.0-1.166"
	},
	{
		"rt": null,
		"stimulus": "<span style= \"font-size:30px; font-family: monospace\">+</span>",
		"response": null,
		"trial_part": "fixation",
		"trial_type": "html-keyboard-response",
		"trial_index": 213,
		"time_elapsed": 1397014,
		"internal_node_id": "0.0-3.0-0.167-0.167"
	},
	{
		"rt": 14690,
		"stimulus": "<span style=\"font-size:30px; font-family: monospace\">A</span>",
		"response": " ",
		"trial": "exp-sent",
		"word": "A",
		"trial_type": "html-keyboard-response",
		"trial_index": 214,
		"time_elapsed": 1411955,
		"internal_node_id": "0.0-3.0-1.167"
	},
	{
		"rt": 3796,
		"stimulus": "<span style=\"font-size:30px; font-family: monospace\">empresa</span>",
		"response": " ",
		"trial": "exp-sent",
		"word": "empresa",
		"trial_type": "html-keyboard-response",
		"trial_index": 215,
		"time_elapsed": 1416002,
		"internal_node_id": "0.0-3.0-1.168"
	},
	{
		"rt": 3557,
		"stimulus": "<span style=\"font-size:30px; font-family: monospace\">enviou</span>",
		"response": " ",
		"trial": "exp-sent",
		"word": "enviou",
		"trial_type": "html-keyboard-response",
		"trial_index": 216,
		"time_elapsed": 1419810,
		"internal_node_id": "0.0-3.0-1.169"
	},
	{
		"rt": 2100,
		"stimulus": "<span style=\"font-size:30px; font-family: monospace\">o</span>",
		"response": " ",
		"trial": "exp-sent",
		"word": "o",
		"trial_type": "html-keyboard-response",
		"trial_index": 217,
		"time_elapsed": 1422162,
		"internal_node_id": "0.0-3.0-1.170"
	},
	{
		"rt": 4837,
		"stimulus": "<span style=\"font-size:30px; font-family: monospace\">aviso</span>",
		"response": " ",
		"trial": "exp-sent",
		"word": "aviso",
		"trial_type": "html-keyboard-response",
		"trial_index": 218,
		"time_elapsed": 1427250,
		"internal_node_id": "0.0-3.0-1.171"
	},
	{
		"rt": 4101,
		"stimulus": "<span style=\"font-size:30px; font-family: monospace\">hoje</span>",
		"response": " ",
		"trial": "exp-sent",
		"word": "hoje",
		"trial_type": "html-keyboard-response",
		"trial_index": 219,
		"time_elapsed": 1431603,
		"internal_node_id": "0.0-3.0-1.172"
	},
	{
		"rt": 2404,
		"stimulus": "<span style=\"font-size:30px; font-family: monospace\">de</span>",
		"response": " ",
		"trial": "exp-sent",
		"word": "de",
		"trial_type": "html-keyboard-response",
		"trial_index": 220,
		"time_elapsed": 1434259,
		"internal_node_id": "0.0-3.0-1.173"
	},
	{
		"rt": 5253,
		"stimulus": "<span style=\"font-size:30px; font-family: monospace\">tarde.</span>",
		"response": " ",
		"trial": "exp-sent",
		"word": "tarde.",
		"trial_type": "html-keyboard-response",
		"trial_index": 221,
		"time_elapsed": 1439762,
		"internal_node_id": "0.0-3.0-1.174"
	},
	{
		"rt": null,
		"stimulus": "<span style= \"font-size:30px; font-family: monospace\">+</span>",
		"response": null,
		"trial_part": "fixation",
		"trial_type": "html-keyboard-response",
		"trial_index": 222,
		"time_elapsed": 1441015,
		"internal_node_id": "0.0-3.0-0.175-0.175"
	},
	{
		"rt": 4897,
		"stimulus": "<span style=\"font-size:30px; font-family: monospace\">A</span>",
		"response": " ",
		"trial": "exp-sent",
		"word": "A",
		"trial_type": "html-keyboard-response",
		"trial_index": 223,
		"time_elapsed": 1446162,
		"internal_node_id": "0.0-3.0-1.175"
	},
	{
		"rt": 2533,
		"stimulus": "<span style=\"font-size:30px; font-family: monospace\">loja</span>",
		"response": " ",
		"trial": "exp-sent",
		"word": "loja",
		"trial_type": "html-keyboard-response",
		"trial_index": 224,
		"time_elapsed": 1448946,
		"internal_node_id": "0.0-3.0-1.176"
	},
	{
		"rt": 2164,
		"stimulus": "<span style=\"font-size:30px; font-family: monospace\">vende</span>",
		"response": " ",
		"trial": "exp-sent",
		"word": "vende",
		"trial_type": "html-keyboard-response",
		"trial_index": 225,
		"time_elapsed": 1451362,
		"internal_node_id": "0.0-3.0-1.177"
	},
	{
		"rt": 2213,
		"stimulus": "<span style=\"font-size:30px; font-family: monospace\">tanto</span>",
		"response": " ",
		"trial": "exp-sent",
		"word": "tanto",
		"trial_type": "html-keyboard-response",
		"trial_index": 226,
		"time_elapsed": 1453826,
		"internal_node_id": "0.0-3.0-1.178"
	},
	{
		"rt": 4021,
		"stimulus": "<span style=\"font-size:30px; font-family: monospace\">frituras</span>",
		"response": " ",
		"trial": "exp-sent",
		"word": "frituras",
		"trial_type": "html-keyboard-response",
		"trial_index": 227,
		"time_elapsed": 1458099,
		"internal_node_id": "0.0-3.0-1.179"
	},
	{
		"rt": 2645,
		"stimulus": "<span style=\"font-size:30px; font-family: monospace\">quanto</span>",
		"response": " ",
		"trial": "exp-sent",
		"word": "quanto",
		"trial_type": "html-keyboard-response",
		"trial_index": 228,
		"time_elapsed": 1460994,
		"internal_node_id": "0.0-3.0-1.180"
	},
	{
		"rt": 3413,
		"stimulus": "<span style=\"font-size:30px; font-family: monospace\">comidas</span>",
		"response": " ",
		"trial": "exp-sent",
		"word": "comidas",
		"trial_type": "html-keyboard-response",
		"trial_index": 229,
		"time_elapsed": 1464658,
		"internal_node_id": "0.0-3.0-1.181"
	},
	{
		"rt": 2437,
		"stimulus": "<span style=\"font-size:30px; font-family: monospace\">leves.</span>",
		"response": " ",
		"trial": "exp-sent",
		"word": "leves.",
		"trial_type": "html-keyboard-response",
		"trial_index": 230,
		"time_elapsed": 1467346,
		"internal_node_id": "0.0-3.0-1.182"
	},
	{
		"rt": null,
		"stimulus": "<span style= \"font-size:30px; font-family: monospace\">+</span>",
		"response": null,
		"trial_part": "fixation",
		"trial_type": "html-keyboard-response",
		"trial_index": 231,
		"time_elapsed": 1468598,
		"internal_node_id": "0.0-3.0-0.183-0.183"
	},
	{
		"rt": 491,
		"stimulus": "<span style=\"font-size:30px; font-family: monospace\">As</span>",
		"response": " ",
		"trial": "exp-sent",
		"word": "As",
		"trial_type": "html-keyboard-response",
		"trial_index": 232,
		"time_elapsed": 1469346,
		"internal_node_id": "0.0-3.0-1.183"
	},
	{
		"rt": 2532,
		"stimulus": "<span style=\"font-size:30px; font-family: monospace\">cadeiras</span>",
		"response": " ",
		"trial": "exp-sent",
		"word": "cadeiras",
		"trial_type": "html-keyboard-response",
		"trial_index": 233,
		"time_elapsed": 1472130,
		"internal_node_id": "0.0-3.0-1.184"
	},
	{
		"rt": 3173,
		"stimulus": "<span style=\"font-size:30px; font-family: monospace\">azuis</span>",
		"response": " ",
		"trial": "exp-sent",
		"word": "azuis",
		"trial_type": "html-keyboard-response",
		"trial_index": 234,
		"time_elapsed": 1475554,
		"internal_node_id": "0.0-3.0-1.185"
	},
	{
		"rt": 2453,
		"stimulus": "<span style=\"font-size:30px; font-family: monospace\">da</span>",
		"response": " ",
		"trial": "exp-sent",
		"word": "da",
		"trial_type": "html-keyboard-response",
		"trial_index": 235,
		"time_elapsed": 1478258,
		"internal_node_id": "0.0-3.0-1.186"
	},
	{
		"rt": 1973,
		"stimulus": "<span style=\"font-size:30px; font-family: monospace\">sala</span>",
		"response": " ",
		"trial": "exp-sent",
		"word": "sala",
		"trial_type": "html-keyboard-response",
		"trial_index": 236,
		"time_elapsed": 1480482,
		"internal_node_id": "0.0-3.0-1.187"
	},
	{
		"rt": 2517,
		"stimulus": "<span style=\"font-size:30px; font-family: monospace\">eram</span>",
		"response": " ",
		"trial": "exp-sent",
		"word": "eram",
		"trial_type": "html-keyboard-response",
		"trial_index": 237,
		"time_elapsed": 1483250,
		"internal_node_id": "0.0-3.0-1.188"
	},
	{
		"rt": 1669,
		"stimulus": "<span style=\"font-size:30px; font-family: monospace\">da</span>",
		"response": " ",
		"trial": "exp-sent",
		"word": "da",
		"trial_type": "html-keyboard-response",
		"trial_index": 238,
		"time_elapsed": 1485170,
		"internal_node_id": "0.0-3.0-1.189"
	},
	{
		"rt": 2470,
		"stimulus": "<span style=\"font-size:30px; font-family: monospace\">minha</span>",
		"response": " ",
		"trial": "exp-sent",
		"word": "minha",
		"trial_type": "html-keyboard-response",
		"trial_index": 239,
		"time_elapsed": 1487890,
		"internal_node_id": "0.0-3.0-1.190"
	},
	{
		"rt": 2165,
		"stimulus": "<span style=\"font-size:30px; font-family: monospace\">vó.</span>",
		"response": " ",
		"trial": "comp",
		"word": "vó.",
		"trial_type": "html-keyboard-response",
		"trial_index": 240,
		"time_elapsed": 1490306,
		"internal_node_id": "0.0-3.0-1.191"
	},
	{
		"rt": 39893,
		"stimulus": "<span style=\"font-size:30px; font-family: monospace\">As cadeiras eram da avó?</span>",
		"response": "n",
		"question": "As cadeiras eram da avó?",
		"answer": "sim",
		"trial": "comp",
		"trial_type": "html-keyboard-response",
		"trial_index": 241,
		"time_elapsed": 1530450,
		"internal_node_id": "0.0-3.0-2.191-0.191",
		"accuracy": false
	},
	{
		"rt": null,
		"stimulus": "<span style= \"font-size:30px; font-family: monospace\">+</span>",
		"response": null,
		"trial_part": "fixation",
		"trial_type": "html-keyboard-response",
		"trial_index": 242,
		"time_elapsed": 1531952,
		"internal_node_id": "0.0-3.0-0.192-0.192"
	},
	{
		"rt": 1783,
		"stimulus": "<span style=\"font-size:30px; font-family: monospace\">A</span>",
		"response": " ",
		"trial": "exp-sent",
		"word": "A",
		"trial_type": "html-keyboard-response",
		"trial_index": 243,
		"time_elapsed": 1533986,
		"internal_node_id": "0.0-3.0-1.192"
	},
	{
		"rt": 3269,
		"stimulus": "<span style=\"font-size:30px; font-family: monospace\">motorista</span>",
		"response": " ",
		"trial": "exp-sent",
		"word": "motorista",
		"trial_type": "html-keyboard-response",
		"trial_index": 244,
		"time_elapsed": 1537506,
		"internal_node_id": "0.0-3.0-1.193"
	},
	{
		"rt": 1925,
		"stimulus": "<span style=\"font-size:30px; font-family: monospace\">fez</span>",
		"response": " ",
		"trial": "exp-sent",
		"word": "fez",
		"trial_type": "html-keyboard-response",
		"trial_index": 245,
		"time_elapsed": 1539682,
		"internal_node_id": "0.0-3.0-1.194"
	},
	{
		"rt": 1781,
		"stimulus": "<span style=\"font-size:30px; font-family: monospace\">o</span>",
		"response": " ",
		"trial": "exp-sent",
		"word": "o",
		"trial_type": "html-keyboard-response",
		"trial_index": 246,
		"time_elapsed": 1541714,
		"internal_node_id": "0.0-3.0-1.195"
	},
	{
		"rt": 3109,
		"stimulus": "<span style=\"font-size:30px; font-family: monospace\">retorno</span>",
		"response": " ",
		"trial": "exp-sent",
		"word": "retorno",
		"trial_type": "html-keyboard-response",
		"trial_index": 247,
		"time_elapsed": 1545074,
		"internal_node_id": "0.0-3.0-1.196"
	},
	{
		"rt": 2021,
		"stimulus": "<span style=\"font-size:30px; font-family: monospace\">com</span>",
		"response": " ",
		"trial": "exp-sent",
		"word": "com",
		"trial_type": "html-keyboard-response",
		"trial_index": 248,
		"time_elapsed": 1547346,
		"internal_node_id": "0.0-3.0-1.197"
	},
	{
		"rt": 2869,
		"stimulus": "<span style=\"font-size:30px; font-family: monospace\">cuidado.</span>",
		"response": " ",
		"trial": "exp-sent",
		"word": "cuidado.",
		"trial_type": "html-keyboard-response",
		"trial_index": 249,
		"time_elapsed": 1550466,
		"internal_node_id": "0.0-3.0-1.198"
	},
	{
		"rt": null,
		"stimulus": "<span style= \"font-size:30px; font-family: monospace\">+</span>",
		"response": null,
		"trial_part": "fixation",
		"trial_type": "html-keyboard-response",
		"trial_index": 250,
		"time_elapsed": 1551718,
		"internal_node_id": "0.0-3.0-0.199-0.199"
	},
	{
		"rt": 3008,
		"stimulus": "<span style=\"font-size:30px; font-family: monospace\">Contos</span>",
		"response": " ",
		"trial": "exp-sent",
		"word": "Contos",
		"trial_type": "html-keyboard-response",
		"trial_index": 251,
		"time_elapsed": 1554978,
		"internal_node_id": "0.0-3.0-1.199"
	},
	{
		"rt": 1780,
		"stimulus": "<span style=\"font-size:30px; font-family: monospace\">de</span>",
		"response": " ",
		"trial": "exp-sent",
		"word": "de",
		"trial_type": "html-keyboard-response",
		"trial_index": 252,
		"time_elapsed": 1557010,
		"internal_node_id": "0.0-3.0-1.200"
	},
	{
		"rt": 2068,
		"stimulus": "<span style=\"font-size:30px; font-family: monospace\">ação</span>",
		"response": " ",
		"trial": "exp-sent",
		"word": "ação",
		"trial_type": "html-keyboard-response",
		"trial_index": 253,
		"time_elapsed": 1559329,
		"internal_node_id": "0.0-3.0-1.201"
	},
	{
		"rt": 2341,
		"stimulus": "<span style=\"font-size:30px; font-family: monospace\">têm</span>",
		"response": " ",
		"trial": "exp-sent",
		"word": "têm",
		"trial_type": "html-keyboard-response",
		"trial_index": 254,
		"time_elapsed": 1561922,
		"internal_node_id": "0.0-3.0-1.202"
	},
	{
		"rt": 7924,
		"stimulus": "<span style=\"font-size:30px; font-family: monospace\">chantagem</span>",
		"response": " ",
		"trial": "exp-sent",
		"word": "chantagem",
		"trial_type": "html-keyboard-response",
		"trial_index": 255,
		"time_elapsed": 1570098,
		"internal_node_id": "0.0-3.0-1.203"
	},
	{
		"rt": 1813,
		"stimulus": "<span style=\"font-size:30px; font-family: monospace\">e</span>",
		"response": " ",
		"trial": "exp-sent",
		"word": "e",
		"trial_type": "html-keyboard-response",
		"trial_index": 256,
		"time_elapsed": 1572162,
		"internal_node_id": "0.0-3.0-1.204"
	},
	{
		"rt": 1829,
		"stimulus": "<span style=\"font-size:30px; font-family: monospace\">muita</span>",
		"response": " ",
		"trial": "exp-sent",
		"word": "muita",
		"trial_type": "html-keyboard-response",
		"trial_index": 257,
		"time_elapsed": 1574242,
		"internal_node_id": "0.0-3.0-1.205"
	},
	{
		"rt": 2277,
		"stimulus": "<span style=\"font-size:30px; font-family: monospace\">luta.</span>",
		"response": " ",
		"trial": "exp-sent",
		"word": "luta.",
		"trial_type": "html-keyboard-response",
		"trial_index": 258,
		"time_elapsed": 1576769,
		"internal_node_id": "0.0-3.0-1.206"
	},
	{
		"rt": null,
		"stimulus": "<span style= \"font-size:30px; font-family: monospace\">+</span>",
		"response": null,
		"trial_part": "fixation",
		"trial_type": "html-keyboard-response",
		"trial_index": 259,
		"time_elapsed": 1578021,
		"internal_node_id": "0.0-3.0-0.207-0.207"
	},
	{
		"rt": 946,
		"stimulus": "<span style=\"font-size:30px; font-family: monospace\">A</span>",
		"response": " ",
		"trial": "exp-sent",
		"word": "A",
		"trial_type": "html-keyboard-response",
		"trial_index": 260,
		"time_elapsed": 1579218,
		"internal_node_id": "0.0-3.0-1.207"
	},
	{
		"rt": 5509,
		"stimulus": "<span style=\"font-size:30px; font-family: monospace\">bisavó</span>",
		"response": " ",
		"trial": "exp-sent",
		"word": "bisavó",
		"trial_type": "html-keyboard-response",
		"trial_index": 261,
		"time_elapsed": 1584978,
		"internal_node_id": "0.0-3.0-1.208"
	},
	{
		"rt": 3317,
		"stimulus": "<span style=\"font-size:30px; font-family: monospace\">recebeu</span>",
		"response": " ",
		"trial": "exp-sent",
		"word": "recebeu",
		"trial_type": "html-keyboard-response",
		"trial_index": 262,
		"time_elapsed": 1588545,
		"internal_node_id": "0.0-3.0-1.209"
	},
	{
		"rt": 2149,
		"stimulus": "<span style=\"font-size:30px; font-family: monospace\">um</span>",
		"response": " ",
		"trial": "exp-sent",
		"word": "um",
		"trial_type": "html-keyboard-response",
		"trial_index": 263,
		"time_elapsed": 1590946,
		"internal_node_id": "0.0-3.0-1.210"
	},
	{
		"rt": 2933,
		"stimulus": "<span style=\"font-size:30px; font-family: monospace\">benefício</span>",
		"response": " ",
		"trial": "exp-sent",
		"word": "benefício",
		"trial_type": "html-keyboard-response",
		"trial_index": 264,
		"time_elapsed": 1594129,
		"internal_node_id": "0.0-3.0-1.211"
	},
	{
		"rt": 5461,
		"stimulus": "<span style=\"font-size:30px; font-family: monospace\">temporário</span>",
		"response": " ",
		"trial": "exp-sent",
		"word": "temporário",
		"trial_type": "html-keyboard-response",
		"trial_index": 265,
		"time_elapsed": 1599841,
		"internal_node_id": "0.0-3.0-1.212"
	},
	{
		"rt": 1652,
		"stimulus": "<span style=\"font-size:30px; font-family: monospace\">do</span>",
		"response": " ",
		"trial": "exp-sent",
		"word": "do",
		"trial_type": "html-keyboard-response",
		"trial_index": 266,
		"time_elapsed": 1601745,
		"internal_node_id": "0.0-3.0-1.213"
	},
	{
		"rt": 4037,
		"stimulus": "<span style=\"font-size:30px; font-family: monospace\">governo.</span>",
		"response": " ",
		"trial": "exp-sent",
		"word": "governo.",
		"trial_type": "html-keyboard-response",
		"trial_index": 267,
		"time_elapsed": 1606033,
		"internal_node_id": "0.0-3.0-1.214"
	},
	{
		"rt": null,
		"stimulus": "<span style= \"font-size:30px; font-family: monospace\">+</span>",
		"response": null,
		"trial_part": "fixation",
		"trial_type": "html-keyboard-response",
		"trial_index": 268,
		"time_elapsed": 1607285,
		"internal_node_id": "0.0-3.0-0.215-0.215"
	},
	{
		"rt": 2305,
		"stimulus": "<span style=\"font-size:30px; font-family: monospace\">As</span>",
		"response": " ",
		"trial": "exp-sent",
		"word": "As",
		"trial_type": "html-keyboard-response",
		"trial_index": 269,
		"time_elapsed": 1609841,
		"internal_node_id": "0.0-3.0-1.215"
	},
	{
		"rt": 2709,
		"stimulus": "<span style=\"font-size:30px; font-family: monospace\">crianças</span>",
		"response": " ",
		"trial": "exp-sent",
		"word": "crianças",
		"trial_type": "html-keyboard-response",
		"trial_index": 270,
		"time_elapsed": 1612801,
		"internal_node_id": "0.0-3.0-1.216"
	},
	{
		"rt": 3043,
		"stimulus": "<span style=\"font-size:30px; font-family: monospace\">brincaram</span>",
		"response": " ",
		"trial": "exp-sent",
		"word": "brincaram",
		"trial_type": "html-keyboard-response",
		"trial_index": 271,
		"time_elapsed": 1616097,
		"internal_node_id": "0.0-3.0-1.217"
	},
	{
		"rt": 2357,
		"stimulus": "<span style=\"font-size:30px; font-family: monospace\">no</span>",
		"response": " ",
		"trial": "exp-sent",
		"word": "no",
		"trial_type": "html-keyboard-response",
		"trial_index": 272,
		"time_elapsed": 1618705,
		"internal_node_id": "0.0-3.0-1.218"
	},
	{
		"rt": 3205,
		"stimulus": "<span style=\"font-size:30px; font-family: monospace\">balanço</span>",
		"response": " ",
		"trial": "exp-sent",
		"word": "balanço",
		"trial_type": "html-keyboard-response",
		"trial_index": 273,
		"time_elapsed": 1622161,
		"internal_node_id": "0.0-3.0-1.219"
	},
	{
		"rt": 2020,
		"stimulus": "<span style=\"font-size:30px; font-family: monospace\">a</span>",
		"response": " ",
		"trial": "exp-sent",
		"word": "a",
		"trial_type": "html-keyboard-response",
		"trial_index": 274,
		"time_elapsed": 1624433,
		"internal_node_id": "0.0-3.0-1.220"
	},
	{
		"rt": 2324,
		"stimulus": "<span style=\"font-size:30px; font-family: monospace\">tarde</span>",
		"response": " ",
		"trial": "exp-sent",
		"word": "tarde",
		"trial_type": "html-keyboard-response",
		"trial_index": 275,
		"time_elapsed": 1627009,
		"internal_node_id": "0.0-3.0-1.221"
	},
	{
		"rt": 3124,
		"stimulus": "<span style=\"font-size:30px; font-family: monospace\">toda.</span>",
		"response": " ",
		"trial": "exp-sent",
		"word": "toda.",
		"trial_type": "html-keyboard-response",
		"trial_index": 276,
		"time_elapsed": 1630385,
		"internal_node_id": "0.0-3.0-1.222"
	},
	{
		"rt": null,
		"stimulus": "<span style= \"font-size:30px; font-family: monospace\">+</span>",
		"response": null,
		"trial_part": "fixation",
		"trial_type": "html-keyboard-response",
		"trial_index": 277,
		"time_elapsed": 1631637,
		"internal_node_id": "0.0-3.0-0.223-0.223"
	},
	{
		"rt": 1841,
		"stimulus": "<span style=\"font-size:30px; font-family: monospace\">Ela</span>",
		"response": " ",
		"trial": "exp-sent",
		"word": "Ela",
		"trial_type": "html-keyboard-response",
		"trial_index": 278,
		"time_elapsed": 1633729,
		"internal_node_id": "0.0-3.0-1.223"
	},
	{
		"rt": 2118,
		"stimulus": "<span style=\"font-size:30px; font-family: monospace\">gosta</span>",
		"response": " ",
		"trial": "exp-sent",
		"word": "gosta",
		"trial_type": "html-keyboard-response",
		"trial_index": 279,
		"time_elapsed": 1636097,
		"internal_node_id": "0.0-3.0-1.224"
	},
	{
		"rt": 1780,
		"stimulus": "<span style=\"font-size:30px; font-family: monospace\">de</span>",
		"response": " ",
		"trial": "exp-sent",
		"word": "de",
		"trial_type": "html-keyboard-response",
		"trial_index": 280,
		"time_elapsed": 1638129,
		"internal_node_id": "0.0-3.0-1.225"
	},
	{
		"rt": 1989,
		"stimulus": "<span style=\"font-size:30px; font-family: monospace\">comida</span>",
		"response": " ",
		"trial": "exp-sent",
		"word": "comida",
		"trial_type": "html-keyboard-response",
		"trial_index": 281,
		"time_elapsed": 1640369,
		"internal_node_id": "0.0-3.0-1.226"
	},
	{
		"rt": 3365,
		"stimulus": "<span style=\"font-size:30px; font-family: monospace\">natural</span>",
		"response": " ",
		"trial": "exp-sent",
		"word": "natural",
		"trial_type": "html-keyboard-response",
		"trial_index": 282,
		"time_elapsed": 1643985,
		"internal_node_id": "0.0-3.0-1.227"
	},
	{
		"rt": 1813,
		"stimulus": "<span style=\"font-size:30px; font-family: monospace\">no</span>",
		"response": " ",
		"trial": "exp-sent",
		"word": "no",
		"trial_type": "html-keyboard-response",
		"trial_index": 283,
		"time_elapsed": 1646049,
		"internal_node_id": "0.0-3.0-1.228"
	},
	{
		"rt": 2309,
		"stimulus": "<span style=\"font-size:30px; font-family: monospace\">almoço.</span>",
		"response": " ",
		"trial": "comp",
		"word": "almoço.",
		"trial_type": "html-keyboard-response",
		"trial_index": 284,
		"time_elapsed": 1648609,
		"internal_node_id": "0.0-3.0-1.229"
	},
	{
		"rt": 11365,
		"stimulus": "<span style=\"font-size:30px; font-family: monospace\">Ela gosta de comida natural no almoço?</span>",
		"response": "s",
		"question": "Ela gosta de comida natural no almoço?",
		"answer": "sim",
		"trial": "comp",
		"trial_type": "html-keyboard-response",
		"trial_index": 285,
		"time_elapsed": 1660225,
		"internal_node_id": "0.0-3.0-2.229-0.229",
		"accuracy": false
	},
	{
		"rt": null,
		"stimulus": "<span style= \"font-size:30px; font-family: monospace\">+</span>",
		"response": null,
		"trial_part": "fixation",
		"trial_type": "html-keyboard-response",
		"trial_index": 286,
		"time_elapsed": 1661727,
		"internal_node_id": "0.0-3.0-0.230-0.230"
	},
	{
		"rt": 3318,
		"stimulus": "<span style=\"font-size:30px; font-family: monospace\">Barulho</span>",
		"response": " ",
		"trial": "exp-sent",
		"word": "Barulho",
		"trial_type": "html-keyboard-response",
		"trial_index": 287,
		"time_elapsed": 1665297,
		"internal_node_id": "0.0-3.0-1.230"
	},
	{
		"rt": 2095,
		"stimulus": "<span style=\"font-size:30px; font-family: monospace\">de</span>",
		"response": " ",
		"trial": "exp-sent",
		"word": "de",
		"trial_type": "html-keyboard-response",
		"trial_index": 288,
		"time_elapsed": 1667649,
		"internal_node_id": "0.0-3.0-1.231"
	},
	{
		"rt": 2308,
		"stimulus": "<span style=\"font-size:30px; font-family: monospace\">carros</span>",
		"response": " ",
		"trial": "exp-sent",
		"word": "carros",
		"trial_type": "html-keyboard-response",
		"trial_index": 289,
		"time_elapsed": 1670209,
		"internal_node_id": "0.0-3.0-1.232"
	},
	{
		"rt": 2437,
		"stimulus": "<span style=\"font-size:30px; font-family: monospace\">é</span>",
		"response": " ",
		"trial": "exp-sent",
		"word": "é",
		"trial_type": "html-keyboard-response",
		"trial_index": 290,
		"time_elapsed": 1672897,
		"internal_node_id": "0.0-3.0-1.233"
	},
	{
		"rt": 4820,
		"stimulus": "<span style=\"font-size:30px; font-family: monospace\">irritante</span>",
		"response": " ",
		"trial": "exp-sent",
		"word": "irritante",
		"trial_type": "html-keyboard-response",
		"trial_index": 291,
		"time_elapsed": 1677968,
		"internal_node_id": "0.0-3.0-1.234"
	},
	{
		"rt": 2069,
		"stimulus": "<span style=\"font-size:30px; font-family: monospace\">para</span>",
		"response": " ",
		"trial": "exp-sent",
		"word": "para",
		"trial_type": "html-keyboard-response",
		"trial_index": 292,
		"time_elapsed": 1680289,
		"internal_node_id": "0.0-3.0-1.235"
	},
	{
		"rt": 1301,
		"stimulus": "<span style=\"font-size:30px; font-family: monospace\">a</span>",
		"response": " ",
		"trial": "exp-sent",
		"word": "a",
		"trial_type": "html-keyboard-response",
		"trial_index": 293,
		"time_elapsed": 1681841,
		"internal_node_id": "0.0-3.0-1.236"
	},
	{
		"rt": 661,
		"stimulus": "<span style=\"font-size:30px; font-family: monospace\">moça.</span>",
		"response": " ",
		"trial": "exp-sent",
		"word": "moça.",
		"trial_type": "html-keyboard-response",
		"trial_index": 294,
		"time_elapsed": 1682753,
		"internal_node_id": "0.0-3.0-1.237"
	},
	{
		"rt": null,
		"stimulus": "<span style= \"font-size:30px; font-family: monospace\">+</span>",
		"response": null,
		"trial_part": "fixation",
		"trial_type": "html-keyboard-response",
		"trial_index": 295,
		"time_elapsed": 1684005,
		"internal_node_id": "0.0-3.0-0.238-0.238"
	},
	{
		"rt": 1105,
		"stimulus": "<span style=\"font-size:30px; font-family: monospace\">A</span>",
		"response": " ",
		"trial": "exp-sent",
		"word": "A",
		"trial_type": "html-keyboard-response",
		"trial_index": 296,
		"time_elapsed": 1685360,
		"internal_node_id": "0.0-3.0-1.238"
	},
	{
		"rt": 1973,
		"stimulus": "<span style=\"font-size:30px; font-family: monospace\">loja</span>",
		"response": " ",
		"trial": "exp-sent",
		"word": "loja",
		"trial_type": "html-keyboard-response",
		"trial_index": 297,
		"time_elapsed": 1687585,
		"internal_node_id": "0.0-3.0-1.239"
	},
	{
		"rt": 2053,
		"stimulus": "<span style=\"font-size:30px; font-family: monospace\">também</span>",
		"response": " ",
		"trial": "exp-sent",
		"word": "também",
		"trial_type": "html-keyboard-response",
		"trial_index": 298,
		"time_elapsed": 1689888,
		"internal_node_id": "0.0-3.0-1.240"
	},
	{
		"rt": 2293,
		"stimulus": "<span style=\"font-size:30px; font-family: monospace\">vende</span>",
		"response": " ",
		"trial": "exp-sent",
		"word": "vende",
		"trial_type": "html-keyboard-response",
		"trial_index": 299,
		"time_elapsed": 1692433,
		"internal_node_id": "0.0-3.0-1.241"
	},
	{
		"rt": 2117,
		"stimulus": "<span style=\"font-size:30px; font-family: monospace\">taça</span>",
		"response": " ",
		"trial": "exp-sent",
		"word": "taça",
		"trial_type": "html-keyboard-response",
		"trial_index": 300,
		"time_elapsed": 1694801,
		"internal_node_id": "0.0-3.0-1.242"
	},
	{
		"rt": 2069,
		"stimulus": "<span style=\"font-size:30px; font-family: monospace\">de</span>",
		"response": " ",
		"trial": "exp-sent",
		"word": "de",
		"trial_type": "html-keyboard-response",
		"trial_index": 301,
		"time_elapsed": 1697121,
		"internal_node_id": "0.0-3.0-1.243"
	},
	{
		"rt": 1765,
		"stimulus": "<span style=\"font-size:30px; font-family: monospace\">vinho</span>",
		"response": " ",
		"trial": "exp-sent",
		"word": "vinho",
		"trial_type": "html-keyboard-response",
		"trial_index": 302,
		"time_elapsed": 1699137,
		"internal_node_id": "0.0-3.0-1.244"
	},
	{
		"rt": 1988,
		"stimulus": "<span style=\"font-size:30px; font-family: monospace\">e</span>",
		"response": " ",
		"trial": "exp-sent",
		"word": "e",
		"trial_type": "html-keyboard-response",
		"trial_index": 303,
		"time_elapsed": 1701376,
		"internal_node_id": "0.0-3.0-1.245"
	},
	{
		"rt": 6966,
		"stimulus": "<span style=\"font-size:30px; font-family: monospace\">espumante.</span>",
		"response": " ",
		"trial": "exp-sent",
		"word": "espumante.",
		"trial_type": "html-keyboard-response",
		"trial_index": 304,
		"time_elapsed": 1708593,
		"internal_node_id": "0.0-3.0-1.246"
	},
	{
		"rt": null,
		"stimulus": "<span style= \"font-size:30px; font-family: monospace\">+</span>",
		"response": null,
		"trial_part": "fixation",
		"trial_type": "html-keyboard-response",
		"trial_index": 305,
		"time_elapsed": 1709845,
		"internal_node_id": "0.0-3.0-0.247-0.247"
	},
	{
		"rt": 4304,
		"stimulus": "<span style=\"font-size:30px; font-family: monospace\">A</span>",
		"response": " ",
		"trial": "exp-sent",
		"word": "A",
		"trial_type": "html-keyboard-response",
		"trial_index": 306,
		"time_elapsed": 1714401,
		"internal_node_id": "0.0-3.0-1.247"
	},
	{
		"rt": 7574,
		"stimulus": "<span style=\"font-size:30px; font-family: monospace\">bruxa</span>",
		"response": " ",
		"trial": "exp-sent",
		"word": "bruxa",
		"trial_type": "html-keyboard-response",
		"trial_index": 307,
		"time_elapsed": 1722224,
		"internal_node_id": "0.0-3.0-1.248"
	},
	{
		"rt": 2708,
		"stimulus": "<span style=\"font-size:30px; font-family: monospace\">tinha</span>",
		"response": " ",
		"trial": "exp-sent",
		"word": "tinha",
		"trial_type": "html-keyboard-response",
		"trial_index": 308,
		"time_elapsed": 1725184,
		"internal_node_id": "0.0-3.0-1.249"
	},
	{
		"rt": 3237,
		"stimulus": "<span style=\"font-size:30px; font-family: monospace\">uma</span>",
		"response": " ",
		"trial": "exp-sent",
		"word": "uma",
		"trial_type": "html-keyboard-response",
		"trial_index": 309,
		"time_elapsed": 1728672,
		"internal_node_id": "0.0-3.0-1.250"
	},
	{
		"rt": 5077,
		"stimulus": "<span style=\"font-size:30px; font-family: monospace\">vassoura</span>",
		"response": " ",
		"trial": "exp-sent",
		"word": "vassoura",
		"trial_type": "html-keyboard-response",
		"trial_index": 310,
		"time_elapsed": 1734001,
		"internal_node_id": "0.0-3.0-1.251"
	},
	{
		"rt": 2340,
		"stimulus": "<span style=\"font-size:30px; font-family: monospace\">e</span>",
		"response": " ",
		"trial": "exp-sent",
		"word": "e",
		"trial_type": "html-keyboard-response",
		"trial_index": 311,
		"time_elapsed": 1736592,
		"internal_node_id": "0.0-3.0-1.252"
	},
	{
		"rt": 2773,
		"stimulus": "<span style=\"font-size:30px; font-family: monospace\">um</span>",
		"response": " ",
		"trial": "exp-sent",
		"word": "um",
		"trial_type": "html-keyboard-response",
		"trial_index": 312,
		"time_elapsed": 1739616,
		"internal_node_id": "0.0-3.0-1.253"
	},
	{
		"rt": 3733,
		"stimulus": "<span style=\"font-size:30px; font-family: monospace\">gato.</span>",
		"response": " ",
		"trial": "exp-sent",
		"word": "gato.",
		"trial_type": "html-keyboard-response",
		"trial_index": 313,
		"time_elapsed": 1743600,
		"internal_node_id": "0.0-3.0-1.254"
	},
	{
		"rt": null,
		"stimulus": "<span style= \"font-size:30px; font-family: monospace\">+</span>",
		"response": null,
		"trial_part": "fixation",
		"trial_type": "html-keyboard-response",
		"trial_index": 314,
		"time_elapsed": 1744852,
		"internal_node_id": "0.0-3.0-0.255-0.255"
	},
	{
		"rt": 1346,
		"stimulus": "<span style=\"font-size:30px; font-family: monospace\">Eu</span>",
		"response": " ",
		"trial": "exp-sent",
		"word": "Eu",
		"trial_type": "html-keyboard-response",
		"trial_index": 315,
		"time_elapsed": 1746448,
		"internal_node_id": "0.0-3.0-1.255"
	},
	{
		"rt": 2405,
		"stimulus": "<span style=\"font-size:30px; font-family: monospace\">me</span>",
		"response": " ",
		"trial": "exp-sent",
		"word": "me",
		"trial_type": "html-keyboard-response",
		"trial_index": 316,
		"time_elapsed": 1749104,
		"internal_node_id": "0.0-3.0-1.256"
	},
	{
		"rt": 3349,
		"stimulus": "<span style=\"font-size:30px; font-family: monospace\">divirto</span>",
		"response": " ",
		"trial": "exp-sent",
		"word": "divirto",
		"trial_type": "html-keyboard-response",
		"trial_index": 317,
		"time_elapsed": 1752704,
		"internal_node_id": "0.0-3.0-1.257"
	},
	{
		"rt": 2981,
		"stimulus": "<span style=\"font-size:30px; font-family: monospace\">em</span>",
		"response": " ",
		"trial": "exp-sent",
		"word": "em",
		"trial_type": "html-keyboard-response",
		"trial_index": 318,
		"time_elapsed": 1755936,
		"internal_node_id": "0.0-3.0-1.258"
	},
	{
		"rt": 3749,
		"stimulus": "<span style=\"font-size:30px; font-family: monospace\">festas</span>",
		"response": " ",
		"trial": "exp-sent",
		"word": "festas",
		"trial_type": "html-keyboard-response",
		"trial_index": 319,
		"time_elapsed": 1759936,
		"internal_node_id": "0.0-3.0-1.259"
	},
	{
		"rt": 2308,
		"stimulus": "<span style=\"font-size:30px; font-family: monospace\">de</span>",
		"response": " ",
		"trial": "exp-sent",
		"word": "de",
		"trial_type": "html-keyboard-response",
		"trial_index": 320,
		"time_elapsed": 1762496,
		"internal_node_id": "0.0-3.0-1.260"
	},
	{
		"rt": 6820,
		"stimulus": "<span style=\"font-size:30px; font-family: monospace\">criança.</span>",
		"response": " ",
		"trial": "exp-sent",
		"word": "criança.",
		"trial_type": "html-keyboard-response",
		"trial_index": 321,
		"time_elapsed": 1769568,
		"internal_node_id": "0.0-3.0-1.261"
	},
	{
		"rt": null,
		"stimulus": "<span style= \"font-size:30px; font-family: monospace\">+</span>",
		"response": null,
		"trial_part": "fixation",
		"trial_type": "html-keyboard-response",
		"trial_index": 322,
		"time_elapsed": 1770821,
		"internal_node_id": "0.0-3.0-0.262-0.262"
	},
	{
		"rt": 1393,
		"stimulus": "<span style=\"font-size:30px; font-family: monospace\">A</span>",
		"response": " ",
		"trial": "exp-sent",
		"word": "A",
		"trial_type": "html-keyboard-response",
		"trial_index": 323,
		"time_elapsed": 1772464,
		"internal_node_id": "0.0-3.0-1.262"
	},
	{
		"rt": 5044,
		"stimulus": "<span style=\"font-size:30px; font-family: monospace\">janela</span>",
		"response": " ",
		"trial": "exp-sent",
		"word": "janela",
		"trial_type": "html-keyboard-response",
		"trial_index": 324,
		"time_elapsed": 1777760,
		"internal_node_id": "0.0-3.0-1.263"
	},
	{
		"rt": 2005,
		"stimulus": "<span style=\"font-size:30px; font-family: monospace\">alta</span>",
		"response": " ",
		"trial": "exp-sent",
		"word": "alta",
		"trial_type": "html-keyboard-response",
		"trial_index": 325,
		"time_elapsed": 1780016,
		"internal_node_id": "0.0-3.0-1.264"
	},
	{
		"rt": 2724,
		"stimulus": "<span style=\"font-size:30px; font-family: monospace\">estava</span>",
		"response": " ",
		"trial": "exp-sent",
		"word": "estava",
		"trial_type": "html-keyboard-response",
		"trial_index": 326,
		"time_elapsed": 1782992,
		"internal_node_id": "0.0-3.0-1.265"
	},
	{
		"rt": 4501,
		"stimulus": "<span style=\"font-size:30px; font-family: monospace\">quebrada</span>",
		"response": " ",
		"trial": "exp-sent",
		"word": "quebrada",
		"trial_type": "html-keyboard-response",
		"trial_index": 327,
		"time_elapsed": 1787744,
		"internal_node_id": "0.0-3.0-1.266"
	},
	{
		"rt": 2692,
		"stimulus": "<span style=\"font-size:30px; font-family: monospace\">desde</span>",
		"response": " ",
		"trial": "exp-sent",
		"word": "desde",
		"trial_type": "html-keyboard-response",
		"trial_index": 328,
		"time_elapsed": 1790688,
		"internal_node_id": "0.0-3.0-1.267"
	},
	{
		"rt": 2902,
		"stimulus": "<span style=\"font-size:30px; font-family: monospace\">ontem.</span>",
		"response": " ",
		"trial": "comp",
		"word": "ontem.",
		"trial_type": "html-keyboard-response",
		"trial_index": 329,
		"time_elapsed": 1793840,
		"internal_node_id": "0.0-3.0-1.268"
	},
	{
		"rt": 26116,
		"stimulus": "<span style=\"font-size:30px; font-family: monospace\">A janela alta estava quebrada?</span>",
		"response": "s",
		"question": "A janela alta estava quebrada?",
		"answer": "sim",
		"trial": "comp",
		"trial_type": "html-keyboard-response",
		"trial_index": 330,
		"time_elapsed": 1820208,
		"internal_node_id": "0.0-3.0-2.268-0.268",
		"accuracy": false
	},
	{
		"rt": null,
		"stimulus": "<span style= \"font-size:30px; font-family: monospace\">+</span>",
		"response": null,
		"trial_part": "fixation",
		"trial_type": "html-keyboard-response",
		"trial_index": 331,
		"time_elapsed": 1821710,
		"internal_node_id": "0.0-3.0-0.269-0.269"
	},
	{
		"rt": 3623,
		"stimulus": "<span style=\"font-size:30px; font-family: monospace\">Ursos</span>",
		"response": " ",
		"trial": "exp-sent",
		"word": "Ursos",
		"trial_type": "html-keyboard-response",
		"trial_index": 332,
		"time_elapsed": 1825584,
		"internal_node_id": "0.0-3.0-1.269"
	},
	{
		"rt": 3701,
		"stimulus": "<span style=\"font-size:30px; font-family: monospace\">têm</span>",
		"response": " ",
		"trial": "exp-sent",
		"word": "têm",
		"trial_type": "html-keyboard-response",
		"trial_index": 333,
		"time_elapsed": 1829536,
		"internal_node_id": "0.0-3.0-1.270"
	},
	{
		"rt": 2325,
		"stimulus": "<span style=\"font-size:30px; font-family: monospace\">uma</span>",
		"response": " ",
		"trial": "exp-sent",
		"word": "uma",
		"trial_type": "html-keyboard-response",
		"trial_index": 334,
		"time_elapsed": 1832112,
		"internal_node_id": "0.0-3.0-1.271"
	},
	{
		"rt": 8470,
		"stimulus": "<span style=\"font-size:30px; font-family: monospace\">patada</span>",
		"response": " ",
		"trial": "exp-sent",
		"word": "patada",
		"trial_type": "html-keyboard-response",
		"trial_index": 335,
		"time_elapsed": 1840831,
		"internal_node_id": "0.0-3.0-1.272"
	},
	{
		"rt": 4436,
		"stimulus": "<span style=\"font-size:30px; font-family: monospace\">brutal</span>",
		"response": " ",
		"trial": "exp-sent",
		"word": "brutal",
		"trial_type": "html-keyboard-response",
		"trial_index": 336,
		"time_elapsed": 1845519,
		"internal_node_id": "0.0-3.0-1.273"
	},
	{
		"rt": 2421,
		"stimulus": "<span style=\"font-size:30px; font-family: monospace\">e</span>",
		"response": " ",
		"trial": "exp-sent",
		"word": "e",
		"trial_type": "html-keyboard-response",
		"trial_index": 337,
		"time_elapsed": 1848191,
		"internal_node_id": "0.0-3.0-1.274"
	},
	{
		"rt": 4853,
		"stimulus": "<span style=\"font-size:30px; font-family: monospace\">poderosa.</span>",
		"response": " ",
		"trial": "exp-sent",
		"word": "poderosa.",
		"trial_type": "html-keyboard-response",
		"trial_index": 338,
		"time_elapsed": 1853295,
