"view_history","rt","trial_type","trial_index","time_elapsed","internal_node_id","stimulus","response","trial_part","word","question","answer","trial","accuracy"
"[{""page_index"":0,""viewing_time"":2758},{""page_index"":1,""viewing_time"":19696}]","22455","instructions","0","22455","0.0-0.0","","","","","","","",""
"","null","html-keyboard-response","1","23565","0.0-1.0-0.0-0.0","<span style= ""font-size:30px; font-family: monospace"">+</span>","null","fixation","","","","",""
"","5629","audio-keyboard-response","2","29463","0.0-1.0-1.0","../audio/prac-question-1-1.mp3"," ","","O","","","",""
"","3680","audio-keyboard-response","3","33430","0.0-1.0-1.1","../audio/prac-question-1-2.mp3"," ","","dia","","","",""
"","3160","audio-keyboard-response","4","36902","0.0-1.0-1.2","../audio/prac-question-1-3.mp3"," ","","estará","","","",""
"","2669","audio-keyboard-response","5","39861","0.0-1.0-1.3","../audio/prac-question-1-4.mp3"," ","","cheio","","","",""
"","2861","audio-keyboard-response","6","42998","0.0-1.0-1.4","../audio/prac-question-1-5.mp3"," ","","de","","","",""
"","3371","audio-keyboard-response","7","46678","0.0-1.0-1.5","../audio/prac-question-1-6.mp3"," ","","nuvens","","","",""
"","2499","audio-keyboard-response","8","49461","0.0-1.0-1.6","../audio/prac-question-1-7.mp3"," ","","hoje.","","","",""
"","null","html-keyboard-response","9","50724","0.0-1.0-0.7-0.7","<span style= ""font-size:30px; font-family: monospace"">+</span>","null","fixation","","","","",""
"","1992","audio-keyboard-response","10","52998","0.0-1.0-1.7","../audio/prac-question-2-1.mp3"," ","","A","","","",""
"","2749","audio-keyboard-response","11","56021","0.0-1.0-1.8","../audio/prac-question-2-2.mp3"," ","","caneca","","","",""
"","2419","audio-keyboard-response","12","58742","0.0-1.0-1.9","../audio/prac-question-2-3.mp3"," ","","colorida","","","",""
"","2099","audio-keyboard-response","13","61173","0.0-1.0-1.10","../audio/prac-question-2-4.mp3"," ","","caiu","","","",""
"","2109","audio-keyboard-response","14","63574","0.0-1.0-1.11","../audio/prac-question-2-5.mp3"," ","","da","","","",""
"","1851","audio-keyboard-response","15","65701","0.0-1.0-1.12","../audio/prac-question-2-6.mp3"," ","","mesa","","","",""
"","1931","audio-keyboard-response","16","67909","0.0-1.0-1.13","../audio/prac-question-2-7.mp3"," ","","de","","","",""
"","2669","audio-keyboard-response","17","70870","0.0-1.0-1.14","../audio/prac-question-2-8.mp3"," ","","jantar.","","","",""
"","12066","html-keyboard-response","18","83190","0.0-1.0-2.14-0.14","<span style=""font-size:25px; font-family: monospace"">A caneca era colorida?</span>","s","","","A caneca era colorida?","null","prac-sent","false"
"[{""page_index"":0,""viewing_time"":44483}]","44483","instructions","19","128174","0.0-2.0","","","","","","","",""
"","null","html-keyboard-response","20","129275","0.0-3.0-0.0-0.0","<span style= ""font-size:30px; font-family: monospace"">+</span>","null","fixation","","","","",""
"","2128","audio-keyboard-response","21","131781","0.0-3.0-1.0","../audio/09-1-masc.mp3"," ","","O","","","",""
"","2088","audio-keyboard-response","22","134181","0.0-3.0-1.1","../audio/09-2-masc.mp3"," ","","rapaz","","","",""
"","2219","audio-keyboard-response","23","136709","0.0-3.0-1.2","../audio/09-3-masc.mp3"," ","","limpou","","","",""
"","3019","audio-keyboard-response","24","140021","0.0-3.0-1.3","../audio/09-4-masc.mp3"," ","","o","","","",""
"","2461","audio-keyboard-response","25","142773","0.0-3.0-1.4","../audio/09-5-masc.mp3"," ","","terreno","","","",""
"","2288","audio-keyboard-response","26","145381","0.0-3.0-1.5","../audio/09-6-masc.mp3"," ","","com","","","",""
"","2360","audio-keyboard-response","27","148021","0.0-3.0-1.6","../audio/09-7-masc.mp3"," ","","uma","","","",""
"","2941","audio-keyboard-response","28","151253","0.0-3.0-1.7","../audio/09-8-masc.mp3"," ","","pá.","","","",""
"","null","html-keyboard-response","29","152527","0.0-3.0-0.8-0.8","<span style= ""font-size:30px; font-family: monospace"">+</span>","null","fixation","","","","",""
"","2691","audio-keyboard-response","30","155525","0.0-3.0-1.8","../audio/06-1-masc.mp3"," ","","Ouvimos","","","",""
"","2379","audio-keyboard-response","31","158181","0.0-3.0-1.9","../audio/06-2-masc.mp3"," ","","a","","","",""
"","2040","audio-keyboard-response","32","160500","0.0-3.0-1.10","../audio/06-3-masc.mp3"," ","","fala","","","",""
"","1720","audio-keyboard-response","33","162517","0.0-3.0-1.11","../audio/06-4-masc.mp3"," ","","do","","","",""
"","2499","audio-keyboard-response","34","165300","0.0-3.0-1.12","../audio/06-5-masc.mp3"," ","","profeta","","","",""
"","2091","audio-keyboard-response","35","167684","0.0-3.0-1.13","../audio/06-6-masc.mp3"," ","","no","","","",""
"","2560","audio-keyboard-response","36","170548","0.0-3.0-1.14","../audio/06-7-masc.mp3"," ","","púlpito","","","",""
"","2341","audio-keyboard-response","37","173172","0.0-3.0-1.15","../audio/06-8-masc.mp3"," ","","da","","","",""
"","3571","audio-keyboard-response","38","177044","0.0-3.0-1.16","../audio/06-9-masc.mp3"," ","","igreja.","","","",""
"","null","html-keyboard-response","39","178309","0.0-3.0-0.17-0.17","<span style= ""font-size:30px; font-family: monospace"">+</span>","null","fixation","","","","",""
"","2421","audio-keyboard-response","40","181012","0.0-3.0-1.17","../audio/07-1-masc.mp3"," ","","Meu","","","",""
"","1901","audio-keyboard-response","41","183205","0.0-3.0-1.18","../audio/07-2-masc.mp3"," ","","filho","","","",""
"","1899","audio-keyboard-response","42","185380","0.0-3.0-1.19","../audio/07-3-masc.mp3"," ","","é","","","",""
"","2131","audio-keyboard-response","43","187796","0.0-3.0-1.20","../audio/07-4-masc.mp3"," ","","muito","","","",""
"","2368","audio-keyboard-response","44","190468","0.0-3.0-1.21","../audio/07-5-masc.mp3"," ","","responsável","","","",""
"","1939","audio-keyboard-response","45","192708","0.0-3.0-1.22","../audio/07-6-masc.mp3"," ","","nos","","","",""
"","3000","audio-keyboard-response","46","196004","0.0-3.0-1.23","../audio/07-7-masc.mp3"," ","","estudos.","","","",""
"","null","html-keyboard-response","47","197262","0.0-3.0-0.24-0.24","<span style= ""font-size:30px; font-family: monospace"">+</span>","null","fixation","","","","",""
"","1589","audio-keyboard-response","48","199204","0.0-3.0-1.24","../audio/08-1-fem.mp3"," ","","A","","","",""
"","1979","audio-keyboard-response","49","201476","0.0-3.0-1.25","../audio/08-2-fem.mp3"," ","","receita","","","",""
"","1520","audio-keyboard-response","50","203284","0.0-3.0-1.26","../audio/08-3-fem.mp3"," ","","pede","","","",""
"","1731","audio-keyboard-response","51","205284","0.0-3.0-1.27","../audio/08-4-fem.mp3"," ","","um","","","",""
"","1760","audio-keyboard-response","52","207332","0.0-3.0-1.28","../audio/08-5-fem.mp3"," ","","litro","","","",""
"","1981","audio-keyboard-response","53","209604","0.0-3.0-1.29","../audio/08-6-fem.mp3"," ","","de","","","",""
"","2029","audio-keyboard-response","54","211956","0.0-3.0-1.30","../audio/08-7-fem.mp3"," ","","leite","","","",""
"","2299","audio-keyboard-response","55","214548","0.0-3.0-1.31","../audio/08-8-fem.mp3"," ","","integral.","","","",""
"","null","html-keyboard-response","56","215815","0.0-3.0-0.32-0.32","<span style= ""font-size:30px; font-family: monospace"">+</span>","null","fixation","","","","",""
"","1229","audio-keyboard-response","57","217348","0.0-3.0-1.32","../audio/10-1-fem.mp3"," ","","O","","","",""
"","1989","audio-keyboard-response","58","219636","0.0-3.0-1.33","../audio/10-2-fem.mp3"," ","","pássaro","","","",""
"","2091","audio-keyboard-response","59","222004","0.0-3.0-1.34","../audio/10-3-fem.mp3"," ","","azul","","","",""
"","1888","audio-keyboard-response","60","224180","0.0-3.0-1.35","../audio/10-4-fem.mp3"," ","","estava","","","",""
"","1811","audio-keyboard-response","61","226292","0.0-3.0-1.36","../audio/10-5-fem.mp3"," ","","vivo","","","",""
"","2240","audio-keyboard-response","62","228836","0.0-3.0-1.37","../audio/10-6-fem.mp3"," ","","e","","","",""
"","1451","audio-keyboard-response","63","230564","0.0-3.0-1.38","../audio/10-7-fem.mp3"," ","","em","","","",""
"","2691","audio-keyboard-response","64","233524","0.0-3.0-1.39","../audio/10-8-fem.mp3"," ","","segurança.","","","",""
"","28034","html-keyboard-response","65","261812","0.0-3.0-2.39-0.39","<span style=""font-size:25px; font-family: monospace"">O pássaro vermelho estava em segurança?</span>","s","","","O pássaro vermelho estava em segurança?","null","exp-sent","false"
"","null","html-keyboard-response","66","263314","0.0-3.0-0.40-0.40","<span style= ""font-size:30px; font-family: monospace"">+</span>","null","fixation","","","","",""
"","80","audio-keyboard-response","67","263668","0.0-3.0-1.40","../audio/46-1-masc.mp3"," ","","Meu","","","",""
"","3051","audio-keyboard-response","68","266996","0.0-3.0-1.41","../audio/46-2-masc.mp3"," ","","primo","","","",""
"","2341","audio-keyboard-response","69","269636","0.0-3.0-1.42","../audio/46-3-masc.mp3"," ","","estava","","","",""
"","2072","audio-keyboard-response","70","271988","0.0-3.0-1.43","../audio/46-4-masc.mp3"," ","","muito","","","",""
"","3029","audio-keyboard-response","71","275300","0.0-3.0-1.44","../audio/46-5-masc.mp3"," ","","deprimido","","","",""
"","1840","audio-keyboard-response","72","277412","0.0-3.0-1.45","../audio/46-6-masc.mp3"," ","","no","","","",""
"","2589","audio-keyboard-response","73","280292","0.0-3.0-1.46","../audio/46-7-masc.mp3"," ","","inverno.","","","",""
"","null","html-keyboard-response","74","281559","0.0-3.0-0.47-0.47","<span style= ""font-size:30px; font-family: monospace"">+</span>","null","fixation","","","","",""
"","2192","audio-keyboard-response","75","284036","0.0-3.0-1.47","../audio/47-1-masc.mp3"," ","","O","","","",""
"","2261","audio-keyboard-response","76","286596","0.0-3.0-1.48","../audio/47-2-masc.mp3"," ","","tio","","","",""
"","2600","audio-keyboard-response","77","289491","0.0-3.0-1.49","../audio/47-3-masc.mp3"," ","","recusou","","","",""
"","1451","audio-keyboard-response","78","291235","0.0-3.0-1.50","../audio/47-4-masc.mp3"," ","","a","","","",""
"","1971","audio-keyboard-response","79","293491","0.0-3.0-1.51","../audio/47-5-masc.mp3"," ","","sobremesa","","","",""
"","1571","audio-keyboard-response","80","295348","0.0-3.0-1.52","../audio/47-6-masc.mp3"," ","","no","","","",""
"","2309","audio-keyboard-response","81","297940","0.0-3.0-1.53","../audio/47-7-masc.mp3"," ","","almoço.","","","",""
"","null","html-keyboard-response","82","299202","0.0-3.0-0.54-0.54","<span style= ""font-size:30px; font-family: monospace"">+</span>","null","fixation","","","","",""
"","1859","audio-keyboard-response","83","301363","0.0-3.0-1.54","../audio/48-1-fem.mp3"," ","","Ela","","","",""
"","1901","audio-keyboard-response","84","303540","0.0-3.0-1.55","../audio/48-2-fem.mp3"," ","","come","","","",""
"","1669","audio-keyboard-response","85","305524","0.0-3.0-1.56","../audio/48-3-fem.mp3"," ","","feijão","","","",""
"","1549","audio-keyboard-response","86","307363","0.0-3.0-1.57","../audio/48-4-fem.mp3"," ","","com","","","",""
"","1789","audio-keyboard-response","87","309444","0.0-3.0-1.58","../audio/48-5-fem.mp3"," ","","arroz","","","",""
"","1661","audio-keyboard-response","88","311380","0.0-3.0-1.59","../audio/48-6-fem.mp3"," ","","todos","","","",""
"","1731","audio-keyboard-response","89","313380","0.0-3.0-1.60","../audio/48-7-fem.mp3"," ","","os","","","",""
"","1848","audio-keyboard-response","90","315524","0.0-3.0-1.61","../audio/48-8-fem.mp3"," ","","dias.","","","",""
"","null","html-keyboard-response","91","316799","0.0-3.0-0.62-0.62","<span style= ""font-size:30px; font-family: monospace"">+</span>","null","fixation","","","","",""
"","1491","audio-keyboard-response","92","318580","0.0-3.0-1.62","../audio/49-1-masc.mp3"," ","","Eu","","","",""
"","2131","audio-keyboard-response","93","320979","0.0-3.0-1.63","../audio/49-2-masc.mp3"," ","","quero","","","",""
"","1760","audio-keyboard-response","94","323028","0.0-3.0-1.64","../audio/49-3-masc.mp3"," ","","um","","","",""
"","1760","audio-keyboard-response","95","325075","0.0-3.0-1.65","../audio/49-4-masc.mp3"," ","","lanche","","","",""
"","1581","audio-keyboard-response","96","326948","0.0-3.0-1.66","../audio/49-5-masc.mp3"," ","","duplo","","","",""
"","1531","audio-keyboard-response","97","328756","0.0-3.0-1.67","../audio/49-6-masc.mp3"," ","","e","","","",""
"","1861","audio-keyboard-response","98","330916","0.0-3.0-1.68","../audio/49-7-masc.mp3"," ","","um","","","",""
"","2360","audio-keyboard-response","99","333572","0.0-3.0-1.69","../audio/49-8-masc.mp3"," ","","suco.","","","",""
"","null","html-keyboard-response","100","334843","0.0-3.0-0.70-0.70","<span style= ""font-size:30px; font-family: monospace"">+</span>","null","fixation","","","","",""
"","1680","audio-keyboard-response","101","336836","0.0-3.0-1.70","../audio/50-1-masc.mp3"," ","","O","","","",""
"","2411","audio-keyboard-response","102","339572","0.0-3.0-1.71","../audio/50-2-masc.mp3"," ","","pássaro","","","",""
"","1960","audio-keyboard-response","103","341828","0.0-3.0-1.72","../audio/50-3-masc.mp3"," ","","fugiu","","","",""
"","1872","audio-keyboard-response","104","343988","0.0-3.0-1.73","../audio/50-4-masc.mp3"," ","","da","","","",""
"","1611","audio-keyboard-response","105","345891","0.0-3.0-1.74","../audio/50-5-masc.mp3"," ","","gaiola","","","",""
"","2312","audio-keyboard-response","106","348468","0.0-3.0-1.75","../audio/50-6-masc.mp3"," ","","pela","","","",""
"","2040","audio-keyboard-response","107","350804","0.0-3.0-1.76","../audio/50-7-masc.mp3"," ","","portinhola.","","","",""
"","13631","html-keyboard-response","108","364692","0.0-3.0-2.76-0.76","<span style=""font-size:25px; font-family: monospace"">O pássaro fugiu da gaiola?</span>","s","","","O pássaro fugiu da gaiola?","null","exp-sent","false"
"","null","html-keyboard-response","109","366214","0.0-3.0-0.77-0.77","<span style= ""font-size:30px; font-family: monospace"">+</span>","null","fixation","","","","",""
"","1971","audio-keyboard-response","110","368468","0.0-3.0-1.77","../audio/66-1-fem.mp3"," ","","Não","","","",""
"","1912","audio-keyboard-response","111","370675","0.0-3.0-1.78","../audio/66-2-fem.mp3"," ","","gosto","","","",""
"","1611","audio-keyboard-response","112","372580","0.0-3.0-1.79","../audio/66-3-fem.mp3"," ","","de","","","",""
"","1659","audio-keyboard-response","113","374532","0.0-3.0-1.80","../audio/66-4-fem.mp3"," ","","gente","","","",""
"","2280","audio-keyboard-response","114","377108","0.0-3.0-1.81","../audio/66-5-fem.mp3"," ","","egoísta","","","",""
"","1760","audio-keyboard-response","115","379156","0.0-3.0-1.82","../audio/66-6-fem.mp3"," ","","nem","","","",""
"","1568","audio-keyboard-response","116","381043","0.0-3.0-1.83","../audio/66-7-fem.mp3"," ","","chata.","","","",""
"","null","html-keyboard-response","117","382315","0.0-3.0-0.84-0.84","<span style= ""font-size:30px; font-family: monospace"">+</span>","null","fixation","","","","",""
"","2069","audio-keyboard-response","118","384659","0.0-3.0-1.84","../audio/67-1-masc.mp3"," ","","Minha","","","",""
"","1520","audio-keyboard-response","119","386467","0.0-3.0-1.85","../audio/67-2-masc.mp3"," ","","tia","","","",""
"","1371","audio-keyboard-response","120","388116","0.0-3.0-1.86","../audio/67-3-masc.mp3"," ","","comprou","","","",""
"","1571","audio-keyboard-response","121","389972","0.0-3.0-1.87","../audio/67-4-masc.mp3"," ","","um","","","",""
"","1821","audio-keyboard-response","122","392068","0.0-3.0-1.88","../audio/67-5-masc.mp3"," ","","cordão","","","",""
"","1509","audio-keyboard-response","123","393860","0.0-3.0-1.89","../audio/67-6-masc.mp3"," ","","para","","","",""
"","2080","audio-keyboard-response","124","396212","0.0-3.0-1.90","../audio/67-7-masc.mp3"," ","","o","","","",""
"","2149","audio-keyboard-response","125","398644","0.0-3.0-1.91","../audio/67-8-masc.mp3"," ","","varal.","","","",""
"","null","html-keyboard-response","126","399908","0.0-3.0-0.92-0.92","<span style= ""font-size:30px; font-family: monospace"">+</span>","null","fixation","","","","",""
"","40","audio-keyboard-response","127","400243","0.0-3.0-1.92","../audio/68-1-fem.mp3"," ","","Meu","","","",""
"","1680","audio-keyboard-response","128","402212","0.0-3.0-1.93","../audio/68-2-fem.mp3"," ","","irmão","","","",""
"","1131","audio-keyboard-response","129","403620","0.0-3.0-1.94","../audio/68-3-fem.mp3"," ","","teve","","","",""
"","1331","audio-keyboard-response","130","405219","0.0-3.0-1.95","../audio/68-4-fem.mp3"," ","","um","","","",""
"","2120","audio-keyboard-response","131","407635","0.0-3.0-1.96","../audio/68-5-fem.mp3"," ","","noivado","","","",""
"","1552","audio-keyboard-response","132","409475","0.0-3.0-1.97","../audio/68-6-fem.mp3"," ","","longo","","","",""
"","1621","audio-keyboard-response","133","411379","0.0-3.0-1.98","../audio/68-7-fem.mp3"," ","","e","","","",""
"","2360","audio-keyboard-response","134","414019","0.0-3.0-1.99","../audio/68-8-fem.mp3"," ","","maravilhoso.","","","",""
"","null","html-keyboard-response","135","415281","0.0-3.0-0.100-0.100","<span style= ""font-size:30px; font-family: monospace"">+</span>","null","fixation","","","","",""
"","981","audio-keyboard-response","136","416547","0.0-3.0-1.100","../audio/69-1-fem.mp3"," ","","A","","","",""
"","1440","audio-keyboard-response","137","418275","0.0-3.0-1.101","../audio/69-2-fem.mp3"," ","","loja","","","",""
"","1528","audio-keyboard-response","138","420083","0.0-3.0-1.102","../audio/69-3-fem.mp3"," ","","recebeu","","","",""
"","1341","audio-keyboard-response","139","421699","0.0-3.0-1.103","../audio/69-4-fem.mp3"," ","","uma","","","",""
"","1600","audio-keyboard-response","140","423603","0.0-3.0-1.104","../audio/69-5-fem.mp3"," ","","poltrona","","","",""
"","2381","audio-keyboard-response","141","426259","0.0-3.0-1.105","../audio/69-6-fem.mp3"," ","","de","","","",""
"","1560","audio-keyboard-response","142","428099","0.0-3.0-1.106","../audio/69-7-fem.mp3"," ","","couro","","","",""
"","1829","audio-keyboard-response","143","430211","0.0-3.0-1.107","../audio/69-8-fem.mp3"," ","","preto.","","","",""
"","null","html-keyboard-response","144","431467","0.0-3.0-0.108-0.108","<span style= ""font-size:30px; font-family: monospace"">+</span>","null","fixation","","","","",""
"","1181","audio-keyboard-response","145","432947","0.0-3.0-1.108","../audio/70-1-fem.mp3"," ","","O","","","",""
"","1531","audio-keyboard-response","146","434755","0.0-3.0-1.109","../audio/70-2-fem.mp3"," ","","meu","","","",""
"","1280","audio-keyboard-response","147","436323","0.0-3.0-1.110","../audio/70-3-fem.mp3"," ","","filho","","","",""
"","1512","audio-keyboard-response","148","438115","0.0-3.0-1.111","../audio/70-4-fem.mp3"," ","","tem","","","",""
"","1701","audio-keyboard-response","149","440115","0.0-3.0-1.112","../audio/70-5-fem.mp3"," ","","medo","","","",""
"","1520","audio-keyboard-response","150","441907","0.0-3.0-1.113","../audio/70-6-fem.mp3"," ","","de","","","",""
"","2051","audio-keyboard-response","151","444227","0.0-3.0-1.114","../audio/70-7-fem.mp3"," ","","enguia","","","",""
"","1488","audio-keyboard-response","152","446003","0.0-3.0-1.115","../audio/70-8-fem.mp3"," ","","e","","","",""
"","3520","audio-keyboard-response","153","449811","0.0-3.0-1.116","../audio/70-9-fem.mp3"," ","","beija-flor.","","","",""
"","14160","html-keyboard-response","154","464227","0.0-3.0-2.116-0.116","<span style=""font-size:25px; font-family: monospace"">O filho tem medo de tigre?</span>","n","","","O filho tem medo de tigre?","null","exp-sent","false"
"","null","html-keyboard-response","155","465745","0.0-3.0-0.117-0.117","<span style= ""font-size:30px; font-family: monospace"">+</span>","null","fixation","","","","",""
"","1661","audio-keyboard-response","156","467699","0.0-3.0-1.117","../audio/18-1-masc.mp3"," ","","O","","","",""
"","2000","audio-keyboard-response","157","469971","0.0-3.0-1.118","../audio/18-2-masc.mp3"," ","","enredo","","","",""
"","1451","audio-keyboard-response","158","471715","0.0-3.0-1.119","../audio/18-3-masc.mp3"," ","","traz","","","",""
"","1600","audio-keyboard-response","159","473603","0.0-3.0-1.120","../audio/18-4-masc.mp3"," ","","um","","","",""
"","1632","audio-keyboard-response","160","475507","0.0-3.0-1.121","../audio/18-5-masc.mp3"," ","","dragão","","","",""
"","1541","audio-keyboard-response","161","477315","0.0-3.0-1.122","../audio/18-6-masc.mp3"," ","","forte","","","",""
"","1349","audio-keyboard-response","162","478947","0.0-3.0-1.123","../audio/18-7-masc.mp3"," ","","e","","","",""
"","1680","audio-keyboard-response","163","480899","0.0-3.0-1.124","../audio/18-8-masc.mp3"," ","","solitário.","","","",""
"","null","html-keyboard-response","164","482172","0.0-3.0-0.125-0.125","<span style= ""font-size:30px; font-family: monospace"">+</span>","null","fixation","","","","",""
"","1619","audio-keyboard-response","165","484083","0.0-3.0-1.125","../audio/16-1-fem.mp3"," ","","Eu","","","",""
"","1549","audio-keyboard-response","166","485923","0.0-3.0-1.126","../audio/16-2-fem.mp3"," ","","nunca","","","",""
"","1571","audio-keyboard-response","167","487779","0.0-3.0-1.127","../audio/16-3-fem.mp3"," ","","conheci","","","",""
"","1429","audio-keyboard-response","168","489491","0.0-3.0-1.128","../audio/16-4-fem.mp3"," ","","um","","","",""
"","1589","audio-keyboard-response","169","491363","0.0-3.0-1.129","../audio/16-5-fem.mp3"," ","","general","","","",""
"","1720","audio-keyboard-response","170","493363","0.0-3.0-1.130","../audio/16-6-fem.mp3"," ","","do","","","",""
"","2000","audio-keyboard-response","171","495667","0.0-3.0-1.131","../audio/16-7-fem.mp3"," ","","exército.","","","",""
"","null","html-keyboard-response","172","496940","0.0-3.0-0.132-0.132","<span style= ""font-size:30px; font-family: monospace"">+</span>","null","fixation","","","","",""
"","1421","audio-keyboard-response","173","498659","0.0-3.0-1.132","../audio/17-1-masc.mp3"," ","","Falaram","","","",""
"","1152","audio-keyboard-response","174","500115","0.0-3.0-1.133","../audio/17-2-masc.mp3"," ","","da","","","",""
"","1440","audio-keyboard-response","175","501843","0.0-3.0-1.134","../audio/17-3-masc.mp3"," ","","lei","","","",""
"","1488","audio-keyboard-response","176","503603","0.0-3.0-1.135","../audio/17-4-masc.mp3"," ","","no","","","",""
"","2221","audio-keyboard-response","177","506099","0.0-3.0-1.136","../audio/17-5-masc.mp3"," ","","ministério","","","",""
"","2280","audio-keyboard-response","178","508691","0.0-3.0-1.137","../audio/17-6-masc.mp3"," ","","diversas","","","",""
"","2211","audio-keyboard-response","179","511187","0.0-3.0-1.138","../audio/17-7-masc.mp3"," ","","vezes.","","","",""
"","null","html-keyboard-response","180","512445","0.0-3.0-0.139-0.139","<span style= ""font-size:30px; font-family: monospace"">+</span>","null","fixation","","","","",""
"","1021","audio-keyboard-response","181","513747","0.0-3.0-1.139","../audio/19-1-masc.mp3"," ","","O","","","",""
"","2480","audio-keyboard-response","182","516515","0.0-3.0-1.140","../audio/19-2-masc.mp3"," ","","menino","","","",""
"","1472","audio-keyboard-response","183","518275","0.0-3.0-1.141","../audio/19-3-masc.mp3"," ","","ganhou","","","",""
"","1472","audio-keyboard-response","184","520035","0.0-3.0-1.142","../audio/19-4-masc.mp3"," ","","uma","","","",""
"","2008","audio-keyboard-response","185","522323","0.0-3.0-1.143","../audio/19-5-masc.mp3"," ","","bala","","","",""
"","1989","audio-keyboard-response","186","524643","0.0-3.0-1.144","../audio/19-6-masc.mp3"," ","","depois","","","",""
"","1669","audio-keyboard-response","187","526626","0.0-3.0-1.145","../audio/19-7-masc.mp3"," ","","do","","","",""
"","2331","audio-keyboard-response","188","529250","0.0-3.0-1.146","../audio/19-8-masc.mp3"," ","","almoço.","","","",""
"","null","html-keyboard-response","189","530515","0.0-3.0-0.147-0.147","<span style= ""font-size:30px; font-family: monospace"">+</span>","null","fixation","","","","",""
"","1229","audio-keyboard-response","190","532018","0.0-3.0-1.147","../audio/20-1-fem.mp3"," ","","O","","","",""
"","1520","audio-keyboard-response","191","533842","0.0-3.0-1.148","../audio/20-2-fem.mp3"," ","","colega","","","",""
"","1611","audio-keyboard-response","192","535730","0.0-3.0-1.149","../audio/20-3-fem.mp3"," ","","parecia","","","",""
"","1451","audio-keyboard-response","193","537458","0.0-3.0-1.150","../audio/20-4-fem.mp3"," ","","muito","","","",""
"","1589","audio-keyboard-response","194","539330","0.0-3.0-1.151","../audio/20-5-fem.mp3"," ","","gripado","","","",""
"","2469","audio-keyboard-response","195","542082","0.0-3.0-1.152","../audio/20-6-fem.mp3"," ","","no","","","",""
"","1371","audio-keyboard-response","196","543730","0.0-3.0-1.153","../audio/20-7-fem.mp3"," ","","dia","","","",""
"","2112","audio-keyboard-response","197","546114","0.0-3.0-1.154","../audio/20-8-fem.mp3"," ","","anterior.","","","",""
"","10335","html-keyboard-response","198","556706","0.0-3.0-2.154-0.154","<span style=""font-size:25px; font-family: monospace"">O colega parecia muito gripado?</span>","s","","","O colega parecia muito gripado?","null","exp-sent","false"
"","null","html-keyboard-response","199","558227","0.0-3.0-0.155-0.155","<span style= ""font-size:30px; font-family: monospace"">+</span>","null","fixation","","","","",""
"","320","audio-keyboard-response","200","558914","0.0-3.0-1.155","../audio/78-1-fem.mp3"," ","","Eles","","","",""
"","1912","audio-keyboard-response","201","561106","0.0-3.0-1.156","../audio/78-2-fem.mp3"," ","","trazem","","","",""
"","1240","audio-keyboard-response","202","562642","0.0-3.0-1.157","../audio/78-3-fem.mp3"," ","","um","","","",""
"","1488","audio-keyboard-response","203","564402","0.0-3.0-1.158","../audio/78-4-fem.mp3"," ","","fato","","","",""
"","1771","audio-keyboard-response","204","566450","0.0-3.0-1.159","../audio/78-5-fem.mp3"," ","","urgente","","","",""
"","1320","audio-keyboard-response","205","568066","0.0-3.0-1.160","../audio/78-6-fem.mp3"," ","","todos","","","",""
"","1371","audio-keyboard-response","206","569714","0.0-3.0-1.161","../audio/78-7-fem.mp3"," ","","os","","","",""
"","1781","audio-keyboard-response","207","571777","0.0-3.0-1.162","../audio/78-8-fem.mp3"," ","","dias.","","","",""
"","null","html-keyboard-response","208","573054","0.0-3.0-0.163-0.163","<span style= ""font-size:30px; font-family: monospace"">+</span>","null","fixation","","","","",""
"","1189","audio-keyboard-response","209","574530","0.0-3.0-1.163","../audio/76-1-masc.mp3"," ","","O","","","",""
"","1480","audio-keyboard-response","210","576290","0.0-3.0-1.164","../audio/76-2-masc.mp3"," ","","bisavô","","","",""
"","1189","audio-keyboard-response","211","577762","0.0-3.0-1.165","../audio/76-3-masc.mp3"," ","","comprou","","","",""
"","1720","audio-keyboard-response","212","579746","0.0-3.0-1.166","../audio/76-4-masc.mp3"," ","","um","","","",""
"","1531","audio-keyboard-response","213","581570","0.0-3.0-1.167","../audio/76-5-masc.mp3"," ","","ralador","","","",""
"","1240","audio-keyboard-response","214","583090","0.0-3.0-1.168","../audio/76-6-masc.mp3"," ","","de","","","",""
"","1491","audio-keyboard-response","215","584866","0.0-3.0-1.169","../audio/76-7-masc.mp3"," ","","queijo.","","","",""
"","null","html-keyboard-response","216","586140","0.0-3.0-0.170-0.170","<span style= ""font-size:30px; font-family: monospace"">+</span>","null","fixation","","","","",""
"","1008","audio-keyboard-response","217","587441","0.0-3.0-1.170","../audio/77-1-masc.mp3"," ","","A","","","",""
"","1651","audio-keyboard-response","218","589377","0.0-3.0-1.171","../audio/77-2-masc.mp3"," ","","criança","","","",""
"","2901","audio-keyboard-response","219","592546","0.0-3.0-1.172","../audio/77-3-masc.mp3"," ","","ficou","","","",""
"","2392","audio-keyboard-response","220","595233","0.0-3.0-1.173","../audio/77-4-masc.mp3"," ","","muito","","","",""
"","1419","audio-keyboard-response","221","596961","0.0-3.0-1.174","../audio/77-5-masc.mp3"," ","","feliz","","","",""
"","1731","audio-keyboard-response","222","598977","0.0-3.0-1.175","../audio/77-6-masc.mp3"," ","","com","","","",""
"","1509","audio-keyboard-response","223","600769","0.0-3.0-1.176","../audio/77-7-masc.mp3"," ","","o","","","",""
"","2341","audio-keyboard-response","224","603378","0.0-3.0-1.177","../audio/77-8-masc.mp3"," ","","brinquedo.","","","",""
"","null","html-keyboard-response","225","604640","0.0-3.0-0.178-0.178","<span style= ""font-size:30px; font-family: monospace"">+</span>","null","fixation","","","","",""
"","2019","audio-keyboard-response","226","606961","0.0-3.0-1.178","../audio/79-1-masc.mp3"," ","","A","","","",""
"","1731","audio-keyboard-response","227","608977","0.0-3.0-1.179","../audio/79-2-masc.mp3"," ","","médica","","","",""
"","2248","audio-keyboard-response","228","611522","0.0-3.0-1.180","../audio/79-3-masc.mp3"," ","","verificou","","","",""
"","1731","audio-keyboard-response","229","613554","0.0-3.0-1.181","../audio/79-4-masc.mp3"," ","","a","","","",""
"","2149","audio-keyboard-response","230","616001","0.0-3.0-1.182","../audio/79-5-masc.mp3"," ","","gengiva","","","",""
"","1821","audio-keyboard-response","231","618113","0.0-3.0-1.183","../audio/79-6-masc.mp3"," ","","por","","","",""
"","2240","audio-keyboard-response","232","620657","0.0-3.0-1.184","../audio/79-7-masc.mp3"," ","","último.","","","",""
"","null","html-keyboard-response","233","621937","0.0-3.0-0.185-0.185","<span style= ""font-size:30px; font-family: monospace"">+</span>","null","fixation","","","","",""
"","1301","audio-keyboard-response","234","623506","0.0-3.0-1.185","../audio/80-1-fem.mp3"," ","","Meu","","","",""
"","1440","audio-keyboard-response","235","625234","0.0-3.0-1.186","../audio/80-2-fem.mp3"," ","","primo","","","",""
"","1741","audio-keyboard-response","236","627265","0.0-3.0-1.187","../audio/80-3-fem.mp3"," ","","conheceu","","","",""
"","1699","audio-keyboard-response","237","629249","0.0-3.0-1.188","../audio/80-4-fem.mp3"," ","","um","","","",""
"","1891","audio-keyboard-response","238","631426","0.0-3.0-1.189","../audio/80-5-fem.mp3"," ","","jovem","","","",""
"","1861","audio-keyboard-response","239","633586","0.0-3.0-1.190","../audio/80-6-fem.mp3"," ","","amável","","","",""
"","1800","audio-keyboard-response","240","635681","0.0-3.0-1.191","../audio/80-7-fem.mp3"," ","","e","","","",""
"","2141","audio-keyboard-response","241","638113","0.0-3.0-1.192","../audio/80-8-fem.mp3"," ","","confiante.","","","",""
"","73970","html-keyboard-response","242","712338","0.0-3.0-2.192-0.192","<span style=""font-size:25px; font-family: monospace"">O primo conheceu um jovem irritante?</span>","n","","","O primo conheceu um jovem irritante?","null","exp-sent","false"
"","null","html-keyboard-response","243","713841","0.0-3.0-0.193-0.193","<span style= ""font-size:30px; font-family: monospace"">+</span>","null","fixation","","","","",""
"","19","audio-keyboard-response","244","714418","0.0-3.0-1.193","../audio/33-1-masc.mp3"," ","","Eles","","","",""
"","1509","audio-keyboard-response","245","716209","0.0-3.0-1.194","../audio/33-2-masc.mp3"," ","","sabem","","","",""
"","2080","audio-keyboard-response","246","718577","0.0-3.0-1.195","../audio/33-3-masc.mp3"," ","","do","","","",""
"","1480","audio-keyboard-response","247","720353","0.0-3.0-1.196","../audio/33-4-masc.mp3"," ","","seu","","","",""
"","2139","audio-keyboard-response","248","722770","0.0-3.0-1.197","../audio/33-5-masc.mp3"," ","","privilégio","","","",""
"","2080","audio-keyboard-response","249","725154","0.0-3.0-1.198","../audio/33-6-masc.mp3"," ","","nessa","","","",""
"","1688","audio-keyboard-response","250","727137","0.0-3.0-1.199","../audio/33-7-masc.mp3"," ","","confusão.","","","",""
"","null","html-keyboard-response","251","728413","0.0-3.0-0.200-0.200","<span style= ""font-size:30px; font-family: monospace"">+</span>","null","fixation","","","","",""
"","1349","audio-keyboard-response","252","730049","0.0-3.0-1.200","../audio/31-1-fem.mp3"," ","","O","","","",""
"","1629","audio-keyboard-response","253","731953","0.0-3.0-1.201","../audio/31-2-fem.mp3"," ","","padeiro","","","",""
"","1629","audio-keyboard-response","254","733873","0.0-3.0-1.202","../audio/31-3-fem.mp3"," ","","usou","","","",""
"","1469","audio-keyboard-response","255","735649","0.0-3.0-1.203","../audio/31-4-fem.mp3"," ","","a","","","",""
"","1720","audio-keyboard-response","256","737649","0.0-3.0-1.204","../audio/31-5-fem.mp3"," ","","balança","","","",""
"","1629","audio-keyboard-response","257","739553","0.0-3.0-1.205","../audio/31-6-fem.mp3"," ","","o","","","",""
"","1539","audio-keyboard-response","258","741377","0.0-3.0-1.206","../audio/31-7-fem.mp3"," ","","dia","","","",""
"","2192","audio-keyboard-response","259","743841","0.0-3.0-1.207","../audio/31-8-fem.mp3"," ","","inteiro.","","","",""
"","null","html-keyboard-response","260","745108","0.0-3.0-0.208-0.208","<span style= ""font-size:30px; font-family: monospace"">+</span>","null","fixation","","","","",""
"","2048","audio-keyboard-response","261","747457","0.0-3.0-1.208","../audio/34-1-masc.mp3"," ","","Cobrança","","","",""
"","1829","audio-keyboard-response","262","749569","0.0-3.0-1.209","../audio/34-2-masc.mp3"," ","","excessiva","","","",""
"","1760","audio-keyboard-response","263","751601","0.0-3.0-1.210","../audio/34-3-masc.mp3"," ","","é","","","",""
"","1371","audio-keyboard-response","264","753265","0.0-3.0-1.211","../audio/34-4-masc.mp3"," ","","um","","","",""
"","1549","audio-keyboard-response","265","755105","0.0-3.0-1.212","../audio/34-5-masc.mp3"," ","","fardo","","","",""
"","1421","audio-keyboard-response","266","756801","0.0-3.0-1.213","../audio/34-6-masc.mp3"," ","","para","","","",""
"","1339","audio-keyboard-response","267","758417","0.0-3.0-1.214","../audio/34-7-masc.mp3"," ","","a","","","",""
"","1840","audio-keyboard-response","268","760561","0.0-3.0-1.215","../audio/34-8-masc.mp3"," ","","cabeça.","","","",""
"","null","html-keyboard-response","269","761821","0.0-3.0-0.216-0.216","<span style= ""font-size:30px; font-family: monospace"">+</span>","null","fixation","","","","",""
"","968","audio-keyboard-response","270","763136","0.0-3.0-1.216","../audio/32-1-fem.mp3"," ","","A","","","",""
"","1240","audio-keyboard-response","271","764657","0.0-3.0-1.217","../audio/32-2-fem.mp3"," ","","tia","","","",""
"","1392","audio-keyboard-response","272","766321","0.0-3.0-1.218","../audio/32-3-fem.mp3"," ","","comprou","","","",""
"","1280","audio-keyboard-response","273","767872","0.0-3.0-1.219","../audio/32-4-fem.mp3"," ","","um","","","",""
"","1259","audio-keyboard-response","274","769409","0.0-3.0-1.220","../audio/32-5-fem.mp3"," ","","pilão","","","",""
"","1389","audio-keyboard-response","275","771072","0.0-3.0-1.221","../audio/32-6-fem.mp3"," ","","para","","","",""
"","1048","audio-keyboard-response","276","772417","0.0-3.0-1.222","../audio/32-7-fem.mp3"," ","","a","","","",""
"","1480","audio-keyboard-response","277","774193","0.0-3.0-1.223","../audio/32-8-fem.mp3"," ","","cozinha.","","","",""
"","null","html-keyboard-response","278","775452","0.0-3.0-0.224-0.224","<span style= ""font-size:30px; font-family: monospace"">+</span>","null","fixation","","","","",""
"","1011","audio-keyboard-response","279","776753","0.0-3.0-1.224","../audio/35-1-fem.mp3"," ","","A","","","",""
"","1560","audio-keyboard-response","280","778593","0.0-3.0-1.225","../audio/35-2-fem.mp3"," ","","receita","","","",""
"","1349","audio-keyboard-response","281","780225","0.0-3.0-1.226","../audio/35-3-fem.mp3"," ","","para","","","",""
"","1091","audio-keyboard-response","282","781600","0.0-3.0-1.227","../audio/35-4-fem.mp3"," ","","a","","","",""
"","1741","audio-keyboard-response","283","783633","0.0-3.0-1.228","../audio/35-5-fem.mp3"," ","","preparação","","","",""
"","1219","audio-keyboard-response","284","785137","0.0-3.0-1.229","../audio/35-6-fem.mp3"," ","","do","","","",""
"","1331","audio-keyboard-response","285","786753","0.0-3.0-1.230","../audio/35-7-fem.mp3"," ","","bolo","","","",""
"","1368","audio-keyboard-response","286","788416","0.0-3.0-1.231","../audio/35-8-fem.mp3"," ","","é","","","",""
"","1851","audio-keyboard-response","287","790560","0.0-3.0-1.232","../audio/35-9-fem.mp3"," ","","leve.","","","",""
"","21334","html-keyboard-response","288","812160","0.0-3.0-2.232-0.232","<span style=""font-size:25px; font-family: monospace"">A receita do bolo é pesada?</span>","n","","","A receita do bolo é pesada?","null","exp-sent","false"
"","null","html-keyboard-response","289","813673","0.0-3.0-0.233-0.233","<span style= ""font-size:30px; font-family: monospace"">+</span>","null","fixation","","","","",""
"","0","audio-keyboard-response","290","813952","0.0-3.0-1.233","../audio/03-1-masc.mp3"," ","","O","","","",""
"","1848","audio-keyboard-response","291","816096","0.0-3.0-1.234","../audio/03-2-masc.mp3"," ","","coelho","","","",""
"","1240","audio-keyboard-response","292","817632","0.0-3.0-1.235","../audio/03-3-masc.mp3"," ","","foi","","","",""
"","1509","audio-keyboard-response","293","819424","0.0-3.0-1.236","../audio/03-4-masc.mp3"," ","","bastante","","","",""
"","1491","audio-keyboard-response","294","821184","0.0-3.0-1.237","../audio/03-5-masc.mp3"," ","","dócil","","","",""
"","1309","audio-keyboard-response","295","822816","0.0-3.0-1.238","../audio/03-6-masc.mp3"," ","","com","","","",""
"","1160","audio-keyboard-response","296","824256","0.0-3.0-1.239","../audio/03-7-masc.mp3"," ","","as","","","",""
"","1469","audio-keyboard-response","297","826016","0.0-3.0-1.240","../audio/03-8-masc.mp3"," ","","crianças.","","","",""
"","null","html-keyboard-response","298","827287","0.0-3.0-0.241-0.241","<span style= ""font-size:30px; font-family: monospace"">+</span>","null","fixation","","","","",""
"","1509","audio-keyboard-response","299","829088","0.0-3.0-1.241","../audio/04-1-masc.mp3"," ","","Duzentos","","","",""
"","1259","audio-keyboard-response","300","830656","0.0-3.0-1.242","../audio/04-2-masc.mp3"," ","","carros","","","",""
"","1232","audio-keyboard-response","301","832160","0.0-3.0-1.243","../audio/04-3-masc.mp3"," ","","passaram","","","",""
"","1299","audio-keyboard-response","302","833744","0.0-3.0-1.244","../audio/04-4-masc.mp3"," ","","pela","","","",""
"","1139","audio-keyboard-response","303","835168","0.0-3.0-1.245","../audio/04-5-masc.mp3"," ","","ponte","","","",""
"","1088","audio-keyboard-response","304","836528","0.0-3.0-1.246","../audio/04-6-masc.mp3"," ","","hoje","","","",""
"","1288","audio-keyboard-response","305","838096","0.0-3.0-1.247","../audio/04-7-masc.mp3"," ","","de","","","",""
"","1448","audio-keyboard-response","306","839808","0.0-3.0-1.248","../audio/04-8-masc.mp3"," ","","tarde.","","","",""
"","null","html-keyboard-response","307","841069","0.0-3.0-0.249-0.249","<span style= ""font-size:30px; font-family: monospace"">+</span>","null","fixation","","","","",""
"","901","audio-keyboard-response","308","842272","0.0-3.0-1.249","../audio/01-1-masc.mp3"," ","","O","","","",""
"","1240","audio-keyboard-response","309","843792","0.0-3.0-1.250","../audio/01-2-masc.mp3"," ","","menino","","","",""
"","1251","audio-keyboard-response","310","845344","0.0-3.0-1.251","../audio/01-3-masc.mp3"," ","","derrubou","","","",""
"","1171","audio-keyboard-response","311","846800","0.0-3.0-1.252","../audio/01-4-masc.mp3"," ","","a","","","",""
"","1539","audio-keyboard-response","312","848624","0.0-3.0-1.253","../audio/01-5-masc.mp3"," ","","guitarra","","","",""
"","1331","audio-keyboard-response","313","850224","0.0-3.0-1.254","../audio/01-6-masc.mp3"," ","","no","","","",""
"","1480","audio-keyboard-response","314","851967","0.0-3.0-1.255","../audio/01-7-masc.mp3"," ","","chão.","","","",""
"","null","html-keyboard-response","315","853239","0.0-3.0-0.256-0.256","<span style= ""font-size:30px; font-family: monospace"">+</span>","null","fixation","","","","",""
"","981","audio-keyboard-response","316","854512","0.0-3.0-1.256","../audio/02-2-masc.mp3"," ","","Havia","","","",""
"","1072","audio-keyboard-response","317","855840","0.0-3.0-1.257","../audio/02-2-masc.mp3"," ","","um","","","",""
"","1021","audio-keyboard-response","318","857152","0.0-3.0-1.258","../audio/02-3-masc.mp3"," ","","cheiro","","","",""
"","1371","audio-keyboard-response","319","858800","0.0-3.0-1.259","../audio/02-4-masc.mp3"," ","","de","","","",""
"","1349","audio-keyboard-response","320","860432","0.0-3.0-1.260","../audio/02-5-masc.mp3"," ","","gasolina","","","",""
"","1349","audio-keyboard-response","321","862064","0.0-3.0-1.261","../audio/02-6-masc.mp3"," ","","na","","","",""
"","2171","audio-keyboard-response","322","864512","0.0-3.0-1.262","../audio/02-7-masc.mp3"," ","","garagem.","","","",""
"","null","html-keyboard-response","323","865782","0.0-3.0-0.263-0.263","<span style= ""font-size:30px; font-family: monospace"">+</span>","null","fixation","","","","",""
"","971","audio-keyboard-response","324","867040","0.0-3.0-1.263","../audio/05-1-masc.mp3"," ","","A","","","",""
"","1571","audio-keyboard-response","325","868880","0.0-3.0-1.264","../audio/05-2-masc.mp3"," ","","vendedora","","","",""
"","1219","audio-keyboard-response","326","870367","0.0-3.0-1.265","../audio/05-3-masc.mp3"," ","","ajudou","","","",""
"","1168","audio-keyboard-response","327","871808","0.0-3.0-1.266","../audio/05-4-masc.mp3"," ","","um","","","",""
"","1448","audio-keyboard-response","328","873536","0.0-3.0-1.267","../audio/05-5-masc.mp3"," ","","turista","","","",""
"","1288","audio-keyboard-response","329","875087","0.0-3.0-1.268","../audio/05-6-masc.mp3"," ","","na","","","",""
"","1469","audio-keyboard-response","330","876848","0.0-3.0-1.269","../audio/05-7-masc.mp3"," ","","loja.","","","",""
"","13699","html-keyboard-response","331","890800","0.0-3.0-2.269-0.269","<span style=""font-size:25px; font-family: monospace"">A vendedora ajudou um turista?</span>","s","","","A vendedora ajudou um turista?","null","exp-sent","false"
"","null","html-keyboard-response","332","892313","0.0-3.0-0.270-0.270","<span style= ""font-size:30px; font-family: monospace"">+</span>","null","fixation","","","","",""
"","1211","audio-keyboard-response","333","893824","0.0-3.0-1.270","../audio/41-1-masc.mp3"," ","","A","","","",""
"","1429","audio-keyboard-response","334","895536","0.0-3.0-1.271","../audio/41-2-masc.mp3"," ","","novela","","","",""
"","1259","audio-keyboard-response","335","897087","0.0-3.0-1.272","../audio/41-3-masc.mp3"," ","","falava","","","",""
"","960","audio-keyboard-response","336","898320","0.0-3.0-1.273","../audio/41-4-masc.mp3"," ","","de","","","",""
"","1280","audio-keyboard-response","337","899871","0.0-3.0-1.274","../audio/41-5-masc.mp3"," ","","paixão","","","",""
"","1320","audio-keyboard-response","338","901456","0.0-3.0-1.275","../audio/41-6-masc.mp3"," ","","e","","","",""
"","1651","audio-keyboard-response","339","903392","0.0-3.0-1.276","../audio/41-7-masc.mp3"," ","","comédia.","","","",""
"","null","html-keyboard-response","340","904665","0.0-3.0-0.277-0.277","<span style= ""font-size:30px; font-family: monospace"">+</span>","null","fixation","","","","",""
"","1048","audio-keyboard-response","341","906016","0.0-3.0-1.277","../audio/43-1-fem.mp3"," ","","Eu","","","",""
"","1288","audio-keyboard-response","342","907616","0.0-3.0-1.278","../audio/43-2-fem.mp3"," ","","achei","","","",""
"","1189","audio-keyboard-response","343","909088","0.0-3.0-1.279","../audio/43-3-fem.mp3"," ","","um","","","",""
"","1512","audio-keyboard-response","344","910880","0.0-3.0-1.280","../audio/43-4-fem.mp3"," ","","colchão","","","",""
"","1491","audio-keyboard-response","345","912672","0.0-3.0-1.281","../audio/43-5-fem.mp3"," ","","velho","","","",""
"","1568","audio-keyboard-response","346","914528","0.0-3.0-1.282","../audio/43-6-fem.mp3"," ","","e","","","",""
"","1640","audio-keyboard-response","347","916448","0.0-3.0-1.283","../audio/43-7-fem.mp3"," ","","imundo","","","",""
"","1749","audio-keyboard-response","348","918464","0.0-3.0-1.284","../audio/43-8-fem.mp3"," ","","na","","","",""
"","1928","audio-keyboard-response","349","920688","0.0-3.0-1.285","../audio/43-9-fem.mp3"," ","","casa.","","","",""
"","null","html-keyboard-response","350","921956","0.0-3.0-0.286-0.286","<span style= ""font-size:30px; font-family: monospace"">+</span>","null","fixation","","","","",""
"","1381","audio-keyboard-response","351","923632","0.0-3.0-1.286","../audio/44-1-masc.mp3"," ","","Meus","","","",""
"","3019","audio-keyboard-response","352","926944","0.0-3.0-1.287","../audio/44-2-masc.mp3"," ","","irmãos","","","",""
"","3768","audio-keyboard-response","353","931008","0.0-3.0-1.288","../audio/44-3-masc.mp3"," ","","brigam","","","",""
"","2189","audio-keyboard-response","354","933472","0.0-3.0-1.289","../audio/44-4-masc.mp3"," ","","por","","","",""
"","1768","audio-keyboard-response","355","935536","0.0-3.0-1.290","../audio/44-5-masc.mp3"," ","","bobagem","","","",""
"","1531","audio-keyboard-response","356","937360","0.0-3.0-1.291","../audio/44-6-masc.mp3"," ","","todos","","","",""
"","1571","audio-keyboard-response","357","939200","0.0-3.0-1.292","../audio/44-7-masc.mp3"," ","","os","","","",""
"","1968","audio-keyboard-response","358","941456","0.0-3.0-1.293","../audio/44-8-masc.mp3"," ","","dias.","","","",""
"","null","html-keyboard-response","359","942720","0.0-3.0-0.294-0.294","<span style= ""font-size:30px; font-family: monospace"">+</span>","null","fixation","","","","",""
"","941","audio-keyboard-response","360","943952","0.0-3.0-1.294","../audio/42-1-masc.mp3"," ","","Eu","","","",""
"","1179","audio-keyboard-response","361","945408","0.0-3.0-1.295","../audio/42-2-masc.mp3"," ","","fui","","","",""
"","1141","audio-keyboard-response","362","946832","0.0-3.0-1.296","../audio/42-3-masc.mp3"," ","","a","","","",""
"","1099","audio-keyboard-response","363","948208","0.0-3.0-1.297","../audio/42-4-masc.mp3"," ","","uma","","","",""
"","1360","audio-keyboard-response","364","949840","0.0-3.0-1.298","../audio/42-5-masc.mp3"," ","","loja","","","",""
"","1269","audio-keyboard-response","365","951392","0.0-3.0-1.299","../audio/42-6-masc.mp3"," ","","de","","","",""
"","1920","audio-keyboard-response","366","953616","0.0-3.0-1.300","../audio/42-7-masc.mp3"," ","","móveis","","","",""
"","1440","audio-keyboard-response","367","955344","0.0-3.0-1.301","../audio/42-8-masc.mp3"," ","","no","","","",""
"","1691","audio-keyboard-response","368","957312","0.0-3.0-1.302","../audio/42-9-masc.mp3"," ","","bairro.","","","",""
"","null","html-keyboard-response","369","958576","0.0-3.0-0.303-0.303","<span style= ""font-size:30px; font-family: monospace"">+</span>","null","fixation","","","","",""
"","1360","audio-keyboard-response","370","960224","0.0-3.0-1.303","../audio/45-1-masc.mp3"," ","","O","","","",""
"","1389","audio-keyboard-response","371","961888","0.0-3.0-1.304","../audio/45-2-masc.mp3"," ","","homem","","","",""
"","3128","audio-keyboard-response","372","965296","0.0-3.0-1.305","../audio/45-3-masc.mp3"," ","","pagou","","","",""
"","1360","audio-keyboard-response","373","966944","0.0-3.0-1.306","../audio/45-4-masc.mp3"," ","","o","","","",""
"","1349","audio-keyboard-response","374","968576","0.0-3.0-1.307","../audio/45-5-masc.mp3"," ","","aluguel","","","",""
"","1301","audio-keyboard-response","375","970159","0.0-3.0-1.308","../audio/45-6-masc.mp3"," ","","com","","","",""
"","2032","audio-keyboard-response","376","972479","0.0-3.0-1.309","../audio/45-7-masc.mp3"," ","","atraso.","","","",""
"","31059","html-keyboard-response","377","1003791","0.0-3.0-2.309-0.309","<span style=""font-size:25px; font-family: monospace"">O homem pagou o aluguel em dia?</span>","n","","","O homem pagou o aluguel em dia?","null","exp-sent","false"
"","null","html-keyboard-response","378","1005293","0.0-3.0-0.310-0.310","<span style= ""font-size:30px; font-family: monospace"">+</span>","null","fixation","","","","",""
"","371","audio-keyboard-response","379","1005935","0.0-3.0-1.310","../audio/58-1-fem.mp3"," ","","Havia","","","",""
"","1571","audio-keyboard-response","380","1007775","0.0-3.0-1.311","../audio/58-2-fem.mp3"," ","","apenas","","","",""
"","1179","audio-keyboard-response","381","1009231","0.0-3.0-1.312","../audio/58-3-fem.mp3"," ","","um","","","",""
"","1429","audio-keyboard-response","382","1010927","0.0-3.0-1.313","../audio/58-4-fem.mp3"," ","","último","","","",""
"","1539","audio-keyboard-response","383","1012751","0.0-3.0-1.314","../audio/58-5-fem.mp3"," ","","herdeiro","","","",""
"","1600","audio-keyboard-response","384","1014623","0.0-3.0-1.315","../audio/58-6-fem.mp3"," ","","do","","","",""
"","1632","audio-keyboard-response","385","1016543","0.0-3.0-1.316","../audio/58-7-fem.mp3"," ","","dinheiro.","","","",""
"","null","html-keyboard-response","386","1017813","0.0-3.0-0.317-0.317","<span style= ""font-size:30px; font-family: monospace"">+</span>","null","fixation","","","","",""
"","968","audio-keyboard-response","387","1019071","0.0-3.0-1.317","../audio/59-1-fem.mp3"," ","","O","","","",""
"","1531","audio-keyboard-response","388","1020879","0.0-3.0-1.318","../audio/59-2-fem.mp3"," ","","carteiro","","","",""
"","1341","audio-keyboard-response","389","1022495","0.0-3.0-1.319","../audio/59-3-fem.mp3"," ","","fez","","","",""
"","1219","audio-keyboard-response","390","1023999","0.0-3.0-1.320","../audio/59-4-fem.mp3"," ","","uma","","","",""
"","1691","audio-keyboard-response","391","1025983","0.0-3.0-1.321","../audio/59-5-fem.mp3"," ","","tentativa","","","",""
"","2101","audio-keyboard-response","392","1028367","0.0-3.0-1.322","../audio/59-6-fem.mp3"," ","","de","","","",""
"","2168","audio-keyboard-response","393","1030830","0.0-3.0-1.323","../audio/59-7-fem.mp3"," ","","entrega.","","","",""
"","null","html-keyboard-response","394","1032106","0.0-3.0-0.324-0.324","<span style= ""font-size:30px; font-family: monospace"">+</span>","null","fixation","","","","",""
"","109","audio-keyboard-response","395","1032510","0.0-3.0-1.324","../audio/56-1-fem.mp3"," ","","A","","","",""
"","1760","audio-keyboard-response","396","1034558","0.0-3.0-1.325","../audio/56-2-fem.mp3"," ","","moça","","","",""
"","1389","audio-keyboard-response","397","1036238","0.0-3.0-1.326","../audio/56-3-fem.mp3"," ","","foi","","","",""
"","1109","audio-keyboard-response","398","1037630","0.0-3.0-1.327","../audio/56-4-fem.mp3"," ","","à","","","",""
"","1539","audio-keyboard-response","399","1039470","0.0-3.0-1.328","../audio/56-5-fem.mp3"," ","","agência","","","",""
"","1640","audio-keyboard-response","400","1041390","0.0-3.0-1.329","../audio/56-6-fem.mp3"," ","","bancária","","","",""
"","1320","audio-keyboard-response","401","1042990","0.0-3.0-1.330","../audio/56-7-fem.mp3"," ","","ontem","","","",""
"","1309","audio-keyboard-response","402","1044590","0.0-3.0-1.331","../audio/56-8-fem.mp3"," ","","de","","","",""
"","1600","audio-keyboard-response","403","1046463","0.0-3.0-1.332","../audio/56-9-fem.mp3"," ","","tarde.","","","",""
"","null","html-keyboard-response","404","1047735","0.0-3.0-0.333-0.333","<span style= ""font-size:30px; font-family: monospace"">+</span>","null","fixation","","","","",""
"","589","audio-keyboard-response","405","1048606","0.0-3.0-1.333","../audio/57-1-fem.mp3"," ","","O","","","",""
"","2080","audio-keyboard-response","406","1050958","0.0-3.0-1.334","../audio/57-2-fem.mp3"," ","","capitão","","","",""
"","1741","audio-keyboard-response","407","1052974","0.0-3.0-1.335","../audio/57-3-fem.mp3"," ","","deu","","","",""
"","1360","audio-keyboard-response","408","1054606","0.0-3.0-1.336","../audio/57-4-fem.mp3"," ","","uma","","","",""
"","1680","audio-keyboard-response","409","1056575","0.0-3.0-1.337","../audio/57-5-fem.mp3"," ","","instrução","","","",""
"","1272","audio-keyboard-response","410","1058142","0.0-3.0-1.338","../audio/57-6-fem.mp3"," ","","para","","","",""
"","1320","audio-keyboard-response","411","1059742","0.0-3.0-1.339","../audio/57-7-fem.mp3"," ","","as","","","",""
"","1600","audio-keyboard-response","412","1061646","0.0-3.0-1.340","../audio/57-8-fem.mp3"," ","","pessoas.","","","",""
"","null","html-keyboard-response","413","1062909","0.0-3.0-0.341-0.341","<span style= ""font-size:30px; font-family: monospace"">+</span>","null","fixation","","","","",""
"","1312","audio-keyboard-response","414","1064494","0.0-3.0-1.341","../audio/60-1-fem.mp3"," ","","Ondas","","","",""
"","1371","audio-keyboard-response","415","1066142","0.0-3.0-1.342","../audio/60-2-fem.mp3"," ","","têm","","","",""
"","1160","audio-keyboard-response","416","1067566","0.0-3.0-1.343","../audio/60-3-fem.mp3"," ","","um","","","",""
"","1789","audio-keyboard-response","417","1069630","0.0-3.0-1.344","../audio/60-4-fem.mp3"," ","","impacto","","","",""
"","1931","audio-keyboard-response","418","1071886","0.0-3.0-1.345","../audio/60-5-fem.mp3"," ","","destrutivo","","","",""
"","1352","audio-keyboard-response","419","1073534","0.0-3.0-1.346","../audio/60-6-fem.mp3"," ","","no","","","",""
"","1520","audio-keyboard-response","420","1075342","0.0-3.0-1.347","../audio/60-7-fem.mp3"," ","","litoral.","","","",""
"","36038","html-keyboard-response","421","1111630","0.0-3.0-2.347-0.347","<span style=""font-size:25px; font-family: monospace"">Ondas têm um impacto destrutivo?</span>","n","","","Ondas têm um impacto destrutivo?","null","exp-sent","false"
"","null","html-keyboard-response","422","1113131","0.0-3.0-0.348-0.348","<span style= ""font-size:30px; font-family: monospace"">+</span>","null","fixation","","","","",""
"","3872","audio-keyboard-response","423","1117390","0.0-3.0-1.348","../audio/53-1-fem.mp3"," ","","O","","","",""
"","1520","audio-keyboard-response","424","1119198","0.0-3.0-1.349","../audio/53-2-fem.mp3"," ","","médico","","","",""
"","1440","audio-keyboard-response","425","1120926","0.0-3.0-1.350","../audio/53-3-fem.mp3"," ","","foi","","","",""
"","1688","audio-keyboard-response","426","1122910","0.0-3.0-1.351","../audio/53-4-fem.mp3"," ","","bastante","","","",""
"","1469","audio-keyboard-response","427","1124686","0.0-3.0-1.352","../audio/53-5-fem.mp3"," ","","preciso","","","",""
"","1531","audio-keyboard-response","428","1126494","0.0-3.0-1.353","../audio/53-6-fem.mp3"," ","","durante","","","",""
"","1491","audio-keyboard-response","429","1128254","0.0-3.0-1.354","../audio/53-7-fem.mp3"," ","","a","","","",""
"","1829","audio-keyboard-response","430","1130366","0.0-3.0-1.355","../audio/53-8-fem.mp3"," ","","cirurgia.","","","",""
"","null","html-keyboard-response","431","1131637","0.0-3.0-0.356-0.356","<span style= ""font-size:30px; font-family: monospace"">+</span>","null","fixation","","","","",""
"","1320","audio-keyboard-response","432","1133246","0.0-3.0-1.356","../audio/51-1-masc.mp3"," ","","Suco","","","",""
"","1080","audio-keyboard-response","433","1134606","0.0-3.0-1.357","../audio/51-2-masc.mp3"," ","","de","","","",""
"","1400","audio-keyboard-response","434","1136286","0.0-3.0-1.358","../audio/51-3-masc.mp3"," ","","acerola","","","",""
"","1069","audio-keyboard-response","435","1137645","0.0-3.0-1.359","../audio/51-4-masc.mp3"," ","","é","","","",""
"","1739","audio-keyboard-response","436","1139678","0.0-3.0-1.360","../audio/51-5-masc.mp3"," ","","azedo","","","",""
"","1229","audio-keyboard-response","437","1141198","0.0-3.0-1.361","../audio/51-6-masc.mp3"," ","","e","","","",""
"","1560","audio-keyboard-response","438","1143038","0.0-3.0-1.362","../audio/51-7-masc.mp3"," ","","até","","","",""
"","1752","audio-keyboard-response","439","1145070","0.0-3.0-1.363","../audio/51-8-masc.mp3"," ","","barato.","","","",""
"","null","html-keyboard-response","440","1146325","0.0-3.0-0.364-0.364","<span style= ""font-size:30px; font-family: monospace"">+</span>","null","fixation","","","","",""
"","1320","audio-keyboard-response","441","1147934","0.0-3.0-1.364","../audio/54-1-masc.mp3"," ","","Estou","","","",""
"","1371","audio-keyboard-response","442","1149582","0.0-3.0-1.365","../audio/54-2-masc.mp3"," ","","com","","","",""
"","1299","audio-keyboard-response","443","1151150","0.0-3.0-1.366","../audio/54-3-masc.mp3"," ","","medo","","","",""
"","1208","audio-keyboard-response","444","1152638","0.0-3.0-1.367","../audio/54-4-masc.mp3"," ","","da","","","",""
"","1251","audio-keyboard-response","445","1154174","0.0-3.0-1.368","../audio/54-5-masc.mp3"," ","","atual","","","",""
"","1811","audio-keyboard-response","446","1156254","0.0-3.0-1.369","../audio/54-6-masc.mp3"," ","","organização","","","",""
"","1069","audio-keyboard-response","447","1157614","0.0-3.0-1.370","../audio/54-7-masc.mp3"," ","","do","","","",""
"","1600","audio-keyboard-response","448","1159486","0.0-3.0-1.371","../audio/54-8-masc.mp3"," ","","país.","","","",""
"","null","html-keyboard-response","449","1160756","0.0-3.0-0.372-0.372","<span style= ""font-size:30px; font-family: monospace"">+</span>","null","fixation","","","","",""
"","1251","audio-keyboard-response","450","1162302","0.0-3.0-1.372","../audio/52-1-fem.mp3"," ","","Às","","","",""
"","1269","audio-keyboard-response","451","1163854","0.0-3.0-1.373","../audio/52-2-fem.mp3"," ","","vezes","","","",""
"","1040","audio-keyboard-response","452","1165165","0.0-3.0-1.374","../audio/52-3-fem.mp3"," ","","eu","","","",""
"","1280","audio-keyboard-response","453","1166781","0.0-3.0-1.375","../audio/52-4-fem.mp3"," ","","tenho","","","",""
"","1360","audio-keyboard-response","454","1168429","0.0-3.0-1.376","../audio/52-5-fem.mp3"," ","","azia","","","",""
"","1221","audio-keyboard-response","455","1169933","0.0-3.0-1.377","../audio/52-6-fem.mp3"," ","","depois","","","",""
"","1539","audio-keyboard-response","456","1171757","0.0-3.0-1.378","../audio/52-7-fem.mp3"," ","","da","","","",""
"","1720","audio-keyboard-response","457","1173757","0.0-3.0-1.379","../audio/52-8-fem.mp3"," ","","janta.","","","",""
"","null","html-keyboard-response","458","1175025","0.0-3.0-0.380-0.380","<span style= ""font-size:30px; font-family: monospace"">+</span>","null","fixation","","","","",""
"","1080","audio-keyboard-response","459","1176397","0.0-3.0-1.380","../audio/55-1-fem.mp3"," ","","O","","","",""
"","1688","audio-keyboard-response","460","1178350","0.0-3.0-1.381","../audio/55-2-fem.mp3"," ","","insulto","","","",""
"","1448","audio-keyboard-response","461","1180077","0.0-3.0-1.382","../audio/55-3-fem.mp3"," ","","recente","","","",""
"","1560","audio-keyboard-response","462","1181917","0.0-3.0-1.383","../audio/55-4-fem.mp3"," ","","causou","","","",""
"","1941","audio-keyboard-response","463","1184141","0.0-3.0-1.384","../audio/55-5-fem.mp3"," ","","indignação","","","",""
"","1211","audio-keyboard-response","464","1185645","0.0-3.0-1.385","../audio/55-6-fem.mp3"," ","","em","","","",""
"","1509","audio-keyboard-response","465","1187453","0.0-3.0-1.386","../audio/55-7-fem.mp3"," ","","todos.","","","",""
"","32922","html-keyboard-response","466","1220638","0.0-3.0-2.386-0.386","<span style=""font-size:25px; font-family: monospace"">O insulto causou calmaria?</span>","n","","","O insulto causou calmaria?","null","exp-sent","false"
"","null","html-keyboard-response","467","1222139","0.0-3.0-0.387-0.387","<span style= ""font-size:30px; font-family: monospace"">+</span>","null","fixation","","","","",""
"","1672","audio-keyboard-response","468","1224189","0.0-3.0-1.387","../audio/63-1-fem.mp3"," ","","A","","","",""
"","2091","audio-keyboard-response","469","1226573","0.0-3.0-1.388","../audio/63-2-fem.mp3"," ","","chuva","","","",""
"","3440","audio-keyboard-response","470","1230317","0.0-3.0-1.389","../audio/63-3-fem.mp3"," ","","entrou","","","",""
"","1459","audio-keyboard-response","471","1232077","0.0-3.0-1.390","../audio/63-4-fem.mp3"," ","","pela","","","",""
"","1589","audio-keyboard-response","472","1233981","0.0-3.0-1.391","../audio/63-5-fem.mp3"," ","","abertura","","","",""
"","1619","audio-keyboard-response","473","1235885","0.0-3.0-1.392","../audio/63-6-fem.mp3"," ","","na","","","",""
"","2640","audio-keyboard-response","474","1238798","0.0-3.0-1.393","../audio/63-7-fem.mp3"," ","","janela.","","","",""
"","null","html-keyboard-response","475","1240065","0.0-3.0-0.394-0.394","<span style= ""font-size:30px; font-family: monospace"">+</span>","null","fixation","","","","",""
"","1749","audio-keyboard-response","476","1242125","0.0-3.0-1.394","../audio/62-1-masc.mp3"," ","","As","","","",""
"","2411","audio-keyboard-response","477","1244830","0.0-3.0-1.395","../audio/62-2-masc.mp3"," ","","artesãs","","","",""
"","3320","audio-keyboard-response","478","1248430","0.0-3.0-1.396","../audio/62-3-masc.mp3"," ","","gostam","","","",""
"","2120","audio-keyboard-response","479","1250845","0.0-3.0-1.397","../audio/62-4-masc.mp3"," ","","de","","","",""
"","3128","audio-keyboard-response","480","1254318","0.0-3.0-1.398","../audio/62-5-masc.mp3"," ","","maquiagem","","","",""
"","2389","audio-keyboard-response","481","1257005","0.0-3.0-1.399","../audio/62-6-masc.mp3"," ","","e","","","",""
"","1240","audio-keyboard-response","482","1258526","0.0-3.0-1.400","../audio/62-7-masc.mp3"," ","","de","","","",""
"","1480","audio-keyboard-response","483","1260286","0.0-3.0-1.401","../audio/62-8-masc.mp3"," ","","crochê.","","","",""
"","null","html-keyboard-response","484","1261545","0.0-3.0-0.402-0.402","<span style= ""font-size:30px; font-family: monospace"">+</span>","null","fixation","","","","",""
"","1040","audio-keyboard-response","485","1262877","0.0-3.0-1.402","../audio/64-1-fem.mp3"," ","","O","","","",""
"","1520","audio-keyboard-response","486","1264686","0.0-3.0-1.403","../audio/64-2-fem.mp3"," ","","dia","","","",""
"","1669","audio-keyboard-response","487","1266637","0.0-3.0-1.404","../audio/64-3-fem.mp3"," ","","começou","","","",""
"","1200","audio-keyboard-response","488","1268109","0.0-3.0-1.405","../audio/64-4-fem.mp3"," ","","com","","","",""
"","1400","audio-keyboard-response","489","1269821","0.0-3.0-1.406","../audio/64-5-fem.mp3"," ","","garoa","","","",""
"","1880","audio-keyboard-response","490","1272029","0.0-3.0-1.407","../audio/64-6-fem.mp3"," ","","gelada","","","",""
"","1589","audio-keyboard-response","491","1273917","0.0-3.0-1.408","../audio/64-7-fem.mp3"," ","","e","","","",""
"","1680","audio-keyboard-response","492","1275886","0.0-3.0-1.409","../audio/64-8-fem.mp3"," ","","leve.","","","",""
"","null","html-keyboard-response","493","1277150","0.0-3.0-0.410-0.410","<span style= ""font-size:30px; font-family: monospace"">+</span>","null","fixation","","","","",""
"","1640","audio-keyboard-response","494","1279086","0.0-3.0-1.410","../audio/61-1-masc.mp3"," ","","Aquele","","","",""
"","2240","audio-keyboard-response","495","1281614","0.0-3.0-1.411","../audio/61-2-masc.mp3"," ","","senhor","","","",""
"","1829","audio-keyboard-response","496","1283741","0.0-3.0-1.412","../audio/61-3-masc.mp3"," ","","é","","","",""
"","1589","audio-keyboard-response","497","1285646","0.0-3.0-1.413","../audio/61-4-masc.mp3"," ","","muito","","","",""
"","1680","audio-keyboard-response","498","1287597","0.0-3.0-1.414","../audio/61-5-masc.mp3"," ","","sovina","","","",""
"","1539","audio-keyboard-response","499","1289405","0.0-3.0-1.415","../audio/61-6-masc.mp3"," ","","e","","","",""
"","1949","audio-keyboard-response","500","1291661","0.0-3.0-1.416","../audio/61-7-masc.mp3"," ","","inflexível.","","","",""
"","null","html-keyboard-response","501","1292930","0.0-3.0-0.417-0.417","<span style= ""font-size:30px; font-family: monospace"">+</span>","null","fixation","","","","",""
"","1019","audio-keyboard-response","502","1294253","0.0-3.0-1.417","../audio/65-1-masc.mp3"," ","","O","","","",""
"","1531","audio-keyboard-response","503","1296061","0.0-3.0-1.418","../audio/65-2-masc.mp3"," ","","fantasma","","","",""
"","1680","audio-keyboard-response","504","1298029","0.0-3.0-1.419","../audio/65-3-masc.mp3"," ","","veio","","","",""
"","2061","audio-keyboard-response","505","1300381","0.0-3.0-1.420","../audio/65-4-masc.mp3"," ","","da","","","",""
"","2328","audio-keyboard-response","506","1303005","0.0-3.0-1.421","../audio/65-5-masc.mp3"," ","","escuridão","","","",""
"","2171","audio-keyboard-response","507","1305469","0.0-3.0-1.422","../audio/65-6-masc.mp3"," ","","do","","","",""
"","1520","audio-keyboard-response","508","1307277","0.0-3.0-1.423","../audio/65-7-masc.mp3"," ","","armário.","","","",""
"","17956","html-keyboard-response","509","1325485","0.0-3.0-2.423-0.423","<span style=""font-size:25px; font-family: monospace"">O fantasma veio da escuridão do armário?</span>","s","","","O fantasma veio da escuridão do armário?","null","exp-sent","false"
"","null","html-keyboard-response","510","1326994","0.0-3.0-0.424-0.424","<span style= ""font-size:30px; font-family: monospace"">+</span>","null","fixation","","","","",""
"","181","audio-keyboard-response","511","1327469","0.0-3.0-1.424","../audio/37-1-masc.mp3"," ","","Eu","","","",""
"","1800","audio-keyboard-response","512","1329549","0.0-3.0-1.425","../audio/37-2-masc.mp3"," ","","adoro","","","",""
"","1608","audio-keyboard-response","513","1331437","0.0-3.0-1.426","../audio/37-3-masc.mp3"," ","","suco","","","",""
"","1440","audio-keyboard-response","514","1333165","0.0-3.0-1.427","../audio/37-4-masc.mp3"," ","","de","","","",""
"","1829","audio-keyboard-response","515","1335277","0.0-3.0-1.428","../audio/37-5-masc.mp3"," ","","manga","","","",""
"","1589","audio-keyboard-response","516","1337165","0.0-3.0-1.429","../audio/37-6-masc.mp3"," ","","com","","","",""
"","2048","audio-keyboard-response","517","1339517","0.0-3.0-1.430","../audio/37-7-masc.mp3"," ","","hortelã.","","","",""
"","null","html-keyboard-response","518","1340781","0.0-3.0-0.431-0.431","<span style= ""font-size:30px; font-family: monospace"">+</span>","null","fixation","","","","",""
"","1291","audio-keyboard-response","519","1342349","0.0-3.0-1.431","../audio/38-1-fem.mp3"," ","","A","","","",""
"","1539","audio-keyboard-response","520","1344157","0.0-3.0-1.432","../audio/38-2-fem.mp3"," ","","empresa","","","",""
"","1491","audio-keyboard-response","521","1345948","0.0-3.0-1.433","../audio/38-3-fem.mp3"," ","","criou","","","",""
"","1480","audio-keyboard-response","522","1347708","0.0-3.0-1.434","../audio/38-4-fem.mp3"," ","","a","","","",""
"","1840","audio-keyboard-response","523","1349836","0.0-3.0-1.435","../audio/38-5-fem.mp3"," ","","patente","","","",""
"","1509","audio-keyboard-response","524","1351644","0.0-3.0-1.436","../audio/38-6-fem.mp3"," ","","da","","","",""
"","1880","audio-keyboard-response","525","1353820","0.0-3.0-1.437","../audio/38-7-fem.mp3"," ","","frigideira.","","","",""
"","null","html-keyboard-response","526","1355090","0.0-3.0-0.438-0.438","<span style= ""font-size:30px; font-family: monospace"">+</span>","null","fixation","","","","",""
"","1691","audio-keyboard-response","527","1357068","0.0-3.0-1.438","../audio/39-1-fem.mp3"," ","","O","","","",""
"","1731","audio-keyboard-response","528","1359085","0.0-3.0-1.439","../audio/39-2-fem.mp3"," ","","conselho","","","",""
"","1872","audio-keyboard-response","529","1361228","0.0-3.0-1.440","../audio/39-3-fem.mp3"," ","","foi","","","",""
"","1400","audio-keyboard-response","530","1362940","0.0-3.0-1.441","../audio/39-4-fem.mp3"," ","","muito","","","",""
"","1339","audio-keyboard-response","531","1364556","0.0-3.0-1.442","../audio/39-5-fem.mp3"," ","","útil","","","",""
"","1419","audio-keyboard-response","532","1366252","0.0-3.0-1.443","../audio/39-6-fem.mp3"," ","","para","","","",""
"","1291","audio-keyboard-response","533","1367820","0.0-3.0-1.444","../audio/39-7-fem.mp3"," ","","minha","","","",""
"","1469","audio-keyboard-response","534","1369580","0.0-3.0-1.445","../audio/39-8-fem.mp3"," ","","tia.","","","",""
"","null","html-keyboard-response","535","1370849","0.0-3.0-0.446-0.446","<span style= ""font-size:30px; font-family: monospace"">+</span>","null","fixation","","","","",""
"","901","audio-keyboard-response","536","1372028","0.0-3.0-1.446","../audio/36-1-fem.mp3"," ","","Meu","","","",""
"","1411","audio-keyboard-response","537","1373708","0.0-3.0-1.447","../audio/36-2-fem.mp3"," ","","tio","","","",""
"","1331","audio-keyboard-response","538","1375308","0.0-3.0-1.448","../audio/36-3-fem.mp3"," ","","comprou","","","",""
"","1320","audio-keyboard-response","539","1376908","0.0-3.0-1.449","../audio/36-4-fem.mp3"," ","","um","","","",""
"","1280","audio-keyboard-response","540","1378460","0.0-3.0-1.450","../audio/36-5-fem.mp3"," ","","filtro","","","",""
"","1371","audio-keyboard-response","541","1380108","0.0-3.0-1.451","../audio/36-6-fem.mp3"," ","","de","","","",""
"","1280","audio-keyboard-response","542","1381660","0.0-3.0-1.452","../audio/36-7-fem.mp3"," ","","água","","","",""
"","1280","audio-keyboard-response","543","1383212","0.0-3.0-1.453","../audio/36-8-fem.mp3"," ","","hoje","","","",""
"","1509","audio-keyboard-response","544","1385020","0.0-3.0-1.454","../audio/36-9-fem.mp3"," ","","cedo.","","","",""
"","null","html-keyboard-response","545","1386291","0.0-3.0-0.455-0.455","<span style= ""font-size:30px; font-family: monospace"">+</span>","null","fixation","","","","",""
"","891","audio-keyboard-response","546","1387468","0.0-3.0-1.455","../audio/40-1-fem.mp3"," ","","O","","","",""
"","1459","audio-keyboard-response","547","1389212","0.0-3.0-1.456","../audio/40-2-fem.mp3"," ","","jogo","","","",""
"","1392","audio-keyboard-response","548","1390908","0.0-3.0-1.457","../audio/40-3-fem.mp3"," ","","falava","","","",""
"","1459","audio-keyboard-response","549","1392636","0.0-3.0-1.458","../audio/40-4-fem.mp3"," ","","de","","","",""
"","1611","audio-keyboard-response","550","1394540","0.0-3.0-1.459","../audio/40-5-fem.mp3"," ","","fantasia","","","",""
"","1320","audio-keyboard-response","551","1396140","0.0-3.0-1.460","../audio/40-6-fem.mp3"," ","","e","","","",""
"","1069","audio-keyboard-response","552","1397485","0.0-3.0-1.461","../audio/40-7-fem.mp3"," ","","de","","","",""
"","1800","audio-keyboard-response","553","1399564","0.0-3.0-1.462","../audio/40-8-fem.mp3"," ","","aventura.","","","",""
"","34060","html-keyboard-response","554","1433884","0.0-3.0-2.462-0.462","<span style=""font-size:25px; font-family: monospace"">O jogo tinha fantasia e aventura?</span>","n","","","O jogo tinha fantasia e aventura?","null","exp-sent","false"
"","null","html-keyboard-response","555","1435386","0.0-3.0-0.463-0.463","<span style= ""font-size:30px; font-family: monospace"">+</span>","null","fixation","","","","",""
"","1168","audio-keyboard-response","556","1436924","0.0-3.0-1.463","../audio/27-1-masc.mp3"," ","","O","","","",""
"","1429","audio-keyboard-response","557","1438652","0.0-3.0-1.464","../audio/27-2-masc.mp3"," ","","dinheiro","","","",""
"","1621","audio-keyboard-response","558","1440556","0.0-3.0-1.465","../audio/27-3-masc.mp3"," ","","chegou","","","",""
"","1139","audio-keyboard-response","559","1441964","0.0-3.0-1.466","../audio/27-4-masc.mp3"," ","","à","","","",""
"","1349","audio-keyboard-response","560","1443612","0.0-3.0-1.467","../audio/27-5-masc.mp3"," ","","elite","","","",""
"","1200","audio-keyboard-response","561","1445084","0.0-3.0-1.468","../audio/27-6-masc.mp3"," ","","deste","","","",""
"","1408","audio-keyboard-response","562","1446764","0.0-3.0-1.469","../audio/27-7-masc.mp3"," ","","país.","","","",""
"","null","html-keyboard-response","563","1448041","0.0-3.0-0.470-0.470","<span style= ""font-size:30px; font-family: monospace"">+</span>","null","fixation","","","","",""
"","779","audio-keyboard-response","564","1449100","0.0-3.0-1.470","../audio/28-1-masc.mp3"," ","","O","","","",""
"","1101","audio-keyboard-response","565","1450476","0.0-3.0-1.471","../audio/28-2-masc.mp3"," ","","time","","","",""
"","1189","audio-keyboard-response","566","1451932","0.0-3.0-1.472","../audio/28-3-masc.mp3"," ","","quer","","","",""
"","981","audio-keyboard-response","567","1453196","0.0-3.0-1.473","../audio/28-4-masc.mp3"," ","","a","","","",""
"","1451","audio-keyboard-response","568","1454940","0.0-3.0-1.474","../audio/28-5-masc.mp3"," ","","vitória","","","",""
"","1411","audio-keyboard-response","569","1456636","0.0-3.0-1.475","../audio/28-6-masc.mp3"," ","","no","","","",""
"","1528","audio-keyboard-response","570","1458444","0.0-3.0-1.476","../audio/28-7-masc.mp3"," ","","jogo","","","",""
"","1528","audio-keyboard-response","571","1460252","0.0-3.0-1.477","../audio/28-8-masc.mp3"," ","","de","","","",""
"","1589","audio-keyboard-response","572","1462124","0.0-3.0-1.478","../audio/28-9-masc.mp3"," ","","vôlei.","","","",""
"","null","html-keyboard-response","573","1463386","0.0-3.0-0.479-0.479","<span style= ""font-size:30px; font-family: monospace"">+</span>","null","fixation","","","","",""
"","419","audio-keyboard-response","574","1464092","0.0-3.0-1.479","../audio/26-1-masc.mp3"," ","","Amanhã","","","",""
"","1331","audio-keyboard-response","575","1465708","0.0-3.0-1.480","../audio/26-2-masc.mp3"," ","","temos","","","",""
"","1189","audio-keyboard-response","576","1467164","0.0-3.0-1.481","../audio/26-3-masc.mp3"," ","","festa","","","",""
"","1269","audio-keyboard-response","577","1468700","0.0-3.0-1.482","../audio/26-4-masc.mp3"," ","","na","","","",""
"","1419","audio-keyboard-response","578","1470412","0.0-3.0-1.483","../audio/26-5-masc.mp3"," ","","piscina","","","",""
"","1320","audio-keyboard-response","579","1472012","0.0-3.0-1.484","../audio/26-6-masc.mp3"," ","","o","","","",""
"","1720","audio-keyboard-response","580","1474012","0.0-3.0-1.485","../audio/26-7-masc.mp3"," ","","dia","","","",""
"","1509","audio-keyboard-response","581","1475820","0.0-3.0-1.486","../audio/26-8-masc.mp3"," ","","todo.","","","",""
"","null","html-keyboard-response","582","1477085","0.0-3.0-0.487-0.487","<span style= ""font-size:30px; font-family: monospace"">+</span>","null","fixation","","","","",""
"","1421","audio-keyboard-response","583","1478796","0.0-3.0-1.487","../audio/29-1-masc.mp3"," ","","Hoje","","","",""
"","1720","audio-keyboard-response","584","1480812","0.0-3.0-1.488","../audio/29-2-masc.mp3"," ","","vamos","","","",""
"","1429","audio-keyboard-response","585","1482540","0.0-3.0-1.489","../audio/29-3-masc.mp3"," ","","fazer","","","",""
"","2101","audio-keyboard-response","586","1484956","0.0-3.0-1.490","../audio/29-4-masc.mp3"," ","","uma","","","",""
"","2619","audio-keyboard-response","587","1487884","0.0-3.0-1.491","../audio/29-5-masc.mp3"," ","","atividade","","","",""
"","1621","audio-keyboard-response","588","1489788","0.0-3.0-1.492","../audio/29-6-masc.mp3"," ","","sobre","","","",""
"","2208","audio-keyboard-response","589","1492284","0.0-3.0-1.493","../audio/29-7-masc.mp3"," ","","fauna","","","",""
"","2141","audio-keyboard-response","590","1494715","0.0-3.0-1.494","../audio/29-8-masc.mp3"," ","","marinha.","","","",""
"","null","html-keyboard-response","591","1495993","0.0-3.0-0.495-0.495","<span style= ""font-size:30px; font-family: monospace"">+</span>","null","fixation","","","","",""
"","1699","audio-keyboard-response","592","1497964","0.0-3.0-1.495","../audio/30-1-fem.mp3"," ","","O","","","",""
"","1720","audio-keyboard-response","593","1499996","0.0-3.0-1.496","../audio/30-2-fem.mp3"," ","","funcionário","","","",""
"","1661","audio-keyboard-response","594","1501948","0.0-3.0-1.497","../audio/30-3-fem.mp3"," ","","entregou","","","",""
"","1461","audio-keyboard-response","595","1503676","0.0-3.0-1.498","../audio/30-4-fem.mp3"," ","","o","","","",""
"","2099","audio-keyboard-response","596","1506044","0.0-3.0-1.499","../audio/30-5-fem.mp3"," ","","restante","","","",""
"","2021","audio-keyboard-response","597","1508348","0.0-3.0-1.500","../audio/30-6-fem.mp3"," ","","do","","","",""
"","2259","audio-keyboard-response","598","1510892","0.0-3.0-1.501","../audio/30-7-fem.mp3"," ","","dinheiro.","","","",""
"","31584","html-keyboard-response","599","1542732","0.0-3.0-2.501-0.501","<span style=""font-size:25px; font-family: monospace"">O funcionário entregou o contrato?</span>","s","","","O funcionário entregou o contrato?","null","exp-sent","false"
"","null","html-keyboard-response","600","1544235","0.0-3.0-0.502-0.502","<span style= ""font-size:30px; font-family: monospace"">+</span>","null","fixation","","","","",""
"","1381","audio-keyboard-response","601","1545900","0.0-3.0-1.502","../audio/11-1-fem.mp3"," ","","Elas","","","",""
"","1349","audio-keyboard-response","602","1547515","0.0-3.0-1.503","../audio/11-2-fem.mp3"," ","","gostam","","","",""
"","1352","audio-keyboard-response","603","1549131","0.0-3.0-1.504","../audio/11-3-fem.mp3"," ","","muito","","","",""
"","1211","audio-keyboard-response","604","1550603","0.0-3.0-1.505","../audio/11-4-fem.mp3"," ","","de","","","",""
"","2589","audio-keyboard-response","605","1553467","0.0-3.0-1.506","../audio/11-5-fem.mp3"," ","","aritmética","","","",""
"","1461","audio-keyboard-response","606","1555211","0.0-3.0-1.507","../audio/11-6-fem.mp3"," ","","e","","","",""
"","1291","audio-keyboard-response","607","1556779","0.0-3.0-1.508","../audio/11-7-fem.mp3"," ","","de","","","",""
"","2059","audio-keyboard-response","608","1559115","0.0-3.0-1.509","../audio/11-8-fem.mp3"," ","","leitura.","","","",""
"","null","html-keyboard-response","609","1560386","0.0-3.0-0.510-0.510","<span style= ""font-size:30px; font-family: monospace"">+</span>","null","fixation","","","","",""
"","1091","audio-keyboard-response","610","1561771","0.0-3.0-1.510","../audio/12-1-masc.mp3"," ","","O","","","",""
"","1389","audio-keyboard-response","611","1563435","0.0-3.0-1.511","../audio/12-2-masc.mp3"," ","","dia","","","",""
"","1411","audio-keyboard-response","612","1565131","0.0-3.0-1.512","../audio/12-3-masc.mp3"," ","","estava","","","",""
"","1560","audio-keyboard-response","613","1566955","0.0-3.0-1.513","../audio/12-4-masc.mp3"," ","","quente,","","","",""
"","1651","audio-keyboard-response","614","1568890","0.0-3.0-1.514","../audio/12-5-masc.mp3"," ","","tranquilo","","","",""
"","1339","audio-keyboard-response","615","1570510","0.0-3.0-1.515","../audio/12-6-masc.mp3"," ","","e","","","",""
"","1920","audio-keyboard-response","616","1572715","0.0-3.0-1.516","../audio/12-7-masc.mp3"," ","","ensolarado.","","","",""
"","null","html-keyboard-response","617","1573986","0.0-3.0-0.517-0.517","<span style= ""font-size:30px; font-family: monospace"">+</span>","null","fixation","","","","",""
"","1240","audio-keyboard-response","618","1575515","0.0-3.0-1.517","../audio/14-1-fem.mp3"," ","","O","","","",""
"","1941","audio-keyboard-response","619","1577739","0.0-3.0-1.518","../audio/14-2-fem.mp3"," ","","cachorro","","","",""
"","1752","audio-keyboard-response","620","1579770","0.0-3.0-1.519","../audio/14-3-fem.mp3"," ","","é","","","",""
"","1251","audio-keyboard-response","621","1581339","0.0-3.0-1.520","../audio/14-4-fem.mp3"," ","","muito","","","",""
"","1179","audio-keyboard-response","622","1582795","0.0-3.0-1.521","../audio/14-5-fem.mp3"," ","","fiel","","","",""
"","1331","audio-keyboard-response","623","1584410","0.0-3.0-1.522","../audio/14-6-fem.mp3"," ","","a","","","",""
"","1509","audio-keyboard-response","624","1586203","0.0-3.0-1.523","../audio/14-7-fem.mp3"," ","","seus","","","",""
"","1731","audio-keyboard-response","625","1588219","0.0-3.0-1.524","../audio/14-8-fem.mp3"," ","","donos.","","","",""
"","null","html-keyboard-response","626","1589478","0.0-3.0-0.525-0.525","<span style= ""font-size:30px; font-family: monospace"">+</span>","null","fixation","","","","",""
"","1240","audio-keyboard-response","627","1591003","0.0-3.0-1.525","../audio/13-1-fem.mp3"," ","","Para","","","",""
"","1421","audio-keyboard-response","628","1592699","0.0-3.0-1.526","../audio/13-2-fem.mp3"," ","","mim","","","",""
"","1240","audio-keyboard-response","629","1594203","0.0-3.0-1.527","../audio/13-3-fem.mp3"," ","","é","","","",""
"","1549","audio-keyboard-response","630","1596043","0.0-3.0-1.528","../audio/13-4-fem.mp3"," ","","muito","","","",""
"","2400","audio-keyboard-response","631","1598731","0.0-3.0-1.529","../audio/13-5-fem.mp3"," ","","difícil","","","",""
"","3480","audio-keyboard-response","632","1602490","0.0-3.0-1.530","../audio/13-6-fem.mp3"," ","","acordar","","","",""
"","3699","audio-keyboard-response","633","1606507","0.0-3.0-1.531","../audio/13-7-fem.mp3"," ","","cedo.","","","",""
"","null","html-keyboard-response","634","1607777","0.0-3.0-0.532-0.532","<span style= ""font-size:30px; font-family: monospace"">+</span>","null","fixation","","","","",""
"","1141","audio-keyboard-response","635","1609211","0.0-3.0-1.532","../audio/15-1-masc.mp3"," ","","Meu","","","",""
"","1171","audio-keyboard-response","636","1610650","0.0-3.0-1.533","../audio/15-2-masc.mp3"," ","","primo","","","",""
"","1139","audio-keyboard-response","637","1612074","0.0-3.0-1.534","../audio/15-3-masc.mp3"," ","","é","","","",""
"","1280","audio-keyboard-response","638","1613642","0.0-3.0-1.535","../audio/15-4-masc.mp3"," ","","um","","","",""
"","1331","audio-keyboard-response","639","1615258","0.0-3.0-1.536","../audio/15-5-masc.mp3"," ","","grande","","","",""
"","1440","audio-keyboard-response","640","1616970","0.0-3.0-1.537","../audio/15-6-masc.mp3"," ","","vendedor","","","",""
"","1200","audio-keyboard-response","641","1618442","0.0-3.0-1.538","../audio/15-7-masc.mp3"," ","","de","","","",""
"","1461","audio-keyboard-response","642","1620170","0.0-3.0-1.539","../audio/15-8-masc.mp3"," ","","carros.","","","",""
"","10562","html-keyboard-response","643","1630986","0.0-3.0-2.539-0.539","<span style=""font-size:25px; font-family: monospace"">O primo é um vendedor de carros?</span>","s","","","O primo é um vendedor de carros?","null","exp-sent","false"
"","null","html-keyboard-response","644","1632511","0.0-3.0-0.540-0.540","<span style= ""font-size:30px; font-family: monospace"">+</span>","null","fixation","","","","",""
"","1379","audio-keyboard-response","645","1634186","0.0-3.0-1.540","../audio/24-1-fem.mp3"," ","","As","","","",""
"","1621","audio-keyboard-response","646","1636090","0.0-3.0-1.541","../audio/24-2-fem.mp3"," ","","crianças","","","",""
"","1229","audio-keyboard-response","647","1637594","0.0-3.0-1.542","../audio/24-3-fem.mp3"," ","","vão","","","",""
"","1211","audio-keyboard-response","648","1639114","0.0-3.0-1.543","../audio/24-4-fem.mp3"," ","","ao","","","",""
"","1611","audio-keyboard-response","649","1641018","0.0-3.0-1.544","../audio/24-5-fem.mp3"," ","","cinema","","","",""
"","1320","audio-keyboard-response","650","1642618","0.0-3.0-1.545","../audio/24-6-fem.mp3"," ","","mais","","","",""
"","1440","audio-keyboard-response","651","1644330","0.0-3.0-1.546","../audio/24-7-fem.mp3"," ","","tarde.","","","",""
"","null","html-keyboard-response","652","1645593","0.0-3.0-0.547-0.547","<span style= ""font-size:30px; font-family: monospace"">+</span>","null","fixation","","","","",""
"","1509","audio-keyboard-response","653","1647386","0.0-3.0-1.547","../audio/22-1-fem.mp3"," ","","Eu","","","",""
"","1549","audio-keyboard-response","654","1649226","0.0-3.0-1.548","../audio/22-2-fem.mp3"," ","","detesto","","","",""
"","1432","audio-keyboard-response","655","1650938","0.0-3.0-1.549","../audio/22-3-fem.mp3"," ","","fumaça","","","",""
"","1571","audio-keyboard-response","656","1652778","0.0-3.0-1.550","../audio/22-4-fem.mp3"," ","","de","","","",""
"","1781","audio-keyboard-response","657","1654858","0.0-3.0-1.551","../audio/22-5-fem.mp3"," ","","cachimbo","","","",""
"","1341","audio-keyboard-response","658","1656490","0.0-3.0-1.552","../audio/22-6-fem.mp3"," ","","e","","","",""
"","1320","audio-keyboard-response","659","1658090","0.0-3.0-1.553","../audio/22-7-fem.mp3"," ","","de","","","",""
"","1501","audio-keyboard-response","660","1659882","0.0-3.0-1.554","../audio/22-8-fem.mp3"," ","","cigarro.","","","",""
"","null","html-keyboard-response","661","1661148","0.0-3.0-0.555-0.555","<span style= ""font-size:30px; font-family: monospace"">+</span>","null","fixation","","","","",""
"","1568","audio-keyboard-response","662","1663067","0.0-3.0-1.555","../audio/23-1-masc.mp3"," ","","Português","","","",""
"","1229","audio-keyboard-response","663","1664586","0.0-3.0-1.556","../audio/23-2-masc.mp3"," ","","é","","","",""
"","1080","audio-keyboard-response","664","1665930","0.0-3.0-1.557","../audio/23-3-masc.mp3"," ","","um","","","",""
"","1299","audio-keyboard-response","665","1667514","0.0-3.0-1.558","../audio/23-4-masc.mp3"," ","","assunto","","","",""
"","1419","audio-keyboard-response","666","1669226","0.0-3.0-1.559","../audio/23-5-masc.mp3"," ","","elementar","","","",""
"","989","audio-keyboard-response","667","1670506","0.0-3.0-1.560","../audio/23-6-masc.mp3"," ","","para","","","",""
"","1320","audio-keyboard-response","668","1672106","0.0-3.0-1.561","../audio/23-7-masc.mp3"," ","","os","","","",""
"","1341","audio-keyboard-response","669","1673722","0.0-3.0-1.562","../audio/23-8-masc.mp3"," ","","alunos.","","","",""
"","null","html-keyboard-response","670","1674996","0.0-3.0-0.563-0.563","<span style= ""font-size:30px; font-family: monospace"">+</span>","null","fixation","","","","",""
"","2139","audio-keyboard-response","671","1677434","0.0-3.0-1.563","../audio/21-1-fem.mp3"," ","","Precisamos","","","",""
"","1040","audio-keyboard-response","672","1678762","0.0-3.0-1.564","../audio/21-2-fem.mp3"," ","","de","","","",""
"","1680","audio-keyboard-response","673","1680730","0.0-3.0-1.565","../audio/21-3-fem.mp3"," ","","paciência","","","",""
"","1389","audio-keyboard-response","674","1682394","0.0-3.0-1.566","../audio/21-4-fem.mp3"," ","","e","","","",""
"","1440","audio-keyboard-response","675","1684106","0.0-3.0-1.567","../audio/21-5-fem.mp3"," ","","bondade","","","",""
"","1192","audio-keyboard-response","676","1685578","0.0-3.0-1.568","../audio/21-6-fem.mp3"," ","","para","","","",""
"","1368","audio-keyboard-response","677","1687226","0.0-3.0-1.569","../audio/21-7-fem.mp3"," ","","um","","","",""
"","1221","audio-keyboard-response","678","1688730","0.0-3.0-1.570","../audio/21-8-fem.mp3"," ","","mundo","","","",""
"","1440","audio-keyboard-response","679","1690458","0.0-3.0-1.571","../audio/21-9-fem.mp3"," ","","melhor.","","","",""
"","null","html-keyboard-response","680","1691713","0.0-3.0-0.572-0.572","<span style= ""font-size:30px; font-family: monospace"">+</span>","null","fixation","","","","",""
"","1131","audio-keyboard-response","681","1693130","0.0-3.0-1.572","../audio/25-1-fem.mp3"," ","","Ela","","","",""
"","1600","audio-keyboard-response","682","1695002","0.0-3.0-1.573","../audio/25-2-fem.mp3"," ","","faz","","","",""
"","1440","audio-keyboard-response","683","1696714","0.0-3.0-1.574","../audio/25-3-fem.mp3"," ","","tanto","","","",""
"","1381","audio-keyboard-response","684","1698378","0.0-3.0-1.575","../audio/25-4-fem.mp3"," ","","cabelo","","","",""
"","1501","audio-keyboard-response","685","1700170","0.0-3.0-1.576","../audio/25-5-fem.mp3"," ","","liso","","","",""
"","1280","audio-keyboard-response","686","1701738","0.0-3.0-1.577","../audio/25-6-fem.mp3"," ","","quanto","","","",""
"","1760","audio-keyboard-response","687","1703770","0.0-3.0-1.578","../audio/25-7-fem.mp3"," ","","cacheado.","","","",""
"","14752","html-keyboard-response","688","1718778","0.0-3.0-2.578-0.578","<span style=""font-size:25px; font-family: monospace"">Ela só faz cabelo cacheado?</span>","s","","","Ela só faz cabelo cacheado?","null","exp-sent","false"
"","null","html-keyboard-response","689","1720288","0.0-3.0-0.579-0.579","<span style= ""font-size:30px; font-family: monospace"">+</span>","null","fixation","","","","",""
"","1448","audio-keyboard-response","690","1722026","0.0-3.0-1.579","../audio/73-1-fem.mp3"," ","","O","","","",""
"","1501","audio-keyboard-response","691","1723818","0.0-3.0-1.580","../audio/73-2-fem.mp3"," ","","cliente","","","",""
"","1141","audio-keyboard-response","692","1725242","0.0-3.0-1.581","../audio/73-3-fem.mp3"," ","","era","","","",""
"","1659","audio-keyboard-response","693","1727194","0.0-3.0-1.582","../audio/73-4-fem.mp3"," ","","um","","","",""
"","1331","audio-keyboard-response","694","1728794","0.0-3.0-1.583","../audio/73-5-fem.mp3"," ","","homem","","","",""
"","1379","audio-keyboard-response","695","1730474","0.0-3.0-1.584","../audio/73-6-fem.mp3"," ","","muito","","","",""
"","1509","audio-keyboard-response","696","1732265","0.0-3.0-1.585","../audio/73-7-fem.mp3"," ","","educado.","","","",""
"","null","html-keyboard-response","697","1733539","0.0-3.0-0.586-0.586","<span style= ""font-size:30px; font-family: monospace"">+</span>","null","fixation","","","","",""
"","1200","audio-keyboard-response","698","1735033","0.0-3.0-1.586","../audio/71-1-masc.mp3"," ","","Minhas","","","",""
"","1421","audio-keyboard-response","699","1736729","0.0-3.0-1.587","../audio/71-2-masc.mp3"," ","","comidas","","","",""
"","1408","audio-keyboard-response","700","1738425","0.0-3.0-1.588","../audio/71-3-masc.mp3"," ","","favoritas","","","",""
"","992","audio-keyboard-response","701","1739689","0.0-3.0-1.589","../audio/71-4-masc.mp3"," ","","são","","","",""
"","1200","audio-keyboard-response","702","1741161","0.0-3.0-1.590","../audio/71-5-masc.mp3"," ","","morango","","","",""
"","1181","audio-keyboard-response","703","1742617","0.0-3.0-1.591","../audio/71-6-masc.mp3"," ","","e","","","",""
"","1251","audio-keyboard-response","704","1744153","0.0-3.0-1.592","../audio/71-7-masc.mp3"," ","","uva.","","","",""
"","null","html-keyboard-response","705","1745432","0.0-3.0-0.593-0.593","<span style= ""font-size:30px; font-family: monospace"">+</span>","null","fixation","","","","",""
"","1360","audio-keyboard-response","706","1747097","0.0-3.0-1.593","../audio/74-1-fem.mp3"," ","","Este","","","",""
"","1440","audio-keyboard-response","707","1748825","0.0-3.0-1.594","../audio/74-2-fem.mp3"," ","","emprego","","","",""
"","1192","audio-keyboard-response","708","1750297","0.0-3.0-1.595","../audio/74-3-fem.mp3"," ","","é","","","",""
"","1432","audio-keyboard-response","709","1752009","0.0-3.0-1.596","../audio/74-4-fem.mp3"," ","","muito","","","",""
"","1619","audio-keyboard-response","710","1753913","0.0-3.0-1.597","../audio/74-5-fem.mp3"," ","","cansativo","","","",""
"","1349","audio-keyboard-response","711","1755545","0.0-3.0-1.598","../audio/74-6-fem.mp3"," ","","a","","","",""
"","1280","audio-keyboard-response","712","1757113","0.0-3.0-1.599","../audio/74-7-fem.mp3"," ","","longo","","","",""
"","1269","audio-keyboard-response","713","1758665","0.0-3.0-1.600","../audio/74-8-fem.mp3"," ","","prazo.","","","",""
"","null","html-keyboard-response","714","1759934","0.0-3.0-0.601-0.601","<span style= ""font-size:30px; font-family: monospace"">+</span>","null","fixation","","","","",""
"","920","audio-keyboard-response","715","1761161","0.0-3.0-1.601","../audio/72-1-fem.mp3"," ","","A","","","",""
"","1360","audio-keyboard-response","716","1762809","0.0-3.0-1.602","../audio/72-2-fem.mp3"," ","","vencedora","","","",""
"","1539","audio-keyboard-response","717","1764633","0.0-3.0-1.603","../audio/72-3-fem.mp3"," ","","recebeu","","","",""
"","1232","audio-keyboard-response","718","1766137","0.0-3.0-1.604","../audio/72-4-fem.mp3"," ","","um","","","",""
"","1192","audio-keyboard-response","719","1767609","0.0-3.0-1.605","../audio/72-5-fem.mp3"," ","","prêmio","","","",""
"","1011","audio-keyboard-response","720","1768889","0.0-3.0-1.606","../audio/72-6-fem.mp3"," ","","em","","","",""
"","1429","audio-keyboard-response","721","1770601","0.0-3.0-1.607","../audio/72-7-fem.mp3"," ","","dinheiro.","","","",""
"","null","html-keyboard-response","722","1771877","0.0-3.0-0.608-0.608","<span style= ""font-size:30px; font-family: monospace"">+</span>","null","fixation","","","","",""
"","899","audio-keyboard-response","723","1773065","0.0-3.0-1.608","../audio/75-1-masc.mp3"," ","","Só","","","",""
"","1040","audio-keyboard-response","724","1774393","0.0-3.0-1.609","../audio/75-2-masc.mp3"," ","","existe","","","",""
"","1131","audio-keyboard-response","725","1775801","0.0-3.0-1.610","../audio/75-3-masc.mp3"," ","","uma","","","",""
"","1139","audio-keyboard-response","726","1777225","0.0-3.0-1.611","../audio/75-4-masc.mp3"," ","","pessoa","","","",""
"","1192","audio-keyboard-response","727","1778697","0.0-3.0-1.612","../audio/75-5-masc.mp3"," ","","canhota","","","",""
"","1080","audio-keyboard-response","728","1780057","0.0-3.0-1.613","../audio/75-6-masc.mp3"," ","","nesta","","","",""
"","1120","audio-keyboard-response","729","1781465","0.0-3.0-1.614","../audio/75-7-masc.mp3"," ","","cidade.","","","",""
"","24512","html-keyboard-response","730","1806233","0.0-3.0-2.614-0.614","<span style=""font-size:25px; font-family: monospace"">Só existe uma pessoa canhota na cidade?</span>","s","","","Só existe uma pessoa canhota na cidade?","null","exp-sent","false"
"[{""page_index"":0,""viewing_time"":67570}]","67570","instructions","731","1874314","0.0-4.0","","","","","","","",""
