"view_history","rt","trial_type","trial_index","time_elapsed","internal_node_id","stimulus","response","class","status","answer","correct","trial","letters"
"[{""page_index"":0,""viewing_time"":35719}]","35720","instructions","0","35721","0.0-0.0","","","","","","","",""
"","null","html-keyboard-response","1","36323","0.0-1.0-0.0","+","null","","","","","",""
"","6013","html-keyboard-response","2","42336","0.0-1.0-1.0","daja","n","null","noncog","pseudo","N","prac","null"
"","null","html-keyboard-response","3","42838","0.0-1.0-0.1","+","null","","","","","",""
"","9561","html-keyboard-response","4","52400","0.0-1.0-1.1","plibar","s","null","noncog","pseudo","N","prac","null"
"","null","html-keyboard-response","5","52900","0.0-1.0-0.2","+","null","","","","","",""
"","17387","html-keyboard-response","6","70288","0.0-1.0-1.2","calmaria","s","null","noncog","word","S","prac","null"
"","null","html-keyboard-response","7","70789","0.0-1.0-0.3","+","null","","","","","",""
"","9691","html-keyboard-response","8","80480","0.0-1.0-1.3","órgão","s","null","noncog","word","S","prac","null"
"","null","html-keyboard-response","9","80981","0.0-1.0-0.4","+","null","","","","","",""
"","4810","html-keyboard-response","10","85792","0.0-1.0-1.4","chassi","s","null","cog","word","S","prac","null"
"","null","html-keyboard-response","11","86293","0.0-1.0-0.5","+","null","","","","","",""
"","19674","html-keyboard-response","12","105967","0.0-1.0-1.5","crante","n","null","noncog","pseudo","N","prac","null"
"","null","html-keyboard-response","13","106468","0.0-1.0-0.6","+","null","","","","","",""
"","5867","html-keyboard-response","14","112335","0.0-1.0-1.6","oliva","s","null","cog","word","S","prac","null"
"[{""page_index"":0,""viewing_time"":23440}]","23440","instructions","15","135775","0.0-2.0","","","","","","","",""
"","null","html-keyboard-response","16","136381","0.0-3.0-0.0","+","null","","","","","",""
"","7538","html-keyboard-response","17","143919","0.0-3.0-1.0","espaço","s","n","cog","word","S","exp","6"
"","null","html-keyboard-response","18","144427","0.0-3.0-0.1","+","null","","","","","",""
"","10532","html-keyboard-response","19","154959","0.0-3.0-1.1","espinho","n","n","noncog","word","S","exp","7"
"","null","html-keyboard-response","20","155461","0.0-3.0-0.2","+","null","","","","","",""
"","10043","html-keyboard-response","21","165503","0.0-3.0-1.2","pangos","s","null","noncog","pseudo","N","exp","null"
"","null","html-keyboard-response","22","166004","0.0-3.0-0.3","+","null","","","","","",""
"","19178","html-keyboard-response","23","185183","0.0-3.0-1.3","pega-pega","n","n","noncog","word","S","exp","8"
"","null","html-keyboard-response","24","185685","0.0-3.0-0.4","+","null","","","","","",""
"","5786","html-keyboard-response","25","191471","0.0-3.0-1.4","boreta","s","null","noncog","pseudo","N","exp","null"
"","null","html-keyboard-response","26","191972","0.0-3.0-0.5","+","null","","","","","",""
"","4730","html-keyboard-response","27","196703","0.0-3.0-1.5","aitrou","s","null","noncog","pseudo","N","exp","null"
"","null","html-keyboard-response","28","197204","0.0-3.0-0.6","+","null","","","","","",""
"","9706","html-keyboard-response","29","206911","0.0-3.0-1.6","rédesa","s","null","noncog","pseudo","N","exp","null"
"","null","html-keyboard-response","30","207412","0.0-3.0-0.7","+","null","","","","","",""
"","9290","html-keyboard-response","31","216703","0.0-3.0-1.7","delirar","n","v","noncog","word","S","exp","7"
"","null","html-keyboard-response","32","217203","0.0-3.0-0.8","+","null","","","","","",""
"","7115","html-keyboard-response","33","224318","0.0-3.0-1.8","casuas","s","null","noncog","pseudo","N","exp","null"
"","null","html-keyboard-response","34","224819","0.0-3.0-0.9","+","null","","","","","",""
"","11146","html-keyboard-response","35","235966","0.0-3.0-1.9","morija","s","null","noncog","pseudo","N","exp","null"
"","null","html-keyboard-response","36","236469","0.0-3.0-0.10","+","null","","","","","",""
"","30137","html-keyboard-response","37","266607","0.0-3.0-1.10","atitro","s","null","noncog","pseudo","N","exp","null"
"","null","html-keyboard-response","38","267108","0.0-3.0-0.11","+","null","","","","","",""
"","5882","html-keyboard-response","39","272990","0.0-3.0-1.11","independente","s","a","noncog","word","S","exp","12"
"","null","html-keyboard-response","40","273492","0.0-3.0-0.12","+","null","","","","","",""
"","23642","html-keyboard-response","41","297134","0.0-3.0-1.12","faínas","n","null","noncog","pseudo","N","exp","null"
"","null","html-keyboard-response","42","297634","0.0-3.0-0.13","+","null","","","","","",""
"","6155","html-keyboard-response","43","303790","0.0-3.0-1.13","motros","s","null","noncog","pseudo","N","exp","null"
"","null","html-keyboard-response","44","304292","0.0-3.0-0.14","+","null","","","","","",""
"","4954","html-keyboard-response","45","309246","0.0-3.0-1.14","reduzir","s","v","cog","word","S","exp","7"
"","null","html-keyboard-response","46","309747","0.0-3.0-0.15","+","null","","","","","",""
"","2539","html-keyboard-response","47","312286","0.0-3.0-1.15","viver","s","v","cog","word","S","exp","5"
"","null","html-keyboard-response","48","312787","0.0-3.0-0.16","+","null","","","","","",""
"","10443","html-keyboard-response","49","323230","0.0-3.0-1.16","tela","s","n","noncog","word","S","exp","4"
"","null","html-keyboard-response","50","323732","0.0-3.0-0.17","+","null","","","","","",""
"","25802","html-keyboard-response","51","349534","0.0-3.0-1.17","árovre","n","null","noncog","pseudo","N","exp","null"
"","null","html-keyboard-response","52","350036","0.0-3.0-0.18","+","null","","","","","",""
"","10425","html-keyboard-response","53","360462","0.0-3.0-1.18","nevela","s","null","noncog","pseudo","N","exp","null"
"","null","html-keyboard-response","54","360963","0.0-3.0-0.19","+","null","","","","","",""
"","8810","html-keyboard-response","55","369773","0.0-3.0-1.19","ilhure","s","null","noncog","pseudo","N","exp","null"
"","null","html-keyboard-response","56","370275","0.0-3.0-0.20","+","null","","","","","",""
"","3355","html-keyboard-response","57","373630","0.0-3.0-1.20","melão","s","n","cog","word","S","exp","5"
"","null","html-keyboard-response","58","374131","0.0-3.0-0.21","+","null","","","","","",""
"","21850","html-keyboard-response","59","395982","0.0-3.0-1.21","avenas","n","null","noncog","pseudo","N","exp","null"
"","null","html-keyboard-response","60","396482","0.0-3.0-0.22","+","null","","","","","",""
"","34763","html-keyboard-response","61","431245","0.0-3.0-1.22","hedoru","n","null","noncog","pseudo","N","exp","null"
"","null","html-keyboard-response","62","431746","0.0-3.0-0.23","+","null","","","","","",""
"","9130","html-keyboard-response","63","440877","0.0-3.0-1.23","orupas","s","null","noncog","pseudo","N","exp","null"
"","null","html-keyboard-response","64","441379","0.0-3.0-0.24","+","null","","","","","",""
"","6074","html-keyboard-response","65","447453","0.0-3.0-1.24","undivídio","s","null","noncog","pseudo","N","exp","null"
"","null","html-keyboard-response","66","447955","0.0-3.0-0.25","+","null","","","","","",""
"","3674","html-keyboard-response","67","451629","0.0-3.0-1.25","especial","s","a","cog","word","S","exp","8"
"","null","html-keyboard-response","68","452131","0.0-3.0-0.26","+","null","","","","","",""
"","5866","html-keyboard-response","69","457997","0.0-3.0-1.26","frotes","s","null","noncog","pseudo","N","exp","null"
"","null","html-keyboard-response","70","458499","0.0-3.0-0.27","+","null","","","","","",""
"","15434","html-keyboard-response","71","473933","0.0-3.0-1.27","macras","s","null","noncog","pseudo","N","exp","null"
"","null","html-keyboard-response","72","474433","0.0-3.0-0.28","+","null","","","","","",""
"","3259","html-keyboard-response","73","477692","0.0-3.0-1.28","matinal","s","a","cog","word","S","exp","7"
"","null","html-keyboard-response","74","478200","0.0-3.0-0.29","+","null","","","","","",""
"","16756","html-keyboard-response","75","494956","0.0-3.0-1.29","sustentar","s","v","noncog","word","S","exp","9"
"","null","html-keyboard-response","76","495457","0.0-3.0-0.30","+","null","","","","","",""
"","7707","html-keyboard-response","77","503164","0.0-3.0-1.30","animado","s","a","noncog","word","S","exp","7"
"","null","html-keyboard-response","78","503666","0.0-3.0-0.31","+","null","","","","","",""
"","32667","html-keyboard-response","79","536333","0.0-3.0-1.31","crutas","n","null","noncog","pseudo","N","exp","null"
"","null","html-keyboard-response","80","536834","0.0-3.0-0.32","+","null","","","","","",""
"","4169","html-keyboard-response","81","541004","0.0-3.0-1.32","gruja","s","null","noncog","pseudo","N","exp","null"
"","null","html-keyboard-response","82","541506","0.0-3.0-0.33","+","null","","","","","",""
"","9322","html-keyboard-response","83","550828","0.0-3.0-1.33","ocinto","s","null","noncog","pseudo","N","exp","null"
"","null","html-keyboard-response","84","551329","0.0-3.0-0.34","+","null","","","","","",""
"","23947","html-keyboard-response","85","575276","0.0-3.0-1.34","bracos","n","null","noncog","pseudo","N","exp","null"
"","null","html-keyboard-response","86","575778","0.0-3.0-0.35","+","null","","","","","",""
"","8138","html-keyboard-response","87","583916","0.0-3.0-1.35","escumo","s","null","noncog","pseudo","N","exp","null"
"","null","html-keyboard-response","88","584416","0.0-3.0-0.36","+","null","","","","","",""
"","24283","html-keyboard-response","89","608700","0.0-3.0-1.36","sintonizar","n","v","noncog","word","S","exp","10"
"","null","html-keyboard-response","90","609201","0.0-3.0-0.37","+","null","","","","","",""
"","5226","html-keyboard-response","91","614428","0.0-3.0-1.37","carro","s","n","noncog","word","S","exp","5"
"","null","html-keyboard-response","92","614928","0.0-3.0-0.38","+","null","","","","","",""
"","6395","html-keyboard-response","93","621324","0.0-3.0-1.38","filosofia","s","n","cog","word","S","exp","9"
"","null","html-keyboard-response","94","621825","0.0-3.0-0.39","+","null","","","","","",""
"","12683","html-keyboard-response","95","634508","0.0-3.0-1.39","hébies","n","null","noncog","pseudo","N","exp","null"
"","null","html-keyboard-response","96","635010","0.0-3.0-0.40","+","null","","","","","",""
"","4489","html-keyboard-response","97","639500","0.0-3.0-1.40","jantar","s","v","noncog","word","S","exp","6"
"","null","html-keyboard-response","98","640000","0.0-3.0-0.41","+","null","","","","","",""
"","3003","html-keyboard-response","99","643003","0.0-3.0-1.41","morar","s","v","noncog","word","S","exp","5"
"","null","html-keyboard-response","100","643512","0.0-3.0-0.42","+","null","","","","","",""
"","13235","html-keyboard-response","101","656748","0.0-3.0-1.42","delomir","n","null","noncog","pseudo","N","exp","null"
"","null","html-keyboard-response","102","657249","0.0-3.0-0.43","+","null","","","","","",""
"","5370","html-keyboard-response","103","662619","0.0-3.0-1.43","incomodar","s","v","noncog","word","S","exp","9"
"","null","html-keyboard-response","104","663121","0.0-3.0-0.44","+","null","","","","","",""
"","14378","html-keyboard-response","105","677500","0.0-3.0-1.44","mania","n","n","cog","word","S","exp","5"
"","null","html-keyboard-response","106","678000","0.0-3.0-0.45","+","null","","","","","",""
"","17531","html-keyboard-response","107","695531","0.0-3.0-1.45","resmungar","n","v","noncog","word","S","exp","9"
"","null","html-keyboard-response","108","696034","0.0-3.0-0.46","+","null","","","","","",""
"","7081","html-keyboard-response","109","703115","0.0-3.0-1.46","aemaça","s","null","noncog","pseudo","N","exp","null"
"","null","html-keyboard-response","110","703617","0.0-3.0-0.47","+","null","","","","","",""
"","5290","html-keyboard-response","111","708907","0.0-3.0-1.47","tronca","s","null","noncog","pseudo","N","exp","null"
"","null","html-keyboard-response","112","709408","0.0-3.0-0.48","+","null","","","","","",""
"","3082","html-keyboard-response","113","712491","0.0-3.0-1.48","glória","s","n","cog","word","S","exp","6"
"","null","html-keyboard-response","114","712993","0.0-3.0-0.49","+","null","","","","","",""
"","5498","html-keyboard-response","115","718491","0.0-3.0-1.49","sábio","s","n","noncog","word","S","exp","5"
"","null","html-keyboard-response","116","718992","0.0-3.0-0.50","+","null","","","","","",""
"","8571","html-keyboard-response","117","727563","0.0-3.0-1.50","propaganda","s","n","cog","word","S","exp","10"
"","null","html-keyboard-response","118","728064","0.0-3.0-0.51","+","null","","","","","",""
"","5771","html-keyboard-response","119","733835","0.0-3.0-1.51","multiplicar","s","v","cog","word","S","exp","11"
"","null","html-keyboard-response","120","734337","0.0-3.0-0.52","+","null","","","","","",""
"","24330","html-keyboard-response","121","758667","0.0-3.0-1.52","lagras","n","null","noncog","pseudo","N","exp","null"
"","null","html-keyboard-response","122","759169","0.0-3.0-0.53","+","null","","","","","",""
"","3258","html-keyboard-response","123","762426","0.0-3.0-1.53","mal","s","a","cog","word","S","exp","3"
"","null","html-keyboard-response","124","762928","0.0-3.0-0.54","+","null","","","","","",""
"","9418","html-keyboard-response","125","772347","0.0-3.0-1.54","afual","n","null","noncog","pseudo","N","exp","null"
"","null","html-keyboard-response","126","772847","0.0-3.0-0.55","+","null","","","","","",""
"","2314","html-keyboard-response","127","775162","0.0-3.0-1.55","livro","s","n","cog","word","S","exp","5"
"","null","html-keyboard-response","128","775663","0.0-3.0-0.56","+","null","","","","","",""
"","8491","html-keyboard-response","129","784154","0.0-3.0-1.56","burtos","n","null","noncog","pseudo","N","exp","null"
"","null","html-keyboard-response","130","784655","0.0-3.0-0.57","+","null","","","","","",""
"","5643","html-keyboard-response","131","790298","0.0-3.0-1.57","mua","s","null","noncog","pseudo","N","exp","null"
"","null","html-keyboard-response","132","790812","0.0-3.0-0.58","+","null","","","","","",""
"","20782","html-keyboard-response","133","811595","0.0-3.0-1.58","temperar","n","v","noncog","word","S","exp","8"
"","null","html-keyboard-response","134","812096","0.0-3.0-0.59","+","null","","","","","",""
"","5514","html-keyboard-response","135","817610","0.0-3.0-1.59","socorro","s","n","noncog","word","S","exp","7"
"","null","html-keyboard-response","136","818112","0.0-3.0-0.60","+","null","","","","","",""
"","21034","html-keyboard-response","137","839146","0.0-3.0-1.60","adoçar","n","v","noncog","word","S","exp","6"
"","null","html-keyboard-response","138","839647","0.0-3.0-0.61","+","null","","","","","",""
"","3786","html-keyboard-response","139","843434","0.0-3.0-1.61","esprotiar","s","null","noncog","pseudo","N","exp","null"
"","null","html-keyboard-response","140","843935","0.0-3.0-0.62","+","null","","","","","",""
"","9707","html-keyboard-response","141","853642","0.0-3.0-1.62","agressivo","s","a","cog","word","S","exp","9"
"","null","html-keyboard-response","142","854144","0.0-3.0-0.63","+","null","","","","","",""
"","12442","html-keyboard-response","143","866586","0.0-3.0-1.63","aparme","n","null","noncog","pseudo","N","exp","null"
"","null","html-keyboard-response","144","867088","0.0-3.0-0.64","+","null","","","","","",""
"","11002","html-keyboard-response","145","878090","0.0-3.0-1.64","oper","n","null","noncog","pseudo","N","exp","null"
"","null","html-keyboard-response","146","878592","0.0-3.0-0.65","+","null","","","","","",""
"","6537","html-keyboard-response","147","885129","0.0-3.0-1.65","aletiê","s","null","noncog","pseudo","N","exp","null"
"","null","html-keyboard-response","148","885630","0.0-3.0-0.66","+","null","","","","","",""
"","7291","html-keyboard-response","149","892922","0.0-3.0-1.66","trenos","s","null","noncog","pseudo","N","exp","null"
"","null","html-keyboard-response","150","893422","0.0-3.0-0.67","+","null","","","","","",""
"","3803","html-keyboard-response","151","897226","0.0-3.0-1.67","agravar","s","v","cog","word","S","exp","7"
"","null","html-keyboard-response","152","897727","0.0-3.0-0.68","+","null","","","","","",""
"","2058","html-keyboard-response","153","899786","0.0-3.0-1.68","telefone","s","n","cog","word","S","exp","8"
"","null","html-keyboard-response","154","900293","0.0-3.0-0.69","+","null","","","","","",""
"","12084","html-keyboard-response","155","912378","0.0-3.0-1.69","medalha","n","n","cog","word","S","exp","7"
"","null","html-keyboard-response","156","912879","0.0-3.0-0.70","+","null","","","","","",""
"","4202","html-keyboard-response","157","917082","0.0-3.0-1.70","destino","s","n","cog","word","S","exp","7"
"","null","html-keyboard-response","158","917583","0.0-3.0-0.71","+","null","","","","","",""
"","5755","html-keyboard-response","159","923338","0.0-3.0-1.71","uçar","s","null","noncog","pseudo","N","exp","null"
"","null","html-keyboard-response","160","923839","0.0-3.0-0.72","+","null","","","","","",""
"","2202","html-keyboard-response","161","926041","0.0-3.0-1.72","cinema","s","n","cog","word","S","exp","6"
"","null","html-keyboard-response","162","926542","0.0-3.0-0.73","+","null","","","","","",""
"","8875","html-keyboard-response","163","935418","0.0-3.0-1.73","manfa","n","null","noncog","pseudo","N","exp","null"
"","null","html-keyboard-response","164","935919","0.0-3.0-0.74","+","null","","","","","",""
"","4762","html-keyboard-response","165","940681","0.0-3.0-1.74","morno","s","a","noncog","word","S","exp","5"
"","null","html-keyboard-response","166","941182","0.0-3.0-0.75","+","null","","","","","",""
"","2315","html-keyboard-response","167","943497","0.0-3.0-1.75","tio","s","n","noncog","word","S","exp","3"
"","null","html-keyboard-response","168","943998","0.0-3.0-0.76","+","null","","","","","",""
"","4315","html-keyboard-response","169","948313","0.0-3.0-1.76","plinta","s","null","noncog","pseudo","N","exp","null"
"","null","html-keyboard-response","170","948814","0.0-3.0-0.77","+","null","","","","","",""
"","10890","html-keyboard-response","171","959705","0.0-3.0-1.77","afonher","s","null","noncog","pseudo","N","exp","null"
"","null","html-keyboard-response","172","960220","0.0-3.0-0.78","+","null","","","","","",""
"","14045","html-keyboard-response","173","974265","0.0-3.0-1.78","ofreta","n","null","noncog","pseudo","N","exp","null"
"","null","html-keyboard-response","174","974766","0.0-3.0-0.79","+","null","","","","","",""
"","10251","html-keyboard-response","175","985017","0.0-3.0-1.79","jastor","n","null","noncog","pseudo","N","exp","null"
"","null","html-keyboard-response","176","985519","0.0-3.0-0.80","+","null","","","","","",""
"","4554","html-keyboard-response","177","990073","0.0-3.0-1.80","motre","s","null","noncog","pseudo","N","exp","null"
"","null","html-keyboard-response","178","990574","0.0-3.0-0.81","+","null","","","","","",""
"","9803","html-keyboard-response","179","1000377","0.0-3.0-1.81","gertas","s","null","noncog","pseudo","N","exp","null"
"","null","html-keyboard-response","180","1000879","0.0-3.0-0.82","+","null","","","","","",""
"","6458","html-keyboard-response","181","1007337","0.0-3.0-1.82","lagoa","s","n","cog","word","S","exp","5"
"","null","html-keyboard-response","182","1007837","0.0-3.0-0.83","+","null","","","","","",""
"","5995","html-keyboard-response","183","1013833","0.0-3.0-1.83","conjerto","s","null","noncog","pseudo","N","exp","null"
"","null","html-keyboard-response","184","1014334","0.0-3.0-0.84","+","null","","","","","",""
"","6011","html-keyboard-response","185","1020345","0.0-3.0-1.84","fratos","n","null","noncog","pseudo","N","exp","null"
"","null","html-keyboard-response","186","1020845","0.0-3.0-0.85","+","null","","","","","",""
"","7243","html-keyboard-response","187","1028089","0.0-3.0-1.85","suipestar","n","null","noncog","pseudo","N","exp","null"
"","null","html-keyboard-response","188","1028590","0.0-3.0-0.86","+","null","","","","","",""
"","16426","html-keyboard-response","189","1045017","0.0-3.0-1.86","pneucania","n","null","noncog","pseudo","N","exp","null"
"","null","html-keyboard-response","190","1045518","0.0-3.0-0.87","+","null","","","","","",""
"","6586","html-keyboard-response","191","1052105","0.0-3.0-1.87","irratinte","s","null","noncog","pseudo","N","exp","null"
"","null","html-keyboard-response","192","1052606","0.0-3.0-0.88","+","null","","","","","",""
"","8971","html-keyboard-response","193","1061576","0.0-3.0-1.88","pedaço","s","n","noncog","word","S","exp","6"
"","null","html-keyboard-response","194","1062078","0.0-3.0-0.89","+","null","","","","","",""
"","3578","html-keyboard-response","195","1065656","0.0-3.0-1.89","revear","s","null","noncog","pseudo","N","exp","null"
"","null","html-keyboard-response","196","1066157","0.0-3.0-0.90","+","null","","","","","",""
"","3178","html-keyboard-response","197","1069336","0.0-3.0-1.90","bambu","s","n","cog","word","S","exp","5"
"","null","html-keyboard-response","198","1069837","0.0-3.0-0.91","+","null","","","","","",""
"","4667","html-keyboard-response","199","1074504","0.0-3.0-1.91","euorpa","s","null","noncog","pseudo","N","exp","null"
"","null","html-keyboard-response","200","1075006","0.0-3.0-0.92","+","null","","","","","",""
"","6250","html-keyboard-response","201","1081256","0.0-3.0-1.92","verceja","s","null","noncog","pseudo","N","exp","null"
"","null","html-keyboard-response","202","1081757","0.0-3.0-0.93","+","null","","","","","",""
"","3339","html-keyboard-response","203","1085096","0.0-3.0-1.93","cascata","s","n","noncog","word","S","exp","7"
"","null","html-keyboard-response","204","1085598","0.0-3.0-0.94","+","null","","","","","",""
"","3370","html-keyboard-response","205","1088968","0.0-3.0-1.94","gordo","s","a","noncog","word","S","exp","5"
"","null","html-keyboard-response","206","1089469","0.0-3.0-0.95","+","null","","","","","",""
"","7834","html-keyboard-response","207","1097304","0.0-3.0-1.95","dobradiça","n","n","noncog","word","S","exp","9"
"","null","html-keyboard-response","208","1097805","0.0-3.0-0.96","+","null","","","","","",""
"","6203","html-keyboard-response","209","1104008","0.0-3.0-1.96","dipata","n","null","noncog","pseudo","N","exp","null"
"","null","html-keyboard-response","210","1104509","0.0-3.0-0.97","+","null","","","","","",""
"","3451","html-keyboard-response","211","1107961","0.0-3.0-1.97","pulmão","s","n","noncog","word","S","exp","6"
"","null","html-keyboard-response","212","1108462","0.0-3.0-0.98","+","null","","","","","",""
"","2522","html-keyboard-response","213","1110984","0.0-3.0-1.98","azul","s","n","noncog","word","S","exp","4"
"","null","html-keyboard-response","214","1111486","0.0-3.0-0.99","+","null","","","","","",""
"","8970","html-keyboard-response","215","1120456","0.0-3.0-1.99","protas","n","null","noncog","pseudo","N","exp","null"
"","null","html-keyboard-response","216","1120957","0.0-3.0-0.100","+","null","","","","","",""
"","8651","html-keyboard-response","217","1129608","0.0-3.0-1.100","bibarconato","n","null","noncog","pseudo","N","exp","null"
"","null","html-keyboard-response","218","1130109","0.0-3.0-0.101","+","null","","","","","",""
"","13931","html-keyboard-response","219","1144040","0.0-3.0-1.101","areia","n","n","noncog","word","S","exp","5"
"","null","html-keyboard-response","220","1144541","0.0-3.0-0.102","+","null","","","","","",""
"","3995","html-keyboard-response","221","1148536","0.0-3.0-1.102","hipócrita","s","a","noncog","word","S","exp","9"
"","null","html-keyboard-response","222","1149037","0.0-3.0-0.103","+","null","","","","","",""
"","8203","html-keyboard-response","223","1157240","0.0-3.0-1.103","prenas","n","null","noncog","pseudo","N","exp","null"
"","null","html-keyboard-response","224","1157741","0.0-3.0-0.104","+","null","","","","","",""
"","4763","html-keyboard-response","225","1162504","0.0-3.0-1.104","bancada","s","n","noncog","word","S","exp","7"
"","null","html-keyboard-response","226","1163005","0.0-3.0-0.105","+","null","","","","","",""
"","4811","html-keyboard-response","227","1167816","0.0-3.0-1.105","imitar","s","v","cog","word","S","exp","6"
"","null","html-keyboard-response","228","1168317","0.0-3.0-0.106","+","null","","","","","",""
"","4570","html-keyboard-response","229","1172888","0.0-3.0-1.106","pantufa","s","n","cog","word","S","exp","7"
"","null","html-keyboard-response","230","1173403","0.0-3.0-0.107","+","null","","","","","",""
"","9917","html-keyboard-response","231","1183320","0.0-3.0-1.107","nivelado","n","a","cog","word","S","exp","8"
"","null","html-keyboard-response","232","1183820","0.0-3.0-0.108","+","null","","","","","",""
"","5498","html-keyboard-response","233","1189319","0.0-3.0-1.108","lorfaz","s","null","noncog","pseudo","N","exp","null"
"","null","html-keyboard-response","234","1189820","0.0-3.0-0.109","+","null","","","","","",""
"","8571","html-keyboard-response","235","1198392","0.0-3.0-1.109","gilha","n","null","noncog","pseudo","N","exp","null"
"","null","html-keyboard-response","236","1198893","0.0-3.0-0.110","+","null","","","","","",""
"","4730","html-keyboard-response","237","1203623","0.0-3.0-1.110","bagunceira","s","a","noncog","word","S","exp","10"
"","null","html-keyboard-response","238","1204125","0.0-3.0-0.111","+","null","","","","","",""
"","1306","html-keyboard-response","239","1205431","0.0-3.0-1.111","civil","s","a","cog","word","S","exp","5"
"","null","html-keyboard-response","240","1205933","0.0-3.0-0.112","+","null","","","","","",""
"","5194","html-keyboard-response","241","1211127","0.0-3.0-1.112","montanha","s","n","cog","word","S","exp","8"
"","null","html-keyboard-response","242","1211629","0.0-3.0-0.113","+","null","","","","","",""
"","3274","html-keyboard-response","243","1214903","0.0-3.0-1.113","abieso","s","null","noncog","pseudo","N","exp","null"
"","null","html-keyboard-response","244","1215410","0.0-3.0-0.114","+","null","","","","","",""
"","3045","html-keyboard-response","245","1218456","0.0-3.0-1.114","barco","s","n","cog","word","S","exp","5"
"","null","html-keyboard-response","246","1218957","0.0-3.0-0.115","+","null","","","","","",""
"","7386","html-keyboard-response","247","1226344","0.0-3.0-1.115","beima","n","null","noncog","pseudo","N","exp","null"
"","null","html-keyboard-response","248","1226848","0.0-3.0-0.116","+","null","","","","","",""
"","4086","html-keyboard-response","249","1230935","0.0-3.0-1.116","fofo","s","a","noncog","word","S","exp","4"
"","null","html-keyboard-response","250","1231436","0.0-3.0-0.117","+","null","","","","","",""
"","8683","html-keyboard-response","251","1240119","0.0-3.0-1.117","encelhor","s","null","noncog","pseudo","N","exp","null"
"","null","html-keyboard-response","252","1240620","0.0-3.0-0.118","+","null","","","","","",""
"","8890","html-keyboard-response","253","1249511","0.0-3.0-1.118","deselegante","n","a","noncog","word","S","exp","11"
"","null","html-keyboard-response","254","1250012","0.0-3.0-0.119","+","null","","","","","",""
"","7739","html-keyboard-response","255","1257751","0.0-3.0-1.119","senareta","n","null","noncog","pseudo","N","exp","null"
"","null","html-keyboard-response","256","1258252","0.0-3.0-0.120","+","null","","","","","",""
"","3610","html-keyboard-response","257","1261863","0.0-3.0-1.120","podilo","s","null","noncog","pseudo","N","exp","null"
"","null","html-keyboard-response","258","1262364","0.0-3.0-0.121","+","null","","","","","",""
"","10539","html-keyboard-response","259","1272903","0.0-3.0-1.121","pitada","n","n","noncog","word","S","exp","6"
"","null","html-keyboard-response","260","1273405","0.0-3.0-0.122","+","null","","","","","",""
"","2106","html-keyboard-response","261","1275511","0.0-3.0-1.122","chato","s","n","noncog","word","S","exp","5"
"","null","html-keyboard-response","262","1276017","0.0-3.0-0.123","+","null","","","","","",""
"","5254","html-keyboard-response","263","1281271","0.0-3.0-1.123","aperor","n","null","noncog","pseudo","N","exp","null"
"","null","html-keyboard-response","264","1281772","0.0-3.0-0.124","+","null","","","","","",""
"","5051","html-keyboard-response","265","1286823","0.0-3.0-1.124","promessa","s","n","noncog","word","S","exp","8"
"","null","html-keyboard-response","266","1287325","0.0-3.0-0.125","+","null","","","","","",""
"","3546","html-keyboard-response","267","1290871","0.0-3.0-1.125","costra","s","null","noncog","pseudo","N","exp","null"
"","null","html-keyboard-response","268","1291372","0.0-3.0-0.126","+","null","","","","","",""
"","4858","html-keyboard-response","269","1296231","0.0-3.0-1.126","nervoso","s","a","noncog","word","S","exp","7"
"","null","html-keyboard-response","270","1296731","0.0-3.0-0.127","+","null","","","","","",""
"","6908","html-keyboard-response","271","1303639","0.0-3.0-1.127","francês","s","a","cog","word","S","exp","7"
"","null","html-keyboard-response","272","1304139","0.0-3.0-0.128","+","null","","","","","",""
"","4187","html-keyboard-response","273","1308327","0.0-3.0-1.128","crolatário","s","null","noncog","pseudo","N","exp","null"
"","null","html-keyboard-response","274","1308827","0.0-3.0-0.129","+","null","","","","","",""
"","7627","html-keyboard-response","275","1316455","0.0-3.0-1.129","telafonir","n","null","noncog","pseudo","N","exp","null"
"","null","html-keyboard-response","276","1316963","0.0-3.0-0.130","+","null","","","","","",""
"","1811","html-keyboard-response","277","1318775","0.0-3.0-1.130","grave","s","a","cog","word","S","exp","5"
"","null","html-keyboard-response","278","1319275","0.0-3.0-0.131","+","null","","","","","",""
"","3435","html-keyboard-response","279","1322711","0.0-3.0-1.131","convidado","s","n","noncog","word","S","exp","9"
"","null","html-keyboard-response","280","1323225","0.0-3.0-0.132","+","null","","","","","",""
"","4366","html-keyboard-response","281","1327591","0.0-3.0-1.132","franda","s","null","noncog","pseudo","N","exp","null"
"","null","html-keyboard-response","282","1328091","0.0-3.0-0.133","+","null","","","","","",""
"","8747","html-keyboard-response","283","1336839","0.0-3.0-1.133","berquesa","n","null","noncog","pseudo","N","exp","null"
"","null","html-keyboard-response","284","1337339","0.0-3.0-0.134","+","null","","","","","",""
"","2731","html-keyboard-response","285","1340071","0.0-3.0-1.134","dilheira","s","null","noncog","pseudo","N","exp","null"
"","null","html-keyboard-response","286","1340572","0.0-3.0-0.135","+","null","","","","","",""
"","4347","html-keyboard-response","287","1344919","0.0-3.0-1.135","alfabeto","s","n","cog","word","S","exp","8"
"","null","html-keyboard-response","288","1345420","0.0-3.0-0.136","+","null","","","","","",""
"","3354","html-keyboard-response","289","1348775","0.0-3.0-1.136","pimada","s","null","noncog","pseudo","N","exp","null"
"","null","html-keyboard-response","290","1349275","0.0-3.0-0.137","+","null","","","","","",""
"","11483","html-keyboard-response","291","1360757","0.0-3.0-1.137","manais","n","null","noncog","pseudo","N","exp","null"
"","null","html-keyboard-response","292","1361259","0.0-3.0-0.138","+","null","","","","","",""
"","3818","html-keyboard-response","293","1365077","0.0-3.0-1.138","extravagante","s","a","cog","word","S","exp","12"
"","null","html-keyboard-response","294","1365578","0.0-3.0-0.139","+","null","","","","","",""
"","4122","html-keyboard-response","295","1369701","0.0-3.0-1.139","carona","s","n","noncog","word","S","exp","6"
"","null","html-keyboard-response","296","1370203","0.0-3.0-0.140","+","null","","","","","",""
"","2698","html-keyboard-response","297","1372901","0.0-3.0-1.140","verdade","s","n","cog","word","S","exp","7"
"","null","html-keyboard-response","298","1373417","0.0-3.0-0.141","+","null","","","","","",""
"","4716","html-keyboard-response","299","1378133","0.0-3.0-1.141","candifência","s","null","noncog","pseudo","N","exp","null"
"","null","html-keyboard-response","300","1378634","0.0-3.0-0.142","+","null","","","","","",""
"","8539","html-keyboard-response","301","1387174","0.0-3.0-1.142","quenzina","n","null","noncog","pseudo","N","exp","null"
"","null","html-keyboard-response","302","1387674","0.0-3.0-0.143","+","null","","","","","",""
"","5803","html-keyboard-response","303","1393477","0.0-3.0-1.143","tatear","n","v","cog","word","S","exp","6"
"","null","html-keyboard-response","304","1393978","0.0-3.0-0.144","+","null","","","","","",""
"","3675","html-keyboard-response","305","1397654","0.0-3.0-1.144","tinta","s","n","cog","word","S","exp","5"
"","null","html-keyboard-response","306","1398155","0.0-3.0-0.145","+","null","","","","","",""
"","4618","html-keyboard-response","307","1402773","0.0-3.0-1.145","fogão","s","n","noncog","word","S","exp","5"
"","null","html-keyboard-response","308","1403274","0.0-3.0-0.146","+","null","","","","","",""
"","9819","html-keyboard-response","309","1413094","0.0-3.0-1.146","promeção","s","null","noncog","pseudo","N","exp","null"
"","null","html-keyboard-response","310","1413595","0.0-3.0-0.147","+","null","","","","","",""
"","4234","html-keyboard-response","311","1417830","0.0-3.0-1.147","risbos","n","null","noncog","pseudo","N","exp","null"
"","null","html-keyboard-response","312","1418336","0.0-3.0-0.148","+","null","","","","","",""
"","6150","html-keyboard-response","313","1424486","0.0-3.0-1.148","prantal","n","null","noncog","pseudo","N","exp","null"
"","null","html-keyboard-response","314","1424990","0.0-3.0-0.149","+","null","","","","","",""
"","5303","html-keyboard-response","315","1430294","0.0-3.0-1.149","rovaz","n","null","noncog","pseudo","N","exp","null"
"","null","html-keyboard-response","316","1430803","0.0-3.0-0.150","+","null","","","","","",""
"","3634","html-keyboard-response","317","1434437","0.0-3.0-1.150","cápsula","s","n","noncog","word","S","exp","7"
"","null","html-keyboard-response","318","1434938","0.0-3.0-0.151","+","null","","","","","",""
"","10091","html-keyboard-response","319","1445030","0.0-3.0-1.151","trair","s","v","cog","word","S","exp","5"
"","null","html-keyboard-response","320","1445531","0.0-3.0-0.152","+","null","","","","","",""
"","4554","html-keyboard-response","321","1450086","0.0-3.0-1.152","comércio","s","n","noncog","word","S","exp","8"
"","null","html-keyboard-response","322","1450588","0.0-3.0-0.153","+","null","","","","","",""
"","3961","html-keyboard-response","323","1454550","0.0-3.0-1.153","refletir","s","v","cog","word","S","exp","8"
"","null","html-keyboard-response","324","1455052","0.0-3.0-0.154","+","null","","","","","",""
"","7930","html-keyboard-response","325","1462982","0.0-3.0-1.154","sanque","n","null","noncog","pseudo","N","exp","null"
"","null","html-keyboard-response","326","1463483","0.0-3.0-0.155","+","null","","","","","",""
"","5354","html-keyboard-response","327","1468838","0.0-3.0-1.155","alpica","n","null","noncog","pseudo","N","exp","null"
"","null","html-keyboard-response","328","1469339","0.0-3.0-0.156","+","null","","","","","",""
"","6330","html-keyboard-response","329","1475670","0.0-3.0-1.156","mabras","n","null","noncog","pseudo","N","exp","null"
"","null","html-keyboard-response","330","1476172","0.0-3.0-0.157","+","null","","","","","",""
"","2602","html-keyboard-response","331","1478774","0.0-3.0-1.157","disbrituir","s","null","noncog","pseudo","N","exp","null"
"","null","html-keyboard-response","332","1479276","0.0-3.0-0.158","+","null","","","","","",""
"","2698","html-keyboard-response","333","1481973","0.0-3.0-1.158","chorão","s","a","noncog","word","S","exp","6"
"","null","html-keyboard-response","334","1482474","0.0-3.0-0.159","+","null","","","","","",""
"","2667","html-keyboard-response","335","1485141","0.0-3.0-1.159","atrasar","s","v","noncog","word","S","exp","7"
"","null","html-keyboard-response","336","1485642","0.0-3.0-0.160","+","null","","","","","",""
"","3419","html-keyboard-response","337","1489061","0.0-3.0-1.160","prever","s","v","cog","word","S","exp","6"
"","null","html-keyboard-response","338","1489562","0.0-3.0-0.161","+","null","","","","","",""
"","6571","html-keyboard-response","339","1496133","0.0-3.0-1.161","bandido","s","n","cog","word","S","exp","7"
"","null","html-keyboard-response","340","1496634","0.0-3.0-0.162","+","null","","","","","",""
"","2923","html-keyboard-response","341","1499557","0.0-3.0-1.162","traduzir","s","v","cog","word","S","exp","8"
"","null","html-keyboard-response","342","1500059","0.0-3.0-0.163","+","null","","","","","",""
"","3626","html-keyboard-response","343","1503685","0.0-3.0-1.163","liberal","s","a","cog","word","S","exp","7"
"","null","html-keyboard-response","344","1504186","0.0-3.0-0.164","+","null","","","","","",""
"","6827","html-keyboard-response","345","1511014","0.0-3.0-1.164","açúcar","n","n","noncog","word","S","exp","6"
"","null","html-keyboard-response","346","1511514","0.0-3.0-0.165","+","null","","","","","",""
"","5307","html-keyboard-response","347","1516821","0.0-3.0-1.165","selir","n","null","noncog","pseudo","N","exp","null"
"","null","html-keyboard-response","348","1517322","0.0-3.0-0.166","+","null","","","","","",""
"","5179","html-keyboard-response","349","1522501","0.0-3.0-1.166","âgnulo","s","null","noncog","pseudo","N","exp","null"
"","null","html-keyboard-response","350","1523003","0.0-3.0-0.167","+","null","","","","","",""
"","3098","html-keyboard-response","351","1526101","0.0-3.0-1.167","cenada","s","null","noncog","pseudo","N","exp","null"
"","null","html-keyboard-response","352","1526603","0.0-3.0-0.168","+","null","","","","","",""
"","4794","html-keyboard-response","353","1531397","0.0-3.0-1.168","instruído","s","a","noncog","word","S","exp","9"
"","null","html-keyboard-response","354","1531899","0.0-3.0-0.169","+","null","","","","","",""
"","9274","html-keyboard-response","355","1541173","0.0-3.0-1.169","aivões","s","null","noncog","pseudo","N","exp","null"
"","null","html-keyboard-response","356","1541674","0.0-3.0-0.170","+","null","","","","","",""
"","5018","html-keyboard-response","357","1546693","0.0-3.0-1.170","tartos","n","null","noncog","pseudo","N","exp","null"
"","null","html-keyboard-response","358","1547197","0.0-3.0-0.171","+","null","","","","","",""
"","2888","html-keyboard-response","359","1550085","0.0-3.0-1.171","drama","s","n","cog","word","S","exp","5"
"","null","html-keyboard-response","360","1550586","0.0-3.0-0.172","+","null","","","","","",""
"","1627","html-keyboard-response","361","1552213","0.0-3.0-1.172","trabalhar","s","v","noncog","word","S","exp","9"
"","null","html-keyboard-response","362","1552715","0.0-3.0-0.173","+","null","","","","","",""
"","3082","html-keyboard-response","363","1555797","0.0-3.0-1.173","cerca","s","n","noncog","word","S","exp","5"
"","null","html-keyboard-response","364","1556298","0.0-3.0-0.174","+","null","","","","","",""
"","5226","html-keyboard-response","365","1561525","0.0-3.0-1.174","liso","s","n","noncog","word","S","exp","4"
"","null","html-keyboard-response","366","1562025","0.0-3.0-0.175","+","null","","","","","",""
"","2603","html-keyboard-response","367","1564629","0.0-3.0-1.175","enxarto","s","null","noncog","pseudo","N","exp","null"
"","null","html-keyboard-response","368","1565131","0.0-3.0-0.176","+","null","","","","","",""
"","4122","html-keyboard-response","369","1569253","0.0-3.0-1.176","revista","s","n","cog","word","S","exp","7"
"","null","html-keyboard-response","370","1569754","0.0-3.0-0.177","+","null","","","","","",""
"","4618","html-keyboard-response","371","1574373","0.0-3.0-1.177","espionar","s","v","cog","word","S","exp","8"
"","null","html-keyboard-response","372","1574874","0.0-3.0-0.178","+","null","","","","","",""
"","4459","html-keyboard-response","373","1579333","0.0-3.0-1.178","pritas","s","null","noncog","pseudo","N","exp","null"
"","null","html-keyboard-response","374","1579834","0.0-3.0-0.179","+","null","","","","","",""
"","3770","html-keyboard-response","375","1583605","0.0-3.0-1.179","anjo","s","n","cog","word","S","exp","4"
"","null","html-keyboard-response","376","1584105","0.0-3.0-0.180","+","null","","","","","",""
"","5579","html-keyboard-response","377","1589685","0.0-3.0-1.180","dacada","n","null","noncog","pseudo","N","exp","null"
"","null","html-keyboard-response","378","1590187","0.0-3.0-0.181","+","null","","","","","",""
"","4314","html-keyboard-response","379","1594501","0.0-3.0-1.181","taberia","s","null","noncog","pseudo","N","exp","null"
"","null","html-keyboard-response","380","1595003","0.0-3.0-0.182","+","null","","","","","",""
"","2202","html-keyboard-response","381","1597205","0.0-3.0-1.182","usfiga","s","null","noncog","pseudo","N","exp","null"
"","null","html-keyboard-response","382","1597707","0.0-3.0-0.183","+","null","","","","","",""
"","12122","html-keyboard-response","383","1609828","0.0-3.0-1.183","ejerro","n","null","noncog","pseudo","N","exp","null"
"","null","html-keyboard-response","384","1610330","0.0-3.0-0.184","+","null","","","","","",""
"","15979","html-keyboard-response","385","1626309","0.0-3.0-1.184","oricia","s","null","noncog","pseudo","N","exp","null"
"","null","html-keyboard-response","386","1626810","0.0-3.0-0.185","+","null","","","","","",""
"","6298","html-keyboard-response","387","1633108","0.0-3.0-1.185","ideisa","n","null","noncog","pseudo","N","exp","null"
"","null","html-keyboard-response","388","1633609","0.0-3.0-0.186","+","null","","","","","",""
"","1403","html-keyboard-response","389","1635012","0.0-3.0-1.186","nome","s","n","cog","word","S","exp","4"
"","null","html-keyboard-response","390","1635513","0.0-3.0-0.187","+","null","","","","","",""
"","3595","html-keyboard-response","391","1639109","0.0-3.0-1.187","cirado","s","null","noncog","pseudo","N","exp","null"
"","null","html-keyboard-response","392","1639610","0.0-3.0-0.188","+","null","","","","","",""
"","3498","html-keyboard-response","393","1643108","0.0-3.0-1.188","ronronar","s","v","cog","word","S","exp","8"
"","null","html-keyboard-response","394","1643609","0.0-3.0-0.189","+","null","","","","","",""
"","3819","html-keyboard-response","395","1647428","0.0-3.0-1.189","uchães","n","null","noncog","pseudo","N","exp","null"
"","null","html-keyboard-response","396","1647929","0.0-3.0-0.190","+","null","","","","","",""
"","2875","html-keyboard-response","397","1650805","0.0-3.0-1.190","nacional","s","a","cog","word","S","exp","8"
"","null","html-keyboard-response","398","1651305","0.0-3.0-0.191","+","null","","","","","",""
"","2795","html-keyboard-response","399","1654100","0.0-3.0-1.191","carregar","s","v","noncog","word","S","exp","8"
"","null","html-keyboard-response","400","1654601","0.0-3.0-0.192","+","null","","","","","",""
"","3211","html-keyboard-response","401","1657812","0.0-3.0-1.192","cravo","s","n","noncog","word","S","exp","5"
"","null","html-keyboard-response","402","1658313","0.0-3.0-0.193","+","null","","","","","",""
"","2619","html-keyboard-response","403","1660932","0.0-3.0-1.193","fasdas","s","null","noncog","pseudo","N","exp","null"
"","null","html-keyboard-response","404","1661433","0.0-3.0-0.194","+","null","","","","","",""
"","3386","html-keyboard-response","405","1664820","0.0-3.0-1.194","terdia","n","null","noncog","pseudo","N","exp","null"
"","null","html-keyboard-response","406","1665321","0.0-3.0-0.195","+","null","","","","","",""
"","2794","html-keyboard-response","407","1668116","0.0-3.0-1.195","preferir","s","v","cog","word","S","exp","8"
"","null","html-keyboard-response","408","1668617","0.0-3.0-0.196","+","null","","","","","",""
"","5435","html-keyboard-response","409","1674052","0.0-3.0-1.196","planalto","n","n","cog","word","S","exp","8"
"","null","html-keyboard-response","410","1674553","0.0-3.0-0.197","+","null","","","","","",""
"","1835","html-keyboard-response","411","1676388","0.0-3.0-1.197","verde","s","a","noncog","word","S","exp","5"
"","null","html-keyboard-response","412","1676889","0.0-3.0-0.198","+","null","","","","","",""
"","3035","html-keyboard-response","413","1679924","0.0-3.0-1.198","grótis","s","null","noncog","pseudo","N","exp","null"
"","null","html-keyboard-response","414","1680425","0.0-3.0-0.199","+","null","","","","","",""
"","4714","html-keyboard-response","415","1685140","0.0-3.0-1.199","ensuas","n","null","noncog","pseudo","N","exp","null"
"","null","html-keyboard-response","416","1685641","0.0-3.0-0.200","+","null","","","","","",""
"","2555","html-keyboard-response","417","1688196","0.0-3.0-1.200","papai","s","n","cog","word","S","exp","5"
"","null","html-keyboard-response","418","1688697","0.0-3.0-0.201","+","null","","","","","",""
"","2091","html-keyboard-response","419","1690788","0.0-3.0-1.201","cristal","s","n","cog","word","S","exp","7"
"","null","html-keyboard-response","420","1691289","0.0-3.0-0.202","+","null","","","","","",""
"","4555","html-keyboard-response","421","1695844","0.0-3.0-1.202","perbas","n","null","noncog","pseudo","N","exp","null"
"","null","html-keyboard-response","422","1696346","0.0-3.0-0.203","+","null","","","","","",""
"","2762","html-keyboard-response","423","1699108","0.0-3.0-1.203","usnado","s","null","noncog","pseudo","N","exp","null"
"","null","html-keyboard-response","424","1699609","0.0-3.0-0.204","+","null","","","","","",""
"","2922","html-keyboard-response","425","1702532","0.0-3.0-1.204","perdão","s","n","noncog","word","S","exp","6"
"","null","html-keyboard-response","426","1703033","0.0-3.0-0.205","+","null","","","","","",""
"","3371","html-keyboard-response","427","1706404","0.0-3.0-1.205","detative","s","null","noncog","pseudo","N","exp","null"
"","null","html-keyboard-response","428","1706905","0.0-3.0-0.206","+","null","","","","","",""
"","3946","html-keyboard-response","429","1710852","0.0-3.0-1.206","farcas","n","null","noncog","pseudo","N","exp","null"
"","null","html-keyboard-response","430","1711354","0.0-3.0-0.207","+","null","","","","","",""
"","4586","html-keyboard-response","431","1715940","0.0-3.0-1.207","vervas","n","null","noncog","pseudo","N","exp","null"
"","null","html-keyboard-response","432","1716442","0.0-3.0-0.208","+","null","","","","","",""
"","6778","html-keyboard-response","433","1723220","0.0-3.0-1.208","enedro","s","null","noncog","pseudo","N","exp","null"
"","null","html-keyboard-response","434","1723730","0.0-3.0-0.209","+","null","","","","","",""
"","6033","html-keyboard-response","435","1729764","0.0-3.0-1.209","loaco","n","null","noncog","pseudo","N","exp","null"
"","null","html-keyboard-response","436","1730265","0.0-3.0-0.210","+","null","","","","","",""
"","7370","html-keyboard-response","437","1737636","0.0-3.0-1.210","parceter","n","null","noncog","pseudo","N","exp","null"
"","null","html-keyboard-response","438","1738137","0.0-3.0-0.211","+","null","","","","","",""
"","3066","html-keyboard-response","439","1741204","0.0-3.0-1.211","dencosto","s","null","noncog","pseudo","N","exp","null"
"","null","html-keyboard-response","440","1741705","0.0-3.0-0.212","+","null","","","","","",""
"","2826","html-keyboard-response","441","1744531","0.0-3.0-1.212","esperar","s","v","cog","word","S","exp","7"
"","null","html-keyboard-response","442","1745032","0.0-3.0-0.213","+","null","","","","","",""
"","1851","html-keyboard-response","443","1746883","0.0-3.0-1.213","fino","s","a","cog","word","S","exp","4"
"","null","html-keyboard-response","444","1747384","0.0-3.0-0.214","+","null","","","","","",""
"","2939","html-keyboard-response","445","1750324","0.0-3.0-1.214","vitrive","s","null","noncog","pseudo","N","exp","null"
"","null","html-keyboard-response","446","1750825","0.0-3.0-0.215","+","null","","","","","",""
"","2203","html-keyboard-response","447","1753028","0.0-3.0-1.215","esfoce","s","null","noncog","pseudo","N","exp","null"
"","null","html-keyboard-response","448","1753529","0.0-3.0-0.216","+","null","","","","","",""
"","7082","html-keyboard-response","449","1760612","0.0-3.0-1.216","apontar","n","v","noncog","word","S","exp","7"
"","null","html-keyboard-response","450","1761123","0.0-3.0-0.217","+","null","","","","","",""
"","2784","html-keyboard-response","451","1763908","0.0-3.0-1.217","mudança","s","n","noncog","word","S","exp","7"
"","null","html-keyboard-response","452","1764409","0.0-3.0-0.218","+","null","","","","","",""
"","5065","html-keyboard-response","453","1769475","0.0-3.0-1.218","salpicado","n","a","noncog","word","S","exp","9"
"","null","html-keyboard-response","454","1769976","0.0-3.0-0.219","+","null","","","","","",""
"","2443","html-keyboard-response","455","1772420","0.0-3.0-1.219","grátis","s","a","cog","word","S","exp","6"
"","null","html-keyboard-response","456","1772921","0.0-3.0-0.220","+","null","","","","","",""
"","3578","html-keyboard-response","457","1776500","0.0-3.0-1.220","ênclio","s","null","noncog","pseudo","N","exp","null"
"","null","html-keyboard-response","458","1777001","0.0-3.0-0.221","+","null","","","","","",""
"","3898","html-keyboard-response","459","1780899","0.0-3.0-1.221","braras","n","null","noncog","pseudo","N","exp","null"
"","null","html-keyboard-response","460","1781400","0.0-3.0-0.222","+","null","","","","","",""
"","2315","html-keyboard-response","461","1783715","0.0-3.0-1.222","tímido","s","a","cog","word","S","exp","6"
"","null","html-keyboard-response","462","1784216","0.0-3.0-0.223","+","null","","","","","",""
"","4491","html-keyboard-response","463","1788707","0.0-3.0-1.223","atapdar","n","null","noncog","pseudo","N","exp","null"
"","null","html-keyboard-response","464","1789210","0.0-3.0-0.224","+","null","","","","","",""
"","3337","html-keyboard-response","465","1792547","0.0-3.0-1.224","arranjar","s","v","cog","word","S","exp","8"
"","null","html-keyboard-response","466","1793049","0.0-3.0-0.225","+","null","","","","","",""
"","2938","html-keyboard-response","467","1795987","0.0-3.0-1.225","tênis","s","n","cog","word","S","exp","5"
"","null","html-keyboard-response","468","1796488","0.0-3.0-0.226","+","null","","","","","",""
"","4410","html-keyboard-response","469","1800899","0.0-3.0-1.226","ótimo","s","a","noncog","word","S","exp","5"
"","null","html-keyboard-response","470","1801401","0.0-3.0-0.227","+","null","","","","","",""
"","2186","html-keyboard-response","471","1803587","0.0-3.0-1.227","filme","s","n","cog","word","S","exp","5"
"","null","html-keyboard-response","472","1804088","0.0-3.0-0.228","+","null","","","","","",""
"","6507","html-keyboard-response","473","1810595","0.0-3.0-1.228","garastia","n","null","noncog","pseudo","N","exp","null"
"","null","html-keyboard-response","474","1811097","0.0-3.0-0.229","+","null","","","","","",""
"","3914","html-keyboard-response","475","1815011","0.0-3.0-1.229","oecano","n","null","noncog","pseudo","N","exp","null"
"","null","html-keyboard-response","476","1815513","0.0-3.0-0.230","+","null","","","","","",""
"","1562","html-keyboard-response","477","1817075","0.0-3.0-1.230","país","s","n","noncog","word","S","exp","4"
"","null","html-keyboard-response","478","1817577","0.0-3.0-0.231","+","null","","","","","",""
"","2442","html-keyboard-response","479","1820019","0.0-3.0-1.231","bachir","s","null","noncog","pseudo","N","exp","null"
"","null","html-keyboard-response","480","1820520","0.0-3.0-0.232","+","null","","","","","",""
"","2602","html-keyboard-response","481","1823123","0.0-3.0-1.232","memória","s","n","cog","word","S","exp","7"
"","null","html-keyboard-response","482","1823624","0.0-3.0-0.233","+","null","","","","","",""
"","2187","html-keyboard-response","483","1825811","0.0-3.0-1.233","raspar","n","v","noncog","word","S","exp","6"
"","null","html-keyboard-response","484","1826312","0.0-3.0-0.234","+","null","","","","","",""
"","6554","html-keyboard-response","485","1832867","0.0-3.0-1.234","lapestra","s","null","noncog","pseudo","N","exp","null"
"","null","html-keyboard-response","486","1833368","0.0-3.0-0.235","+","null","","","","","",""
"","3883","html-keyboard-response","487","1837251","0.0-3.0-1.235","distraído","s","a","cog","word","S","exp","9"
"","null","html-keyboard-response","488","1837756","0.0-3.0-0.236","+","null","","","","","",""
"","6950","html-keyboard-response","489","1844707","0.0-3.0-1.236","fusbão","n","null","noncog","pseudo","N","exp","null"
"","null","html-keyboard-response","490","1845208","0.0-3.0-0.237","+","null","","","","","",""
"","4234","html-keyboard-response","491","1849443","0.0-3.0-1.237","brincar","s","v","noncog","word","S","exp","7"
"","null","html-keyboard-response","492","1849945","0.0-3.0-0.238","+","null","","","","","",""
"","5897","html-keyboard-response","493","1855843","0.0-3.0-1.238","enxerido","n","a","noncog","word","S","exp","8"
"","null","html-keyboard-response","494","1856344","0.0-3.0-0.239","+","null","","","","","",""
"","2043","html-keyboard-response","495","1858387","0.0-3.0-1.239","dia","s","n","noncog","word","S","exp","3"
