[
	{
		"view_history": [
			{
				"page_index": 0,
				"viewing_time": 26859
			}
		],
		"rt": 26860,
		"trial_type": "instructions",
		"trial_index": 0,
		"time_elapsed": 26860,
		"internal_node_id": "0.0-0.0"
	},
	{
		"rt": 4796,
		"response": {
			"tcle": "Concordo voluntariamente em participar da pesquisa conforme texto acima."
		},
		"question_order": [
			0
		],
		"trial_type": "survey-multi-choice",
		"trial_index": 1,
		"time_elapsed": 31860,
		"internal_node_id": "0.0-1.0"
	},
	{
		"rt": 9369,
		"response": {
			"email": "5IW5Y"
		},
		"trial_type": "survey-text",
		"trial_index": 2,
		"time_elapsed": 42260,
		"internal_node_id": "0.0-2.0"
	}
]