[
	{
		"view_history": [
			{
				"page_index": 0,
				"viewing_time": 2758
			},
			{
				"page_index": 1,
				"viewing_time": 19696
			}
		],
		"rt": 22455,
		"trial_type": "instructions",
		"trial_index": 0,
		"time_elapsed": 22455,
		"internal_node_id": "0.0-0.0"
	},
	{
		"rt": null,
		"stimulus": "<span style= \"font-size:30px; font-family: monospace\">+</span>",
		"response": null,
		"trial_part": "fixation",
		"trial_type": "html-keyboard-response",
		"trial_index": 1,
		"time_elapsed": 23565,
		"internal_node_id": "0.0-1.0-0.0-0.0"
	},
	{
		"rt": 5629,
		"stimulus": "../audio/prac-question-1-1.mp3",
		"response": " ",
		"word": "O",
		"trial_type": "audio-keyboard-response",
		"trial_index": 2,
		"time_elapsed": 29463,
		"internal_node_id": "0.0-1.0-1.0"
	},
	{
		"rt": 3680,
		"stimulus": "../audio/prac-question-1-2.mp3",
		"response": " ",
		"word": "dia",
		"trial_type": "audio-keyboard-response",
		"trial_index": 3,
		"time_elapsed": 33430,
		"internal_node_id": "0.0-1.0-1.1"
	},
	{
		"rt": 3160,
		"stimulus": "../audio/prac-question-1-3.mp3",
		"response": " ",
		"word": "estará",
		"trial_type": "audio-keyboard-response",
		"trial_index": 4,
		"time_elapsed": 36902,
		"internal_node_id": "0.0-1.0-1.2"
	},
	{
		"rt": 2669,
		"stimulus": "../audio/prac-question-1-4.mp3",
		"response": " ",
		"word": "cheio",
		"trial_type": "audio-keyboard-response",
		"trial_index": 5,
		"time_elapsed": 39861,
		"internal_node_id": "0.0-1.0-1.3"
	},
	{
		"rt": 2861,
		"stimulus": "../audio/prac-question-1-5.mp3",
		"response": " ",
		"word": "de",
		"trial_type": "audio-keyboard-response",
		"trial_index": 6,
		"time_elapsed": 42998,
		"internal_node_id": "0.0-1.0-1.4"
	},
	{
		"rt": 3371,
		"stimulus": "../audio/prac-question-1-6.mp3",
		"response": " ",
		"word": "nuvens",
		"trial_type": "audio-keyboard-response",
		"trial_index": 7,
		"time_elapsed": 46678,
		"internal_node_id": "0.0-1.0-1.5"
	},
	{
		"rt": 2499,
		"stimulus": "../audio/prac-question-1-7.mp3",
		"response": " ",
		"word": "hoje.",
		"trial_type": "audio-keyboard-response",
		"trial_index": 8,
		"time_elapsed": 49461,
		"internal_node_id": "0.0-1.0-1.6"
	},
	{
		"rt": null,
		"stimulus": "<span style= \"font-size:30px; font-family: monospace\">+</span>",
		"response": null,
		"trial_part": "fixation",
		"trial_type": "html-keyboard-response",
		"trial_index": 9,
		"time_elapsed": 50724,
		"internal_node_id": "0.0-1.0-0.7-0.7"
	},
	{
		"rt": 1992,
		"stimulus": "../audio/prac-question-2-1.mp3",
		"response": " ",
		"word": "A",
		"trial_type": "audio-keyboard-response",
		"trial_index": 10,
		"time_elapsed": 52998,
		"internal_node_id": "0.0-1.0-1.7"
	},
	{
		"rt": 2749,
		"stimulus": "../audio/prac-question-2-2.mp3",
		"response": " ",
		"word": "caneca",
		"trial_type": "audio-keyboard-response",
		"trial_index": 11,
		"time_elapsed": 56021,
		"internal_node_id": "0.0-1.0-1.8"
	},
	{
		"rt": 2419,
		"stimulus": "../audio/prac-question-2-3.mp3",
		"response": " ",
		"word": "colorida",
		"trial_type": "audio-keyboard-response",
		"trial_index": 12,
		"time_elapsed": 58742,
		"internal_node_id": "0.0-1.0-1.9"
	},
	{
		"rt": 2099,
		"stimulus": "../audio/prac-question-2-4.mp3",
		"response": " ",
		"word": "caiu",
		"trial_type": "audio-keyboard-response",
		"trial_index": 13,
		"time_elapsed": 61173,
		"internal_node_id": "0.0-1.0-1.10"
	},
	{
		"rt": 2109,
		"stimulus": "../audio/prac-question-2-5.mp3",
		"response": " ",
		"word": "da",
		"trial_type": "audio-keyboard-response",
		"trial_index": 14,
		"time_elapsed": 63574,
		"internal_node_id": "0.0-1.0-1.11"
	},
	{
		"rt": 1851,
		"stimulus": "../audio/prac-question-2-6.mp3",
		"response": " ",
		"word": "mesa",
		"trial_type": "audio-keyboard-response",
		"trial_index": 15,
		"time_elapsed": 65701,
		"internal_node_id": "0.0-1.0-1.12"
	},
	{
		"rt": 1931,
		"stimulus": "../audio/prac-question-2-7.mp3",
		"response": " ",
		"word": "de",
		"trial_type": "audio-keyboard-response",
		"trial_index": 16,
		"time_elapsed": 67909,
		"internal_node_id": "0.0-1.0-1.13"
	},
	{
		"rt": 2669,
		"stimulus": "../audio/prac-question-2-8.mp3",
		"response": " ",
		"word": "jantar.",
		"trial_type": "audio-keyboard-response",
		"trial_index": 17,
		"time_elapsed": 70870,
		"internal_node_id": "0.0-1.0-1.14"
	},
	{
		"rt": 12066,
		"stimulus": "<span style=\"font-size:25px; font-family: monospace\">A caneca era colorida?</span>",
		"response": "s",
		"question": "A caneca era colorida?",
		"answer": "null",
		"trial": "prac-sent",
		"trial_type": "html-keyboard-response",
		"trial_index": 18,
		"time_elapsed": 83190,
		"internal_node_id": "0.0-1.0-2.14-0.14",
		"accuracy": false
	},
	{
		"view_history": [
			{
				"page_index": 0,
				"viewing_time": 44483
			}
		],
		"rt": 44483,
		"trial_type": "instructions",
		"trial_index": 19,
		"time_elapsed": 128174,
		"internal_node_id": "0.0-2.0"
	},
	{
		"rt": null,
		"stimulus": "<span style= \"font-size:30px; font-family: monospace\">+</span>",
		"response": null,
		"trial_part": "fixation",
		"trial_type": "html-keyboard-response",
		"trial_index": 20,
		"time_elapsed": 129275,
		"internal_node_id": "0.0-3.0-0.0-0.0"
	},
	{
		"rt": 2128,
		"stimulus": "../audio/09-1-masc.mp3",
		"response": " ",
		"word": "O",
		"trial_type": "audio-keyboard-response",
		"trial_index": 21,
		"time_elapsed": 131781,
		"internal_node_id": "0.0-3.0-1.0"
	},
	{
		"rt": 2088,
		"stimulus": "../audio/09-2-masc.mp3",
		"response": " ",
		"word": "rapaz",
		"trial_type": "audio-keyboard-response",
		"trial_index": 22,
		"time_elapsed": 134181,
		"internal_node_id": "0.0-3.0-1.1"
	},
	{
		"rt": 2219,
		"stimulus": "../audio/09-3-masc.mp3",
		"response": " ",
		"word": "limpou",
		"trial_type": "audio-keyboard-response",
		"trial_index": 23,
		"time_elapsed": 136709,
		"internal_node_id": "0.0-3.0-1.2"
	},
	{
		"rt": 3019,
		"stimulus": "../audio/09-4-masc.mp3",
		"response": " ",
		"word": "o",
		"trial_type": "audio-keyboard-response",
		"trial_index": 24,
		"time_elapsed": 140021,
		"internal_node_id": "0.0-3.0-1.3"
	},
	{
		"rt": 2461,
		"stimulus": "../audio/09-5-masc.mp3",
		"response": " ",
		"word": "terreno",
		"trial_type": "audio-keyboard-response",
		"trial_index": 25,
		"time_elapsed": 142773,
		"internal_node_id": "0.0-3.0-1.4"
	},
	{
		"rt": 2288,
		"stimulus": "../audio/09-6-masc.mp3",
		"response": " ",
		"word": "com",
		"trial_type": "audio-keyboard-response",
		"trial_index": 26,
		"time_elapsed": 145381,
		"internal_node_id": "0.0-3.0-1.5"
	},
	{
		"rt": 2360,
		"stimulus": "../audio/09-7-masc.mp3",
		"response": " ",
		"word": "uma",
		"trial_type": "audio-keyboard-response",
		"trial_index": 27,
		"time_elapsed": 148021,
		"internal_node_id": "0.0-3.0-1.6"
	},
	{
		"rt": 2941,
		"stimulus": "../audio/09-8-masc.mp3",
		"response": " ",
		"word": "pá.",
		"trial_type": "audio-keyboard-response",
		"trial_index": 28,
		"time_elapsed": 151253,
		"internal_node_id": "0.0-3.0-1.7"
	},
	{
		"rt": null,
		"stimulus": "<span style= \"font-size:30px; font-family: monospace\">+</span>",
		"response": null,
		"trial_part": "fixation",
		"trial_type": "html-keyboard-response",
		"trial_index": 29,
		"time_elapsed": 152527,
		"internal_node_id": "0.0-3.0-0.8-0.8"
	},
	{
		"rt": 2691,
		"stimulus": "../audio/06-1-masc.mp3",
		"response": " ",
		"word": "Ouvimos",
		"trial_type": "audio-keyboard-response",
		"trial_index": 30,
		"time_elapsed": 155525,
		"internal_node_id": "0.0-3.0-1.8"
	},
	{
		"rt": 2379,
		"stimulus": "../audio/06-2-masc.mp3",
		"response": " ",
		"word": "a",
		"trial_type": "audio-keyboard-response",
		"trial_index": 31,
		"time_elapsed": 158181,
		"internal_node_id": "0.0-3.0-1.9"
	},
	{
		"rt": 2040,
		"stimulus": "../audio/06-3-masc.mp3",
		"response": " ",
		"word": "fala",
		"trial_type": "audio-keyboard-response",
		"trial_index": 32,
		"time_elapsed": 160500,
		"internal_node_id": "0.0-3.0-1.10"
	},
	{
		"rt": 1720,
		"stimulus": "../audio/06-4-masc.mp3",
		"response": " ",
		"word": "do",
		"trial_type": "audio-keyboard-response",
		"trial_index": 33,
		"time_elapsed": 162517,
		"internal_node_id": "0.0-3.0-1.11"
	},
	{
		"rt": 2499,
		"stimulus": "../audio/06-5-masc.mp3",
		"response": " ",
		"word": "profeta",
		"trial_type": "audio-keyboard-response",
		"trial_index": 34,
		"time_elapsed": 165300,
		"internal_node_id": "0.0-3.0-1.12"
	},
	{
		"rt": 2091,
		"stimulus": "../audio/06-6-masc.mp3",
		"response": " ",
		"word": "no",
		"trial_type": "audio-keyboard-response",
		"trial_index": 35,
		"time_elapsed": 167684,
		"internal_node_id": "0.0-3.0-1.13"
	},
	{
		"rt": 2560,
		"stimulus": "../audio/06-7-masc.mp3",
		"response": " ",
		"word": "púlpito",
		"trial_type": "audio-keyboard-response",
		"trial_index": 36,
		"time_elapsed": 170548,
		"internal_node_id": "0.0-3.0-1.14"
	},
	{
		"rt": 2341,
		"stimulus": "../audio/06-8-masc.mp3",
		"response": " ",
		"word": "da",
		"trial_type": "audio-keyboard-response",
		"trial_index": 37,
		"time_elapsed": 173172,
		"internal_node_id": "0.0-3.0-1.15"
	},
	{
		"rt": 3571,
		"stimulus": "../audio/06-9-masc.mp3",
		"response": " ",
		"word": "igreja.",
		"trial_type": "audio-keyboard-response",
		"trial_index": 38,
		"time_elapsed": 177044,
		"internal_node_id": "0.0-3.0-1.16"
	},
	{
		"rt": null,
		"stimulus": "<span style= \"font-size:30px; font-family: monospace\">+</span>",
		"response": null,
		"trial_part": "fixation",
		"trial_type": "html-keyboard-response",
		"trial_index": 39,
		"time_elapsed": 178309,
		"internal_node_id": "0.0-3.0-0.17-0.17"
	},
	{
		"rt": 2421,
		"stimulus": "../audio/07-1-masc.mp3",
		"response": " ",
		"word": "Meu",
		"trial_type": "audio-keyboard-response",
		"trial_index": 40,
		"time_elapsed": 181012,
		"internal_node_id": "0.0-3.0-1.17"
	},
	{
		"rt": 1901,
		"stimulus": "../audio/07-2-masc.mp3",
		"response": " ",
		"word": "filho",
		"trial_type": "audio-keyboard-response",
		"trial_index": 41,
		"time_elapsed": 183205,
		"internal_node_id": "0.0-3.0-1.18"
	},
	{
		"rt": 1899,
		"stimulus": "../audio/07-3-masc.mp3",
		"response": " ",
		"word": "é",
		"trial_type": "audio-keyboard-response",
		"trial_index": 42,
		"time_elapsed": 185380,
		"internal_node_id": "0.0-3.0-1.19"
	},
	{
		"rt": 2131,
		"stimulus": "../audio/07-4-masc.mp3",
		"response": " ",
		"word": "muito",
		"trial_type": "audio-keyboard-response",
		"trial_index": 43,
		"time_elapsed": 187796,
		"internal_node_id": "0.0-3.0-1.20"
	},
	{
		"rt": 2368,
		"stimulus": "../audio/07-5-masc.mp3",
		"response": " ",
		"word": "responsável",
		"trial_type": "audio-keyboard-response",
		"trial_index": 44,
		"time_elapsed": 190468,
		"internal_node_id": "0.0-3.0-1.21"
	},
	{
		"rt": 1939,
		"stimulus": "../audio/07-6-masc.mp3",
		"response": " ",
		"word": "nos",
		"trial_type": "audio-keyboard-response",
		"trial_index": 45,
		"time_elapsed": 192708,
		"internal_node_id": "0.0-3.0-1.22"
	},
	{
		"rt": 3000,
		"stimulus": "../audio/07-7-masc.mp3",
		"response": " ",
		"word": "estudos.",
		"trial_type": "audio-keyboard-response",
		"trial_index": 46,
		"time_elapsed": 196004,
		"internal_node_id": "0.0-3.0-1.23"
	},
	{
		"rt": null,
		"stimulus": "<span style= \"font-size:30px; font-family: monospace\">+</span>",
		"response": null,
		"trial_part": "fixation",
		"trial_type": "html-keyboard-response",
		"trial_index": 47,
		"time_elapsed": 197262,
		"internal_node_id": "0.0-3.0-0.24-0.24"
	},
	{
		"rt": 1589,
		"stimulus": "../audio/08-1-fem.mp3",
		"response": " ",
		"word": "A",
		"trial_type": "audio-keyboard-response",
		"trial_index": 48,
		"time_elapsed": 199204,
		"internal_node_id": "0.0-3.0-1.24"
	},
	{
		"rt": 1979,
		"stimulus": "../audio/08-2-fem.mp3",
		"response": " ",
		"word": "receita",
		"trial_type": "audio-keyboard-response",
		"trial_index": 49,
		"time_elapsed": 201476,
		"internal_node_id": "0.0-3.0-1.25"
	},
	{
		"rt": 1520,
		"stimulus": "../audio/08-3-fem.mp3",
		"response": " ",
		"word": "pede",
		"trial_type": "audio-keyboard-response",
		"trial_index": 50,
		"time_elapsed": 203284,
		"internal_node_id": "0.0-3.0-1.26"
	},
	{
		"rt": 1731,
		"stimulus": "../audio/08-4-fem.mp3",
		"response": " ",
		"word": "um",
		"trial_type": "audio-keyboard-response",
		"trial_index": 51,
		"time_elapsed": 205284,
		"internal_node_id": "0.0-3.0-1.27"
	},
	{
		"rt": 1760,
		"stimulus": "../audio/08-5-fem.mp3",
		"response": " ",
		"word": "litro",
		"trial_type": "audio-keyboard-response",
		"trial_index": 52,
		"time_elapsed": 207332,
		"internal_node_id": "0.0-3.0-1.28"
	},
	{
		"rt": 1981,
		"stimulus": "../audio/08-6-fem.mp3",
		"response": " ",
		"word": "de",
		"trial_type": "audio-keyboard-response",
		"trial_index": 53,
		"time_elapsed": 209604,
		"internal_node_id": "0.0-3.0-1.29"
	},
	{
		"rt": 2029,
		"stimulus": "../audio/08-7-fem.mp3",
		"response": " ",
		"word": "leite",
		"trial_type": "audio-keyboard-response",
		"trial_index": 54,
		"time_elapsed": 211956,
		"internal_node_id": "0.0-3.0-1.30"
	},
	{
		"rt": 2299,
		"stimulus": "../audio/08-8-fem.mp3",
		"response": " ",
		"word": "integral.",
		"trial_type": "audio-keyboard-response",
		"trial_index": 55,
		"time_elapsed": 214548,
		"internal_node_id": "0.0-3.0-1.31"
	},
	{
		"rt": null,
		"stimulus": "<span style= \"font-size:30px; font-family: monospace\">+</span>",
		"response": null,
		"trial_part": "fixation",
		"trial_type": "html-keyboard-response",
		"trial_index": 56,
		"time_elapsed": 215815,
		"internal_node_id": "0.0-3.0-0.32-0.32"
	},
	{
		"rt": 1229,
		"stimulus": "../audio/10-1-fem.mp3",
		"response": " ",
		"word": "O",
		"trial_type": "audio-keyboard-response",
		"trial_index": 57,
		"time_elapsed": 217348,
		"internal_node_id": "0.0-3.0-1.32"
	},
	{
		"rt": 1989,
		"stimulus": "../audio/10-2-fem.mp3",
		"response": " ",
		"word": "pássaro",
		"trial_type": "audio-keyboard-response",
		"trial_index": 58,
		"time_elapsed": 219636,
		"internal_node_id": "0.0-3.0-1.33"
	},
	{
		"rt": 2091,
		"stimulus": "../audio/10-3-fem.mp3",
		"response": " ",
		"word": "azul",
		"trial_type": "audio-keyboard-response",
		"trial_index": 59,
		"time_elapsed": 222004,
		"internal_node_id": "0.0-3.0-1.34"
	},
	{
		"rt": 1888,
		"stimulus": "../audio/10-4-fem.mp3",
		"response": " ",
		"word": "estava",
		"trial_type": "audio-keyboard-response",
		"trial_index": 60,
		"time_elapsed": 224180,
		"internal_node_id": "0.0-3.0-1.35"
	},
	{
		"rt": 1811,
		"stimulus": "../audio/10-5-fem.mp3",
		"response": " ",
		"word": "vivo",
		"trial_type": "audio-keyboard-response",
		"trial_index": 61,
		"time_elapsed": 226292,
		"internal_node_id": "0.0-3.0-1.36"
	},
	{
		"rt": 2240,
		"stimulus": "../audio/10-6-fem.mp3",
		"response": " ",
		"word": "e",
		"trial_type": "audio-keyboard-response",
		"trial_index": 62,
		"time_elapsed": 228836,
		"internal_node_id": "0.0-3.0-1.37"
	},
	{
		"rt": 1451,
		"stimulus": "../audio/10-7-fem.mp3",
		"response": " ",
		"word": "em",
		"trial_type": "audio-keyboard-response",
		"trial_index": 63,
		"time_elapsed": 230564,
		"internal_node_id": "0.0-3.0-1.38"
	},
	{
		"rt": 2691,
		"stimulus": "../audio/10-8-fem.mp3",
		"response": " ",
		"word": "segurança.",
		"trial_type": "audio-keyboard-response",
		"trial_index": 64,
		"time_elapsed": 233524,
		"internal_node_id": "0.0-3.0-1.39"
	},
	{
		"rt": 28034,
		"stimulus": "<span style=\"font-size:25px; font-family: monospace\">O pássaro vermelho estava em segurança?</span>",
		"response": "s",
		"question": "O pássaro vermelho estava em segurança?",
		"answer": "null",
		"trial": "exp-sent",
		"trial_type": "html-keyboard-response",
		"trial_index": 65,
		"time_elapsed": 261812,
		"internal_node_id": "0.0-3.0-2.39-0.39",
		"accuracy": false
	},
	{
		"rt": null,
		"stimulus": "<span style= \"font-size:30px; font-family: monospace\">+</span>",
		"response": null,
		"trial_part": "fixation",
		"trial_type": "html-keyboard-response",
		"trial_index": 66,
		"time_elapsed": 263314,
		"internal_node_id": "0.0-3.0-0.40-0.40"
	},
	{
		"rt": 80,
		"stimulus": "../audio/46-1-masc.mp3",
		"response": " ",
		"word": "Meu",
		"trial_type": "audio-keyboard-response",
		"trial_index": 67,
		"time_elapsed": 263668,
		"internal_node_id": "0.0-3.0-1.40"
	},
	{
		"rt": 3051,
		"stimulus": "../audio/46-2-masc.mp3",
		"response": " ",
		"word": "primo",
		"trial_type": "audio-keyboard-response",
		"trial_index": 68,
		"time_elapsed": 266996,
		"internal_node_id": "0.0-3.0-1.41"
	},
	{
		"rt": 2341,
		"stimulus": "../audio/46-3-masc.mp3",
		"response": " ",
		"word": "estava",
		"trial_type": "audio-keyboard-response",
		"trial_index": 69,
		"time_elapsed": 269636,
		"internal_node_id": "0.0-3.0-1.42"
	},
	{
		"rt": 2072,
		"stimulus": "../audio/46-4-masc.mp3",
		"response": " ",
		"word": "muito",
		"trial_type": "audio-keyboard-response",
		"trial_index": 70,
		"time_elapsed": 271988,
		"internal_node_id": "0.0-3.0-1.43"
	},
	{
		"rt": 3029,
		"stimulus": "../audio/46-5-masc.mp3",
		"response": " ",
		"word": "deprimido",
		"trial_type": "audio-keyboard-response",
		"trial_index": 71,
		"time_elapsed": 275300,
		"internal_node_id": "0.0-3.0-1.44"
	},
	{
		"rt": 1840,
		"stimulus": "../audio/46-6-masc.mp3",
		"response": " ",
		"word": "no",
		"trial_type": "audio-keyboard-response",
		"trial_index": 72,
		"time_elapsed": 277412,
		"internal_node_id": "0.0-3.0-1.45"
	},
	{
		"rt": 2589,
		"stimulus": "../audio/46-7-masc.mp3",
		"response": " ",
		"word": "inverno.",
		"trial_type": "audio-keyboard-response",
		"trial_index": 73,
		"time_elapsed": 280292,
		"internal_node_id": "0.0-3.0-1.46"
	},
	{
		"rt": null,
		"stimulus": "<span style= \"font-size:30px; font-family: monospace\">+</span>",
		"response": null,
		"trial_part": "fixation",
		"trial_type": "html-keyboard-response",
		"trial_index": 74,
		"time_elapsed": 281559,
		"internal_node_id": "0.0-3.0-0.47-0.47"
	},
	{
		"rt": 2192,
		"stimulus": "../audio/47-1-masc.mp3",
		"response": " ",
		"word": "O",
		"trial_type": "audio-keyboard-response",
		"trial_index": 75,
		"time_elapsed": 284036,
		"internal_node_id": "0.0-3.0-1.47"
	},
	{
		"rt": 2261,
		"stimulus": "../audio/47-2-masc.mp3",
		"response": " ",
		"word": "tio",
		"trial_type": "audio-keyboard-response",
		"trial_index": 76,
		"time_elapsed": 286596,
		"internal_node_id": "0.0-3.0-1.48"
	},
	{
		"rt": 2600,
		"stimulus": "../audio/47-3-masc.mp3",
		"response": " ",
		"word": "recusou",
		"trial_type": "audio-keyboard-response",
		"trial_index": 77,
		"time_elapsed": 289491,
		"internal_node_id": "0.0-3.0-1.49"
	},
	{
		"rt": 1451,
		"stimulus": "../audio/47-4-masc.mp3",
		"response": " ",
		"word": "a",
		"trial_type": "audio-keyboard-response",
		"trial_index": 78,
		"time_elapsed": 291235,
		"internal_node_id": "0.0-3.0-1.50"
	},
	{
		"rt": 1971,
		"stimulus": "../audio/47-5-masc.mp3",
		"response": " ",
		"word": "sobremesa",
		"trial_type": "audio-keyboard-response",
		"trial_index": 79,
		"time_elapsed": 293491,
		"internal_node_id": "0.0-3.0-1.51"
	},
	{
		"rt": 1571,
		"stimulus": "../audio/47-6-masc.mp3",
		"response": " ",
		"word": "no",
		"trial_type": "audio-keyboard-response",
		"trial_index": 80,
		"time_elapsed": 295348,
		"internal_node_id": "0.0-3.0-1.52"
	},
	{
		"rt": 2309,
		"stimulus": "../audio/47-7-masc.mp3",
		"response": " ",
		"word": "almoço.",
		"trial_type": "audio-keyboard-response",
		"trial_index": 81,
		"time_elapsed": 297940,
		"internal_node_id": "0.0-3.0-1.53"
	},
	{
		"rt": null,
		"stimulus": "<span style= \"font-size:30px; font-family: monospace\">+</span>",
		"response": null,
		"trial_part": "fixation",
		"trial_type": "html-keyboard-response",
		"trial_index": 82,
		"time_elapsed": 299202,
		"internal_node_id": "0.0-3.0-0.54-0.54"
	},
	{
		"rt": 1859,
		"stimulus": "../audio/48-1-fem.mp3",
		"response": " ",
		"word": "Ela",
		"trial_type": "audio-keyboard-response",
		"trial_index": 83,
		"time_elapsed": 301363,
		"internal_node_id": "0.0-3.0-1.54"
	},
	{
		"rt": 1901,
		"stimulus": "../audio/48-2-fem.mp3",
		"response": " ",
		"word": "come",
		"trial_type": "audio-keyboard-response",
		"trial_index": 84,
		"time_elapsed": 303540,
		"internal_node_id": "0.0-3.0-1.55"
	},
	{
		"rt": 1669,
		"stimulus": "../audio/48-3-fem.mp3",
		"response": " ",
		"word": "feijão",
		"trial_type": "audio-keyboard-response",
		"trial_index": 85,
		"time_elapsed": 305524,
		"internal_node_id": "0.0-3.0-1.56"
	},
	{
		"rt": 1549,
		"stimulus": "../audio/48-4-fem.mp3",
		"response": " ",
		"word": "com",
		"trial_type": "audio-keyboard-response",
		"trial_index": 86,
		"time_elapsed": 307363,
		"internal_node_id": "0.0-3.0-1.57"
	},
	{
		"rt": 1789,
		"stimulus": "../audio/48-5-fem.mp3",
		"response": " ",
		"word": "arroz",
		"trial_type": "audio-keyboard-response",
		"trial_index": 87,
		"time_elapsed": 309444,
		"internal_node_id": "0.0-3.0-1.58"
	},
	{
		"rt": 1661,
		"stimulus": "../audio/48-6-fem.mp3",
		"response": " ",
		"word": "todos",
		"trial_type": "audio-keyboard-response",
		"trial_index": 88,
		"time_elapsed": 311380,
		"internal_node_id": "0.0-3.0-1.59"
	},
	{
		"rt": 1731,
		"stimulus": "../audio/48-7-fem.mp3",
		"response": " ",
		"word": "os",
		"trial_type": "audio-keyboard-response",
		"trial_index": 89,
		"time_elapsed": 313380,
		"internal_node_id": "0.0-3.0-1.60"
	},
	{
		"rt": 1848,
		"stimulus": "../audio/48-8-fem.mp3",
		"response": " ",
		"word": "dias.",
		"trial_type": "audio-keyboard-response",
		"trial_index": 90,
		"time_elapsed": 315524,
		"internal_node_id": "0.0-3.0-1.61"
	},
	{
		"rt": null,
		"stimulus": "<span style= \"font-size:30px; font-family: monospace\">+</span>",
		"response": null,
		"trial_part": "fixation",
		"trial_type": "html-keyboard-response",
		"trial_index": 91,
		"time_elapsed": 316799,
		"internal_node_id": "0.0-3.0-0.62-0.62"
	},
	{
		"rt": 1491,
		"stimulus": "../audio/49-1-masc.mp3",
		"response": " ",
		"word": "Eu",
		"trial_type": "audio-keyboard-response",
		"trial_index": 92,
		"time_elapsed": 318580,
		"internal_node_id": "0.0-3.0-1.62"
	},
	{
		"rt": 2131,
		"stimulus": "../audio/49-2-masc.mp3",
		"response": " ",
		"word": "quero",
		"trial_type": "audio-keyboard-response",
		"trial_index": 93,
		"time_elapsed": 320979,
		"internal_node_id": "0.0-3.0-1.63"
	},
	{
		"rt": 1760,
		"stimulus": "../audio/49-3-masc.mp3",
		"response": " ",
		"word": "um",
		"trial_type": "audio-keyboard-response",
		"trial_index": 94,
		"time_elapsed": 323028,
		"internal_node_id": "0.0-3.0-1.64"
	},
	{
		"rt": 1760,
		"stimulus": "../audio/49-4-masc.mp3",
		"response": " ",
		"word": "lanche",
		"trial_type": "audio-keyboard-response",
		"trial_index": 95,
		"time_elapsed": 325075,
		"internal_node_id": "0.0-3.0-1.65"
	},
	{
		"rt": 1581,
		"stimulus": "../audio/49-5-masc.mp3",
		"response": " ",
		"word": "duplo",
		"trial_type": "audio-keyboard-response",
		"trial_index": 96,
		"time_elapsed": 326948,
		"internal_node_id": "0.0-3.0-1.66"
	},
	{
		"rt": 1531,
		"stimulus": "../audio/49-6-masc.mp3",
		"response": " ",
		"word": "e",
		"trial_type": "audio-keyboard-response",
		"trial_index": 97,
		"time_elapsed": 328756,
		"internal_node_id": "0.0-3.0-1.67"
	},
	{
		"rt": 1861,
		"stimulus": "../audio/49-7-masc.mp3",
		"response": " ",
		"word": "um",
		"trial_type": "audio-keyboard-response",
		"trial_index": 98,
		"time_elapsed": 330916,
		"internal_node_id": "0.0-3.0-1.68"
	},
	{
		"rt": 2360,
		"stimulus": "../audio/49-8-masc.mp3",
		"response": " ",
		"word": "suco.",
		"trial_type": "audio-keyboard-response",
		"trial_index": 99,
		"time_elapsed": 333572,
		"internal_node_id": "0.0-3.0-1.69"
	},
	{
		"rt": null,
		"stimulus": "<span style= \"font-size:30px; font-family: monospace\">+</span>",
		"response": null,
		"trial_part": "fixation",
		"trial_type": "html-keyboard-response",
		"trial_index": 100,
		"time_elapsed": 334843,
		"internal_node_id": "0.0-3.0-0.70-0.70"
	},
	{
		"rt": 1680,
		"stimulus": "../audio/50-1-masc.mp3",
		"response": " ",
		"word": "O",
		"trial_type": "audio-keyboard-response",
		"trial_index": 101,
		"time_elapsed": 336836,
		"internal_node_id": "0.0-3.0-1.70"
	},
	{
		"rt": 2411,
		"stimulus": "../audio/50-2-masc.mp3",
		"response": " ",
		"word": "pássaro",
		"trial_type": "audio-keyboard-response",
		"trial_index": 102,
		"time_elapsed": 339572,
		"internal_node_id": "0.0-3.0-1.71"
	},
	{
		"rt": 1960,
		"stimulus": "../audio/50-3-masc.mp3",
		"response": " ",
		"word": "fugiu",
		"trial_type": "audio-keyboard-response",
		"trial_index": 103,
		"time_elapsed": 341828,
		"internal_node_id": "0.0-3.0-1.72"
	},
	{
		"rt": 1872,
		"stimulus": "../audio/50-4-masc.mp3",
		"response": " ",
		"word": "da",
		"trial_type": "audio-keyboard-response",
		"trial_index": 104,
		"time_elapsed": 343988,
		"internal_node_id": "0.0-3.0-1.73"
	},
	{
		"rt": 1611,
		"stimulus": "../audio/50-5-masc.mp3",
		"response": " ",
		"word": "gaiola",
		"trial_type": "audio-keyboard-response",
		"trial_index": 105,
		"time_elapsed": 345891,
		"internal_node_id": "0.0-3.0-1.74"
	},
	{
		"rt": 2312,
		"stimulus": "../audio/50-6-masc.mp3",
		"response": " ",
		"word": "pela",
		"trial_type": "audio-keyboard-response",
		"trial_index": 106,
		"time_elapsed": 348468,
		"internal_node_id": "0.0-3.0-1.75"
	},
	{
		"rt": 2040,
		"stimulus": "../audio/50-7-masc.mp3",
		"response": " ",
		"word": "portinhola.",
		"trial_type": "audio-keyboard-response",
		"trial_index": 107,
		"time_elapsed": 350804,
		"internal_node_id": "0.0-3.0-1.76"
	},
	{
		"rt": 13631,
		"stimulus": "<span style=\"font-size:25px; font-family: monospace\">O pássaro fugiu da gaiola?</span>",
		"response": "s",
		"question": "O pássaro fugiu da gaiola?",
		"answer": "null",
		"trial": "exp-sent",
		"trial_type": "html-keyboard-response",
		"trial_index": 108,
		"time_elapsed": 364692,
		"internal_node_id": "0.0-3.0-2.76-0.76",
		"accuracy": false
	},
	{
		"rt": null,
		"stimulus": "<span style= \"font-size:30px; font-family: monospace\">+</span>",
		"response": null,
		"trial_part": "fixation",
		"trial_type": "html-keyboard-response",
		"trial_index": 109,
		"time_elapsed": 366214,
		"internal_node_id": "0.0-3.0-0.77-0.77"
	},
	{
		"rt": 1971,
		"stimulus": "../audio/66-1-fem.mp3",
		"response": " ",
		"word": "Não",
		"trial_type": "audio-keyboard-response",
		"trial_index": 110,
		"time_elapsed": 368468,
		"internal_node_id": "0.0-3.0-1.77"
	},
	{
		"rt": 1912,
		"stimulus": "../audio/66-2-fem.mp3",
		"response": " ",
		"word": "gosto",
		"trial_type": "audio-keyboard-response",
		"trial_index": 111,
		"time_elapsed": 370675,
		"internal_node_id": "0.0-3.0-1.78"
	},
	{
		"rt": 1611,
		"stimulus": "../audio/66-3-fem.mp3",
		"response": " ",
		"word": "de",
		"trial_type": "audio-keyboard-response",
		"trial_index": 112,
		"time_elapsed": 372580,
		"internal_node_id": "0.0-3.0-1.79"
	},
	{
		"rt": 1659,
		"stimulus": "../audio/66-4-fem.mp3",
		"response": " ",
		"word": "gente",
		"trial_type": "audio-keyboard-response",
		"trial_index": 113,
		"time_elapsed": 374532,
		"internal_node_id": "0.0-3.0-1.80"
	},
	{
		"rt": 2280,
		"stimulus": "../audio/66-5-fem.mp3",
		"response": " ",
		"word": "egoísta",
		"trial_type": "audio-keyboard-response",
		"trial_index": 114,
		"time_elapsed": 377108,
		"internal_node_id": "0.0-3.0-1.81"
	},
	{
		"rt": 1760,
		"stimulus": "../audio/66-6-fem.mp3",
		"response": " ",
		"word": "nem",
		"trial_type": "audio-keyboard-response",
		"trial_index": 115,
		"time_elapsed": 379156,
		"internal_node_id": "0.0-3.0-1.82"
	},
	{
		"rt": 1568,
		"stimulus": "../audio/66-7-fem.mp3",
		"response": " ",
		"word": "chata.",
		"trial_type": "audio-keyboard-response",
		"trial_index": 116,
		"time_elapsed": 381043,
		"internal_node_id": "0.0-3.0-1.83"
	},
	{
		"rt": null,
		"stimulus": "<span style= \"font-size:30px; font-family: monospace\">+</span>",
		"response": null,
		"trial_part": "fixation",
		"trial_type": "html-keyboard-response",
		"trial_index": 117,
		"time_elapsed": 382315,
		"internal_node_id": "0.0-3.0-0.84-0.84"
	},
	{
		"rt": 2069,
		"stimulus": "../audio/67-1-masc.mp3",
		"response": " ",
		"word": "Minha",
		"trial_type": "audio-keyboard-response",
		"trial_index": 118,
		"time_elapsed": 384659,
		"internal_node_id": "0.0-3.0-1.84"
	},
	{
		"rt": 1520,
		"stimulus": "../audio/67-2-masc.mp3",
		"response": " ",
		"word": "tia",
		"trial_type": "audio-keyboard-response",
		"trial_index": 119,
		"time_elapsed": 386467,
		"internal_node_id": "0.0-3.0-1.85"
	},
	{
		"rt": 1371,
		"stimulus": "../audio/67-3-masc.mp3",
		"response": " ",
		"word": "comprou",
		"trial_type": "audio-keyboard-response",
		"trial_index": 120,
		"time_elapsed": 388116,
		"internal_node_id": "0.0-3.0-1.86"
	},
	{
		"rt": 1571,
		"stimulus": "../audio/67-4-masc.mp3",
		"response": " ",
		"word": "um",
		"trial_type": "audio-keyboard-response",
		"trial_index": 121,
		"time_elapsed": 389972,
		"internal_node_id": "0.0-3.0-1.87"
	},
	{
		"rt": 1821,
		"stimulus": "../audio/67-5-masc.mp3",
		"response": " ",
		"word": "cordão",
		"trial_type": "audio-keyboard-response",
		"trial_index": 122,
		"time_elapsed": 392068,
		"internal_node_id": "0.0-3.0-1.88"
	},
	{
		"rt": 1509,
		"stimulus": "../audio/67-6-masc.mp3",
		"response": " ",
		"word": "para",
		"trial_type": "audio-keyboard-response",
		"trial_index": 123,
		"time_elapsed": 393860,
		"internal_node_id": "0.0-3.0-1.89"
	},
	{
		"rt": 2080,
		"stimulus": "../audio/67-7-masc.mp3",
		"response": " ",
		"word": "o",
		"trial_type": "audio-keyboard-response",
		"trial_index": 124,
		"time_elapsed": 396212,
		"internal_node_id": "0.0-3.0-1.90"
	},
	{
		"rt": 2149,
		"stimulus": "../audio/67-8-masc.mp3",
		"response": " ",
		"word": "varal.",
		"trial_type": "audio-keyboard-response",
		"trial_index": 125,
		"time_elapsed": 398644,
		"internal_node_id": "0.0-3.0-1.91"
	},
	{
		"rt": null,
		"stimulus": "<span style= \"font-size:30px; font-family: monospace\">+</span>",
		"response": null,
		"trial_part": "fixation",
		"trial_type": "html-keyboard-response",
		"trial_index": 126,
		"time_elapsed": 399908,
		"internal_node_id": "0.0-3.0-0.92-0.92"
	},
	{
		"rt": 40,
		"stimulus": "../audio/68-1-fem.mp3",
		"response": " ",
		"word": "Meu",
		"trial_type": "audio-keyboard-response",
		"trial_index": 127,
		"time_elapsed": 400243,
		"internal_node_id": "0.0-3.0-1.92"
	},
	{
		"rt": 1680,
		"stimulus": "../audio/68-2-fem.mp3",
		"response": " ",
		"word": "irmão",
		"trial_type": "audio-keyboard-response",
		"trial_index": 128,
		"time_elapsed": 402212,
		"internal_node_id": "0.0-3.0-1.93"
	},
	{
		"rt": 1131,
		"stimulus": "../audio/68-3-fem.mp3",
		"response": " ",
		"word": "teve",
		"trial_type": "audio-keyboard-response",
		"trial_index": 129,
		"time_elapsed": 403620,
		"internal_node_id": "0.0-3.0-1.94"
	},
	{
		"rt": 1331,
		"stimulus": "../audio/68-4-fem.mp3",
		"response": " ",
		"word": "um",
		"trial_type": "audio-keyboard-response",
		"trial_index": 130,
		"time_elapsed": 405219,
		"internal_node_id": "0.0-3.0-1.95"
	},
	{
		"rt": 2120,
		"stimulus": "../audio/68-5-fem.mp3",
		"response": " ",
		"word": "noivado",
		"trial_type": "audio-keyboard-response",
		"trial_index": 131,
		"time_elapsed": 407635,
		"internal_node_id": "0.0-3.0-1.96"
	},
	{
		"rt": 1552,
		"stimulus": "../audio/68-6-fem.mp3",
		"response": " ",
		"word": "longo",
		"trial_type": "audio-keyboard-response",
		"trial_index": 132,
		"time_elapsed": 409475,
		"internal_node_id": "0.0-3.0-1.97"
	},
	{
		"rt": 1621,
		"stimulus": "../audio/68-7-fem.mp3",
		"response": " ",
		"word": "e",
		"trial_type": "audio-keyboard-response",
		"trial_index": 133,
		"time_elapsed": 411379,
		"internal_node_id": "0.0-3.0-1.98"
	},
	{
		"rt": 2360,
		"stimulus": "../audio/68-8-fem.mp3",
		"response": " ",
		"word": "maravilhoso.",
		"trial_type": "audio-keyboard-response",
		"trial_index": 134,
		"time_elapsed": 414019,
		"internal_node_id": "0.0-3.0-1.99"
	},
	{
		"rt": null,
		"stimulus": "<span style= \"font-size:30px; font-family: monospace\">+</span>",
		"response": null,
		"trial_part": "fixation",
		"trial_type": "html-keyboard-response",
		"trial_index": 135,
		"time_elapsed": 415281,
		"internal_node_id": "0.0-3.0-0.100-0.100"
	},
	{
		"rt": 981,
		"stimulus": "../audio/69-1-fem.mp3",
		"response": " ",
		"word": "A",
		"trial_type": "audio-keyboard-response",
		"trial_index": 136,
		"time_elapsed": 416547,
		"internal_node_id": "0.0-3.0-1.100"
	},
	{
		"rt": 1440,
		"stimulus": "../audio/69-2-fem.mp3",
		"response": " ",
		"word": "loja",
		"trial_type": "audio-keyboard-response",
		"trial_index": 137,
		"time_elapsed": 418275,
		"internal_node_id": "0.0-3.0-1.101"
	},
	{
		"rt": 1528,
		"stimulus": "../audio/69-3-fem.mp3",
		"response": " ",
		"word": "recebeu",
		"trial_type": "audio-keyboard-response",
		"trial_index": 138,
		"time_elapsed": 420083,
		"internal_node_id": "0.0-3.0-1.102"
	},
	{
		"rt": 1341,
		"stimulus": "../audio/69-4-fem.mp3",
		"response": " ",
		"word": "uma",
		"trial_type": "audio-keyboard-response",
		"trial_index": 139,
		"time_elapsed": 421699,
		"internal_node_id": "0.0-3.0-1.103"
	},
	{
		"rt": 1600,
		"stimulus": "../audio/69-5-fem.mp3",
		"response": " ",
		"word": "poltrona",
		"trial_type": "audio-keyboard-response",
		"trial_index": 140,
		"time_elapsed": 423603,
		"internal_node_id": "0.0-3.0-1.104"
	},
	{
		"rt": 2381,
		"stimulus": "../audio/69-6-fem.mp3",
		"response": " ",
		"word": "de",
		"trial_type": "audio-keyboard-response",
		"trial_index": 141,
		"time_elapsed": 426259,
		"internal_node_id": "0.0-3.0-1.105"
	},
	{
		"rt": 1560,
		"stimulus": "../audio/69-7-fem.mp3",
		"response": " ",
		"word": "couro",
		"trial_type": "audio-keyboard-response",
		"trial_index": 142,
		"time_elapsed": 428099,
		"internal_node_id": "0.0-3.0-1.106"
	},
	{
		"rt": 1829,
		"stimulus": "../audio/69-8-fem.mp3",
		"response": " ",
		"word": "preto.",
		"trial_type": "audio-keyboard-response",
		"trial_index": 143,
		"time_elapsed": 430211,
		"internal_node_id": "0.0-3.0-1.107"
	},
	{
		"rt": null,
		"stimulus": "<span style= \"font-size:30px; font-family: monospace\">+</span>",
		"response": null,
		"trial_part": "fixation",
		"trial_type": "html-keyboard-response",
		"trial_index": 144,
		"time_elapsed": 431467,
		"internal_node_id": "0.0-3.0-0.108-0.108"
	},
	{
		"rt": 1181,
		"stimulus": "../audio/70-1-fem.mp3",
		"response": " ",
		"word": "O",
		"trial_type": "audio-keyboard-response",
		"trial_index": 145,
		"time_elapsed": 432947,
		"internal_node_id": "0.0-3.0-1.108"
	},
	{
		"rt": 1531,
		"stimulus": "../audio/70-2-fem.mp3",
		"response": " ",
		"word": "meu",
		"trial_type": "audio-keyboard-response",
		"trial_index": 146,
		"time_elapsed": 434755,
		"internal_node_id": "0.0-3.0-1.109"
	},
	{
		"rt": 1280,
		"stimulus": "../audio/70-3-fem.mp3",
		"response": " ",
		"word": "filho",
		"trial_type": "audio-keyboard-response",
		"trial_index": 147,
		"time_elapsed": 436323,
		"internal_node_id": "0.0-3.0-1.110"
	},
	{
		"rt": 1512,
		"stimulus": "../audio/70-4-fem.mp3",
		"response": " ",
		"word": "tem",
		"trial_type": "audio-keyboard-response",
		"trial_index": 148,
		"time_elapsed": 438115,
		"internal_node_id": "0.0-3.0-1.111"
	},
	{
		"rt": 1701,
		"stimulus": "../audio/70-5-fem.mp3",
		"response": " ",
		"word": "medo",
		"trial_type": "audio-keyboard-response",
		"trial_index": 149,
		"time_elapsed": 440115,
		"internal_node_id": "0.0-3.0-1.112"
	},
	{
		"rt": 1520,
		"stimulus": "../audio/70-6-fem.mp3",
		"response": " ",
		"word": "de",
		"trial_type": "audio-keyboard-response",
		"trial_index": 150,
		"time_elapsed": 441907,
		"internal_node_id": "0.0-3.0-1.113"
	},
	{
		"rt": 2051,
		"stimulus": "../audio/70-7-fem.mp3",
		"response": " ",
		"word": "enguia",
		"trial_type": "audio-keyboard-response",
		"trial_index": 151,
		"time_elapsed": 444227,
		"internal_node_id": "0.0-3.0-1.114"
	},
	{
		"rt": 1488,
		"stimulus": "../audio/70-8-fem.mp3",
		"response": " ",
		"word": "e",
		"trial_type": "audio-keyboard-response",
		"trial_index": 152,
		"time_elapsed": 446003,
		"internal_node_id": "0.0-3.0-1.115"
	},
	{
		"rt": 3520,
		"stimulus": "../audio/70-9-fem.mp3",
		"response": " ",
		"word": "beija-flor.",
		"trial_type": "audio-keyboard-response",
		"trial_index": 153,
		"time_elapsed": 449811,
		"internal_node_id": "0.0-3.0-1.116"
	},
	{
		"rt": 14160,
		"stimulus": "<span style=\"font-size:25px; font-family: monospace\">O filho tem medo de tigre?</span>",
		"response": "n",
		"question": "O filho tem medo de tigre?",
		"answer": "null",
		"trial": "exp-sent",
		"trial_type": "html-keyboard-response",
		"trial_index": 154,
		"time_elapsed": 464227,
		"internal_node_id": "0.0-3.0-2.116-0.116",
		"accuracy": false
	},
	{
		"rt": null,
		"stimulus": "<span style= \"font-size:30px; font-family: monospace\">+</span>",
		"response": null,
		"trial_part": "fixation",
		"trial_type": "html-keyboard-response",
		"trial_index": 155,
		"time_elapsed": 465745,
		"internal_node_id": "0.0-3.0-0.117-0.117"
	},
	{
		"rt": 1661,
		"stimulus": "../audio/18-1-masc.mp3",
		"response": " ",
		"word": "O",
		"trial_type": "audio-keyboard-response",
		"trial_index": 156,
		"time_elapsed": 467699,
		"internal_node_id": "0.0-3.0-1.117"
	},
	{
		"rt": 2000,
		"stimulus": "../audio/18-2-masc.mp3",
		"response": " ",
		"word": "enredo",
		"trial_type": "audio-keyboard-response",
		"trial_index": 157,
		"time_elapsed": 469971,
		"internal_node_id": "0.0-3.0-1.118"
	},
	{
		"rt": 1451,
		"stimulus": "../audio/18-3-masc.mp3",
		"response": " ",
		"word": "traz",
		"trial_type": "audio-keyboard-response",
		"trial_index": 158,
		"time_elapsed": 471715,
		"internal_node_id": "0.0-3.0-1.119"
	},
	{
		"rt": 1600,
		"stimulus": "../audio/18-4-masc.mp3",
		"response": " ",
		"word": "um",
		"trial_type": "audio-keyboard-response",
		"trial_index": 159,
		"time_elapsed": 473603,
		"internal_node_id": "0.0-3.0-1.120"
	},
	{
		"rt": 1632,
		"stimulus": "../audio/18-5-masc.mp3",
		"response": " ",
		"word": "dragão",
		"trial_type": "audio-keyboard-response",
		"trial_index": 160,
		"time_elapsed": 475507,
		"internal_node_id": "0.0-3.0-1.121"
	},
	{
		"rt": 1541,
		"stimulus": "../audio/18-6-masc.mp3",
		"response": " ",
		"word": "forte",
		"trial_type": "audio-keyboard-response",
		"trial_index": 161,
		"time_elapsed": 477315,
		"internal_node_id": "0.0-3.0-1.122"
	},
	{
		"rt": 1349,
		"stimulus": "../audio/18-7-masc.mp3",
		"response": " ",
		"word": "e",
		"trial_type": "audio-keyboard-response",
		"trial_index": 162,
		"time_elapsed": 478947,
		"internal_node_id": "0.0-3.0-1.123"
	},
	{
		"rt": 1680,
		"stimulus": "../audio/18-8-masc.mp3",
		"response": " ",
		"word": "solitário.",
		"trial_type": "audio-keyboard-response",
		"trial_index": 163,
		"time_elapsed": 480899,
		"internal_node_id": "0.0-3.0-1.124"
	},
	{
		"rt": null,
		"stimulus": "<span style= \"font-size:30px; font-family: monospace\">+</span>",
		"response": null,
		"trial_part": "fixation",
		"trial_type": "html-keyboard-response",
		"trial_index": 164,
		"time_elapsed": 482172,
		"internal_node_id": "0.0-3.0-0.125-0.125"
	},
	{
		"rt": 1619,
		"stimulus": "../audio/16-1-fem.mp3",
		"response": " ",
		"word": "Eu",
		"trial_type": "audio-keyboard-response",
		"trial_index": 165,
		"time_elapsed": 484083,
		"internal_node_id": "0.0-3.0-1.125"
	},
	{
		"rt": 1549,
		"stimulus": "../audio/16-2-fem.mp3",
		"response": " ",
		"word": "nunca",
		"trial_type": "audio-keyboard-response",
		"trial_index": 166,
		"time_elapsed": 485923,
		"internal_node_id": "0.0-3.0-1.126"
	},
	{
		"rt": 1571,
		"stimulus": "../audio/16-3-fem.mp3",
		"response": " ",
		"word": "conheci",
		"trial_type": "audio-keyboard-response",
		"trial_index": 167,
		"time_elapsed": 487779,
		"internal_node_id": "0.0-3.0-1.127"
	},
	{
		"rt": 1429,
		"stimulus": "../audio/16-4-fem.mp3",
		"response": " ",
		"word": "um",
		"trial_type": "audio-keyboard-response",
		"trial_index": 168,
		"time_elapsed": 489491,
		"internal_node_id": "0.0-3.0-1.128"
	},
	{
		"rt": 1589,
		"stimulus": "../audio/16-5-fem.mp3",
		"response": " ",
		"word": "general",
		"trial_type": "audio-keyboard-response",
		"trial_index": 169,
		"time_elapsed": 491363,
		"internal_node_id": "0.0-3.0-1.129"
	},
	{
		"rt": 1720,
		"stimulus": "../audio/16-6-fem.mp3",
		"response": " ",
		"word": "do",
		"trial_type": "audio-keyboard-response",
		"trial_index": 170,
		"time_elapsed": 493363,
		"internal_node_id": "0.0-3.0-1.130"
	},
	{
		"rt": 2000,
		"stimulus": "../audio/16-7-fem.mp3",
		"response": " ",
		"word": "exército.",
		"trial_type": "audio-keyboard-response",
		"trial_index": 171,
		"time_elapsed": 495667,
		"internal_node_id": "0.0-3.0-1.131"
	},
	{
		"rt": null,
		"stimulus": "<span style= \"font-size:30px; font-family: monospace\">+</span>",
		"response": null,
		"trial_part": "fixation",
		"trial_type": "html-keyboard-response",
		"trial_index": 172,
		"time_elapsed": 496940,
		"internal_node_id": "0.0-3.0-0.132-0.132"
	},
	{
		"rt": 1421,
		"stimulus": "../audio/17-1-masc.mp3",
		"response": " ",
		"word": "Falaram",
		"trial_type": "audio-keyboard-response",
		"trial_index": 173,
		"time_elapsed": 498659,
		"internal_node_id": "0.0-3.0-1.132"
	},
	{
		"rt": 1152,
		"stimulus": "../audio/17-2-masc.mp3",
		"response": " ",
		"word": "da",
		"trial_type": "audio-keyboard-response",
		"trial_index": 174,
		"time_elapsed": 500115,
		"internal_node_id": "0.0-3.0-1.133"
	},
	{
		"rt": 1440,
		"stimulus": "../audio/17-3-masc.mp3",
		"response": " ",
		"word": "lei",
		"trial_type": "audio-keyboard-response",
		"trial_index": 175,
		"time_elapsed": 501843,
		"internal_node_id": "0.0-3.0-1.134"
	},
	{
		"rt": 1488,
		"stimulus": "../audio/17-4-masc.mp3",
		"response": " ",
		"word": "no",
		"trial_type": "audio-keyboard-response",
		"trial_index": 176,
		"time_elapsed": 503603,
		"internal_node_id": "0.0-3.0-1.135"
	},
	{
		"rt": 2221,
		"stimulus": "../audio/17-5-masc.mp3",
		"response": " ",
		"word": "ministério",
		"trial_type": "audio-keyboard-response",
		"trial_index": 177,
		"time_elapsed": 506099,
		"internal_node_id": "0.0-3.0-1.136"
	},
	{
		"rt": 2280,
		"stimulus": "../audio/17-6-masc.mp3",
		"response": " ",
		"word": "diversas",
		"trial_type": "audio-keyboard-response",
		"trial_index": 178,
		"time_elapsed": 508691,
		"internal_node_id": "0.0-3.0-1.137"
	},
	{
		"rt": 2211,
		"stimulus": "../audio/17-7-masc.mp3",
		"response": " ",
		"word": "vezes.",
		"trial_type": "audio-keyboard-response",
		"trial_index": 179,
		"time_elapsed": 511187,
		"internal_node_id": "0.0-3.0-1.138"
	},
	{
		"rt": null,
		"stimulus": "<span style= \"font-size:30px; font-family: monospace\">+</span>",
		"response": null,
		"trial_part": "fixation",
		"trial_type": "html-keyboard-response",
		"trial_index": 180,
		"time_elapsed": 512445,
		"internal_node_id": "0.0-3.0-0.139-0.139"
	},
	{
		"rt": 1021,
		"stimulus": "../audio/19-1-masc.mp3",
		"response": " ",
		"word": "O",
		"trial_type": "audio-keyboard-response",
		"trial_index": 181,
		"time_elapsed": 513747,
		"internal_node_id": "0.0-3.0-1.139"
	},
	{
		"rt": 2480,
		"stimulus": "../audio/19-2-masc.mp3",
		"response": " ",
		"word": "menino",
		"trial_type": "audio-keyboard-response",
		"trial_index": 182,
		"time_elapsed": 516515,
		"internal_node_id": "0.0-3.0-1.140"
	},
	{
		"rt": 1472,
		"stimulus": "../audio/19-3-masc.mp3",
		"response": " ",
		"word": "ganhou",
		"trial_type": "audio-keyboard-response",
		"trial_index": 183,
		"time_elapsed": 518275,
		"internal_node_id": "0.0-3.0-1.141"
	},
	{
		"rt": 1472,
		"stimulus": "../audio/19-4-masc.mp3",
		"response": " ",
		"word": "uma",
		"trial_type": "audio-keyboard-response",
		"trial_index": 184,
		"time_elapsed": 520035,
		"internal_node_id": "0.0-3.0-1.142"
	},
	{
		"rt": 2008,
		"stimulus": "../audio/19-5-masc.mp3",
		"response": " ",
		"word": "bala",
		"trial_type": "audio-keyboard-response",
		"trial_index": 185,
		"time_elapsed": 522323,
		"internal_node_id": "0.0-3.0-1.143"
	},
	{
		"rt": 1989,
		"stimulus": "../audio/19-6-masc.mp3",
		"response": " ",
		"word": "depois",
		"trial_type": "audio-keyboard-response",
		"trial_index": 186,
		"time_elapsed": 524643,
		"internal_node_id": "0.0-3.0-1.144"
	},
	{
		"rt": 1669,
		"stimulus": "../audio/19-7-masc.mp3",
		"response": " ",
		"word": "do",
		"trial_type": "audio-keyboard-response",
		"trial_index": 187,
		"time_elapsed": 526626,
		"internal_node_id": "0.0-3.0-1.145"
	},
	{
		"rt": 2331,
		"stimulus": "../audio/19-8-masc.mp3",
		"response": " ",
		"word": "almoço.",
		"trial_type": "audio-keyboard-response",
		"trial_index": 188,
		"time_elapsed": 529250,
		"internal_node_id": "0.0-3.0-1.146"
	},
	{
		"rt": null,
		"stimulus": "<span style= \"font-size:30px; font-family: monospace\">+</span>",
		"response": null,
		"trial_part": "fixation",
		"trial_type": "html-keyboard-response",
		"trial_index": 189,
		"time_elapsed": 530515,
		"internal_node_id": "0.0-3.0-0.147-0.147"
	},
	{
		"rt": 1229,
		"stimulus": "../audio/20-1-fem.mp3",
		"response": " ",
		"word": "O",
		"trial_type": "audio-keyboard-response",
		"trial_index": 190,
		"time_elapsed": 532018,
		"internal_node_id": "0.0-3.0-1.147"
	},
	{
		"rt": 1520,
		"stimulus": "../audio/20-2-fem.mp3",
		"response": " ",
		"word": "colega",
		"trial_type": "audio-keyboard-response",
		"trial_index": 191,
		"time_elapsed": 533842,
		"internal_node_id": "0.0-3.0-1.148"
	},
	{
		"rt": 1611,
		"stimulus": "../audio/20-3-fem.mp3",
		"response": " ",
		"word": "parecia",
		"trial_type": "audio-keyboard-response",
		"trial_index": 192,
		"time_elapsed": 535730,
		"internal_node_id": "0.0-3.0-1.149"
	},
	{
		"rt": 1451,
		"stimulus": "../audio/20-4-fem.mp3",
		"response": " ",
		"word": "muito",
		"trial_type": "audio-keyboard-response",
		"trial_index": 193,
		"time_elapsed": 537458,
		"internal_node_id": "0.0-3.0-1.150"
	},
	{
		"rt": 1589,
		"stimulus": "../audio/20-5-fem.mp3",
		"response": " ",
		"word": "gripado",
		"trial_type": "audio-keyboard-response",
		"trial_index": 194,
		"time_elapsed": 539330,
		"internal_node_id": "0.0-3.0-1.151"
	},
	{
		"rt": 2469,
		"stimulus": "../audio/20-6-fem.mp3",
		"response": " ",
		"word": "no",
		"trial_type": "audio-keyboard-response",
		"trial_index": 195,
		"time_elapsed": 542082,
		"internal_node_id": "0.0-3.0-1.152"
	},
	{
		"rt": 1371,
		"stimulus": "../audio/20-7-fem.mp3",
		"response": " ",
		"word": "dia",
		"trial_type": "audio-keyboard-response",
		"trial_index": 196,
		"time_elapsed": 543730,
		"internal_node_id": "0.0-3.0-1.153"
	},
	{
		"rt": 2112,
		"stimulus": "../audio/20-8-fem.mp3",
		"response": " ",
		"word": "anterior.",
		"trial_type": "audio-keyboard-response",
		"trial_index": 197,
		"time_elapsed": 546114,
		"internal_node_id": "0.0-3.0-1.154"
	},
	{
		"rt": 10335,
		"stimulus": "<span style=\"font-size:25px; font-family: monospace\">O colega parecia muito gripado?</span>",
		"response": "s",
		"question": "O colega parecia muito gripado?",
		"answer": "null",
		"trial": "exp-sent",
		"trial_type": "html-keyboard-response",
		"trial_index": 198,
		"time_elapsed": 556706,
		"internal_node_id": "0.0-3.0-2.154-0.154",
		"accuracy": false
	},
	{
		"rt": null,
		"stimulus": "<span style= \"font-size:30px; font-family: monospace\">+</span>",
		"response": null,
		"trial_part": "fixation",
		"trial_type": "html-keyboard-response",
		"trial_index": 199,
		"time_elapsed": 558227,
		"internal_node_id": "0.0-3.0-0.155-0.155"
	},
	{
		"rt": 320,
		"stimulus": "../audio/78-1-fem.mp3",
		"response": " ",
		"word": "Eles",
		"trial_type": "audio-keyboard-response",
		"trial_index": 200,
		"time_elapsed": 558914,
		"internal_node_id": "0.0-3.0-1.155"
	},
	{
		"rt": 1912,
		"stimulus": "../audio/78-2-fem.mp3",
		"response": " ",
		"word": "trazem",
		"trial_type": "audio-keyboard-response",
		"trial_index": 201,
		"time_elapsed": 561106,
		"internal_node_id": "0.0-3.0-1.156"
	},
	{
		"rt": 1240,
		"stimulus": "../audio/78-3-fem.mp3",
		"response": " ",
		"word": "um",
		"trial_type": "audio-keyboard-response",
		"trial_index": 202,
		"time_elapsed": 562642,
		"internal_node_id": "0.0-3.0-1.157"
	},
	{
		"rt": 1488,
		"stimulus": "../audio/78-4-fem.mp3",
		"response": " ",
		"word": "fato",
		"trial_type": "audio-keyboard-response",
		"trial_index": 203,
		"time_elapsed": 564402,
		"internal_node_id": "0.0-3.0-1.158"
	},
	{
		"rt": 1771,
		"stimulus": "../audio/78-5-fem.mp3",
		"response": " ",
		"word": "urgente",
		"trial_type": "audio-keyboard-response",
		"trial_index": 204,
		"time_elapsed": 566450,
		"internal_node_id": "0.0-3.0-1.159"
	},
	{
		"rt": 1320,
		"stimulus": "../audio/78-6-fem.mp3",
		"response": " ",
		"word": "todos",
		"trial_type": "audio-keyboard-response",
		"trial_index": 205,
		"time_elapsed": 568066,
		"internal_node_id": "0.0-3.0-1.160"
	},
	{
		"rt": 1371,
		"stimulus": "../audio/78-7-fem.mp3",
		"response": " ",
		"word": "os",
		"trial_type": "audio-keyboard-response",
		"trial_index": 206,
		"time_elapsed": 569714,
		"internal_node_id": "0.0-3.0-1.161"
	},
	{
		"rt": 1781,
		"stimulus": "../audio/78-8-fem.mp3",
		"response": " ",
		"word": "dias.",
		"trial_type": "audio-keyboard-response",
		"trial_index": 207,
		"time_elapsed": 571777,
		"internal_node_id": "0.0-3.0-1.162"
	},
	{
		"rt": null,
		"stimulus": "<span style= \"font-size:30px; font-family: monospace\">+</span>",
		"response": null,
		"trial_part": "fixation",
		"trial_type": "html-keyboard-response",
		"trial_index": 208,
		"time_elapsed": 573054,
		"internal_node_id": "0.0-3.0-0.163-0.163"
	},
	{
		"rt": 1189,
		"stimulus": "../audio/76-1-masc.mp3",
		"response": " ",
		"word": "O",
		"trial_type": "audio-keyboard-response",
		"trial_index": 209,
		"time_elapsed": 574530,
		"internal_node_id": "0.0-3.0-1.163"
	},
	{
		"rt": 1480,
		"stimulus": "../audio/76-2-masc.mp3",
		"response": " ",
		"word": "bisavô",
		"trial_type": "audio-keyboard-response",
		"trial_index": 210,
		"time_elapsed": 576290,
		"internal_node_id": "0.0-3.0-1.164"
	},
	{
		"rt": 1189,
		"stimulus": "../audio/76-3-masc.mp3",
		"response": " ",
		"word": "comprou",
		"trial_type": "audio-keyboard-response",
		"trial_index": 211,
		"time_elapsed": 577762,
		"internal_node_id": "0.0-3.0-1.165"
	},
	{
		"rt": 1720,
		"stimulus": "../audio/76-4-masc.mp3",
		"response": " ",
		"word": "um",
		"trial_type": "audio-keyboard-response",
		"trial_index": 212,
		"time_elapsed": 579746,
		"internal_node_id": "0.0-3.0-1.166"
	},
	{
		"rt": 1531,
		"stimulus": "../audio/76-5-masc.mp3",
		"response": " ",
		"word": "ralador",
		"trial_type": "audio-keyboard-response",
		"trial_index": 213,
		"time_elapsed": 581570,
		"internal_node_id": "0.0-3.0-1.167"
	},
	{
		"rt": 1240,
		"stimulus": "../audio/76-6-masc.mp3",
		"response": " ",
		"word": "de",
		"trial_type": "audio-keyboard-response",
		"trial_index": 214,
		"time_elapsed": 583090,
		"internal_node_id": "0.0-3.0-1.168"
	},
	{
		"rt": 1491,
		"stimulus": "../audio/76-7-masc.mp3",
		"response": " ",
		"word": "queijo.",
		"trial_type": "audio-keyboard-response",
		"trial_index": 215,
		"time_elapsed": 584866,
		"internal_node_id": "0.0-3.0-1.169"
	},
	{
		"rt": null,
		"stimulus": "<span style= \"font-size:30px; font-family: monospace\">+</span>",
		"response": null,
		"trial_part": "fixation",
		"trial_type": "html-keyboard-response",
		"trial_index": 216,
		"time_elapsed": 586140,
		"internal_node_id": "0.0-3.0-0.170-0.170"
	},
	{
		"rt": 1008,
		"stimulus": "../audio/77-1-masc.mp3",
		"response": " ",
		"word": "A",
		"trial_type": "audio-keyboard-response",
		"trial_index": 217,
		"time_elapsed": 587441,
		"internal_node_id": "0.0-3.0-1.170"
	},
	{
		"rt": 1651,
		"stimulus": "../audio/77-2-masc.mp3",
		"response": " ",
		"word": "criança",
		"trial_type": "audio-keyboard-response",
		"trial_index": 218,
		"time_elapsed": 589377,
		"internal_node_id": "0.0-3.0-1.171"
	},
	{
		"rt": 2901,
		"stimulus": "../audio/77-3-masc.mp3",
		"response": " ",
		"word": "ficou",
		"trial_type": "audio-keyboard-response",
		"trial_index": 219,
		"time_elapsed": 592546,
		"internal_node_id": "0.0-3.0-1.172"
	},
	{
		"rt": 2392,
		"stimulus": "../audio/77-4-masc.mp3",
		"response": " ",
		"word": "muito",
		"trial_type": "audio-keyboard-response",
		"trial_index": 220,
		"time_elapsed": 595233,
		"internal_node_id": "0.0-3.0-1.173"
	},
	{
		"rt": 1419,
		"stimulus": "../audio/77-5-masc.mp3",
		"response": " ",
		"word": "feliz",
		"trial_type": "audio-keyboard-response",
		"trial_index": 221,
		"time_elapsed": 596961,
		"internal_node_id": "0.0-3.0-1.174"
	},
	{
		"rt": 1731,
		"stimulus": "../audio/77-6-masc.mp3",
		"response": " ",
		"word": "com",
		"trial_type": "audio-keyboard-response",
		"trial_index": 222,
		"time_elapsed": 598977,
		"internal_node_id": "0.0-3.0-1.175"
	},
	{
		"rt": 1509,
		"stimulus": "../audio/77-7-masc.mp3",
		"response": " ",
		"word": "o",
		"trial_type": "audio-keyboard-response",
		"trial_index": 223,
		"time_elapsed": 600769,
		"internal_node_id": "0.0-3.0-1.176"
	},
	{
		"rt": 2341,
		"stimulus": "../audio/77-8-masc.mp3",
		"response": " ",
		"word": "brinquedo.",
		"trial_type": "audio-keyboard-response",
		"trial_index": 224,
		"time_elapsed": 603378,
		"internal_node_id": "0.0-3.0-1.177"
	},
	{
		"rt": null,
		"stimulus": "<span style= \"font-size:30px; font-family: monospace\">+</span>",
		"response": null,
		"trial_part": "fixation",
		"trial_type": "html-keyboard-response",
		"trial_index": 225,
		"time_elapsed": 604640,
		"internal_node_id": "0.0-3.0-0.178-0.178"
	},
	{
		"rt": 2019,
		"stimulus": "../audio/79-1-masc.mp3",
		"response": " ",
		"word": "A",
		"trial_type": "audio-keyboard-response",
		"trial_index": 226,
		"time_elapsed": 606961,
		"internal_node_id": "0.0-3.0-1.178"
	},
	{
		"rt": 1731,
		"stimulus": "../audio/79-2-masc.mp3",
		"response": " ",
		"word": "médica",
		"trial_type": "audio-keyboard-response",
		"trial_index": 227,
		"time_elapsed": 608977,
		"internal_node_id": "0.0-3.0-1.179"
	},
	{
		"rt": 2248,
		"stimulus": "../audio/79-3-masc.mp3",
		"response": " ",
		"word": "verificou",
		"trial_type": "audio-keyboard-response",
		"trial_index": 228,
		"time_elapsed": 611522,
		"internal_node_id": "0.0-3.0-1.180"
	},
	{
		"rt": 1731,
		"stimulus": "../audio/79-4-masc.mp3",
		"response": " ",
		"word": "a",
		"trial_type": "audio-keyboard-response",
		"trial_index": 229,
		"time_elapsed": 613554,
		"internal_node_id": "0.0-3.0-1.181"
	},
	{
		"rt": 2149,
		"stimulus": "../audio/79-5-masc.mp3",
		"response": " ",
		"word": "gengiva",
		"trial_type": "audio-keyboard-response",
		"trial_index": 230,
		"time_elapsed": 616001,
		"internal_node_id": "0.0-3.0-1.182"
	},
	{
		"rt": 1821,
		"stimulus": "../audio/79-6-masc.mp3",
		"response": " ",
		"word": "por",
		"trial_type": "audio-keyboard-response",
		"trial_index": 231,
		"time_elapsed": 618113,
		"internal_node_id": "0.0-3.0-1.183"
	},
	{
		"rt": 2240,
		"stimulus": "../audio/79-7-masc.mp3",
		"response": " ",
		"word": "último.",
		"trial_type": "audio-keyboard-response",
		"trial_index": 232,
		"time_elapsed": 620657,
		"internal_node_id": "0.0-3.0-1.184"
	},
	{
		"rt": null,
		"stimulus": "<span style= \"font-size:30px; font-family: monospace\">+</span>",
		"response": null,
		"trial_part": "fixation",
		"trial_type": "html-keyboard-response",
		"trial_index": 233,
		"time_elapsed": 621937,
		"internal_node_id": "0.0-3.0-0.185-0.185"
	},
	{
		"rt": 1301,
		"stimulus": "../audio/80-1-fem.mp3",
		"response": " ",
		"word": "Meu",
		"trial_type": "audio-keyboard-response",
		"trial_index": 234,
		"time_elapsed": 623506,
		"internal_node_id": "0.0-3.0-1.185"
	},
	{
		"rt": 1440,
		"stimulus": "../audio/80-2-fem.mp3",
		"response": " ",
		"word": "primo",
		"trial_type": "audio-keyboard-response",
		"trial_index": 235,
		"time_elapsed": 625234,
		"internal_node_id": "0.0-3.0-1.186"
	},
	{
		"rt": 1741,
		"stimulus": "../audio/80-3-fem.mp3",
		"response": " ",
		"word": "conheceu",
		"trial_type": "audio-keyboard-response",
		"trial_index": 236,
		"time_elapsed": 627265,
		"internal_node_id": "0.0-3.0-1.187"
	},
	{
		"rt": 1699,
		"stimulus": "../audio/80-4-fem.mp3",
		"response": " ",
		"word": "um",
		"trial_type": "audio-keyboard-response",
		"trial_index": 237,
		"time_elapsed": 629249,
		"internal_node_id": "0.0-3.0-1.188"
	},
	{
		"rt": 1891,
		"stimulus": "../audio/80-5-fem.mp3",
		"response": " ",
		"word": "jovem",
		"trial_type": "audio-keyboard-response",
		"trial_index": 238,
		"time_elapsed": 631426,
		"internal_node_id": "0.0-3.0-1.189"
	},
	{
		"rt": 1861,
		"stimulus": "../audio/80-6-fem.mp3",
		"response": " ",
		"word": "amável",
		"trial_type": "audio-keyboard-response",
		"trial_index": 239,
		"time_elapsed": 633586,
		"internal_node_id": "0.0-3.0-1.190"
	},
	{
		"rt": 1800,
		"stimulus": "../audio/80-7-fem.mp3",
		"response": " ",
		"word": "e",
		"trial_type": "audio-keyboard-response",
		"trial_index": 240,
		"time_elapsed": 635681,
		"internal_node_id": "0.0-3.0-1.191"
	},
	{
		"rt": 2141,
		"stimulus": "../audio/80-8-fem.mp3",
		"response": " ",
		"word": "confiante.",
		"trial_type": "audio-keyboard-response",
		"trial_index": 241,
		"time_elapsed": 638113,
		"internal_node_id": "0.0-3.0-1.192"
	},
	{
		"rt": 73970,
		"stimulus": "<span style=\"font-size:25px; font-family: monospace\">O primo conheceu um jovem irritante?</span>",
		"response": "n",
		"question": "O primo conheceu um jovem irritante?",
		"answer": "null",
		"trial": "exp-sent",
		"trial_type": "html-keyboard-response",
		"trial_index": 242,
		"time_elapsed": 712338,
		"internal_node_id": "0.0-3.0-2.192-0.192",
		"accuracy": false
	},
	{
		"rt": null,
		"stimulus": "<span style= \"font-size:30px; font-family: monospace\">+</span>",
		"response": null,
		"trial_part": "fixation",
		"trial_type": "html-keyboard-response",
		"trial_index": 243,
		"time_elapsed": 713841,
		"internal_node_id": "0.0-3.0-0.193-0.193"
	},
	{
		"rt": 19,
		"stimulus": "../audio/33-1-masc.mp3",
		"response": " ",
		"word": "Eles",
		"trial_type": "audio-keyboard-response",
		"trial_index": 244,
		"time_elapsed": 714418,
		"internal_node_id": "0.0-3.0-1.193"
	},
	{
		"rt": 1509,
		"stimulus": "../audio/33-2-masc.mp3",
		"response": " ",
		"word": "sabem",
		"trial_type": "audio-keyboard-response",
		"trial_index": 245,
		"time_elapsed": 716209,
		"internal_node_id": "0.0-3.0-1.194"
	},
	{
		"rt": 2080,
		"stimulus": "../audio/33-3-masc.mp3",
		"response": " ",
		"word": "do",
		"trial_type": "audio-keyboard-response",
		"trial_index": 246,
		"time_elapsed": 718577,
		"internal_node_id": "0.0-3.0-1.195"
	},
	{
		"rt": 1480,
		"stimulus": "../audio/33-4-masc.mp3",
		"response": " ",
		"word": "seu",
		"trial_type": "audio-keyboard-response",
		"trial_index": 247,
		"time_elapsed": 720353,
		"internal_node_id": "0.0-3.0-1.196"
	},
	{
		"rt": 2139,
		"stimulus": "../audio/33-5-masc.mp3",
		"response": " ",
		"word": "privilégio",
		"trial_type": "audio-keyboard-response",
		"trial_index": 248,
		"time_elapsed": 722770,
		"internal_node_id": "0.0-3.0-1.197"
	},
	{
		"rt": 2080,
		"stimulus": "../audio/33-6-masc.mp3",
		"response": " ",
		"word": "nessa",
		"trial_type": "audio-keyboard-response",
		"trial_index": 249,
		"time_elapsed": 725154,
		"internal_node_id": "0.0-3.0-1.198"
	},
	{
		"rt": 1688,
		"stimulus": "../audio/33-7-masc.mp3",
		"response": " ",
		"word": "confusão.",
		"trial_type": "audio-keyboard-response",
		"trial_index": 250,
		"time_elapsed": 727137,
		"internal_node_id": "0.0-3.0-1.199"
	},
	{
		"rt": null,
		"stimulus": "<span style= \"font-size:30px; font-family: monospace\">+</span>",
		"response": null,
		"trial_part": "fixation",
		"trial_type": "html-keyboard-response",
		"trial_index": 251,
		"time_elapsed": 728413,
		"internal_node_id": "0.0-3.0-0.200-0.200"
	},
	{
		"rt": 1349,
		"stimulus": "../audio/31-1-fem.mp3",
		"response": " ",
		"word": "O",
		"trial_type": "audio-keyboard-response",
		"trial_index": 252,
		"time_elapsed": 730049,
		"internal_node_id": "0.0-3.0-1.200"
	},
	{
		"rt": 1629,
		"stimulus": "../audio/31-2-fem.mp3",
		"response": " ",
		"word": "padeiro",
		"trial_type": "audio-keyboard-response",
		"trial_index": 253,
		"time_elapsed": 731953,
		"internal_node_id": "0.0-3.0-1.201"
	},
	{
		"rt": 1629,
		"stimulus": "../audio/31-3-fem.mp3",
		"response": " ",
		"word": "usou",
		"trial_type": "audio-keyboard-response",
		"trial_index": 254,
		"time_elapsed": 733873,
		"internal_node_id": "0.0-3.0-1.202"
	},
	{
		"rt": 1469,
		"stimulus": "../audio/31-4-fem.mp3",
		"response": " ",
		"word": "a",
		"trial_type": "audio-keyboard-response",
		"trial_index": 255,
		"time_elapsed": 735649,
		"internal_node_id": "0.0-3.0-1.203"
	},
	{
		"rt": 1720,
		"stimulus": "../audio/31-5-fem.mp3",
		"response": " ",
		"word": "balança",
		"trial_type": "audio-keyboard-response",
		"trial_index": 256,
		"time_elapsed": 737649,
		"internal_node_id": "0.0-3.0-1.204"
	},
	{
		"rt": 1629,
		"stimulus": "../audio/31-6-fem.mp3",
		"response": " ",
		"word": "o",
		"trial_type": "audio-keyboard-response",
		"trial_index": 257,
		"time_elapsed": 739553,
		"internal_node_id": "0.0-3.0-1.205"
	},
	{
		"rt": 1539,
		"stimulus": "../audio/31-7-fem.mp3",
		"response": " ",
		"word": "dia",
		"trial_type": "audio-keyboard-response",
		"trial_index": 258,
		"time_elapsed": 741377,
		"internal_node_id": "0.0-3.0-1.206"
	},
	{
		"rt": 2192,
		"stimulus": "../audio/31-8-fem.mp3",
		"response": " ",
		"word": "inteiro.",
		"trial_type": "audio-keyboard-response",
		"trial_index": 259,
		"time_elapsed": 743841,
		"internal_node_id": "0.0-3.0-1.207"
	},
	{
		"rt": null,
		"stimulus": "<span style= \"font-size:30px; font-family: monospace\">+</span>",
		"response": null,
		"trial_part": "fixation",
		"trial_type": "html-keyboard-response",
		"trial_index": 260,
		"time_elapsed": 745108,
		"internal_node_id": "0.0-3.0-0.208-0.208"
	},
	{
		"rt": 2048,
		"stimulus": "../audio/34-1-masc.mp3",
		"response": " ",
		"word": "Cobrança",
		"trial_type": "audio-keyboard-response",
		"trial_index": 261,
		"time_elapsed": 747457,
		"internal_node_id": "0.0-3.0-1.208"
	},
	{
		"rt": 1829,
		"stimulus": "../audio/34-2-masc.mp3",
		"response": " ",
		"word": "excessiva",
		"trial_type": "audio-keyboard-response",
		"trial_index": 262,
		"time_elapsed": 749569,
		"internal_node_id": "0.0-3.0-1.209"
	},
	{
		"rt": 1760,
		"stimulus": "../audio/34-3-masc.mp3",
		"response": " ",
		"word": "é",
		"trial_type": "audio-keyboard-response",
		"trial_index": 263,
		"time_elapsed": 751601,
		"internal_node_id": "0.0-3.0-1.210"
	},
	{
		"rt": 1371,
		"stimulus": "../audio/34-4-masc.mp3",
		"response": " ",
		"word": "um",
		"trial_type": "audio-keyboard-response",
		"trial_index": 264,
		"time_elapsed": 753265,
		"internal_node_id": "0.0-3.0-1.211"
	},
	{
		"rt": 1549,
		"stimulus": "../audio/34-5-masc.mp3",
		"response": " ",
		"word": "fardo",
		"trial_type": "audio-keyboard-response",
		"trial_index": 265,
		"time_elapsed": 755105,
		"internal_node_id": "0.0-3.0-1.212"
	},
	{
		"rt": 1421,
		"stimulus": "../audio/34-6-masc.mp3",
		"response": " ",
		"word": "para",
		"trial_type": "audio-keyboard-response",
		"trial_index": 266,
		"time_elapsed": 756801,
		"internal_node_id": "0.0-3.0-1.213"
	},
	{
		"rt": 1339,
		"stimulus": "../audio/34-7-masc.mp3",
		"response": " ",
		"word": "a",
		"trial_type": "audio-keyboard-response",
		"trial_index": 267,
		"time_elapsed": 758417,
		"internal_node_id": "0.0-3.0-1.214"
	},
	{
		"rt": 1840,
		"stimulus": "../audio/34-8-masc.mp3",
		"response": " ",
		"word": "cabeça.",
		"trial_type": "audio-keyboard-response",
		"trial_index": 268,
		"time_elapsed": 760561,
		"internal_node_id": "0.0-3.0-1.215"
	},
	{
		"rt": null,
		"stimulus": "<span style= \"font-size:30px; font-family: monospace\">+</span>",
		"response": null,
		"trial_part": "fixation",
		"trial_type": "html-keyboard-response",
		"trial_index": 269,
		"time_elapsed": 761821,
		"internal_node_id": "0.0-3.0-0.216-0.216"
	},
	{
		"rt": 968,
		"stimulus": "../audio/32-1-fem.mp3",
		"response": " ",
		"word": "A",
		"trial_type": "audio-keyboard-response",
		"trial_index": 270,
		"time_elapsed": 763136,
		"internal_node_id": "0.0-3.0-1.216"
	},
	{
		"rt": 1240,
		"stimulus": "../audio/32-2-fem.mp3",
		"response": " ",
		"word": "tia",
		"trial_type": "audio-keyboard-response",
		"trial_index": 271,
		"time_elapsed": 764657,
		"internal_node_id": "0.0-3.0-1.217"
	},
	{
		"rt": 1392,
		"stimulus": "../audio/32-3-fem.mp3",
		"response": " ",
		"word": "comprou",
		"trial_type": "audio-keyboard-response",
		"trial_index": 272,
		"time_elapsed": 766321,
		"internal_node_id": "0.0-3.0-1.218"
	},
	{
		"rt": 1280,
		"stimulus": "../audio/32-4-fem.mp3",
		"response": " ",
		"word": "um",
		"trial_type": "audio-keyboard-response",
		"trial_index": 273,
		"time_elapsed": 767872,
		"internal_node_id": "0.0-3.0-1.219"
	},
	{
		"rt": 1259,
		"stimulus": "../audio/32-5-fem.mp3",
		"response": " ",
		"word": "pilão",
		"trial_type": "audio-keyboard-response",
		"trial_index": 274,
		"time_elapsed": 769409,
		"internal_node_id": "0.0-3.0-1.220"
	},
	{
		"rt": 1389,
		"stimulus": "../audio/32-6-fem.mp3",
		"response": " ",
		"word": "para",
		"trial_type": "audio-keyboard-response",
		"trial_index": 275,
		"time_elapsed": 771072,
		"internal_node_id": "0.0-3.0-1.221"
	},
	{
		"rt": 1048,
		"stimulus": "../audio/32-7-fem.mp3",
		"response": " ",
		"word": "a",
		"trial_type": "audio-keyboard-response",
		"trial_index": 276,
		"time_elapsed": 772417,
		"internal_node_id": "0.0-3.0-1.222"
	},
	{
		"rt": 1480,
		"stimulus": "../audio/32-8-fem.mp3",
		"response": " ",
		"word": "cozinha.",
		"trial_type": "audio-keyboard-response",
		"trial_index": 277,
		"time_elapsed": 774193,
		"internal_node_id": "0.0-3.0-1.223"
	},
	{
		"rt": null,
		"stimulus": "<span style= \"font-size:30px; font-family: monospace\">+</span>",
		"response": null,
		"trial_part": "fixation",
		"trial_type": "html-keyboard-response",
		"trial_index": 278,
		"time_elapsed": 775452,
		"internal_node_id": "0.0-3.0-0.224-0.224"
	},
	{
		"rt": 1011,
		"stimulus": "../audio/35-1-fem.mp3",
		"response": " ",
		"word": "A",
		"trial_type": "audio-keyboard-response",
		"trial_index": 279,
		"time_elapsed": 776753,
		"internal_node_id": "0.0-3.0-1.224"
	},
	{
		"rt": 1560,
		"stimulus": "../audio/35-2-fem.mp3",
		"response": " ",
		"word": "receita",
		"trial_type": "audio-keyboard-response",
		"trial_index": 280,
		"time_elapsed": 778593,
		"internal_node_id": "0.0-3.0-1.225"
	},
	{
		"rt": 1349,
		"stimulus": "../audio/35-3-fem.mp3",
		"response": " ",
		"word": "para",
		"trial_type": "audio-keyboard-response",
		"trial_index": 281,
		"time_elapsed": 780225,
		"internal_node_id": "0.0-3.0-1.226"
	},
	{
		"rt": 1091,
		"stimulus": "../audio/35-4-fem.mp3",
		"response": " ",
		"word": "a",
		"trial_type": "audio-keyboard-response",
		"trial_index": 282,
		"time_elapsed": 781600,
		"internal_node_id": "0.0-3.0-1.227"
	},
	{
		"rt": 1741,
		"stimulus": "../audio/35-5-fem.mp3",
		"response": " ",
		"word": "preparação",
		"trial_type": "audio-keyboard-response",
		"trial_index": 283,
		"time_elapsed": 783633,
		"internal_node_id": "0.0-3.0-1.228"
	},
	{
		"rt": 1219,
		"stimulus": "../audio/35-6-fem.mp3",
		"response": " ",
		"word": "do",
		"trial_type": "audio-keyboard-response",
		"trial_index": 284,
		"time_elapsed": 785137,
		"internal_node_id": "0.0-3.0-1.229"
	},
	{
		"rt": 1331,
		"stimulus": "../audio/35-7-fem.mp3",
		"response": " ",
		"word": "bolo",
		"trial_type": "audio-keyboard-response",
		"trial_index": 285,
		"time_elapsed": 786753,
		"internal_node_id": "0.0-3.0-1.230"
	},
	{
		"rt": 1368,
		"stimulus": "../audio/35-8-fem.mp3",
		"response": " ",
		"word": "é",
		"trial_type": "audio-keyboard-response",
		"trial_index": 286,
		"time_elapsed": 788416,
		"internal_node_id": "0.0-3.0-1.231"
	},
	{
		"rt": 1851,
		"stimulus": "../audio/35-9-fem.mp3",
		"response": " ",
		"word": "leve.",
		"trial_type": "audio-keyboard-response",
		"trial_index": 287,
		"time_elapsed": 790560,
		"internal_node_id": "0.0-3.0-1.232"
	},
	{
		"rt": 21334,
		"stimulus": "<span style=\"font-size:25px; font-family: monospace\">A receita do bolo é pesada?</span>",
		"response": "n",
		"question": "A receita do bolo é pesada?",
		"answer": "null",
		"trial": "exp-sent",
		"trial_type": "html-keyboard-response",
		"trial_index": 288,
		"time_elapsed": 812160,
		"internal_node_id": "0.0-3.0-2.232-0.232",
		"accuracy": false
	},
	{
		"rt": null,
		"stimulus": "<span style= \"font-size:30px; font-family: monospace\">+</span>",
		"response": null,
		"trial_part": "fixation",
		"trial_type": "html-keyboard-response",
		"trial_index": 289,
		"time_elapsed": 813673,
		"internal_node_id": "0.0-3.0-0.233-0.233"
	},
	{
		"rt": 0,
		"stimulus": "../audio/03-1-masc.mp3",
		"response": " ",
		"word": "O",
		"trial_type": "audio-keyboard-response",
		"trial_index": 290,
		"time_elapsed": 813952,
		"internal_node_id": "0.0-3.0-1.233"
	},
	{
		"rt": 1848,
		"stimulus": "../audio/03-2-masc.mp3",
		"response": " ",
		"word": "coelho",
		"trial_type": "audio-keyboard-response",
		"trial_index": 291,
		"time_elapsed": 816096,
		"internal_node_id": "0.0-3.0-1.234"
	},
	{
		"rt": 1240,
		"stimulus": "../audio/03-3-masc.mp3",
		"response": " ",
		"word": "foi",
		"trial_type": "audio-keyboard-response",
		"trial_index": 292,
		"time_elapsed": 817632,
		"internal_node_id": "0.0-3.0-1.235"
	},
	{
		"rt": 1509,
		"stimulus": "../audio/03-4-masc.mp3",
		"response": " ",
		"word": "bastante",
		"trial_type": "audio-keyboard-response",
		"trial_index": 293,
		"time_elapsed": 819424,
		"internal_node_id": "0.0-3.0-1.236"
	},
	{
		"rt": 1491,
		"stimulus": "../audio/03-5-masc.mp3",
		"response": " ",
		"word": "dócil",
		"trial_type": "audio-keyboard-response",
		"trial_index": 294,
		"time_elapsed": 821184,
		"internal_node_id": "0.0-3.0-1.237"
	},
	{
		"rt": 1309,
		"stimulus": "../audio/03-6-masc.mp3",
		"response": " ",
		"word": "com",
		"trial_type": "audio-keyboard-response",
		"trial_index": 295,
		"time_elapsed": 822816,
		"internal_node_id": "0.0-3.0-1.238"
	},
	{
		"rt": 1160,
		"stimulus": "../audio/03-7-masc.mp3",
		"response": " ",
		"word": "as",
		"trial_type": "audio-keyboard-response",
		"trial_index": 296,
		"time_elapsed": 824256,
		"internal_node_id": "0.0-3.0-1.239"
	},
	{
		"rt": 1469,
		"stimulus": "../audio/03-8-masc.mp3",
		"response": " ",
		"word": "crianças.",
		"trial_type": "audio-keyboard-response",
		"trial_index": 297,
		"time_elapsed": 826016,
		"internal_node_id": "0.0-3.0-1.240"
	},
	{
		"rt": null,
		"stimulus": "<span style= \"font-size:30px; font-family: monospace\">+</span>",
		"response": null,
		"trial_part": "fixation",
		"trial_type": "html-keyboard-response",
		"trial_index": 298,
		"time_elapsed": 827287,
		"internal_node_id": "0.0-3.0-0.241-0.241"
	},
	{
		"rt": 1509,
		"stimulus": "../audio/04-1-masc.mp3",
		"response": " ",
		"word": "Duzentos",
		"trial_type": "audio-keyboard-response",
		"trial_index": 299,
		"time_elapsed": 829088,
		"internal_node_id": "0.0-3.0-1.241"
	},
	{
		"rt": 1259,
		"stimulus": "../audio/04-2-masc.mp3",
		"response": " ",
		"word": "carros",
		"trial_type": "audio-keyboard-response",
		"trial_index": 300,
		"time_elapsed": 830656,
		"internal_node_id": "0.0-3.0-1.242"
	},
	{
		"rt": 1232,
		"stimulus": "../audio/04-3-masc.mp3",
		"response": " ",
		"word": "passaram",
		"trial_type": "audio-keyboard-response",
		"trial_index": 301,
		"time_elapsed": 832160,
		"internal_node_id": "0.0-3.0-1.243"
	},
	{
		"rt": 1299,
		"stimulus": "../audio/04-4-masc.mp3",
		"response": " ",
		"word": "pela",
		"trial_type": "audio-keyboard-response",
		"trial_index": 302,
		"time_elapsed": 833744,
		"internal_node_id": "0.0-3.0-1.244"
	},
	{
		"rt": 1139,
		"stimulus": "../audio/04-5-masc.mp3",
		"response": " ",
		"word": "ponte",
		"trial_type": "audio-keyboard-response",
		"trial_index": 303,
		"time_elapsed": 835168,
		"internal_node_id": "0.0-3.0-1.245"
	},
	{
		"rt": 1088,
		"stimulus": "../audio/04-6-masc.mp3",
		"response": " ",
		"word": "hoje",
		"trial_type": "audio-keyboard-response",
		"trial_index": 304,
		"time_elapsed": 836528,
		"internal_node_id": "0.0-3.0-1.246"
	},
	{
		"rt": 1288,
		"stimulus": "../audio/04-7-masc.mp3",
		"response": " ",
		"word": "de",
		"trial_type": "audio-keyboard-response",
		"trial_index": 305,
		"time_elapsed": 838096,
		"internal_node_id": "0.0-3.0-1.247"
	},
	{
		"rt": 1448,
		"stimulus": "../audio/04-8-masc.mp3",
		"response": " ",
		"word": "tarde.",
		"trial_type": "audio-keyboard-response",
		"trial_index": 306,
		"time_elapsed": 839808,
		"internal_node_id": "0.0-3.0-1.248"
	},
	{
		"rt": null,
		"stimulus": "<span style= \"font-size:30px; font-family: monospace\">+</span>",
		"response": null,
		"trial_part": "fixation",
		"trial_type": "html-keyboard-response",
		"trial_index": 307,
		"time_elapsed": 841069,
		"internal_node_id": "0.0-3.0-0.249-0.249"
	},
	{
		"rt": 901,
		"stimulus": "../audio/01-1-masc.mp3",
		"response": " ",
		"word": "O",
		"trial_type": "audio-keyboard-response",
		"trial_index": 308,
		"time_elapsed": 842272,
		"internal_node_id": "0.0-3.0-1.249"
	},
	{
		"rt": 1240,
		"stimulus": "../audio/01-2-masc.mp3",
		"response": " ",
		"word": "menino",
		"trial_type": "audio-keyboard-response",
		"trial_index": 309,
		"time_elapsed": 843792,
		"internal_node_id": "0.0-3.0-1.250"
	},
	{
		"rt": 1251,
		"stimulus": "../audio/01-3-masc.mp3",
		"response": " ",
		"word": "derrubou",
		"trial_type": "audio-keyboard-response",
		"trial_index": 310,
		"time_elapsed": 845344,
		"internal_node_id": "0.0-3.0-1.251"
	},
	{
		"rt": 1171,
		"stimulus": "../audio/01-4-masc.mp3",
		"response": " ",
		"word": "a",
		"trial_type": "audio-keyboard-response",
		"trial_index": 311,
		"time_elapsed": 846800,
		"internal_node_id": "0.0-3.0-1.252"
	},
	{
		"rt": 1539,
		"stimulus": "../audio/01-5-masc.mp3",
		"response": " ",
		"word": "guitarra",
		"trial_type": "audio-keyboard-response",
		"trial_index": 312,
		"time_elapsed": 848624,
		"internal_node_id": "0.0-3.0-1.253"
	},
	{
		"rt": 1331,
		"stimulus": "../audio/01-6-masc.mp3",
		"response": " ",
		"word": "no",
		"trial_type": "audio-keyboard-response",
		"trial_index": 313,
		"time_elapsed": 850224,
		"internal_node_id": "0.0-3.0-1.254"
	},
	{
		"rt": 1480,
		"stimulus": "../audio/01-7-masc.mp3",
		"response": " ",
		"word": "chão.",
		"trial_type": "audio-keyboard-response",
		"trial_index": 314,
		"time_elapsed": 851967,
		"internal_node_id": "0.0-3.0-1.255"
	},
	{
		"rt": null,
		"stimulus": "<span style= \"font-size:30px; font-family: monospace\">+</span>",
		"response": null,
		"trial_part": "fixation",
		"trial_type": "html-keyboard-response",
		"trial_index": 315,
		"time_elapsed": 853239,
		"internal_node_id": "0.0-3.0-0.256-0.256"
	},
	{
		"rt": 981,
		"stimulus": "../audio/02-2-masc.mp3",
		"response": " ",
		"word": "Havia",
		"trial_type": "audio-keyboard-response",
		"trial_index": 316,
		"time_elapsed": 854512,
		"internal_node_id": "0.0-3.0-1.256"
	},
	{
		"rt": 1072,
		"stimulus": "../audio/02-2-masc.mp3",
		"response": " ",
		"word": "um",
		"trial_type": "audio-keyboard-response",
		"trial_index": 317,
		"time_elapsed": 855840,
		"internal_node_id": "0.0-3.0-1.257"
	},
	{
		"rt": 1021,
		"stimulus": "../audio/02-3-masc.mp3",
		"response": " ",
		"word": "cheiro",
		"trial_type": "audio-keyboard-response",
		"trial_index": 318,
		"time_elapsed": 857152,
		"internal_node_id": "0.0-3.0-1.258"
	},
	{
		"rt": 1371,
		"stimulus": "../audio/02-4-masc.mp3",
		"response": " ",
		"word": "de",
		"trial_type": "audio-keyboard-response",
		"trial_index": 319,
		"time_elapsed": 858800,
		"internal_node_id": "0.0-3.0-1.259"
	},
	{
		"rt": 1349,
		"stimulus": "../audio/02-5-masc.mp3",
		"response": " ",
		"word": "gasolina",
		"trial_type": "audio-keyboard-response",
		"trial_index": 320,
		"time_elapsed": 860432,
		"internal_node_id": "0.0-3.0-1.260"
	},
	{
		"rt": 1349,
		"stimulus": "../audio/02-6-masc.mp3",
		"response": " ",
		"word": "na",
		"trial_type": "audio-keyboard-response",
		"trial_index": 321,
		"time_elapsed": 862064,
		"internal_node_id": "0.0-3.0-1.261"
	},
	{
		"rt": 2171,
		"stimulus": "../audio/02-7-masc.mp3",
		"response": " ",
		"word": "garagem.",
		"trial_type": "audio-keyboard-response",
		"trial_index": 322,
		"time_elapsed": 864512,
		"internal_node_id": "0.0-3.0-1.262"
	},
	{
		"rt": null,
		"stimulus": "<span style= \"font-size:30px; font-family: monospace\">+</span>",
		"response": null,
		"trial_part": "fixation",
		"trial_type": "html-keyboard-response",
		"trial_index": 323,
		"time_elapsed": 865782,
		"internal_node_id": "0.0-3.0-0.263-0.263"
	},
	{
		"rt": 971,
		"stimulus": "../audio/05-1-masc.mp3",
		"response": " ",
		"word": "A",
		"trial_type": "audio-keyboard-response",
		"trial_index": 324,
		"time_elapsed": 867040,
		"internal_node_id": "0.0-3.0-1.263"
	},
	{
		"rt": 1571,
		"stimulus": "../audio/05-2-masc.mp3",
		"response": " ",
		"word": "vendedora",
		"trial_type": "audio-keyboard-response",
		"trial_index": 325,
		"time_elapsed": 868880,
		"internal_node_id": "0.0-3.0-1.264"
	},
	{
		"rt": 1219,
		"stimulus": "../audio/05-3-masc.mp3",
		"response": " ",
		"word": "ajudou",
		"trial_type": "audio-keyboard-response",
		"trial_index": 326,
		"time_elapsed": 870367,
		"internal_node_id": "0.0-3.0-1.265"
	},
	{
		"rt": 1168,
		"stimulus": "../audio/05-4-masc.mp3",
		"response": " ",
		"word": "um",
		"trial_type": "audio-keyboard-response",
		"trial_index": 327,
		"time_elapsed": 871808,
		"internal_node_id": "0.0-3.0-1.266"
	},
	{
		"rt": 1448,
		"stimulus": "../audio/05-5-masc.mp3",
		"response": " ",
		"word": "turista",
		"trial_type": "audio-keyboard-response",
		"trial_index": 328,
		"time_elapsed": 873536,
		"internal_node_id": "0.0-3.0-1.267"
	},
	{
		"rt": 1288,
		"stimulus": "../audio/05-6-masc.mp3",
		"response": " ",
		"word": "na",
		"trial_type": "audio-keyboard-response",
		"trial_index": 329,
		"time_elapsed": 875087,
		"internal_node_id": "0.0-3.0-1.268"
	},
	{
		"rt": 1469,
		"stimulus": "../audio/05-7-masc.mp3",
		"response": " ",
		"word": "loja.",
		"trial_type": "audio-keyboard-response",
		"trial_index": 330,
		"time_elapsed": 876848,
		"internal_node_id": "0.0-3.0-1.269"
	},
	{
		"rt": 13699,
		"stimulus": "<span style=\"font-size:25px; font-family: monospace\">A vendedora ajudou um turista?</span>",
		"response": "s",
		"question": "A vendedora ajudou um turista?",
		"answer": "null",
		"trial": "exp-sent",
		"trial_type": "html-keyboard-response",
		"trial_index": 331,
		"time_elapsed": 890800,
		"internal_node_id": "0.0-3.0-2.269-0.269",
		"accuracy": false
	},
	{
		"rt": null,
		"stimulus": "<span style= \"font-size:30px; font-family: monospace\">+</span>",
		"response": null,
		"trial_part": "fixation",
		"trial_type": "html-keyboard-response",
		"trial_index": 332,
		"time_elapsed": 892313,
		"internal_node_id": "0.0-3.0-0.270-0.270"
	},
	{
		"rt": 1211,
		"stimulus": "../audio/41-1-masc.mp3",
		"response": " ",
		"word": "A",
		"trial_type": "audio-keyboard-response",
		"trial_index": 333,
		"time_elapsed": 893824,
		"internal_node_id": "0.0-3.0-1.270"
	},
	{
		"rt": 1429,
		"stimulus": "../audio/41-2-masc.mp3",
		"response": " ",
		"word": "novela",
		"trial_type": "audio-keyboard-response",
		"trial_index": 334,
		"time_elapsed": 895536,
		"internal_node_id": "0.0-3.0-1.271"
	},
	{
		"rt": 1259,
		"stimulus": "../audio/41-3-masc.mp3",
		"response": " ",
		"word": "falava",
		"trial_type": "audio-keyboard-response",
		"trial_index": 335,
		"time_elapsed": 897087,
		"internal_node_id": "0.0-3.0-1.272"
	},
	{
		"rt": 960,
		"stimulus": "../audio/41-4-masc.mp3",
		"response": " ",
		"word": "de",
		"trial_type": "audio-keyboard-response",
		"trial_index": 336,
		"time_elapsed": 898320,
		"internal_node_id": "0.0-3.0-1.273"
	},
	{
		"rt": 1280,
		"stimulus": "../audio/41-5-masc.mp3",
		"response": " ",
		"word": "paixão",
		"trial_type": "audio-keyboard-response",
		"trial_index": 337,
		"time_elapsed": 899871,
		"internal_node_id": "0.0-3.0-1.274"
	},
	{
		"rt": 1320,
		"stimulus": "../audio/41-6-masc.mp3",
		"response": " ",
		"word": "e",
		"trial_type": "audio-keyboard-response",
		"trial_index": 338,
		"time_elapsed": 901456,
		"internal_node_id": "0.0-3.0-1.275"
	},
	{
		"rt": 1651,
		"stimulus": "../audio/41-7-masc.mp3",
		"response": " ",
		"word": "comédia.",
		"trial_type": "audio-keyboard-response",
		"trial_index": 339,
		"time_elapsed": 903392,
		"internal_node_id": "0.0-3.0-1.276"
	},
	{
		"rt": null,
		"stimulus": "<span style= \"font-size:30px; font-family: monospace\">+</span>",
		"response": null,
		"trial_part": "fixation",
		"trial_type": "html-keyboard-response",
		"trial_index": 340,
		"time_elapsed": 904665,
		"internal_node_id": "0.0-3.0-0.277-0.277"
	},
	{
		"rt": 1048,
		"stimulus": "../audio/43-1-fem.mp3",
		"response": " ",
		"word": "Eu",
		"trial_type": "audio-keyboard-response",
		"trial_index": 341,
		"time_elapsed": 906016,
		"internal_node_id": "0.0-3.0-1.277"
	},
	{
		"rt": 1288,
		"stimulus": "../audio/43-2-fem.mp3",
		"response": " ",
		"word": "achei",
		"trial_type": "audio-keyboard-response",
		"trial_index": 342,
		"time_elapsed": 907616,
		"internal_node_id": "0.0-3.0-1.278"
	},
	{
		"rt": 1189,
		"stimulus": "../audio/43-3-fem.mp3",
		"response": " ",
		"word": "um",
		"trial_type": "audio-keyboard-response",
		"trial_index": 343,
		"time_elapsed": 909088,
		"internal_node_id": "0.0-3.0-1.279"
	},
	{
		"rt": 1512,
		"stimulus": "../audio/43-4-fem.mp3",
		"response": " ",
		"word": "colchão",
		"trial_type": "audio-keyboard-response",
		"trial_index": 344,
		"time_elapsed": 910880,
		"internal_node_id": "0.0-3.0-1.280"
	},
	{
		"rt": 1491,
		"stimulus": "../audio/43-5-fem.mp3",
		"response": " ",
		"word": "velho",
		"trial_type": "audio-keyboard-response",
		"trial_index": 345,
		"time_elapsed": 912672,
		"internal_node_id": "0.0-3.0-1.281"
	},
	{
		"rt": 1568,
		"stimulus": "../audio/43-6-fem.mp3",
		"response": " ",
		"word": "e",
		"trial_type": "audio-keyboard-response",
		"trial_index": 346,
		"time_elapsed": 914528,
		"internal_node_id": "0.0-3.0-1.282"
	},
	{
		"rt": 1640,
		"stimulus": "../audio/43-7-fem.mp3",
		"response": " ",
		"word": "imundo",
		"trial_type": "audio-keyboard-response",
		"trial_index": 347,
		"time_elapsed": 916448,
		"internal_node_id": "0.0-3.0-1.283"
	},
	{
		"rt": 1749,
		"stimulus": "../audio/43-8-fem.mp3",
		"response": " ",
		"word": "na",
		"trial_type": "audio-keyboard-response",
		"trial_index": 348,
		"time_elapsed": 918464,
		"internal_node_id": "0.0-3.0-1.284"
	},
	{
		"rt": 1928,
		"stimulus": "../audio/43-9-fem.mp3",
		"response": " ",
		"word": "casa.",
		"trial_type": "audio-keyboard-response",
		"trial_index": 349,
		"time_elapsed": 920688,
		"internal_node_id": "0.0-3.0-1.285"
	},
	{
		"rt": null,
		"stimulus": "<span style= \"font-size:30px; font-family: monospace\">+</span>",
		"response": null,
		"trial_part": "fixation",
		"trial_type": "html-keyboard-response",
		"trial_index": 350,
		"time_elapsed": 921956,
		"internal_node_id": "0.0-3.0-0.286-0.286"
	},
	{
		"rt": 1381,
		"stimulus": "../audio/44-1-masc.mp3",
		"response": " ",
		"word": "Meus",
		"trial_type": "audio-keyboard-response",
		"trial_index": 351,
		"time_elapsed": 923632,
		"internal_node_id": "0.0-3.0-1.286"
	},
	{
		"rt": 3019,
		"stimulus": "../audio/44-2-masc.mp3",
		"response": " ",
		"word": "irmãos",
		"trial_type": "audio-keyboard-response",
		"trial_index": 352,
		"time_elapsed": 926944,
		"internal_node_id": "0.0-3.0-1.287"
	},
	{
		"rt": 3768,
		"stimulus": "../audio/44-3-masc.mp3",
		"response": " ",
		"word": "brigam",
		"trial_type": "audio-keyboard-response",
		"trial_index": 353,
		"time_elapsed": 931008,
		"internal_node_id": "0.0-3.0-1.288"
	},
	{
		"rt": 2189,
		"stimulus": "../audio/44-4-masc.mp3",
		"response": " ",
		"word": "por",
		"trial_type": "audio-keyboard-response",
		"trial_index": 354,
		"time_elapsed": 933472,
		"internal_node_id": "0.0-3.0-1.289"
	},
	{
		"rt": 1768,
		"stimulus": "../audio/44-5-masc.mp3",
		"response": " ",
		"word": "bobagem",
		"trial_type": "audio-keyboard-response",
		"trial_index": 355,
		"time_elapsed": 935536,
		"internal_node_id": "0.0-3.0-1.290"
	},
	{
		"rt": 1531,
		"stimulus": "../audio/44-6-masc.mp3",
		"response": " ",
		"word": "todos",
		"trial_type": "audio-keyboard-response",
		"trial_index": 356,
		"time_elapsed": 937360,
		"internal_node_id": "0.0-3.0-1.291"
	},
	{
		"rt": 1571,
		"stimulus": "../audio/44-7-masc.mp3",
		"response": " ",
		"word": "os",
		"trial_type": "audio-keyboard-response",
		"trial_index": 357,
		"time_elapsed": 939200,
		"internal_node_id": "0.0-3.0-1.292"
	},
	{
		"rt": 1968,
		"stimulus": "../audio/44-8-masc.mp3",
		"response": " ",
		"word": "dias.",
		"trial_type": "audio-keyboard-response",
		"trial_index": 358,
		"time_elapsed": 941456,
		"internal_node_id": "0.0-3.0-1.293"
	},
	{
		"rt": null,
		"stimulus": "<span style= \"font-size:30px; font-family: monospace\">+</span>",
		"response": null,
		"trial_part": "fixation",
		"trial_type": "html-keyboard-response",
		"trial_index": 359,
		"time_elapsed": 942720,
		"internal_node_id": "0.0-3.0-0.294-0.294"
	},
	{
		"rt": 941,
		"stimulus": "../audio/42-1-masc.mp3",
		"response": " ",
		"word": "Eu",
		"trial_type": "audio-keyboard-response",
		"trial_index": 360,
		"time_elapsed": 943952,
		"internal_node_id": "0.0-3.0-1.294"
	},
	{
		"rt": 1179,
		"stimulus": "../audio/42-2-masc.mp3",
		"response": " ",
		"word": "fui",
		"trial_type": "audio-keyboard-response",
		"trial_index": 361,
		"time_elapsed": 945408,
		"internal_node_id": "0.0-3.0-1.295"
	},
	{
		"rt": 1141,
		"stimulus": "../audio/42-3-masc.mp3",
		"response": " ",
		"word": "a",
		"trial_type": "audio-keyboard-response",
		"trial_index": 362,
		"time_elapsed": 946832,
		"internal_node_id": "0.0-3.0-1.296"
	},
	{
		"rt": 1099,
		"stimulus": "../audio/42-4-masc.mp3",
		"response": " ",
		"word": "uma",
		"trial_type": "audio-keyboard-response",
		"trial_index": 363,
		"time_elapsed": 948208,
		"internal_node_id": "0.0-3.0-1.297"
	},
	{
		"rt": 1360,
		"stimulus": "../audio/42-5-masc.mp3",
		"response": " ",
		"word": "loja",
		"trial_type": "audio-keyboard-response",
		"trial_index": 364,
		"time_elapsed": 949840,
		"internal_node_id": "0.0-3.0-1.298"
	},
	{
		"rt": 1269,
		"stimulus": "../audio/42-6-masc.mp3",
		"response": " ",
		"word": "de",
		"trial_type": "audio-keyboard-response",
		"trial_index": 365,
		"time_elapsed": 951392,
		"internal_node_id": "0.0-3.0-1.299"
	},
	{
		"rt": 1920,
		"stimulus": "../audio/42-7-masc.mp3",
		"response": " ",
		"word": "móveis",
		"trial_type": "audio-keyboard-response",
		"trial_index": 366,
		"time_elapsed": 953616,
		"internal_node_id": "0.0-3.0-1.300"
	},
	{
		"rt": 1440,
		"stimulus": "../audio/42-8-masc.mp3",
		"response": " ",
		"word": "no",
		"trial_type": "audio-keyboard-response",
		"trial_index": 367,
		"time_elapsed": 955344,
		"internal_node_id": "0.0-3.0-1.301"
	},
	{
		"rt": 1691,
		"stimulus": "../audio/42-9-masc.mp3",
		"response": " ",
		"word": "bairro.",
		"trial_type": "audio-keyboard-response",
		"trial_index": 368,
		"time_elapsed": 957312,
		"internal_node_id": "0.0-3.0-1.302"
	},
	{
		"rt": null,
		"stimulus": "<span style= \"font-size:30px; font-family: monospace\">+</span>",
		"response": null,
		"trial_part": "fixation",
		"trial_type": "html-keyboard-response",
		"trial_index": 369,
		"time_elapsed": 958576,
		"internal_node_id": "0.0-3.0-0.303-0.303"
	},
	{
		"rt": 1360,
		"stimulus": "../audio/45-1-masc.mp3",
		"response": " ",
		"word": "O",
		"trial_type": "audio-keyboard-response",
		"trial_index": 370,
		"time_elapsed": 960224,
		"internal_node_id": "0.0-3.0-1.303"
	},
	{
		"rt": 1389,
		"stimulus": "../audio/45-2-masc.mp3",
		"response": " ",
		"word": "homem",
		"trial_type": "audio-keyboard-response",
		"trial_index": 371,
		"time_elapsed": 961888,
		"internal_node_id": "0.0-3.0-1.304"
	},
	{
		"rt": 3128,
		"stimulus": "../audio/45-3-masc.mp3",
		"response": " ",
		"word": "pagou",
		"trial_type": "audio-keyboard-response",
		"trial_index": 372,
		"time_elapsed": 965296,
		"internal_node_id": "0.0-3.0-1.305"
	},
	{
		"rt": 1360,
		"stimulus": "../audio/45-4-masc.mp3",
		"response": " ",
		"word": "o",
		"trial_type": "audio-keyboard-response",
		"trial_index": 373,
		"time_elapsed": 966944,
		"internal_node_id": "0.0-3.0-1.306"
	},
	{
		"rt": 1349,
		"stimulus": "../audio/45-5-masc.mp3",
		"response": " ",
		"word": "aluguel",
		"trial_type": "audio-keyboard-response",
		"trial_index": 374,
		"time_elapsed": 968576,
		"internal_node_id": "0.0-3.0-1.307"
	},
	{
		"rt": 1301,
		"stimulus": "../audio/45-6-masc.mp3",
		"response": " ",
		"word": "com",
		"trial_type": "audio-keyboard-response",
		"trial_index": 375,
		"time_elapsed": 970159,
		"internal_node_id": "0.0-3.0-1.308"
	},
	{
		"rt": 2032,
		"stimulus": "../audio/45-7-masc.mp3",
		"response": " ",
		"word": "atraso.",
		"trial_type": "audio-keyboard-response",
		"trial_index": 376,
		"time_elapsed": 972479,
		"internal_node_id": "0.0-3.0-1.309"
	},
	{
		"rt": 31059,
		"stimulus": "<span style=\"font-size:25px; font-family: monospace\">O homem pagou o aluguel em dia?</span>",
		"response": "n",
		"question": "O homem pagou o aluguel em dia?",
		"answer": "null",
		"trial": "exp-sent",
		"trial_type": "html-keyboard-response",
		"trial_index": 377,
		"time_elapsed": 1003791,
		"internal_node_id": "0.0-3.0-2.309-0.309",
		"accuracy": false
	},
	{
		"rt": null,
		"stimulus": "<span style= \"font-size:30px; font-family: monospace\">+</span>",
		"response": null,
		"trial_part": "fixation",
		"trial_type": "html-keyboard-response",
		"trial_index": 378,
		"time_elapsed": 1005293,
		"internal_node_id": "0.0-3.0-0.310-0.310"
	},
	{
		"rt": 371,
		"stimulus": "../audio/58-1-fem.mp3",
		"response": " ",
		"word": "Havia",
		"trial_type": "audio-keyboard-response",
		"trial_index": 379,
		"time_elapsed": 1005935,
		"internal_node_id": "0.0-3.0-1.310"
	},
	{
		"rt": 1571,
		"stimulus": "../audio/58-2-fem.mp3",
		"response": " ",
		"word": "apenas",
		"trial_type": "audio-keyboard-response",
		"trial_index": 380,
		"time_elapsed": 1007775,
		"internal_node_id": "0.0-3.0-1.311"
	},
	{
		"rt": 1179,
		"stimulus": "../audio/58-3-fem.mp3",
		"response": " ",
		"word": "um",
		"trial_type": "audio-keyboard-response",
		"trial_index": 381,
		"time_elapsed": 1009231,
		"internal_node_id": "0.0-3.0-1.312"
	},
	{
		"rt": 1429,
		"stimulus": "../audio/58-4-fem.mp3",
		"response": " ",
		"word": "último",
		"trial_type": "audio-keyboard-response",
		"trial_index": 382,
		"time_elapsed": 1010927,
		"internal_node_id": "0.0-3.0-1.313"
	},
	{
		"rt": 1539,
		"stimulus": "../audio/58-5-fem.mp3",
		"response": " ",
		"word": "herdeiro",
		"trial_type": "audio-keyboard-response",
		"trial_index": 383,
		"time_elapsed": 1012751,
		"internal_node_id": "0.0-3.0-1.314"
	},
	{
		"rt": 1600,
		"stimulus": "../audio/58-6-fem.mp3",
		"response": " ",
		"word": "do",
		"trial_type": "audio-keyboard-response",
		"trial_index": 384,
		"time_elapsed": 1014623,
		"internal_node_id": "0.0-3.0-1.315"
	},
	{
		"rt": 1632,
		"stimulus": "../audio/58-7-fem.mp3",
		"response": " ",
		"word": "dinheiro.",
		"trial_type": "audio-keyboard-response",
		"trial_index": 385,
		"time_elapsed": 1016543,
		"internal_node_id": "0.0-3.0-1.316"
	},
	{
		"rt": null,
		"stimulus": "<span style= \"font-size:30px; font-family: monospace\">+</span>",
		"response": null,
		"trial_part": "fixation",
		"trial_type": "html-keyboard-response",
		"trial_index": 386,
		"time_elapsed": 1017813,
		"internal_node_id": "0.0-3.0-0.317-0.317"
	},
	{
		"rt": 968,
		"stimulus": "../audio/59-1-fem.mp3",
		"response": " ",
		"word": "O",
		"trial_type": "audio-keyboard-response",
		"trial_index": 387,
		"time_elapsed": 1019071,
		"internal_node_id": "0.0-3.0-1.317"
	},
	{
		"rt": 1531,
		"stimulus": "../audio/59-2-fem.mp3",
		"response": " ",
		"word": "carteiro",
		"trial_type": "audio-keyboard-response",
		"trial_index": 388,
		"time_elapsed": 1020879,
		"internal_node_id": "0.0-3.0-1.318"
	},
	{
		"rt": 1341,
		"stimulus": "../audio/59-3-fem.mp3",
		"response": " ",
		"word": "fez",
		"trial_type": "audio-keyboard-response",
		"trial_index": 389,
		"time_elapsed": 1022495,
		"internal_node_id": "0.0-3.0-1.319"
	},
	{
		"rt": 1219,
		"stimulus": "../audio/59-4-fem.mp3",
		"response": " ",
		"word": "uma",
		"trial_type": "audio-keyboard-response",
		"trial_index": 390,
		"time_elapsed": 1023999,
		"internal_node_id": "0.0-3.0-1.320"
	},
	{
		"rt": 1691,
		"stimulus": "../audio/59-5-fem.mp3",
		"response": " ",
		"word": "tentativa",
		"trial_type": "audio-keyboard-response",
		"trial_index": 391,
		"time_elapsed": 1025983,
		"internal_node_id": "0.0-3.0-1.321"
	},
	{
		"rt": 2101,
		"stimulus": "../audio/59-6-fem.mp3",
		"response": " ",
		"word": "de",
		"trial_type": "audio-keyboard-response",
		"trial_index": 392,
		"time_elapsed": 1028367,
		"internal_node_id": "0.0-3.0-1.322"
	},
	{
		"rt": 2168,
		"stimulus": "../audio/59-7-fem.mp3",
		"response": " ",
		"word": "entrega.",
		"trial_type": "audio-keyboard-response",
		"trial_index": 393,
		"time_elapsed": 1030830,
		"internal_node_id": "0.0-3.0-1.323"
	},
	{
		"rt": null,
		"stimulus": "<span style= \"font-size:30px; font-family: monospace\">+</span>",
		"response": null,
		"trial_part": "fixation",
		"trial_type": "html-keyboard-response",
		"trial_index": 394,
		"time_elapsed": 1032106,
		"internal_node_id": "0.0-3.0-0.324-0.324"
	},
	{
		"rt": 109,
		"stimulus": "../audio/56-1-fem.mp3",
		"response": " ",
		"word": "A",
		"trial_type": "audio-keyboard-response",
		"trial_index": 395,
		"time_elapsed": 1032510,
		"internal_node_id": "0.0-3.0-1.324"
	},
	{
		"rt": 1760,
		"stimulus": "../audio/56-2-fem.mp3",
		"response": " ",
		"word": "moça",
		"trial_type": "audio-keyboard-response",
		"trial_index": 396,
		"time_elapsed": 1034558,
		"internal_node_id": "0.0-3.0-1.325"
	},
	{
		"rt": 1389,
		"stimulus": "../audio/56-3-fem.mp3",
		"response": " ",
		"word": "foi",
		"trial_type": "audio-keyboard-response",
		"trial_index": 397,
		"time_elapsed": 1036238,
		"internal_node_id": "0.0-3.0-1.326"
	},
	{
		"rt": 1109,
		"stimulus": "../audio/56-4-fem.mp3",
		"response": " ",
		"word": "à",
		"trial_type": "audio-keyboard-response",
		"trial_index": 398,
		"time_elapsed": 1037630,
		"internal_node_id": "0.0-3.0-1.327"
	},
	{
		"rt": 1539,
		"stimulus": "../audio/56-5-fem.mp3",
		"response": " ",
		"word": "agência",
		"trial_type": "audio-keyboard-response",
		"trial_index": 399,
		"time_elapsed": 1039470,
		"internal_node_id": "0.0-3.0-1.328"
	},
	{
		"rt": 1640,
		"stimulus": "../audio/56-6-fem.mp3",
		"response": " ",
		"word": "bancária",
		"trial_type": "audio-keyboard-response",
		"trial_index": 400,
		"time_elapsed": 1041390,
		"internal_node_id": "0.0-3.0-1.329"
	},
	{
		"rt": 1320,
		"stimulus": "../audio/56-7-fem.mp3",
		"response": " ",
		"word": "ontem",
		"trial_type": "audio-keyboard-response",
		"trial_index": 401,
		"time_elapsed": 1042990,
		"internal_node_id": "0.0-3.0-1.330"
	},
	{
		"rt": 1309,
		"stimulus": "../audio/56-8-fem.mp3",
		"response": " ",
		"word": "de",
		"trial_type": "audio-keyboard-response",
		"trial_index": 402,
		"time_elapsed": 1044590,
		"internal_node_id": "0.0-3.0-1.331"
	},
	{
		"rt": 1600,
		"stimulus": "../audio/56-9-fem.mp3",
		"response": " ",
		"word": "tarde.",
		"trial_type": "audio-keyboard-response",
		"trial_index": 403,
		"time_elapsed": 1046463,
		"internal_node_id": "0.0-3.0-1.332"
	},
	{
		"rt": null,
		"stimulus": "<span style= \"font-size:30px; font-family: monospace\">+</span>",
		"response": null,
		"trial_part": "fixation",
		"trial_type": "html-keyboard-response",
		"trial_index": 404,
		"time_elapsed": 1047735,
		"internal_node_id": "0.0-3.0-0.333-0.333"
	},
	{
		"rt": 589,
		"stimulus": "../audio/57-1-fem.mp3",
		"response": " ",
		"word": "O",
		"trial_type": "audio-keyboard-response",
		"trial_index": 405,
		"time_elapsed": 1048606,
		"internal_node_id": "0.0-3.0-1.333"
	},
	{
		"rt": 2080,
		"stimulus": "../audio/57-2-fem.mp3",
		"response": " ",
		"word": "capitão",
		"trial_type": "audio-keyboard-response",
		"trial_index": 406,
		"time_elapsed": 1050958,
		"internal_node_id": "0.0-3.0-1.334"
	},
	{
		"rt": 1741,
		"stimulus": "../audio/57-3-fem.mp3",
		"response": " ",
		"word": "deu",
		"trial_type": "audio-keyboard-response",
		"trial_index": 407,
		"time_elapsed": 1052974,
		"internal_node_id": "0.0-3.0-1.335"
	},
	{
		"rt": 1360,
		"stimulus": "../audio/57-4-fem.mp3",
		"response": " ",
		"word": "uma",
		"trial_type": "audio-keyboard-response",
		"trial_index": 408,
		"time_elapsed": 1054606,
		"internal_node_id": "0.0-3.0-1.336"
	},
	{
		"rt": 1680,
		"stimulus": "../audio/57-5-fem.mp3",
		"response": " ",
		"word": "instrução",
		"trial_type": "audio-keyboard-response",
		"trial_index": 409,
		"time_elapsed": 1056575,
		"internal_node_id": "0.0-3.0-1.337"
	},
	{
		"rt": 1272,
		"stimulus": "../audio/57-6-fem.mp3",
		"response": " ",
		"word": "para",
		"trial_type": "audio-keyboard-response",
		"trial_index": 410,
		"time_elapsed": 1058142,
		"internal_node_id": "0.0-3.0-1.338"
	},
	{
		"rt": 1320,
		"stimulus": "../audio/57-7-fem.mp3",
		"response": " ",
		"word": "as",
		"trial_type": "audio-keyboard-response",
		"trial_index": 411,
		"time_elapsed": 1059742,
		"internal_node_id": "0.0-3.0-1.339"
	},
	{
		"rt": 1600,
		"stimulus": "../audio/57-8-fem.mp3",
		"response": " ",
		"word": "pessoas.",
		"trial_type": "audio-keyboard-response",
		"trial_index": 412,
		"time_elapsed": 1061646,
		"internal_node_id": "0.0-3.0-1.340"
	},
	{
		"rt": null,
		"stimulus": "<span style= \"font-size:30px; font-family: monospace\">+</span>",
		"response": null,
		"trial_part": "fixation",
		"trial_type": "html-keyboard-response",
		"trial_index": 413,
		"time_elapsed": 1062909,
		"internal_node_id": "0.0-3.0-0.341-0.341"
	},
	{
		"rt": 1312,
		"stimulus": "../audio/60-1-fem.mp3",
		"response": " ",
		"word": "Ondas",
		"trial_type": "audio-keyboard-response",
		"trial_index": 414,
		"time_elapsed": 1064494,
		"internal_node_id": "0.0-3.0-1.341"
	},
	{
		"rt": 1371,
		"stimulus": "../audio/60-2-fem.mp3",
		"response": " ",
		"word": "têm",
		"trial_type": "audio-keyboard-response",
		"trial_index": 415,
		"time_elapsed": 1066142,
		"internal_node_id": "0.0-3.0-1.342"
	},
	{
		"rt": 1160,
		"stimulus": "../audio/60-3-fem.mp3",
		"response": " ",
		"word": "um",
		"trial_type": "audio-keyboard-response",
		"trial_index": 416,
		"time_elapsed": 1067566,
		"internal_node_id": "0.0-3.0-1.343"
	},
	{
		"rt": 1789,
		"stimulus": "../audio/60-4-fem.mp3",
		"response": " ",
		"word": "impacto",
		"trial_type": "audio-keyboard-response",
		"trial_index": 417,
		"time_elapsed": 1069630,
		"internal_node_id": "0.0-3.0-1.344"
	},
	{
		"rt": 1931,
		"stimulus": "../audio/60-5-fem.mp3",
		"response": " ",
		"word": "destrutivo",
		"trial_type": "audio-keyboard-response",
		"trial_index": 418,
		"time_elapsed": 1071886,
		"internal_node_id": "0.0-3.0-1.345"
	},
	{
		"rt": 1352,
		"stimulus": "../audio/60-6-fem.mp3",
		"response": " ",
		"word": "no",
		"trial_type": "audio-keyboard-response",
		"trial_index": 419,
		"time_elapsed": 1073534,
		"internal_node_id": "0.0-3.0-1.346"
	},
	{
		"rt": 1520,
		"stimulus": "../audio/60-7-fem.mp3",
		"response": " ",
		"word": "litoral.",
		"trial_type": "audio-keyboard-response",
		"trial_index": 420,
		"time_elapsed": 1075342,
		"internal_node_id": "0.0-3.0-1.347"
	},
	{
		"rt": 36038,
		"stimulus": "<span style=\"font-size:25px; font-family: monospace\">Ondas têm um impacto destrutivo?</span>",
		"response": "n",
		"question": "Ondas têm um impacto destrutivo?",
		"answer": "null",
		"trial": "exp-sent",
		"trial_type": "html-keyboard-response",
