[
	{
		"view_history": [
			{
				"page_index": 0,
				"viewing_time": 5287
			}
		],
		"rt": 5288,
		"trial_type": "instructions",
		"trial_index": 0,
		"time_elapsed": 5289,
		"internal_node_id": "0.0-0.0"
	},
	{
		"rt": 526365,
		"response": {
			"reading_habits_printed_magazines": "Alguns dias da semana",
			"reading_habits_printed_newspapers": "Raramente",
			"reading_habits_books": "Raramente",
			"reading_habits_printed_socialmedias": "Uma vez por semana"
		},
		"question_order": [
			0,
			1,
			2,
			3
		],
		"trial_type": "survey-multi-choice",
		"trial_index": 1,
		"time_elapsed": 531768,
		"internal_node_id": "0.0-1.0"
	},
	{
		"rt": 212816,
		"response": {
			"reading_habits_virtual_magazines": "Alguns dias da semana",
			"reading_habits_virtual_newspapers": "Raramente",
			"reading_habits_books": "Alguns dias da semana",
			"reading_habits_virtual_socialmedias": "Alguns dias da semana"
		},
		"question_order": [
			0,
			1,
			2,
			3
		],
		"trial_type": "survey-multi-choice",
		"trial_index": 2,
		"time_elapsed": 744687,
		"internal_node_id": "0.0-2.0"
	},
	{
		"rt": 188673,
		"response": {
			"reading_habits_other_which": "A BIBLIA",
			"reading_habits_other_frequency": "LEA"
		},
		"trial_type": "survey-text",
		"trial_index": 3,
		"time_elapsed": 933463,
		"internal_node_id": "0.0-3.0"
	}
]