"view_history","rt","trial_type","trial_index","time_elapsed","internal_node_id","stimulus","response","portuguese","kreyol"
"[{""page_index"":0,""viewing_time"":40380}]","40380","instructions","0","40382","0.0-0.0","","","",""
"","null","html-keyboard-response","1","40984","0.0-1.0-0.0","+","null","",""
"","24691","audio-keyboard-response","2","65821","0.0-1.0-1.0","../audio/teste-vocab--14.mp3","n","ler","li"
"","null","html-keyboard-response","3","66324","0.0-1.0-0.1","+","null","",""
"","76611","audio-keyboard-response","4","142956","0.0-1.0-1.1","../audio/teste-vocab--40.mp3","n","bebida","bwason"
"","null","html-keyboard-response","5","143458","0.0-1.0-0.2","+","null","",""
"","21","audio-keyboard-response","6","143772","0.0-1.0-1.2","../audio/teste-vocab--30.mp3","n","pintor","pent"
"","null","html-keyboard-response","7","144293","0.0-1.0-0.3","+","null","",""
"","229","audio-keyboard-response","8","144540","0.0-1.0-1.3","../audio/teste-vocab--125.mp3","n","lamaçal","labou"
"","null","html-keyboard-response","9","145054","0.0-1.0-0.4","+","null","",""
"","25851","audio-keyboard-response","10","170924","0.0-1.0-1.4","../audio/teste-vocab--128.mp3","s","incisivo","ensisiv"
"","null","html-keyboard-response","11","171444","0.0-1.0-0.5","+","null","",""
"","6059","audio-keyboard-response","12","177533","0.0-1.0-1.5","../audio/teste-vocab--94.mp3","s","paralelo","paralèl"
"","null","html-keyboard-response","13","178034","0.0-1.0-0.6","+","null","",""
"","10240","audio-keyboard-response","14","188284","0.0-1.0-1.6","../audio/teste-vocab--61.mp3","s","iluminação","iliminasyon"
"","null","html-keyboard-response","15","188803","0.0-1.0-0.7","+","null","",""
"","4459","audio-keyboard-response","16","193292","0.0-1.0-1.7","../audio/teste-vocab--65.mp3","s","discussão","diskisyon"
"","null","html-keyboard-response","17","193793","0.0-1.0-0.8","+","null","",""
"","3139","audio-keyboard-response","18","196956","0.0-1.0-1.8","../audio/teste-vocab--120.mp3","s","induzir","pwovoke"
"","null","html-keyboard-response","19","197463","0.0-1.0-0.9","+","null","",""
"","2440","audio-keyboard-response","20","199916","0.0-1.0-1.9","../audio/teste-vocab--82.mp3","s","roer","ronje"
"","null","html-keyboard-response","21","200423","0.0-1.0-0.10","+","null","",""
"","2131","audio-keyboard-response","22","202572","0.0-1.0-1.10","../audio/teste-vocab--126.mp3","s","ambulante","promennen"
"","null","html-keyboard-response","23","203083","0.0-1.0-0.11","+","null","",""
"","1920","audio-keyboard-response","24","205020","0.0-1.0-1.11","../audio/teste-vocab--130.mp3","s","gentil","dou"
"","null","html-keyboard-response","25","205534","0.0-1.0-0.12","+","null","",""
"","2021","audio-keyboard-response","26","207580","0.0-1.0-1.12","../audio/teste-vocab--31.mp3","s","vazio","vid"
"","null","html-keyboard-response","27","208083","0.0-1.0-0.13","+","null","",""
"","2229","audio-keyboard-response","28","210332","0.0-1.0-1.13","../audio/teste-vocab--47.mp3","s","envelope","anvlope"
"","null","html-keyboard-response","29","210833","0.0-1.0-0.14","+","null","",""
"","2080","audio-keyboard-response","30","212940","0.0-1.0-1.14","../audio/teste-vocab--51.mp3","s","recolher","kolekte"
"","null","html-keyboard-response","31","213453","0.0-1.0-0.15","+","null","",""
"","2120","audio-keyboard-response","32","215596","0.0-1.0-1.15","../audio/teste-vocab--85.mp3","s","trio","trio"
"","null","html-keyboard-response","33","216113","0.0-1.0-0.16","+","null","",""
"","2760","audio-keyboard-response","34","218892","0.0-1.0-1.16","../audio/teste-vocab--81.mp3","s","judicial","jidisyè"
"","null","html-keyboard-response","35","219393","0.0-1.0-0.17","+","null","",""
"","2240","audio-keyboard-response","36","221660","0.0-1.0-1.17","../audio/teste-vocab--50.mp3","s","artista","atis"
"","null","html-keyboard-response","37","222163","0.0-1.0-0.18","+","null","",""
"","2539","audio-keyboard-response","38","224732","0.0-1.0-1.18","../audio/teste-vocab--75.mp3","s","carpinteiro","chapantye"
"","null","html-keyboard-response","39","225233","0.0-1.0-0.19","+","null","",""
"","2131","audio-keyboard-response","40","227388","0.0-1.0-1.19","../audio/teste-vocab--83.mp3","s","morsa","mòs"
"","null","html-keyboard-response","41","227893","0.0-1.0-0.20","+","null","",""
"","3971","audio-keyboard-response","42","231884","0.0-1.0-1.20","../audio/teste-vocab--89.mp3","s","classificar","klasifika"
"","null","html-keyboard-response","43","232403","0.0-1.0-0.21","+","null","",""
"","1789","audio-keyboard-response","44","234220","0.0-1.0-1.21","../audio/teste-vocab--16.mp3","s","pescoço","kou"
"","null","html-keyboard-response","45","234733","0.0-1.0-0.22","+","null","",""
"","2288","audio-keyboard-response","46","237036","0.0-1.0-1.22","../audio/teste-vocab--22.mp3","s","quebrado","kraze"
"","null","html-keyboard-response","47","237543","0.0-1.0-0.23","+","null","",""
"","2080","audio-keyboard-response","48","239644","0.0-1.0-1.23","../audio/teste-vocab--64.mp3","s","colher","kiyè"
"","null","html-keyboard-response","49","240163","0.0-1.0-0.24","+","null","",""
"","2560","audio-keyboard-response","50","242748","0.0-1.0-1.24","../audio/teste-vocab--100.mp3","s","consumir","konsome"
"","null","html-keyboard-response","51","243253","0.0-1.0-0.25","+","null","",""
"","3021","audio-keyboard-response","52","246293","0.0-1.0-1.25","../audio/teste-vocab--113.mp3","s","ascender","limen"
"","null","html-keyboard-response","53","246806","0.0-1.0-0.26","+","null","",""
"","2909","audio-keyboard-response","54","249733","0.0-1.0-1.26","../audio/teste-vocab--92.mp3","s","esférico","won"
"","null","html-keyboard-response","55","250246","0.0-1.0-0.27","+","null","",""
"","4171","audio-keyboard-response","56","254437","0.0-1.0-1.27","../audio/teste-vocab--118.mp3","s","paralelogramo","paralelogram"
"","null","html-keyboard-response","57","254946","0.0-1.0-0.28","+","null","",""
"","3251","audio-keyboard-response","58","258213","0.0-1.0-1.28","../audio/teste-vocab--46.mp3","s","ombro","zepòl"
"","null","html-keyboard-response","59","258726","0.0-1.0-0.29","+","null","",""
"","3592","audio-keyboard-response","60","262341","0.0-1.0-1.29","../audio/teste-vocab--101.mp3","n","incandescente","enkandesan"
"","null","html-keyboard-response","61","262846","0.0-1.0-0.30","+","null","",""
"","2331","audio-keyboard-response","62","265205","0.0-1.0-1.30","../audio/teste-vocab--56.mp3","s","agricultura","agrikilti"
"","null","html-keyboard-response","63","265726","0.0-1.0-0.31","+","null","",""
"","2320","audio-keyboard-response","64","268069","0.0-1.0-1.31","../audio/teste-vocab--32.mp3","s","descascar","dekale"
"","null","html-keyboard-response","65","268576","0.0-1.0-0.32","+","null","",""
"","3741","audio-keyboard-response","66","272341","0.0-1.0-1.32","../audio/teste-vocab--74.mp3","n","desilusão","dezilizyon"
"","null","html-keyboard-response","67","272855","0.0-1.0-0.33","+","null","",""
"","2541","audio-keyboard-response","68","275413","0.0-1.0-1.33","../audio/teste-vocab--93.mp3","s","felino","leopa"
"","null","html-keyboard-response","69","275926","0.0-1.0-0.34","+","null","",""
"","2552","audio-keyboard-response","70","278500","0.0-1.0-1.34","../audio/teste-vocab--122.mp3","s","transeunte","pasajè"
"","null","html-keyboard-response","71","279006","0.0-1.0-0.35","+","null","",""
"","2069","audio-keyboard-response","72","281093","0.0-1.0-1.35","../audio/teste-vocab--123.mp3","s","emissão","emisyon"
"","null","html-keyboard-response","73","281606","0.0-1.0-0.36","+","null","",""
"","2392","audio-keyboard-response","74","284021","0.0-1.0-1.36","../audio/teste-vocab--06.mp3","s","barco","bato"
"","null","html-keyboard-response","75","284526","0.0-1.0-0.37","+","null","",""
"","3261","audio-keyboard-response","76","287813","0.0-1.0-1.37","../audio/teste-vocab--70.mp3","s","funil","antónwa"
"","null","html-keyboard-response","77","288326","0.0-1.0-0.38","+","null","",""
"","2320","audio-keyboard-response","78","290677","0.0-1.0-1.38","../audio/teste-vocab--105.mp3","n","cítrico","sitrik"
"","null","html-keyboard-response","79","291196","0.0-1.0-0.39","+","null","",""
"","1989","audio-keyboard-response","80","293205","0.0-1.0-1.39","../audio/teste-vocab--57.mp3","s","raiz","rasin"
"","null","html-keyboard-response","81","293706","0.0-1.0-0.40","+","null","",""
"","1819","audio-keyboard-response","82","295557","0.0-1.0-1.40","../audio/teste-vocab--11.mp3","s","joelho","jenou"
"","null","html-keyboard-response","83","296076","0.0-1.0-0.41","+","null","",""
"","2040","audio-keyboard-response","84","298133","0.0-1.0-1.41","../audio/teste-vocab--54.mp3","s","arbusto","raje"
"","null","html-keyboard-response","85","298636","0.0-1.0-0.42","+","null","",""
"","1808","audio-keyboard-response","86","300469","0.0-1.0-1.42","../audio/teste-vocab--104.mp3","s","ira","pwal"
"","null","html-keyboard-response","87","300976","0.0-1.0-0.43","+","null","",""
"","2589","audio-keyboard-response","88","303589","0.0-1.0-1.43","../audio/teste-vocab--66.mp3","s","cooperação","koperasyon"
"","null","html-keyboard-response","89","304096","0.0-1.0-0.44","+","null","",""
"","2221","audio-keyboard-response","90","306343","0.0-1.0-1.44","../audio/teste-vocab--69.mp3","s","pingar","degoute"
"","null","html-keyboard-response","91","306859","0.0-1.0-0.45","+","null","",""
"","1800","audio-keyboard-response","92","308680","0.0-1.0-1.45","../audio/teste-vocab--108.mp3","s","moradia","kay"
"","null","html-keyboard-response","93","309199","0.0-1.0-0.46","+","null","",""
"","1869","audio-keyboard-response","94","311095","0.0-1.0-1.46","../audio/teste-vocab--49.mp3","s","humano","moun"
"","null","html-keyboard-response","95","311609","0.0-1.0-0.47","+","null","",""
"","2179","audio-keyboard-response","96","313799","0.0-1.0-1.47","../audio/teste-vocab--53.mp3","s","orientar","oryante"
"","null","html-keyboard-response","97","314309","0.0-1.0-0.48","+","null","",""
"","2309","audio-keyboard-response","98","316647","0.0-1.0-1.48","../audio/teste-vocab--90.mp3","s","carniça","kanivò"
"","null","html-keyboard-response","99","317159","0.0-1.0-0.49","+","null","",""
"","2371","audio-keyboard-response","100","319544","0.0-1.0-1.49","../audio/teste-vocab--60.mp3","s","secretaria","sekretè"
"","null","html-keyboard-response","101","320059","0.0-1.0-0.50","+","null","",""
"","2160","audio-keyboard-response","102","322231","0.0-1.0-1.50","../audio/teste-vocab--58.mp3","s","nutritivo","nourisan"
"","null","html-keyboard-response","103","322738","0.0-1.0-0.51","+","null","",""
"","2480","audio-keyboard-response","104","325239","0.0-1.0-1.51","../audio/teste-vocab--96.mp3","s","árido","sechrès"
"","null","html-keyboard-response","105","325758","0.0-1.0-0.52","+","null","",""
"","2149","audio-keyboard-response","106","327927","0.0-1.0-1.52","../audio/teste-vocab--05.mp3","s","limpar","netwaye"
"","null","html-keyboard-response","107","328448","0.0-1.0-0.53","+","null","",""
"","2061","audio-keyboard-response","108","330536","0.0-1.0-1.53","../audio/teste-vocab--110.mp3","s","prodígio","pwodij"
"","null","html-keyboard-response","109","331048","0.0-1.0-0.54","+","null","",""
"","1960","audio-keyboard-response","110","333031","0.0-1.0-1.54","../audio/teste-vocab--84.mp3","s","confiar","konfye"
"","null","html-keyboard-response","111","333538","0.0-1.0-0.55","+","null","",""
"","1960","audio-keyboard-response","112","335527","0.0-1.0-1.55","../audio/teste-vocab--68.mp3","s","surpreendido","sezi"
"","null","html-keyboard-response","113","336028","0.0-1.0-0.56","+","null","",""
"","1840","audio-keyboard-response","114","337895","0.0-1.0-1.56","../audio/teste-vocab--02.mp3","s","homem","gason"
"","null","html-keyboard-response","115","338399","0.0-1.0-0.57","+","null","",""
"","2400","audio-keyboard-response","116","340824","0.0-1.0-1.57","../audio/teste-vocab--28.mp3","n","águia","èg"
"","null","html-keyboard-response","117","341329","0.0-1.0-0.58","+","null","",""
"","2120","audio-keyboard-response","118","343463","0.0-1.0-1.58","../audio/teste-vocab--35.mp3","s","líquido","likid"
"","null","html-keyboard-response","119","343979","0.0-1.0-0.59","+","null","",""
"","2931","audio-keyboard-response","120","346935","0.0-1.0-1.59","../audio/teste-vocab--25.mp3","n","canguru","kanguwou"
"","null","html-keyboard-response","121","347448","0.0-1.0-0.60","+","null","",""
"","1971","audio-keyboard-response","122","349447","0.0-1.0-1.60","../audio/teste-vocab--45.mp3","s","dentista","dantis"
"","null","html-keyboard-response","123","349958","0.0-1.0-0.61","+","null","",""
"","1939","audio-keyboard-response","124","351927","0.0-1.0-1.61","../audio/teste-vocab--86.mp3","s","pensar","panse"
"","null","html-keyboard-response","125","352428","0.0-1.0-0.62","+","null","",""
"","2560","audio-keyboard-response","126","355015","0.0-1.0-1.62","../audio/teste-vocab--43.mp3","s","mecânico","mekanisyen"
"","null","html-keyboard-response","127","355528","0.0-1.0-0.63","+","null","",""
"","2160","audio-keyboard-response","128","357719","0.0-1.0-1.63","../audio/teste-vocab--119.mp3","s","numeroso","anpil"
"","null","html-keyboard-response","129","358228","0.0-1.0-0.64","+","null","",""
"","2411","audio-keyboard-response","130","360663","0.0-1.0-1.64","../audio/teste-vocab--62.mp3","n","carretel","bobin"
"","null","html-keyboard-response","131","361178","0.0-1.0-0.65","+","null","",""
"","2400","audio-keyboard-response","132","363608","0.0-1.0-1.65","../audio/teste-vocab--129.mp3","n","elipse","elips"
"","null","html-keyboard-response","133","364108","0.0-1.0-0.66","+","null","",""
"","2280","audio-keyboard-response","134","366403","0.0-1.0-1.66","../audio/teste-vocab--42.mp3","n","isolamento","izòlman"
"","null","html-keyboard-response","135","366904","0.0-1.0-0.67","+","null","",""
"","1869","audio-keyboard-response","136","368787","0.0-1.0-1.67","../audio/teste-vocab--114.mp3","s","fragmentar","dechire"
"","null","html-keyboard-response","137","369294","0.0-1.0-0.68","+","null","",""
"","1920","audio-keyboard-response","138","371235","0.0-1.0-1.68","../audio/teste-vocab--106.mp3","s","lubrificar","grese"
"","null","html-keyboard-response","139","371754","0.0-1.0-0.69","+","null","",""
"","1829","audio-keyboard-response","140","373603","0.0-1.0-1.69","../audio/teste-vocab--41.mp3","s","médico","doktè,"
"","null","html-keyboard-response","141","374104","0.0-1.0-0.70","+","null","",""
"","1600","audio-keyboard-response","142","375731","0.0-1.0-1.70","../audio/teste-vocab--04.mp3","s","roda","wonn"
"","null","html-keyboard-response","143","376234","0.0-1.0-0.71","+","null","",""
"","2029","audio-keyboard-response","144","378275","0.0-1.0-1.71","../audio/teste-vocab--36.mp3","s","grupo","gwoup"
"","null","html-keyboard-response","145","378794","0.0-1.0-0.72","+","null","",""
"","1739","audio-keyboard-response","146","380563","0.0-1.0-1.72","../audio/teste-vocab--48.mp3","s","joia","bijou"
"","null","html-keyboard-response","147","381074","0.0-1.0-0.73","+","null","",""
"","2000","audio-keyboard-response","148","383091","0.0-1.0-1.73","../audio/teste-vocab--97.mp3","s","frágil","frajil"
"","null","html-keyboard-response","149","383604","0.0-1.0-0.74","+","null","",""
"","2840","audio-keyboard-response","150","386467","0.0-1.0-1.74","../audio/teste-vocab--111.mp3","s","jubilosa","rejwisans"
"","null","html-keyboard-response","151","386972","0.0-1.0-0.75","+","null","",""
"","2389","audio-keyboard-response","152","389395","0.0-1.0-1.75","../audio/teste-vocab--72.mp3","s","ilha","zile"
"","null","html-keyboard-response","153","389904","0.0-1.0-0.76","+","null","",""
"","2389","audio-keyboard-response","154","392307","0.0-1.0-1.76","../audio/teste-vocab--99.mp3","n","arqueólogo","akeyológ"
"","null","html-keyboard-response","155","392824","0.0-1.0-0.77","+","null","",""
"","1491","audio-keyboard-response","156","394339","0.0-1.0-1.77","../audio/teste-vocab--59.mp3","s","par","pè"
"","null","html-keyboard-response","157","394844","0.0-1.0-0.78","+","null","",""
"","2701","audio-keyboard-response","158","397571","0.0-1.0-1.78","../audio/teste-vocab--112.mp3","s","aparição","aparisyon"
"","null","html-keyboard-response","159","398074","0.0-1.0-0.79","+","null","",""
"","2139","audio-keyboard-response","160","400243","0.0-1.0-1.79","../audio/teste-vocab--88.mp3","s","portátil","pòtab"
"","null","html-keyboard-response","161","400754","0.0-1.0-0.80","+","null","",""
"","2360","audio-keyboard-response","162","403139","0.0-1.0-1.80","../audio/teste-vocab--71.mp3","n","caule","tij"
"","null","html-keyboard-response","163","403644","0.0-1.0-0.81","+","null","",""
"","1771","audio-keyboard-response","164","405443","0.0-1.0-1.81","../audio/teste-vocab--18.mp3","s","abelha","myèl"
"","null","html-keyboard-response","165","405954","0.0-1.0-0.82","+","null","",""
"","2248","audio-keyboard-response","166","408227","0.0-1.0-1.82","../audio/teste-vocab--80.mp3","s","binóculo","longvi"
"","null","html-keyboard-response","167","408734","0.0-1.0-0.83","+","null","",""
"","3299","audio-keyboard-response","168","412066","0.0-1.0-1.83","../audio/teste-vocab--115.mp3","s","perpendicular","pèpandikilè"
"","null","html-keyboard-response","169","412574","0.0-1.0-0.84","+","null","",""
"","1901","audio-keyboard-response","170","414498","0.0-1.0-1.84","../audio/teste-vocab--73.mp3","s","ângulo","ang"
"","null","html-keyboard-response","171","415004","0.0-1.0-0.85","+","null","",""
"","2432","audio-keyboard-response","172","417459","0.0-1.0-1.85","../audio/teste-vocab--27.mp3","s","rio","rivyè"
"","null","html-keyboard-response","173","417974","0.0-1.0-0.86","+","null","",""
"","2080","audio-keyboard-response","174","420083","0.0-1.0-1.86","../audio/teste-vocab--102.mp3","s","arrogante","arogan"
"","null","html-keyboard-response","175","420600","0.0-1.0-0.87","+","null","",""
"","1779","audio-keyboard-response","176","422403","0.0-1.0-1.87","../audio/teste-vocab--12.mp3","s","jaula","kaj"
"","null","html-keyboard-response","177","422904","0.0-1.0-0.88","+","null","",""
"","2059","audio-keyboard-response","178","424995","0.0-1.0-1.88","../audio/teste-vocab--79.mp3","s","moldura"," chanbranl"
"","null","html-keyboard-response","179","425504","0.0-1.0-0.89","+","null","",""
"","2080","audio-keyboard-response","180","427603","0.0-1.0-1.89","../audio/teste-vocab--95.mp3","s","submergir","plonje"
"","null","html-keyboard-response","181","428104","0.0-1.0-0.90","+","null","",""
"","1971","audio-keyboard-response","182","430099","0.0-1.0-1.90","../audio/teste-vocab--13.mp3","s","ambulância","anbilans"
"","null","html-keyboard-response","183","430604","0.0-1.0-0.91","+","null","",""
"","1792","audio-keyboard-response","184","432419","0.0-1.0-1.91","../audio/teste-vocab--33.mp3","s","uniforme","inifòm"
"","null","html-keyboard-response","185","432924","0.0-1.0-0.92","+","null","",""
"","1821","audio-keyboard-response","186","434771","0.0-1.0-1.92","../audio/teste-vocab--24.mp3","s","acidente","aksidan"
"","null","html-keyboard-response","187","435274","0.0-1.0-0.93","+","null","",""
"","2120","audio-keyboard-response","188","437411","0.0-1.0-1.93","../audio/teste-vocab--37.mp3","s","músico","mizisyen"
"","null","html-keyboard-response","189","437914","0.0-1.0-0.94","+","null","",""
"","1440","audio-keyboard-response","190","439379","0.0-1.0-1.94","../audio/teste-vocab--15.mp3","s","flecha","flèch"
"","null","html-keyboard-response","191","439885","0.0-1.0-0.95","+","null","",""
"","1699","audio-keyboard-response","192","441603","0.0-1.0-1.95","../audio/teste-vocab--121.mp3","s","atônito","sezi"
"","null","html-keyboard-response","193","442104","0.0-1.0-0.96","+","null","",""
"","1771","audio-keyboard-response","194","443891","0.0-1.0-1.96","../audio/teste-vocab--91.mp3","s","bússola","bousòl"
"","null","html-keyboard-response","195","444404","0.0-1.0-0.97","+","null","",""
"","1960","audio-keyboard-response","196","446387","0.0-1.0-1.97","../audio/teste-vocab--23.mp3","s","acariciar","karese"
"","null","html-keyboard-response","197","446905","0.0-1.0-0.98","+","null","",""
"","1869","audio-keyboard-response","198","448803","0.0-1.0-1.98","../audio/teste-vocab--124.mp3","s","obelisco","obelisk"
"","null","html-keyboard-response","199","449304","0.0-1.0-0.99","+","null","",""
"","1579","audio-keyboard-response","200","450915","0.0-1.0-1.99","../audio/teste-vocab--67.mp3","s","corrimão","ranp"
"","null","html-keyboard-response","201","451424","0.0-1.0-0.100","+","null","",""
"","2040","audio-keyboard-response","202","453491","0.0-1.0-1.100","../audio/teste-vocab--38.mp3","s","cerimônia","seremoni"
"","null","html-keyboard-response","203","454004","0.0-1.0-0.101","+","null","",""
"","1832","audio-keyboard-response","204","455859","0.0-1.0-1.101","../audio/teste-vocab--29.mp3","s","rasgar","chire"
"","null","html-keyboard-response","205","456374","0.0-1.0-0.102","+","null","",""
"","1640","audio-keyboard-response","206","458035","0.0-1.0-1.102","../audio/teste-vocab--19.mp3","s","hora","è"
"","null","html-keyboard-response","207","458544","0.0-1.0-0.103","+","null","",""
"","2629","audio-keyboard-response","208","461203","0.0-1.0-1.103","../audio/teste-vocab--103.mp3","n","utensílio","istansil"
"","null","html-keyboard-response","209","461704","0.0-1.0-0.104","+","null","",""
"","1611","audio-keyboard-response","210","463331","0.0-1.0-1.104","../audio/teste-vocab--08.mp3","s","vaca","vach"
"","null","html-keyboard-response","211","463844","0.0-1.0-0.105","+","null","",""
"","1789","audio-keyboard-response","212","465651","0.0-1.0-1.105","../audio/teste-vocab--55.mp3","s","bosque","forè"
"","null","html-keyboard-response","213","466154","0.0-1.0-0.106","+","null","",""
"","1949","audio-keyboard-response","214","468131","0.0-1.0-1.106","../audio/teste-vocab--09.mp3","s","vela","bouji"
"","null","html-keyboard-response","215","468642","0.0-1.0-0.107","+","null","",""
"","1891","audio-keyboard-response","216","470563","0.0-1.0-1.107","../audio/teste-vocab--107.mp3","s","elo","emay"
"","null","html-keyboard-response","217","471074","0.0-1.0-0.108","+","null","",""
"","1499","audio-keyboard-response","218","472595","0.0-1.0-1.108","../audio/teste-vocab--117.mp3","s","córnea","kòn"
"","null","html-keyboard-response","219","473104","0.0-1.0-0.109","+","null","",""
"","2339","audio-keyboard-response","220","475475","0.0-1.0-1.109","../audio/teste-vocab--63.mp3","s","transparente","transparan"
"","null","html-keyboard-response","221","475994","0.0-1.0-0.110","+","null","",""
"","2368","audio-keyboard-response","222","478387","0.0-1.0-1.110","../audio/teste-vocab--116.mp3","n","vestuário","vestyè"
"","null","html-keyboard-response","223","478894","0.0-1.0-0.111","+","null","",""
"","2189","audio-keyboard-response","224","481107","0.0-1.0-1.111","../audio/teste-vocab--01.mp3","s","boneca","pope"
"","null","html-keyboard-response","225","481624","0.0-1.0-0.112","+","null","",""
"","2408","audio-keyboard-response","226","484067","0.0-1.0-1.112","../audio/teste-vocab--44.mp3","s","premiar","rekonpanse"
"","null","html-keyboard-response","227","484574","0.0-1.0-0.113","+","null","",""
"","1629","audio-keyboard-response","228","486227","0.0-1.0-1.113","../audio/teste-vocab--34.mp3","s","tronco","twon"
"","null","html-keyboard-response","229","486734","0.0-1.0-0.114","+","null","",""
"","1371","audio-keyboard-response","230","488123","0.0-1.0-1.114","../audio/teste-vocab--10.mp3","s","corneta","kòn"
"","null","html-keyboard-response","231","488632","0.0-1.0-0.115","+","null","",""
"","1360","audio-keyboard-response","232","490011","0.0-1.0-1.115","../audio/teste-vocab--07.mp3","s","abajur","lanp"
"","null","html-keyboard-response","233","490532","0.0-1.0-0.116","+","null","",""
"","2379","audio-keyboard-response","234","492923","0.0-1.0-1.116","../audio/teste-vocab--109.mp3","s","anfíbio","anfibyen"
"","null","html-keyboard-response","235","493432","0.0-1.0-0.117","+","null","",""
"","2011","audio-keyboard-response","236","495467","0.0-1.0-1.117","../audio/teste-vocab--127.mp3","s","côncavo","konkav"
"","null","html-keyboard-response","237","495982","0.0-1.0-0.118","+","null","",""
"","2280","audio-keyboard-response","238","498283","0.0-1.0-1.118","../audio/teste-vocab--52.mp3","s","construção","konstriksyon"
"","null","html-keyboard-response","239","498802","0.0-1.0-0.119","+","null","",""
"","1819","audio-keyboard-response","240","500635","0.0-1.0-1.119","../audio/teste-vocab--26.mp3","s","cotovelo","koud"
"","null","html-keyboard-response","241","501142","0.0-1.0-0.120","+","null","",""
"","2251","audio-keyboard-response","242","503419","0.0-1.0-1.120","../audio/teste-vocab--76.mp3","s","arquivar","achive"
"","null","html-keyboard-response","243","503932","0.0-1.0-0.121","+","null","",""
"","1861","audio-keyboard-response","244","505819","0.0-1.0-1.121","../audio/teste-vocab--77.mp3","s","comércio","komès"
"","null","html-keyboard-response","245","506332","0.0-1.0-0.122","+","null","",""
"","1992","audio-keyboard-response","246","508347","0.0-1.0-1.122","../audio/teste-vocab--98.mp3","s","instruir","enstwi"
"","null","html-keyboard-response","247","508852","0.0-1.0-0.123","+","null","",""
"","1891","audio-keyboard-response","248","510763","0.0-1.0-1.123","../audio/teste-vocab--03.mp3","s","balançar","balanse"
"","null","html-keyboard-response","249","511282","0.0-1.0-0.124","+","null","",""
"","4099","audio-keyboard-response","250","515403","0.0-1.0-1.124","../audio/teste-vocab--78.mp3","n","quarteto","qwatèt"
"","null","html-keyboard-response","251","515908","0.0-1.0-0.125","+","null","",""
"","2469","audio-keyboard-response","252","518395","0.0-1.0-1.125","../audio/teste-vocab--20.mp3","s","medir","mezire"
"","null","html-keyboard-response","253","518912","0.0-1.0-0.126","+","null","",""
"","2640","audio-keyboard-response","254","521579","0.0-1.0-1.126","../audio/teste-vocab--87.mp3","s","ave","zwazo"
"","null","html-keyboard-response","255","522082","0.0-1.0-0.127","+","null","",""
"","2229","audio-keyboard-response","256","524331","0.0-1.0-1.127","../audio/teste-vocab--17.mp3","s","móvel","mobil"
"","null","html-keyboard-response","257","524832","0.0-1.0-0.128","+","null","",""
"","1949","audio-keyboard-response","258","526811","0.0-1.0-1.128","../audio/teste-vocab--21.mp3","s","baleia","balèn"
"","null","html-keyboard-response","259","527312","0.0-1.0-0.129","+","null","",""
"","1659","audio-keyboard-response","260","529003","0.0-1.0-1.129","../audio/teste-vocab--39.mp3","s","cobra","koulèv"
