[
	{
		"view_history": [
			{
				"page_index": 0,
				"viewing_time": 56495
			},
			{
				"page_index": 1,
				"viewing_time": 1895
			}
		],
		"rt": 58391,
		"trial_type": "instructions",
		"trial_index": 0,
		"time_elapsed": 58392,
		"internal_node_id": "0.0-0.0"
	},
	{
		"rt": null,
		"stimulus": "<span style= \"font-size:30px; font-family: monospace\">+</span>",
		"response": null,
		"trial_part": "fixation",
		"trial_type": "html-keyboard-response",
		"trial_index": 1,
		"time_elapsed": 59496,
		"internal_node_id": "0.0-1.0-0.0-0.0"
	},
	{
		"rt": 3731,
		"stimulus": "../audio/prac-question-1-1.mp3",
		"response": " ",
		"word": "O",
		"trial_type": "audio-keyboard-response",
		"trial_index": 2,
		"time_elapsed": 63616,
		"internal_node_id": "0.0-1.0-1.0"
	},
	{
		"rt": 10789,
		"stimulus": "../audio/prac-question-1-2.mp3",
		"response": " ",
		"word": "dia",
		"trial_type": "audio-keyboard-response",
		"trial_index": 3,
		"time_elapsed": 74688,
		"internal_node_id": "0.0-1.0-1.1"
	},
	{
		"rt": 7952,
		"stimulus": "../audio/prac-question-1-3.mp3",
		"response": " ",
		"word": "estará",
		"trial_type": "audio-keyboard-response",
		"trial_index": 4,
		"time_elapsed": 82912,
		"internal_node_id": "0.0-1.0-1.2"
	},
	{
		"rt": 5920,
		"stimulus": "../audio/prac-question-1-4.mp3",
		"response": " ",
		"word": "cheio",
		"trial_type": "audio-keyboard-response",
		"trial_index": 5,
		"time_elapsed": 89103,
		"internal_node_id": "0.0-1.0-1.3"
	},
	{
		"rt": 4051,
		"stimulus": "../audio/prac-question-1-5.mp3",
		"response": " ",
		"word": "de",
		"trial_type": "audio-keyboard-response",
		"trial_index": 6,
		"time_elapsed": 93424,
		"internal_node_id": "0.0-1.0-1.4"
	},
	{
		"rt": 7389,
		"stimulus": "../audio/prac-question-1-6.mp3",
		"response": " ",
		"word": "nuvens",
		"trial_type": "audio-keyboard-response",
		"trial_index": 7,
		"time_elapsed": 101088,
		"internal_node_id": "0.0-1.0-1.5"
	},
	{
		"rt": 7672,
		"stimulus": "../audio/prac-question-1-7.mp3",
		"response": " ",
		"word": "hoje.",
		"trial_type": "audio-keyboard-response",
		"trial_index": 8,
		"time_elapsed": 109024,
		"internal_node_id": "0.0-1.0-1.6"
	},
	{
		"rt": null,
		"stimulus": "<span style= \"font-size:30px; font-family: monospace\">+</span>",
		"response": null,
		"trial_part": "fixation",
		"trial_type": "html-keyboard-response",
		"trial_index": 9,
		"time_elapsed": 110301,
		"internal_node_id": "0.0-1.0-0.7-0.7"
	},
	{
		"rt": 6149,
		"stimulus": "../audio/prac-question-2-1.mp3",
		"response": " ",
		"word": "A",
		"trial_type": "audio-keyboard-response",
		"trial_index": 10,
		"time_elapsed": 116731,
		"internal_node_id": "0.0-1.0-1.7"
	},
	{
		"rt": 7520,
		"stimulus": "../audio/prac-question-2-2.mp3",
		"response": " ",
		"word": "caneca",
		"trial_type": "audio-keyboard-response",
		"trial_index": 11,
		"time_elapsed": 124523,
		"internal_node_id": "0.0-1.0-1.8"
	},
	{
		"rt": 4141,
		"stimulus": "../audio/prac-question-2-3.mp3",
		"response": " ",
		"word": "colorida",
		"trial_type": "audio-keyboard-response",
		"trial_index": 12,
		"time_elapsed": 128939,
		"internal_node_id": "0.0-1.0-1.9"
	},
	{
		"rt": 5709,
		"stimulus": "../audio/prac-question-2-4.mp3",
		"response": " ",
		"word": "caiu",
		"trial_type": "audio-keyboard-response",
		"trial_index": 13,
		"time_elapsed": 134923,
		"internal_node_id": "0.0-1.0-1.10"
	},
	{
		"rt": 7840,
		"stimulus": "../audio/prac-question-2-5.mp3",
		"response": " ",
		"word": "da",
		"trial_type": "audio-keyboard-response",
		"trial_index": 14,
		"time_elapsed": 143035,
		"internal_node_id": "0.0-1.0-1.11"
	},
	{
		"rt": 4229,
		"stimulus": "../audio/prac-question-2-6.mp3",
		"response": " ",
		"word": "mesa",
		"trial_type": "audio-keyboard-response",
		"trial_index": 15,
		"time_elapsed": 147531,
		"internal_node_id": "0.0-1.0-1.12"
	},
	{
		"rt": 6149,
		"stimulus": "../audio/prac-question-2-7.mp3",
		"response": " ",
		"word": "de",
		"trial_type": "audio-keyboard-response",
		"trial_index": 16,
		"time_elapsed": 153963,
		"internal_node_id": "0.0-1.0-1.13"
	},
	{
		"rt": 3312,
		"stimulus": "../audio/prac-question-2-8.mp3",
		"response": " ",
		"word": "jantar.",
		"trial_type": "audio-keyboard-response",
		"trial_index": 17,
		"time_elapsed": 157547,
		"internal_node_id": "0.0-1.0-1.14"
	},
	{
		"rt": 20273,
		"stimulus": "<span style=\"font-size:25px; font-family: monospace\">A caneca era colorida?</span>",
		"response": "n",
		"question": "A caneca era colorida?",
		"answer": "null",
		"trial": "prac-sent",
		"trial_type": "html-keyboard-response",
		"trial_index": 18,
		"time_elapsed": 178071,
		"internal_node_id": "0.0-1.0-2.14-0.14",
		"accuracy": false
	},
	{
		"view_history": [
			{
				"page_index": 0,
				"viewing_time": 30171
			}
		],
		"rt": 30171,
		"trial_type": "instructions",
		"trial_index": 19,
		"time_elapsed": 208743,
		"internal_node_id": "0.0-2.0"
	},
	{
		"rt": null,
		"stimulus": "<span style= \"font-size:30px; font-family: monospace\">+</span>",
		"response": null,
		"trial_part": "fixation",
		"trial_type": "html-keyboard-response",
		"trial_index": 20,
		"time_elapsed": 209851,
		"internal_node_id": "0.0-3.0-0.0-0.0"
	},
	{
		"rt": 8760,
		"stimulus": "../audio/61-1-masc.mp3",
		"response": " ",
		"word": "Aquele",
		"trial_type": "audio-keyboard-response",
		"trial_index": 21,
		"time_elapsed": 218999,
		"internal_node_id": "0.0-3.0-1.0"
	},
	{
		"rt": 4128,
		"stimulus": "../audio/61-2-masc.mp3",
		"response": " ",
		"word": "senhor",
		"trial_type": "audio-keyboard-response",
		"trial_index": 22,
		"time_elapsed": 223414,
		"internal_node_id": "0.0-3.0-1.1"
	},
	{
		"rt": 3219,
		"stimulus": "../audio/61-3-masc.mp3",
		"response": " ",
		"word": "é",
		"trial_type": "audio-keyboard-response",
		"trial_index": 23,
		"time_elapsed": 226902,
		"internal_node_id": "0.0-3.0-1.2"
	},
	{
		"rt": 4691,
		"stimulus": "../audio/61-4-masc.mp3",
		"response": " ",
		"word": "muito",
		"trial_type": "audio-keyboard-response",
		"trial_index": 24,
		"time_elapsed": 231879,
		"internal_node_id": "0.0-3.0-1.3"
	},
	{
		"rt": 3909,
		"stimulus": "../audio/61-5-masc.mp3",
		"response": " ",
		"word": "sovina",
		"trial_type": "audio-keyboard-response",
		"trial_index": 25,
		"time_elapsed": 236071,
		"internal_node_id": "0.0-3.0-1.4"
	},
	{
		"rt": 5469,
		"stimulus": "../audio/61-6-masc.mp3",
		"response": " ",
		"word": "e",
		"trial_type": "audio-keyboard-response",
		"trial_index": 26,
		"time_elapsed": 241817,
		"internal_node_id": "0.0-3.0-1.5"
	},
	{
		"rt": 3680,
		"stimulus": "../audio/61-7-masc.mp3",
		"response": " ",
		"word": "inflexível.",
		"trial_type": "audio-keyboard-response",
		"trial_index": 27,
		"time_elapsed": 245785,
		"internal_node_id": "0.0-3.0-1.6"
	},
	{
		"rt": null,
		"stimulus": "<span style= \"font-size:30px; font-family: monospace\">+</span>",
		"response": null,
		"trial_part": "fixation",
		"trial_type": "html-keyboard-response",
		"trial_index": 28,
		"time_elapsed": 247051,
		"internal_node_id": "0.0-3.0-0.7-0.7"
	},
	{
		"rt": 3920,
		"stimulus": "../audio/64-1-fem.mp3",
		"response": " ",
		"word": "O",
		"trial_type": "audio-keyboard-response",
		"trial_index": 29,
		"time_elapsed": 251257,
		"internal_node_id": "0.0-3.0-1.7"
	},
	{
		"rt": 4872,
		"stimulus": "../audio/64-2-fem.mp3",
		"response": " ",
		"word": "dia",
		"trial_type": "audio-keyboard-response",
		"trial_index": 30,
		"time_elapsed": 256409,
		"internal_node_id": "0.0-3.0-1.8"
	},
	{
		"rt": 6109,
		"stimulus": "../audio/64-3-fem.mp3",
		"response": " ",
		"word": "começou",
		"trial_type": "audio-keyboard-response",
		"trial_index": 31,
		"time_elapsed": 262793,
		"internal_node_id": "0.0-3.0-1.9"
	},
	{
		"rt": 5091,
		"stimulus": "../audio/64-4-fem.mp3",
		"response": " ",
		"word": "com",
		"trial_type": "audio-keyboard-response",
		"trial_index": 32,
		"time_elapsed": 268153,
		"internal_node_id": "0.0-3.0-1.10"
	},
	{
		"rt": 11128,
		"stimulus": "../audio/64-5-fem.mp3",
		"response": " ",
		"word": "garoa",
		"trial_type": "audio-keyboard-response",
		"trial_index": 33,
		"time_elapsed": 279577,
		"internal_node_id": "0.0-3.0-1.11"
	},
	{
		"rt": 3939,
		"stimulus": "../audio/64-6-fem.mp3",
		"response": " ",
		"word": "gelada",
		"trial_type": "audio-keyboard-response",
		"trial_index": 34,
		"time_elapsed": 283785,
		"internal_node_id": "0.0-3.0-1.12"
	},
	{
		"rt": 4520,
		"stimulus": "../audio/64-7-fem.mp3",
		"response": " ",
		"word": "e",
		"trial_type": "audio-keyboard-response",
		"trial_index": 35,
		"time_elapsed": 288585,
		"internal_node_id": "0.0-3.0-1.13"
	},
	{
		"rt": 4051,
		"stimulus": "../audio/64-8-fem.mp3",
		"response": " ",
		"word": "leve.",
		"trial_type": "audio-keyboard-response",
		"trial_index": 36,
		"time_elapsed": 292921,
		"internal_node_id": "0.0-3.0-1.14"
	},
	{
		"rt": null,
		"stimulus": "<span style= \"font-size:30px; font-family: monospace\">+</span>",
		"response": null,
		"trial_part": "fixation",
		"trial_type": "html-keyboard-response",
		"trial_index": 37,
		"time_elapsed": 294211,
		"internal_node_id": "0.0-3.0-0.15-0.15"
	},
	{
		"rt": 3960,
		"stimulus": "../audio/63-1-fem.mp3",
		"response": " ",
		"word": "A",
		"trial_type": "audio-keyboard-response",
		"trial_index": 38,
		"time_elapsed": 298457,
		"internal_node_id": "0.0-3.0-1.15"
	},
	{
		"rt": 5149,
		"stimulus": "../audio/63-2-fem.mp3",
		"response": " ",
		"word": "chuva",
		"trial_type": "audio-keyboard-response",
		"trial_index": 39,
		"time_elapsed": 303887,
		"internal_node_id": "0.0-3.0-1.16"
	},
	{
		"rt": 3120,
		"stimulus": "../audio/63-3-fem.mp3",
		"response": " ",
		"word": "entrou",
		"trial_type": "audio-keyboard-response",
		"trial_index": 40,
		"time_elapsed": 307279,
		"internal_node_id": "0.0-3.0-1.17"
	},
	{
		"rt": 2829,
		"stimulus": "../audio/63-4-fem.mp3",
		"response": " ",
		"word": "pela",
		"trial_type": "audio-keyboard-response",
		"trial_index": 41,
		"time_elapsed": 310383,
		"internal_node_id": "0.0-3.0-1.18"
	},
	{
		"rt": 4000,
		"stimulus": "../audio/63-5-fem.mp3",
		"response": " ",
		"word": "abertura",
		"trial_type": "audio-keyboard-response",
		"trial_index": 42,
		"time_elapsed": 314655,
		"internal_node_id": "0.0-3.0-1.19"
	},
	{
		"rt": 2629,
		"stimulus": "../audio/63-6-fem.mp3",
		"response": " ",
		"word": "na",
		"trial_type": "audio-keyboard-response",
		"trial_index": 43,
		"time_elapsed": 317567,
		"internal_node_id": "0.0-3.0-1.20"
	},
	{
		"rt": 3051,
		"stimulus": "../audio/63-7-fem.mp3",
		"response": " ",
		"word": "janela.",
		"trial_type": "audio-keyboard-response",
		"trial_index": 44,
		"time_elapsed": 320910,
		"internal_node_id": "0.0-3.0-1.21"
	},
	{
		"rt": null,
		"stimulus": "<span style= \"font-size:30px; font-family: monospace\">+</span>",
		"response": null,
		"trial_part": "fixation",
		"trial_type": "html-keyboard-response",
		"trial_index": 45,
		"time_elapsed": 322184,
		"internal_node_id": "0.0-3.0-0.22-0.22"
	},
	{
		"rt": 18939,
		"stimulus": "../audio/62-1-masc.mp3",
		"response": " ",
		"word": "As",
		"trial_type": "audio-keyboard-response",
		"trial_index": 46,
		"time_elapsed": 341391,
		"internal_node_id": "0.0-3.0-1.22"
	},
	{
		"rt": 3771,
		"stimulus": "../audio/62-2-masc.mp3",
		"response": " ",
		"word": "artesãs",
		"trial_type": "audio-keyboard-response",
		"trial_index": 47,
		"time_elapsed": 345455,
		"internal_node_id": "0.0-3.0-1.23"
	},
	{
		"rt": 3560,
		"stimulus": "../audio/62-3-masc.mp3",
		"response": " ",
		"word": "gostam",
		"trial_type": "audio-keyboard-response",
		"trial_index": 48,
		"time_elapsed": 349295,
		"internal_node_id": "0.0-3.0-1.24"
	},
	{
		"rt": 2659,
		"stimulus": "../audio/62-4-masc.mp3",
		"response": " ",
		"word": "de",
		"trial_type": "audio-keyboard-response",
		"trial_index": 49,
		"time_elapsed": 352223,
		"internal_node_id": "0.0-3.0-1.25"
	},
	{
		"rt": 4251,
		"stimulus": "../audio/62-5-masc.mp3",
		"response": " ",
		"word": "maquiagem",
		"trial_type": "audio-keyboard-response",
		"trial_index": 50,
		"time_elapsed": 356751,
		"internal_node_id": "0.0-3.0-1.26"
	},
	{
		"rt": 2640,
		"stimulus": "../audio/62-6-masc.mp3",
		"response": " ",
		"word": "e",
		"trial_type": "audio-keyboard-response",
		"trial_index": 51,
		"time_elapsed": 359663,
		"internal_node_id": "0.0-3.0-1.27"
	},
	{
		"rt": 2571,
		"stimulus": "../audio/62-7-masc.mp3",
		"response": " ",
		"word": "de",
		"trial_type": "audio-keyboard-response",
		"trial_index": 52,
		"time_elapsed": 362511,
		"internal_node_id": "0.0-3.0-1.28"
	},
	{
		"rt": 2800,
		"stimulus": "../audio/62-8-masc.mp3",
		"response": " ",
		"word": "crochê.",
		"trial_type": "audio-keyboard-response",
		"trial_index": 53,
		"time_elapsed": 365577,
		"internal_node_id": "0.0-3.0-1.29"
	},
	{
		"rt": null,
		"stimulus": "<span style= \"font-size:30px; font-family: monospace\">+</span>",
		"response": null,
		"trial_part": "fixation",
		"trial_type": "html-keyboard-response",
		"trial_index": 54,
		"time_elapsed": 366845,
		"internal_node_id": "0.0-3.0-0.30-0.30"
	},
	{
		"rt": 3168,
		"stimulus": "../audio/65-1-fem.mp3",
		"response": " ",
		"word": "O",
		"trial_type": "audio-keyboard-response",
		"trial_index": 55,
		"time_elapsed": 370297,
		"internal_node_id": "0.0-3.0-1.30"
	},
	{
		"rt": 2800,
		"stimulus": "../audio/65-2-fem.mp3",
		"response": " ",
		"word": "fantasma",
		"trial_type": "audio-keyboard-response",
		"trial_index": 56,
		"time_elapsed": 373369,
		"internal_node_id": "0.0-3.0-1.31"
	},
	{
		"rt": 3499,
		"stimulus": "../audio/65-3-fem.mp3",
		"response": " ",
		"word": "veio",
		"trial_type": "audio-keyboard-response",
		"trial_index": 57,
		"time_elapsed": 377145,
		"internal_node_id": "0.0-3.0-1.32"
	},
	{
		"rt": 2720,
		"stimulus": "../audio/65-4-fem.mp3",
		"response": " ",
		"word": "da",
		"trial_type": "audio-keyboard-response",
		"trial_index": 58,
		"time_elapsed": 380137,
		"internal_node_id": "0.0-3.0-1.33"
	},
	{
		"rt": 4651,
		"stimulus": "../audio/65-5-fem.mp3",
		"response": " ",
		"word": "escuridão",
		"trial_type": "audio-keyboard-response",
		"trial_index": 59,
		"time_elapsed": 385065,
		"internal_node_id": "0.0-3.0-1.34"
	},
	{
		"rt": 4421,
		"stimulus": "../audio/65-6-fem.mp3",
		"response": " ",
		"word": "do",
		"trial_type": "audio-keyboard-response",
		"trial_index": 60,
		"time_elapsed": 389753,
		"internal_node_id": "0.0-3.0-1.35"
	},
	{
		"rt": 5899,
		"stimulus": "../audio/65-7-fem.mp3",
		"response": " ",
		"word": "armário.",
		"trial_type": "audio-keyboard-response",
		"trial_index": 61,
		"time_elapsed": 395945,
		"internal_node_id": "0.0-3.0-1.36"
	},
	{
		"rt": 6176,
		"stimulus": "<span style=\"font-size:25px; font-family: monospace\">O fantasma veio da escuridão do armário?</span>",
		"response": "n",
		"question": "O fantasma veio da escuridão do armário?",
		"answer": "null",
		"trial": "exp-sent",
		"trial_type": "html-keyboard-response",
		"trial_index": 62,
		"time_elapsed": 402377,
		"internal_node_id": "0.0-3.0-2.36-0.36",
		"accuracy": false
	},
	{
		"rt": null,
		"stimulus": "<span style= \"font-size:30px; font-family: monospace\">+</span>",
		"response": null,
		"trial_part": "fixation",
		"trial_type": "html-keyboard-response",
		"trial_index": 63,
		"time_elapsed": 403911,
		"internal_node_id": "0.0-3.0-0.37-0.37"
	},
	{
		"rt": 6899,
		"stimulus": "../audio/18-1-fem.mp3",
		"response": " ",
		"word": "O",
		"trial_type": "audio-keyboard-response",
		"trial_index": 64,
		"time_elapsed": 411097,
		"internal_node_id": "0.0-3.0-1.37"
	},
	{
		"rt": 4712,
		"stimulus": "../audio/18-2-fem.mp3",
		"response": " ",
		"word": "enredo",
		"trial_type": "audio-keyboard-response",
		"trial_index": 65,
		"time_elapsed": 416089,
		"internal_node_id": "0.0-3.0-1.38"
	},
	{
		"rt": 3949,
		"stimulus": "../audio/18-3-fem.mp3",
		"response": " ",
		"word": "traz",
		"trial_type": "audio-keyboard-response",
		"trial_index": 66,
		"time_elapsed": 420314,
		"internal_node_id": "0.0-3.0-1.39"
	},
	{
		"rt": 3531,
		"stimulus": "../audio/18-4-fem.mp3",
		"response": " ",
		"word": "um",
		"trial_type": "audio-keyboard-response",
		"trial_index": 67,
		"time_elapsed": 424121,
		"internal_node_id": "0.0-3.0-1.40"
	},
	{
		"rt": 5040,
		"stimulus": "../audio/18-5-fem.mp3",
		"response": " ",
		"word": "dragão",
		"trial_type": "audio-keyboard-response",
		"trial_index": 68,
		"time_elapsed": 429447,
		"internal_node_id": "0.0-3.0-1.41"
	},
	{
		"rt": 4149,
		"stimulus": "../audio/18-6-fem.mp3",
		"response": " ",
		"word": "forte",
		"trial_type": "audio-keyboard-response",
		"trial_index": 69,
		"time_elapsed": 433863,
		"internal_node_id": "0.0-3.0-1.42"
	},
	{
		"rt": 5611,
		"stimulus": "../audio/18-7-fem.mp3",
		"response": " ",
		"word": "e",
		"trial_type": "audio-keyboard-response",
		"trial_index": 70,
		"time_elapsed": 439751,
		"internal_node_id": "0.0-3.0-1.43"
	},
	{
		"rt": 4088,
		"stimulus": "../audio/18-8-fem.mp3",
		"response": " ",
		"word": "solitário.",
		"trial_type": "audio-keyboard-response",
		"trial_index": 71,
		"time_elapsed": 444134,
		"internal_node_id": "0.0-3.0-1.44"
	},
	{
		"rt": null,
		"stimulus": "<span style= \"font-size:30px; font-family: monospace\">+</span>",
		"response": null,
		"trial_part": "fixation",
		"trial_type": "html-keyboard-response",
		"trial_index": 72,
		"time_elapsed": 445398,
		"internal_node_id": "0.0-3.0-0.45-0.45"
	},
	{
		"rt": 3080,
		"stimulus": "../audio/19-1-fem.mp3",
		"response": " ",
		"word": "O",
		"trial_type": "audio-keyboard-response",
		"trial_index": 73,
		"time_elapsed": 448743,
		"internal_node_id": "0.0-3.0-1.45"
	},
	{
		"rt": 5240,
		"stimulus": "../audio/19-2-fem.mp3",
		"response": " ",
		"word": "menino",
		"trial_type": "audio-keyboard-response",
		"trial_index": 74,
		"time_elapsed": 454279,
		"internal_node_id": "0.0-3.0-1.46"
	},
	{
		"rt": 3120,
		"stimulus": "../audio/19-3-fem.mp3",
		"response": " ",
		"word": "ganhou",
		"trial_type": "audio-keyboard-response",
		"trial_index": 75,
		"time_elapsed": 457670,
		"internal_node_id": "0.0-3.0-1.47"
	},
	{
		"rt": 3371,
		"stimulus": "../audio/19-4-fem.mp3",
		"response": " ",
		"word": "uma",
		"trial_type": "audio-keyboard-response",
		"trial_index": 76,
		"time_elapsed": 461319,
		"internal_node_id": "0.0-3.0-1.48"
	},
	{
		"rt": 3480,
		"stimulus": "../audio/19-5-fem.mp3",
		"response": " ",
		"word": "bala",
		"trial_type": "audio-keyboard-response",
		"trial_index": 77,
		"time_elapsed": 465079,
		"internal_node_id": "0.0-3.0-1.49"
	},
	{
		"rt": 3040,
		"stimulus": "../audio/19-6-fem.mp3",
		"response": " ",
		"word": "depois",
		"trial_type": "audio-keyboard-response",
		"trial_index": 78,
		"time_elapsed": 468390,
		"internal_node_id": "0.0-3.0-1.50"
	},
	{
		"rt": 3440,
		"stimulus": "../audio/19-7-fem.mp3",
		"response": " ",
		"word": "do",
		"trial_type": "audio-keyboard-response",
		"trial_index": 79,
		"time_elapsed": 472102,
		"internal_node_id": "0.0-3.0-1.51"
	},
	{
		"rt": 3669,
		"stimulus": "../audio/19-8-fem.mp3",
		"response": " ",
		"word": "almoço.",
		"trial_type": "audio-keyboard-response",
		"trial_index": 80,
		"time_elapsed": 476055,
		"internal_node_id": "0.0-3.0-1.52"
	},
	{
		"rt": null,
		"stimulus": "<span style= \"font-size:30px; font-family: monospace\">+</span>",
		"response": null,
		"trial_part": "fixation",
		"trial_type": "html-keyboard-response",
		"trial_index": 81,
		"time_elapsed": 477319,
		"internal_node_id": "0.0-3.0-0.53-0.53"
	},
	{
		"rt": 3640,
		"stimulus": "../audio/17-1-fem.mp3",
		"response": " ",
		"word": "Falaram",
		"trial_type": "audio-keyboard-response",
		"trial_index": 82,
		"time_elapsed": 481238,
		"internal_node_id": "0.0-3.0-1.53"
	},
	{
		"rt": 6379,
		"stimulus": "../audio/17-2-fem.mp3",
		"response": " ",
		"word": "da",
		"trial_type": "audio-keyboard-response",
		"trial_index": 83,
		"time_elapsed": 487895,
		"internal_node_id": "0.0-3.0-1.54"
	},
	{
		"rt": 6101,
		"stimulus": "../audio/17-3-fem.mp3",
		"response": " ",
		"word": "lei",
		"trial_type": "audio-keyboard-response",
		"trial_index": 84,
		"time_elapsed": 494286,
		"internal_node_id": "0.0-3.0-1.55"
	},
	{
		"rt": 5059,
		"stimulus": "../audio/17-4-fem.mp3",
		"response": " ",
		"word": "no",
		"trial_type": "audio-keyboard-response",
		"trial_index": 85,
		"time_elapsed": 499630,
		"internal_node_id": "0.0-3.0-1.56"
	},
	{
		"rt": 9440,
		"stimulus": "../audio/17-5-fem.mp3",
		"response": " ",
		"word": "ministério",
		"trial_type": "audio-keyboard-response",
		"trial_index": 86,
		"time_elapsed": 509343,
		"internal_node_id": "0.0-3.0-1.57"
	},
	{
		"rt": 6232,
		"stimulus": "../audio/17-6-fem.mp3",
		"response": " ",
		"word": "diversas",
		"trial_type": "audio-keyboard-response",
		"trial_index": 87,
		"time_elapsed": 515854,
		"internal_node_id": "0.0-3.0-1.58"
	},
	{
		"rt": 4352,
		"stimulus": "../audio/17-7-fem.mp3",
		"response": " ",
		"word": "vezes.",
		"trial_type": "audio-keyboard-response",
		"trial_index": 88,
		"time_elapsed": 520494,
		"internal_node_id": "0.0-3.0-1.59"
	},
	{
		"rt": null,
		"stimulus": "<span style= \"font-size:30px; font-family: monospace\">+</span>",
		"response": null,
		"trial_part": "fixation",
		"trial_type": "html-keyboard-response",
		"trial_index": 89,
		"time_elapsed": 521766,
		"internal_node_id": "0.0-3.0-0.60-0.60"
	},
	{
		"rt": 4899,
		"stimulus": "../audio/16-1-masc.mp3",
		"response": " ",
		"word": "Eu",
		"trial_type": "audio-keyboard-response",
		"trial_index": 90,
		"time_elapsed": 526942,
		"internal_node_id": "0.0-3.0-1.60"
	},
	{
		"rt": 3912,
		"stimulus": "../audio/16-2-masc.mp3",
		"response": " ",
		"word": "nunca",
		"trial_type": "audio-keyboard-response",
		"trial_index": 91,
		"time_elapsed": 531134,
		"internal_node_id": "0.0-3.0-1.61"
	},
	{
		"rt": 4451,
		"stimulus": "../audio/16-3-masc.mp3",
		"response": " ",
		"word": "conheci",
		"trial_type": "audio-keyboard-response",
		"trial_index": 92,
		"time_elapsed": 535854,
		"internal_node_id": "0.0-3.0-1.62"
	},
	{
		"rt": 2739,
		"stimulus": "../audio/16-4-masc.mp3",
		"response": " ",
		"word": "um",
		"trial_type": "audio-keyboard-response",
		"trial_index": 93,
		"time_elapsed": 538862,
		"internal_node_id": "0.0-3.0-1.63"
	},
	{
		"rt": 4501,
		"stimulus": "../audio/16-5-masc.mp3",
		"response": " ",
		"word": "general",
		"trial_type": "audio-keyboard-response",
		"trial_index": 94,
		"time_elapsed": 543646,
		"internal_node_id": "0.0-3.0-1.64"
	},
	{
		"rt": 3400,
		"stimulus": "../audio/16-6-masc.mp3",
		"response": " ",
		"word": "do",
		"trial_type": "audio-keyboard-response",
		"trial_index": 95,
		"time_elapsed": 547326,
		"internal_node_id": "0.0-3.0-1.65"
	},
	{
		"rt": 3149,
		"stimulus": "../audio/16-7-masc.mp3",
		"response": " ",
		"word": "exército.",
		"trial_type": "audio-keyboard-response",
		"trial_index": 96,
		"time_elapsed": 550750,
		"internal_node_id": "0.0-3.0-1.66"
	},
	{
		"rt": null,
		"stimulus": "<span style= \"font-size:30px; font-family: monospace\">+</span>",
		"response": null,
		"trial_part": "fixation",
		"trial_type": "html-keyboard-response",
		"trial_index": 97,
		"time_elapsed": 552018,
		"internal_node_id": "0.0-3.0-0.67-0.67"
	},
	{
		"rt": 2992,
		"stimulus": "../audio/20-1-fem.mp3",
		"response": " ",
		"word": "O",
		"trial_type": "audio-keyboard-response",
		"trial_index": 98,
		"time_elapsed": 555286,
		"internal_node_id": "0.0-3.0-1.67"
	},
	{
		"rt": 5309,
		"stimulus": "../audio/20-2-fem.mp3",
		"response": " ",
		"word": "colega",
		"trial_type": "audio-keyboard-response",
		"trial_index": 99,
		"time_elapsed": 560870,
		"internal_node_id": "0.0-3.0-1.68"
	},
	{
		"rt": 4251,
		"stimulus": "../audio/20-3-fem.mp3",
		"response": " ",
		"word": "parecia",
		"trial_type": "audio-keyboard-response",
		"trial_index": 100,
		"time_elapsed": 565399,
		"internal_node_id": "0.0-3.0-1.69"
	},
	{
		"rt": 3080,
		"stimulus": "../audio/20-4-fem.mp3",
		"response": " ",
		"word": "muito",
		"trial_type": "audio-keyboard-response",
		"trial_index": 101,
		"time_elapsed": 568758,
		"internal_node_id": "0.0-3.0-1.70"
	},
	{
		"rt": 2800,
		"stimulus": "../audio/20-5-fem.mp3",
		"response": " ",
		"word": "gripado",
		"trial_type": "audio-keyboard-response",
		"trial_index": 102,
		"time_elapsed": 571830,
		"internal_node_id": "0.0-3.0-1.71"
	},
	{
		"rt": 6280,
		"stimulus": "../audio/20-6-fem.mp3",
		"response": " ",
		"word": "no",
		"trial_type": "audio-keyboard-response",
		"trial_index": 103,
		"time_elapsed": 578390,
		"internal_node_id": "0.0-3.0-1.72"
	},
	{
		"rt": 4320,
		"stimulus": "../audio/20-7-fem.mp3",
		"response": " ",
		"word": "dia",
		"trial_type": "audio-keyboard-response",
		"trial_index": 104,
		"time_elapsed": 582982,
		"internal_node_id": "0.0-3.0-1.73"
	},
	{
		"rt": 6280,
		"stimulus": "../audio/20-8-fem.mp3",
		"response": " ",
		"word": "anterior.",
		"trial_type": "audio-keyboard-response",
		"trial_index": 105,
		"time_elapsed": 589542,
		"internal_node_id": "0.0-3.0-1.74"
	},
	{
		"rt": 3478,
		"stimulus": "<span style=\"font-size:25px; font-family: monospace\">O colega parecia muito gripado?</span>",
		"response": "n",
		"question": "O colega parecia muito gripado?",
		"answer": "null",
		"trial": "exp-sent",
		"trial_type": "html-keyboard-response",
		"trial_index": 106,
		"time_elapsed": 593286,
		"internal_node_id": "0.0-3.0-2.74-0.74",
		"accuracy": false
	},
	{
		"rt": null,
		"stimulus": "<span style= \"font-size:30px; font-family: monospace\">+</span>",
		"response": null,
		"trial_part": "fixation",
		"trial_type": "html-keyboard-response",
		"trial_index": 107,
		"time_elapsed": 594808,
		"internal_node_id": "0.0-3.0-0.75-0.75"
	},
	{
		"rt": 7072,
		"stimulus": "../audio/07-1-fem.mp3",
		"response": " ",
		"word": "Meu",
		"trial_type": "audio-keyboard-response",
		"trial_index": 108,
		"time_elapsed": 602166,
		"internal_node_id": "0.0-3.0-1.75"
	},
	{
		"rt": 3288,
		"stimulus": "../audio/07-2-fem.mp3",
		"response": " ",
		"word": "filho",
		"trial_type": "audio-keyboard-response",
		"trial_index": 109,
		"time_elapsed": 605734,
		"internal_node_id": "0.0-3.0-1.76"
	},
	{
		"rt": 3560,
		"stimulus": "../audio/07-3-fem.mp3",
		"response": " ",
		"word": "é",
		"trial_type": "audio-keyboard-response",
		"trial_index": 110,
		"time_elapsed": 609574,
		"internal_node_id": "0.0-3.0-1.77"
	},
	{
		"rt": 3040,
		"stimulus": "../audio/07-4-fem.mp3",
		"response": " ",
		"word": "muito",
		"trial_type": "audio-keyboard-response",
		"trial_index": 111,
		"time_elapsed": 612886,
		"internal_node_id": "0.0-3.0-1.78"
	},
	{
		"rt": 5640,
		"stimulus": "../audio/07-5-fem.mp3",
		"response": " ",
		"word": "responsável",
		"trial_type": "audio-keyboard-response",
		"trial_index": 112,
		"time_elapsed": 618807,
		"internal_node_id": "0.0-3.0-1.79"
	},
	{
		"rt": 2669,
		"stimulus": "../audio/07-6-fem.mp3",
		"response": " ",
		"word": "nos",
		"trial_type": "audio-keyboard-response",
		"trial_index": 113,
		"time_elapsed": 621751,
		"internal_node_id": "0.0-3.0-1.80"
	},
	{
		"rt": 6960,
		"stimulus": "../audio/07-7-fem.mp3",
		"response": " ",
		"word": "estudos.",
		"trial_type": "audio-keyboard-response",
		"trial_index": 114,
		"time_elapsed": 628999,
		"internal_node_id": "0.0-3.0-1.81"
	},
	{
		"rt": null,
		"stimulus": "<span style= \"font-size:30px; font-family: monospace\">+</span>",
		"response": null,
		"trial_part": "fixation",
		"trial_type": "html-keyboard-response",
		"trial_index": 115,
		"time_elapsed": 630287,
		"internal_node_id": "0.0-3.0-0.82-0.82"
	},
	{
		"rt": 3549,
		"stimulus": "../audio/09-1-fem.mp3",
		"response": " ",
		"word": "O",
		"trial_type": "audio-keyboard-response",
		"trial_index": 116,
		"time_elapsed": 634119,
		"internal_node_id": "0.0-3.0-1.82"
	},
	{
		"rt": 5709,
		"stimulus": "../audio/09-2-fem.mp3",
		"response": " ",
		"word": "rapaz",
		"trial_type": "audio-keyboard-response",
		"trial_index": 117,
		"time_elapsed": 640103,
		"internal_node_id": "0.0-3.0-1.83"
	},
	{
		"rt": 5109,
		"stimulus": "../audio/09-3-fem.mp3",
		"response": " ",
		"word": "limpou",
		"trial_type": "audio-keyboard-response",
		"trial_index": 118,
		"time_elapsed": 645495,
		"internal_node_id": "0.0-3.0-1.84"
	},
	{
		"rt": 3248,
		"stimulus": "../audio/09-4-fem.mp3",
		"response": " ",
		"word": "o",
		"trial_type": "audio-keyboard-response",
		"trial_index": 119,
		"time_elapsed": 649015,
		"internal_node_id": "0.0-3.0-1.85"
	},
	{
		"rt": 3192,
		"stimulus": "../audio/09-5-fem.mp3",
		"response": " ",
		"word": "terreno",
		"trial_type": "audio-keyboard-response",
		"trial_index": 120,
		"time_elapsed": 652487,
		"internal_node_id": "0.0-3.0-1.86"
	},
	{
		"rt": 4189,
		"stimulus": "../audio/09-6-fem.mp3",
		"response": " ",
		"word": "com",
		"trial_type": "audio-keyboard-response",
		"trial_index": 121,
		"time_elapsed": 656950,
		"internal_node_id": "0.0-3.0-1.87"
	},
	{
		"rt": 3840,
		"stimulus": "../audio/09-7-fem.mp3",
		"response": " ",
		"word": "uma",
		"trial_type": "audio-keyboard-response",
		"trial_index": 122,
		"time_elapsed": 661063,
		"internal_node_id": "0.0-3.0-1.88"
	},
	{
		"rt": 2352,
		"stimulus": "../audio/09-8-fem.mp3",
		"response": " ",
		"word": "pá.",
		"trial_type": "audio-keyboard-response",
		"trial_index": 123,
		"time_elapsed": 663686,
		"internal_node_id": "0.0-3.0-1.89"
	},
	{
		"rt": null,
		"stimulus": "<span style= \"font-size:30px; font-family: monospace\">+</span>",
		"response": null,
		"trial_part": "fixation",
		"trial_type": "html-keyboard-response",
		"trial_index": 124,
		"time_elapsed": 664944,
		"internal_node_id": "0.0-3.0-0.90-0.90"
	},
	{
		"rt": 5971,
		"stimulus": "../audio/06-1-fem.mp3",
		"response": " ",
		"word": "Ouvimos",
		"trial_type": "audio-keyboard-response",
		"trial_index": 125,
		"time_elapsed": 671191,
		"internal_node_id": "0.0-3.0-1.90"
	},
	{
		"rt": 4051,
		"stimulus": "../audio/06-2-fem.mp3",
		"response": " ",
		"word": "a",
		"trial_type": "audio-keyboard-response",
		"trial_index": 126,
		"time_elapsed": 675510,
		"internal_node_id": "0.0-3.0-1.91"
	},
	{
		"rt": 3021,
		"stimulus": "../audio/06-3-fem.mp3",
		"response": " ",
		"word": "fala",
		"trial_type": "audio-keyboard-response",
		"trial_index": 127,
		"time_elapsed": 678806,
		"internal_node_id": "0.0-3.0-1.92"
	},
	{
		"rt": 3539,
		"stimulus": "../audio/06-4-fem.mp3",
		"response": " ",
		"word": "do",
		"trial_type": "audio-keyboard-response",
		"trial_index": 128,
		"time_elapsed": 682623,
		"internal_node_id": "0.0-3.0-1.93"
	},
	{
		"rt": 2949,
		"stimulus": "../audio/06-5-fem.mp3",
		"response": " ",
		"word": "profeta",
		"trial_type": "audio-keyboard-response",
		"trial_index": 129,
		"time_elapsed": 685839,
		"internal_node_id": "0.0-3.0-1.94"
	},
	{
		"rt": 2680,
		"stimulus": "../audio/06-6-fem.mp3",
		"response": " ",
		"word": "no",
		"trial_type": "audio-keyboard-response",
		"trial_index": 130,
		"time_elapsed": 688798,
		"internal_node_id": "0.0-3.0-1.95"
	},
	{
		"rt": 4291,
		"stimulus": "../audio/06-7-fem.mp3",
		"response": " ",
		"word": "púlpito",
		"trial_type": "audio-keyboard-response",
		"trial_index": 131,
		"time_elapsed": 693358,
		"internal_node_id": "0.0-3.0-1.96"
	},
	{
		"rt": 2800,
		"stimulus": "../audio/06-8-fem.mp3",
		"response": " ",
		"word": "da",
		"trial_type": "audio-keyboard-response",
		"trial_index": 132,
		"time_elapsed": 696446,
		"internal_node_id": "0.0-3.0-1.97"
	},
	{
		"rt": 2379,
		"stimulus": "../audio/06-9-fem.mp3",
		"response": " ",
		"word": "igreja.",
		"trial_type": "audio-keyboard-response",
		"trial_index": 133,
		"time_elapsed": 699103,
		"internal_node_id": "0.0-3.0-1.98"
	},
	{
		"rt": null,
		"stimulus": "<span style= \"font-size:30px; font-family: monospace\">+</span>",
		"response": null,
		"trial_part": "fixation",
		"trial_type": "html-keyboard-response",
		"trial_index": 134,
		"time_elapsed": 700376,
		"internal_node_id": "0.0-3.0-0.99-0.99"
	},
	{
		"rt": 4101,
		"stimulus": "../audio/08-1-masc.mp3",
		"response": " ",
		"word": "A",
		"trial_type": "audio-keyboard-response",
		"trial_index": 135,
		"time_elapsed": 704766,
		"internal_node_id": "0.0-3.0-1.99"
	},
	{
		"rt": 3499,
		"stimulus": "../audio/08-2-masc.mp3",
		"response": " ",
		"word": "receita",
		"trial_type": "audio-keyboard-response",
		"trial_index": 136,
		"time_elapsed": 708543,
		"internal_node_id": "0.0-3.0-1.100"
	},
	{
		"rt": 5080,
		"stimulus": "../audio/08-3-masc.mp3",
		"response": " ",
		"word": "pede",
		"trial_type": "audio-keyboard-response",
		"trial_index": 137,
		"time_elapsed": 713902,
		"internal_node_id": "0.0-3.0-1.101"
	},
	{
		"rt": 2829,
		"stimulus": "../audio/08-4-masc.mp3",
		"response": " ",
		"word": "um",
		"trial_type": "audio-keyboard-response",
		"trial_index": 138,
		"time_elapsed": 717006,
		"internal_node_id": "0.0-3.0-1.102"
	},
	{
		"rt": 2989,
		"stimulus": "../audio/08-5-masc.mp3",
		"response": " ",
		"word": "litro",
		"trial_type": "audio-keyboard-response",
		"trial_index": 139,
		"time_elapsed": 720286,
		"internal_node_id": "0.0-3.0-1.103"
	},
	{
		"rt": 6189,
		"stimulus": "../audio/08-6-masc.mp3",
		"response": " ",
		"word": "de",
		"trial_type": "audio-keyboard-response",
		"trial_index": 140,
		"time_elapsed": 726767,
		"internal_node_id": "0.0-3.0-1.104"
	},
	{
		"rt": 3360,
		"stimulus": "../audio/08-7-masc.mp3",
		"response": " ",
		"word": "leite",
		"trial_type": "audio-keyboard-response",
		"trial_index": 141,
		"time_elapsed": 730398,
		"internal_node_id": "0.0-3.0-1.105"
	},
	{
		"rt": 3560,
		"stimulus": "../audio/08-8-masc.mp3",
		"response": " ",
		"word": "integral.",
		"trial_type": "audio-keyboard-response",
		"trial_index": 142,
		"time_elapsed": 734238,
		"internal_node_id": "0.0-3.0-1.106"
	},
	{
		"rt": null,
		"stimulus": "<span style= \"font-size:30px; font-family: monospace\">+</span>",
		"response": null,
		"trial_part": "fixation",
		"trial_type": "html-keyboard-response",
		"trial_index": 143,
		"time_elapsed": 735503,
		"internal_node_id": "0.0-3.0-0.107-0.107"
	},
	{
		"rt": 3088,
		"stimulus": "../audio/10-1-fem.mp3",
		"response": " ",
		"word": "O",
		"trial_type": "audio-keyboard-response",
		"trial_index": 144,
		"time_elapsed": 738863,
		"internal_node_id": "0.0-3.0-1.107"
	},
	{
		"rt": 3341,
		"stimulus": "../audio/10-2-fem.mp3",
		"response": " ",
		"word": "pássaro",
		"trial_type": "audio-keyboard-response",
		"trial_index": 145,
		"time_elapsed": 742479,
		"internal_node_id": "0.0-3.0-1.108"
	},
	{
		"rt": 2771,
		"stimulus": "../audio/10-3-fem.mp3",
		"response": " ",
		"word": "azul",
		"trial_type": "audio-keyboard-response",
		"trial_index": 146,
		"time_elapsed": 745519,
		"internal_node_id": "0.0-3.0-1.109"
	},
	{
		"rt": 2808,
		"stimulus": "../audio/10-4-fem.mp3",
		"response": " ",
		"word": "estava",
		"trial_type": "audio-keyboard-response",
		"trial_index": 147,
		"time_elapsed": 748623,
		"internal_node_id": "0.0-3.0-1.110"
	},
	{
		"rt": 1992,
		"stimulus": "../audio/10-5-fem.mp3",
		"response": " ",
		"word": "vivo",
		"trial_type": "audio-keyboard-response",
		"trial_index": 148,
		"time_elapsed": 750895,
		"internal_node_id": "0.0-3.0-1.111"
	},
	{
		"rt": 1560,
		"stimulus": "../audio/10-6-fem.mp3",
		"response": " ",
		"word": "e",
		"trial_type": "audio-keyboard-response",
		"trial_index": 149,
		"time_elapsed": 752735,
		"internal_node_id": "0.0-3.0-1.112"
	},
	{
		"rt": 2469,
		"stimulus": "../audio/10-7-fem.mp3",
		"response": " ",
		"word": "em",
		"trial_type": "audio-keyboard-response",
		"trial_index": 150,
		"time_elapsed": 755471,
		"internal_node_id": "0.0-3.0-1.113"
	},
	{
		"rt": 2349,
		"stimulus": "../audio/10-8-fem.mp3",
		"response": " ",
		"word": "segurança.",
		"trial_type": "audio-keyboard-response",
		"trial_index": 151,
		"time_elapsed": 758111,
		"internal_node_id": "0.0-3.0-1.114"
	},
	{
		"rt": 4240,
		"stimulus": "<span style=\"font-size:25px; font-family: monospace\">O pássaro vermelho estava em segurança?</span>",
		"response": "s",
		"question": "O pássaro vermelho estava em segurança?",
		"answer": "null",
		"trial": "exp-sent",
		"trial_type": "html-keyboard-response",
		"trial_index": 152,
		"time_elapsed": 762607,
		"internal_node_id": "0.0-3.0-2.114-0.114",
		"accuracy": false
	},
	{
		"rt": null,
		"stimulus": "<span style= \"font-size:30px; font-family: monospace\">+</span>",
		"response": null,
		"trial_part": "fixation",
		"trial_type": "html-keyboard-response",
		"trial_index": 153,
		"time_elapsed": 764136,
		"internal_node_id": "0.0-3.0-0.115-0.115"
	},
	{
		"rt": 3640,
		"stimulus": "../audio/58-1-masc.mp3",
		"response": " ",
		"word": "Havia",
		"trial_type": "audio-keyboard-response",
		"trial_index": 154,
		"time_elapsed": 768063,
		"internal_node_id": "0.0-3.0-1.115"
	},
	{
		"rt": 3680,
		"stimulus": "../audio/58-2-masc.mp3",
		"response": " ",
		"word": "apenas",
		"trial_type": "audio-keyboard-response",
		"trial_index": 155,
		"time_elapsed": 772015,
		"internal_node_id": "0.0-3.0-1.116"
	},
	{
		"rt": 2189,
		"stimulus": "../audio/58-3-masc.mp3",
		"response": " ",
		"word": "um",
		"trial_type": "audio-keyboard-response",
		"trial_index": 156,
		"time_elapsed": 774478,
		"internal_node_id": "0.0-3.0-1.117"
	},
	{
		"rt": 2480,
		"stimulus": "../audio/58-4-masc.mp3",
		"response": " ",
		"word": "último",
		"trial_type": "audio-keyboard-response",
		"trial_index": 157,
		"time_elapsed": 777230,
		"internal_node_id": "0.0-3.0-1.118"
	},
	{
		"rt": 3691,
		"stimulus": "../audio/58-5-masc.mp3",
		"response": " ",
		"word": "herdeiro",
		"trial_type": "audio-keyboard-response",
		"trial_index": 158,
		"time_elapsed": 781198,
		"internal_node_id": "0.0-3.0-1.119"
	},
	{
		"rt": 2451,
		"stimulus": "../audio/58-6-masc.mp3",
		"response": " ",
		"word": "do",
		"trial_type": "audio-keyboard-response",
		"trial_index": 159,
		"time_elapsed": 783918,
		"internal_node_id": "0.0-3.0-1.120"
	},
	{
		"rt": 3699,
		"stimulus": "../audio/58-7-masc.mp3",
		"response": " ",
		"word": "dinheiro.",
		"trial_type": "audio-keyboard-response",
		"trial_index": 160,
		"time_elapsed": 787903,
		"internal_node_id": "0.0-3.0-1.121"
	},
	{
		"rt": null,
		"stimulus": "<span style= \"font-size:30px; font-family: monospace\">+</span>",
		"response": null,
		"trial_part": "fixation",
		"trial_type": "html-keyboard-response",
		"trial_index": 161,
		"time_elapsed": 789186,
		"internal_node_id": "0.0-3.0-0.122-0.122"
	},
	{
		"rt": 5229,
		"stimulus": "../audio/59-1-masc.mp3",
		"response": " ",
		"word": "O",
		"trial_type": "audio-keyboard-response",
		"trial_index": 162,
		"time_elapsed": 794703,
		"internal_node_id": "0.0-3.0-1.122"
	},
	{
		"rt": 7360,
		"stimulus": "../audio/59-2-masc.mp3",
		"response": " ",
		"word": "carteiro",
		"trial_type": "audio-keyboard-response",
		"trial_index": 163,
		"time_elapsed": 802326,
		"internal_node_id": "0.0-3.0-1.123"
	},
	{
		"rt": 6229,
		"stimulus": "../audio/59-3-masc.mp3",
		"response": " ",
		"word": "fez",
		"trial_type": "audio-keyboard-response",
		"trial_index": 164,
		"time_elapsed": 808822,
		"internal_node_id": "0.0-3.0-1.124"
	},
	{
		"rt": 3632,
		"stimulus": "../audio/59-4-masc.mp3",
		"response": " ",
		"word": "uma",
		"trial_type": "audio-keyboard-response",
		"trial_index": 165,
		"time_elapsed": 812726,
		"internal_node_id": "0.0-3.0-1.125"
	},
	{
		"rt": 3699,
		"stimulus": "../audio/59-5-masc.mp3",
		"response": " ",
		"word": "tentativa",
		"trial_type": "audio-keyboard-response",
		"trial_index": 166,
		"time_elapsed": 816695,
		"internal_node_id": "0.0-3.0-1.126"
	},
	{
		"rt": 2251,
		"stimulus": "../audio/59-6-masc.mp3",
		"response": " ",
		"word": "de",
		"trial_type": "audio-keyboard-response",
		"trial_index": 167,
		"time_elapsed": 819222,
		"internal_node_id": "0.0-3.0-1.127"
	},
	{
		"rt": 2480,
		"stimulus": "../audio/59-7-masc.mp3",
		"response": " ",
		"word": "entrega.",
		"trial_type": "audio-keyboard-response",
		"trial_index": 168,
		"time_elapsed": 821974,
		"internal_node_id": "0.0-3.0-1.128"
	},
	{
		"rt": null,
		"stimulus": "<span style= \"font-size:30px; font-family: monospace\">+</span>",
		"response": null,
		"trial_part": "fixation",
		"trial_type": "html-keyboard-response",
		"trial_index": 169,
		"time_elapsed": 823250,
		"internal_node_id": "0.0-3.0-0.129-0.129"
	},
	{
		"rt": 1901,
		"stimulus": "../audio/57-1-fem.mp3",
		"response": " ",
		"word": "O",
		"trial_type": "audio-keyboard-response",
		"trial_index": 170,
		"time_elapsed": 825430,
		"internal_node_id": "0.0-3.0-1.129"
	},
	{
		"rt": 2640,
		"stimulus": "../audio/57-2-fem.mp3",
		"response": " ",
		"word": "capitão",
		"trial_type": "audio-keyboard-response",
		"trial_index": 171,
		"time_elapsed": 828342,
		"internal_node_id": "0.0-3.0-1.130"
	},
	{
		"rt": 5501,
		"stimulus": "../audio/57-3-fem.mp3",
		"response": " ",
		"word": "deu",
		"trial_type": "audio-keyboard-response",
		"trial_index": 172,
		"time_elapsed": 834118,
		"internal_node_id": "0.0-3.0-1.131"
	},
	{
		"rt": 1989,
		"stimulus": "../audio/57-4-fem.mp3",
		"response": " ",
		"word": "uma",
		"trial_type": "audio-keyboard-response",
		"trial_index": 173,
		"time_elapsed": 836390,
		"internal_node_id": "0.0-3.0-1.132"
	},
	{
		"rt": 3440,
		"stimulus": "../audio/57-5-fem.mp3",
		"response": " ",
		"word": "instrução",
		"trial_type": "audio-keyboard-response",
		"trial_index": 174,
		"time_elapsed": 840102,
		"internal_node_id": "0.0-3.0-1.133"
	},
	{
		"rt": 2501,
		"stimulus": "../audio/57-6-fem.mp3",
		"response": " ",
		"word": "para",
		"trial_type": "audio-keyboard-response",
		"trial_index": 175,
		"time_elapsed": 842886,
		"internal_node_id": "0.0-3.0-1.134"
	},
	{
		"rt": 2309,
		"stimulus": "../audio/57-7-fem.mp3",
		"response": " ",
		"word": "as",
		"trial_type": "audio-keyboard-response",
		"trial_index": 176,
		"time_elapsed": 845478,
		"internal_node_id": "0.0-3.0-1.135"
	},
	{
		"rt": 2720,
		"stimulus": "../audio/57-8-fem.mp3",
		"response": " ",
		"word": "pessoas.",
		"trial_type": "audio-keyboard-response",
		"trial_index": 177,
		"time_elapsed": 848486,
		"internal_node_id": "0.0-3.0-1.136"
	},
	{
		"rt": null,
		"stimulus": "<span style= \"font-size:30px; font-family: monospace\">+</span>",
		"response": null,
		"trial_part": "fixation",
		"trial_type": "html-keyboard-response",
		"trial_index": 178,
		"time_elapsed": 849760,
		"internal_node_id": "0.0-3.0-0.137-0.137"
	},
	{
		"rt": 3629,
		"stimulus": "../audio/56-1-masc.mp3",
		"response": " ",
		"word": "A",
		"trial_type": "audio-keyboard-response",
		"trial_index": 179,
		"time_elapsed": 853654,
		"internal_node_id": "0.0-3.0-1.137"
	},
	{
		"rt": 2448,
		"stimulus": "../audio/56-2-masc.mp3",
		"response": " ",
		"word": "moça",
		"trial_type": "audio-keyboard-response",
		"trial_index": 180,
		"time_elapsed": 856374,
		"internal_node_id": "0.0-3.0-1.138"
	},
	{
		"rt": 2861,
		"stimulus": "../audio/56-3-masc.mp3",
		"response": " ",
		"word": "foi",
		"trial_type": "audio-keyboard-response",
		"trial_index": 181,
		"time_elapsed": 859510,
		"internal_node_id": "0.0-3.0-1.139"
	},
	{
		"rt": 2240,
		"stimulus": "../audio/56-4-masc.mp3",
		"response": " ",
		"word": "à",
		"trial_type": "audio-keyboard-response",
		"trial_index": 182,
		"time_elapsed": 862038,
		"internal_node_id": "0.0-3.0-1.140"
	},
	{
		"rt": 2589,
		"stimulus": "../audio/56-5-masc.mp3",
		"response": " ",
		"word": "agência",
		"trial_type": "audio-keyboard-response",
		"trial_index": 183,
		"time_elapsed": 864926,
		"internal_node_id": "0.0-3.0-1.141"
	},
	{
		"rt": 3000,
		"stimulus": "../audio/56-6-masc.mp3",
		"response": " ",
		"word": "bancária",
		"trial_type": "audio-keyboard-response",
		"trial_index": 184,
		"time_elapsed": 868222,
		"internal_node_id": "0.0-3.0-1.142"
	},
	{
		"rt": 2792,
		"stimulus": "../audio/56-7-masc.mp3",
		"response": " ",
		"word": "ontem",
		"trial_type": "audio-keyboard-response",
		"trial_index": 185,
		"time_elapsed": 871294,
		"internal_node_id": "0.0-3.0-1.143"
	},
	{
		"rt": 2459,
		"stimulus": "../audio/56-8-masc.mp3",
		"response": " ",
		"word": "de",
		"trial_type": "audio-keyboard-response",
		"trial_index": 186,
		"time_elapsed": 874030,
		"internal_node_id": "0.0-3.0-1.144"
	},
	{
		"rt": 3181,
		"stimulus": "../audio/56-9-masc.mp3",
		"response": " ",
		"word": "tarde.",
		"trial_type": "audio-keyboard-response",
		"trial_index": 187,
		"time_elapsed": 877486,
		"internal_node_id": "0.0-3.0-1.145"
	},
	{
		"rt": null,
		"stimulus": "<span style= \"font-size:30px; font-family: monospace\">+</span>",
		"response": null,
		"trial_part": "fixation",
		"trial_type": "html-keyboard-response",
		"trial_index": 188,
		"time_elapsed": 878765,
		"internal_node_id": "0.0-3.0-0.146-0.146"
	},
	{
		"rt": 2731,
		"stimulus": "../audio/60-1-fem.mp3",
		"response": " ",
		"word": "Ondas",
		"trial_type": "audio-keyboard-response",
		"trial_index": 189,
		"time_elapsed": 881774,
		"internal_node_id": "0.0-3.0-1.146"
	},
	{
		"rt": 6400,
		"stimulus": "../audio/60-2-fem.mp3",
		"response": " ",
		"word": "têm",
		"trial_type": "audio-keyboard-response",
		"trial_index": 190,
		"time_elapsed": 888446,
		"internal_node_id": "0.0-3.0-1.147"
	},
	{
		"rt": 11869,
		"stimulus": "../audio/60-3-fem.mp3",
		"response": " ",
		"word": "um",
		"trial_type": "audio-keyboard-response",
		"trial_index": 191,
		"time_elapsed": 900590,
		"internal_node_id": "0.0-3.0-1.148"
	},
	{
		"rt": 3429,
		"stimulus": "../audio/60-4-fem.mp3",
		"response": " ",
		"word": "impacto",
		"trial_type": "audio-keyboard-response",
		"trial_index": 192,
		"time_elapsed": 904302,
		"internal_node_id": "0.0-3.0-1.149"
	},
	{
		"rt": 3211,
		"stimulus": "../audio/60-5-fem.mp3",
		"response": " ",
		"word": "destrutivo",
		"trial_type": "audio-keyboard-response",
		"trial_index": 193,
		"time_elapsed": 907806,
		"internal_node_id": "0.0-3.0-1.150"
	},
	{
		"rt": 3040,
		"stimulus": "../audio/60-6-fem.mp3",
		"response": " ",
		"word": "no",
		"trial_type": "audio-keyboard-response",
		"trial_index": 194,
		"time_elapsed": 911117,
		"internal_node_id": "0.0-3.0-1.151"
	},
	{
		"rt": 2309,
		"stimulus": "../audio/60-7-fem.mp3",
		"response": " ",
		"word": "litoral.",
		"trial_type": "audio-keyboard-response",
		"trial_index": 195,
		"time_elapsed": 913710,
		"internal_node_id": "0.0-3.0-1.152"
	},
	{
		"rt": 27046,
		"stimulus": "<span style=\"font-size:25px; font-family: monospace\">Ondas têm um impacto destrutivo?</span>",
		"response": "n",
		"question": "Ondas têm um impacto destrutivo?",
		"answer": "null",
		"trial": "exp-sent",
		"trial_type": "html-keyboard-response",
		"trial_index": 196,
		"time_elapsed": 941016,
		"internal_node_id": "0.0-3.0-2.152-0.152",
		"accuracy": false
	},
	{
		"rt": null,
		"stimulus": "<span style= \"font-size:30px; font-family: monospace\">+</span>",
		"response": null,
		"trial_part": "fixation",
		"trial_type": "html-keyboard-response",
		"trial_index": 197,
		"time_elapsed": 942539,
		"internal_node_id": "0.0-3.0-0.153-0.153"
	},
	{
		"rt": 3392,
		"stimulus": "../audio/71-1-fem.mp3",
		"response": " ",
		"word": "Minhas",
		"trial_type": "audio-keyboard-response",
		"trial_index": 198,
		"time_elapsed": 946200,
		"internal_node_id": "0.0-3.0-1.153"
	},
	{
		"rt": 1288,
		"stimulus": "../audio/71-2-fem.mp3",
		"response": " ",
		"word": "comidas",
		"trial_type": "audio-keyboard-response",
		"trial_index": 199,
		"time_elapsed": 947768,
		"internal_node_id": "0.0-3.0-1.154"
	},
	{
		"rt": 4432,
		"stimulus": "../audio/71-3-fem.mp3",
		"response": " ",
		"word": "favoritas",
		"trial_type": "audio-keyboard-response",
		"trial_index": 200,
		"time_elapsed": 952472,
		"internal_node_id": "0.0-3.0-1.155"
	},
	{
		"rt": 1408,
		"stimulus": "../audio/71-4-fem.mp3",
		"response": " ",
		"word": "são",
		"trial_type": "audio-keyboard-response",
		"trial_index": 201,
		"time_elapsed": 954168,
		"internal_node_id": "0.0-3.0-1.156"
	},
	{
		"rt": 3072,
		"stimulus": "../audio/71-5-fem.mp3",
		"response": " ",
		"word": "morango",
		"trial_type": "audio-keyboard-response",
		"trial_index": 202,
		"time_elapsed": 957511,
		"internal_node_id": "0.0-3.0-1.157"
	},
	{
		"rt": 3000,
		"stimulus": "../audio/71-6-fem.mp3",
		"response": " ",
		"word": "e",
		"trial_type": "audio-keyboard-response",
		"trial_index": 203,
		"time_elapsed": 960791,
		"internal_node_id": "0.0-3.0-1.158"
	},
	{
		"rt": 3819,
		"stimulus": "../audio/71-7-fem.mp3",
		"response": " ",
		"word": "uva.",
		"trial_type": "audio-keyboard-response",
		"trial_index": 204,
		"time_elapsed": 964888,
		"internal_node_id": "0.0-3.0-1.159"
	},
	{
		"rt": null,
		"stimulus": "<span style= \"font-size:30px; font-family: monospace\">+</span>",
		"response": null,
		"trial_part": "fixation",
		"trial_type": "html-keyboard-response",
		"trial_index": 205,
		"time_elapsed": 966169,
		"internal_node_id": "0.0-3.0-0.160-0.160"
	},
	{
		"rt": 1312,
		"stimulus": "../audio/74-1-masc.mp3",
		"response": " ",
		"word": "Este",
		"trial_type": "audio-keyboard-response",
		"trial_index": 206,
		"time_elapsed": 967751,
		"internal_node_id": "0.0-3.0-1.160"
	},
	{
		"rt": 2499,
		"stimulus": "../audio/74-2-masc.mp3",
		"response": " ",
		"word": "emprego",
		"trial_type": "audio-keyboard-response",
		"trial_index": 207,
		"time_elapsed": 970536,
		"internal_node_id": "0.0-3.0-1.161"
	},
	{
		"rt": 1781,
		"stimulus": "../audio/74-3-masc.mp3",
		"response": " ",
		"word": "é",
		"trial_type": "audio-keyboard-response",
		"trial_index": 208,
		"time_elapsed": 972600,
		"internal_node_id": "0.0-3.0-1.162"
	},
	{
		"rt": 1432,
		"stimulus": "../audio/74-4-masc.mp3",
		"response": " ",
		"word": "muito",
		"trial_type": "audio-keyboard-response",
		"trial_index": 209,
		"time_elapsed": 974312,
		"internal_node_id": "0.0-3.0-1.163"
	},
	{
		"rt": 1488,
		"stimulus": "../audio/74-5-masc.mp3",
		"response": " ",
		"word": "cansativo",
		"trial_type": "audio-keyboard-response",
		"trial_index": 210,
		"time_elapsed": 976088,
		"internal_node_id": "0.0-3.0-1.164"
	},
	{
		"rt": 1040,
		"stimulus": "../audio/74-6-masc.mp3",
		"response": " ",
		"word": "a",
		"trial_type": "audio-keyboard-response",
		"trial_index": 211,
		"time_elapsed": 977400,
		"internal_node_id": "0.0-3.0-1.165"
	},
	{
		"rt": 1331,
		"stimulus": "../audio/74-7-masc.mp3",
		"response": " ",
		"word": "longo",
		"trial_type": "audio-keyboard-response",
		"trial_index": 212,
		"time_elapsed": 979016,
		"internal_node_id": "0.0-3.0-1.166"
	},
	{
		"rt": 1189,
		"stimulus": "../audio/74-8-masc.mp3",
		"response": " ",
		"word": "prazo.",
		"trial_type": "audio-keyboard-response",
		"trial_index": 213,
		"time_elapsed": 980488,
		"internal_node_id": "0.0-3.0-1.167"
	},
	{
		"rt": null,
		"stimulus": "<span style= \"font-size:30px; font-family: monospace\">+</span>",
		"response": null,
		"trial_part": "fixation",
		"trial_type": "html-keyboard-response",
		"trial_index": 214,
		"time_elapsed": 981759,
		"internal_node_id": "0.0-3.0-0.168-0.168"
	},
	{
		"rt": 1139,
		"stimulus": "../audio/72-1-masc.mp3",
		"response": " ",
		"word": "A",
		"trial_type": "audio-keyboard-response",
		"trial_index": 215,
		"time_elapsed": 983176,
		"internal_node_id": "0.0-3.0-1.168"
	},
	{
		"rt": 1021,
		"stimulus": "../audio/72-2-masc.mp3",
		"response": " ",
		"word": "vencedora",
		"trial_type": "audio-keyboard-response",
		"trial_index": 216,
		"time_elapsed": 984472,
		"internal_node_id": "0.0-3.0-1.169"
	},
	{
		"rt": 1099,
		"stimulus": "../audio/72-3-masc.mp3",
		"response": " ",
		"word": "recebeu",
		"trial_type": "audio-keyboard-response",
		"trial_index": 217,
		"time_elapsed": 985848,
		"internal_node_id": "0.0-3.0-1.170"
	},
	{
		"rt": 1000,
		"stimulus": "../audio/72-4-masc.mp3",
		"response": " ",
		"word": "um",
		"trial_type": "audio-keyboard-response",
		"trial_index": 218,
		"time_elapsed": 987112,
		"internal_node_id": "0.0-3.0-1.171"
	},
	{
		"rt": 928,
		"stimulus": "../audio/72-5-masc.mp3",
		"response": " ",
		"word": "prêmio",
		"trial_type": "audio-keyboard-response",
		"trial_index": 219,
		"time_elapsed": 988328,
		"internal_node_id": "0.0-3.0-1.172"
	},
	{
		"rt": 1059,
		"stimulus": "../audio/72-6-masc.mp3",
		"response": " ",
		"word": "em",
		"trial_type": "audio-keyboard-response",
		"trial_index": 220,
		"time_elapsed": 989656,
		"internal_node_id": "0.0-3.0-1.173"
	},
	{
		"rt": 1080,
		"stimulus": "../audio/72-7-masc.mp3",
		"response": " ",
		"word": "dinheiro.",
		"trial_type": "audio-keyboard-response",
		"trial_index": 221,
		"time_elapsed": 991016,
		"internal_node_id": "0.0-3.0-1.174"
	},
	{
		"rt": null,
		"stimulus": "<span style= \"font-size:30px; font-family: monospace\">+</span>",
		"response": null,
		"trial_part": "fixation",
		"trial_type": "html-keyboard-response",
		"trial_index": 222,
		"time_elapsed": 992289,
		"internal_node_id": "0.0-3.0-0.175-0.175"
	},
	{
		"rt": 632,
		"stimulus": "../audio/73-1-fem.mp3",
		"response": " ",
		"word": "O",
		"trial_type": "audio-keyboard-response",
		"trial_index": 223,
		"time_elapsed": 993191,
		"internal_node_id": "0.0-3.0-1.175"
	},
	{
		"rt": 811,
		"stimulus": "../audio/73-2-fem.mp3",
		"response": " ",
		"word": "cliente",
		"trial_type": "audio-keyboard-response",
		"trial_index": 224,
		"time_elapsed": 994280,
		"internal_node_id": "0.0-3.0-1.176"
	},
	{
		"rt": 619,
		"stimulus": "../audio/73-3-fem.mp3",
		"response": " ",
		"word": "era",
		"trial_type": "audio-keyboard-response",
		"trial_index": 225,
		"time_elapsed": 995176,
		"internal_node_id": "0.0-3.0-1.177"
	},
	{
		"rt": 1131,
		"stimulus": "../audio/73-4-fem.mp3",
		"response": " ",
		"word": "um",
		"trial_type": "audio-keyboard-response",
		"trial_index": 226,
		"time_elapsed": 996584,
		"internal_node_id": "0.0-3.0-1.178"
	},
	{
		"rt": 931,
		"stimulus": "../audio/73-5-fem.mp3",
		"response": " ",
		"word": "homem",
		"trial_type": "audio-keyboard-response",
		"trial_index": 227,
		"time_elapsed": 997800,
		"internal_node_id": "0.0-3.0-1.179"
	},
	{
		"rt": 1440,
		"stimulus": "../audio/73-6-fem.mp3",
		"response": " ",
		"word": "muito",
		"trial_type": "audio-keyboard-response",
		"trial_index": 228,
		"time_elapsed": 999528,
		"internal_node_id": "0.0-3.0-1.180"
	},
	{
		"rt": 1488,
		"stimulus": "../audio/73-7-fem.mp3",
		"response": " ",
		"word": "educado.",
		"trial_type": "audio-keyboard-response",
		"trial_index": 229,
		"time_elapsed": 1001286,
		"internal_node_id": "0.0-3.0-1.181"
	},
	{
		"rt": null,
		"stimulus": "<span style= \"font-size:30px; font-family: monospace\">+</span>",
		"response": null,
		"trial_part": "fixation",
		"trial_type": "html-keyboard-response",
		"trial_index": 230,
		"time_elapsed": 1002558,
		"internal_node_id": "0.0-3.0-0.182-0.182"
	},
	{
		"rt": 499,
		"stimulus": "../audio/75-1-masc.mp3",
		"response": " ",
		"word": "Só",
		"trial_type": "audio-keyboard-response",
		"trial_index": 231,
		"time_elapsed": 1003334,
		"internal_node_id": "0.0-3.0-1.182"
	},
	{
		"rt": 600,
		"stimulus": "../audio/75-2-masc.mp3",
		"response": " ",
		"word": "existe",
		"trial_type": "audio-keyboard-response",
		"trial_index": 232,
		"time_elapsed": 1004214,
		"internal_node_id": "0.0-3.0-1.183"
	},
	{
		"rt": 600,
		"stimulus": "../audio/75-3-masc.mp3",
		"response": " ",
		"word": "uma",
		"trial_type": "audio-keyboard-response",
		"trial_index": 233,
		"time_elapsed": 1005094,
		"internal_node_id": "0.0-3.0-1.184"
	},
	{
		"rt": 611,
		"stimulus": "../audio/75-4-masc.mp3",
		"response": " ",
		"word": "pessoa",
		"trial_type": "audio-keyboard-response",
		"trial_index": 234,
		"time_elapsed": 1005974,
		"internal_node_id": "0.0-3.0-1.185"
	},
	{
		"rt": 632,
		"stimulus": "../audio/75-5-masc.mp3",
		"response": " ",
		"word": "canhota",
		"trial_type": "audio-keyboard-response",
		"trial_index": 235,
		"time_elapsed": 1006870,
		"internal_node_id": "0.0-3.0-1.186"
	},
	{
		"rt": 811,
		"stimulus": "../audio/75-6-masc.mp3",
		"response": " ",
		"word": "nesta",
		"trial_type": "audio-keyboard-response",
		"trial_index": 236,
		"time_elapsed": 1007958,
		"internal_node_id": "0.0-3.0-1.187"
	},
	{
		"rt": 952,
		"stimulus": "../audio/75-7-masc.mp3",
		"response": " ",
		"word": "cidade.",
		"trial_type": "audio-keyboard-response",
		"trial_index": 237,
		"time_elapsed": 1009190,
		"internal_node_id": "0.0-3.0-1.188"
	},
	{
		"rt": 39518,
		"stimulus": "<span style=\"font-size:25px; font-family: monospace\">Só existe uma pessoa canhota na cidade?</span>",
		"response": "s",
		"question": "Só existe uma pessoa canhota na cidade?",
		"answer": "null",
		"trial": "exp-sent",
		"trial_type": "html-keyboard-response",
		"trial_index": 238,
		"time_elapsed": 1048966,
		"internal_node_id": "0.0-3.0-2.188-0.188",
		"accuracy": false
	},
	{
		"rt": null,
		"stimulus": "<span style= \"font-size:30px; font-family: monospace\">+</span>",
		"response": null,
		"trial_part": "fixation",
		"trial_type": "html-keyboard-response",
		"trial_index": 239,
		"time_elapsed": 1050467,
		"internal_node_id": "0.0-3.0-0.189-0.189"
	},
	{
		"rt": 1549,
		"stimulus": "../audio/42-1-masc.mp3",
		"response": " ",
		"word": "Eu",
		"trial_type": "audio-keyboard-response",
		"trial_index": 240,
		"time_elapsed": 1052406,
		"internal_node_id": "0.0-3.0-1.189"
	},
	{
		"rt": 2541,
		"stimulus": "../audio/42-2-masc.mp3",
		"response": " ",
		"word": "fui",
		"trial_type": "audio-keyboard-response",
		"trial_index": 241,
		"time_elapsed": 1055222,
		"internal_node_id": "0.0-3.0-1.190"
	},
	{
		"rt": 1539,
		"stimulus": "../audio/42-3-masc.mp3",
		"response": " ",
		"word": "a",
		"trial_type": "audio-keyboard-response",
		"trial_index": 242,
		"time_elapsed": 1057030,
		"internal_node_id": "0.0-3.0-1.191"
	},
	{
		"rt": 872,
		"stimulus": "../audio/42-4-masc.mp3",
		"response": " ",
		"word": "uma",
		"trial_type": "audio-keyboard-response",
		"trial_index": 243,
		"time_elapsed": 1058182,
		"internal_node_id": "0.0-3.0-1.192"
	},
	{
		"rt": 899,
		"stimulus": "../audio/42-5-masc.mp3",
		"response": " ",
		"word": "loja",
		"trial_type": "audio-keyboard-response",
		"trial_index": 244,
		"time_elapsed": 1059366,
		"internal_node_id": "0.0-3.0-1.193"
	},
	{
		"rt": 941,
		"stimulus": "../audio/42-6-masc.mp3",
		"response": " ",
		"word": "de",
		"trial_type": "audio-keyboard-response",
		"trial_index": 245,
		"time_elapsed": 1060582,
		"internal_node_id": "0.0-3.0-1.194"
	},
	{
		"rt": 789,
		"stimulus": "../audio/42-7-masc.mp3",
		"response": " ",
		"word": "móveis",
		"trial_type": "audio-keyboard-response",
		"trial_index": 246,
		"time_elapsed": 1061655,
		"internal_node_id": "0.0-3.0-1.195"
	},
	{
		"rt": 709,
		"stimulus": "../audio/42-8-masc.mp3",
		"response": " ",
		"word": "no",
		"trial_type": "audio-keyboard-response",
		"trial_index": 247,
		"time_elapsed": 1062647,
		"internal_node_id": "0.0-3.0-1.196"
	},
	{
		"rt": 800,
		"stimulus": "../audio/42-9-masc.mp3",
		"response": " ",
		"word": "bairro.",
		"trial_type": "audio-keyboard-response",
		"trial_index": 248,
		"time_elapsed": 1063719,
		"internal_node_id": "0.0-3.0-1.197"
	},
	{
		"rt": null,
		"stimulus": "<span style= \"font-size:30px; font-family: monospace\">+</span>",
		"response": null,
		"trial_part": "fixation",
		"trial_type": "html-keyboard-response",
		"trial_index": 249,
		"time_elapsed": 1064988,
		"internal_node_id": "0.0-3.0-0.198-0.198"
	},
	{
		"rt": 491,
		"stimulus": "../audio/44-1-fem.mp3",
		"response": " ",
		"word": "Meus",
		"trial_type": "audio-keyboard-response",
		"trial_index": 250,
		"time_elapsed": 1065767,
		"internal_node_id": "0.0-3.0-1.198"
	},
	{
		"rt": 531,
		"stimulus": "../audio/44-2-fem.mp3",
		"response": " ",
		"word": "irmãos",
		"trial_type": "audio-keyboard-response",
		"trial_index": 251,
		"time_elapsed": 1066567,
		"internal_node_id": "0.0-3.0-1.199"
	},
	{
		"rt": 440,
		"stimulus": "../audio/44-3-fem.mp3",
		"response": " ",
		"word": "brigam",
		"trial_type": "audio-keyboard-response",
		"trial_index": 252,
		"time_elapsed": 1067271,
		"internal_node_id": "0.0-3.0-1.200"
	},
	{
		"rt": 459,
		"stimulus": "../audio/44-4-fem.mp3",
		"response": " ",
		"word": "por",
		"trial_type": "audio-keyboard-response",
		"trial_index": 253,
		"time_elapsed": 1068007,
		"internal_node_id": "0.0-3.0-1.201"
	},
	{
		"rt": 571,
		"stimulus": "../audio/44-5-fem.mp3",
		"response": " ",
		"word": "bobagem",
		"trial_type": "audio-keyboard-response",
		"trial_index": 254,
		"time_elapsed": 1068855,
		"internal_node_id": "0.0-3.0-1.202"
	},
	{
		"rt": 549,
		"stimulus": "../audio/44-6-fem.mp3",
		"response": " ",
		"word": "todos",
		"trial_type": "audio-keyboard-response",
		"trial_index": 255,
		"time_elapsed": 1069687,
		"internal_node_id": "0.0-3.0-1.203"
	},
	{
		"rt": 491,
		"stimulus": "../audio/44-7-fem.mp3",
		"response": " ",
		"word": "os",
		"trial_type": "audio-keyboard-response",
		"trial_index": 256,
		"time_elapsed": 1070455,
		"internal_node_id": "0.0-3.0-1.204"
	},
	{
		"rt": 491,
		"stimulus": "../audio/44-8-fem.mp3",
		"response": " ",
		"word": "dias.",
		"trial_type": "audio-keyboard-response",
		"trial_index": 257,
		"time_elapsed": 1071223,
		"internal_node_id": "0.0-3.0-1.205"
	},
	{
		"rt": null,
		"stimulus": "<span style= \"font-size:30px; font-family: monospace\">+</span>",
		"response": null,
		"trial_part": "fixation",
		"trial_type": "html-keyboard-response",
		"trial_index": 258,
		"time_elapsed": 1072488,
		"internal_node_id": "0.0-3.0-0.206-0.206"
	},
	{
		"rt": 331,
		"stimulus": "../audio/41-1-masc.mp3",
		"response": " ",
		"word": "A",
		"trial_type": "audio-keyboard-response",
		"trial_index": 259,
		"time_elapsed": 1073095,
		"internal_node_id": "0.0-3.0-1.206"
	},
	{
		"rt": 581,
		"stimulus": "../audio/41-2-masc.mp3",
		"response": " ",
		"word": "novela",
		"trial_type": "audio-keyboard-response",
		"trial_index": 260,
		"time_elapsed": 1073943,
		"internal_node_id": "0.0-3.0-1.207"
	},
	{
		"rt": 669,
		"stimulus": "../audio/41-3-masc.mp3",
		"response": " ",
		"word": "falava",
		"trial_type": "audio-keyboard-response",
		"trial_index": 261,
		"time_elapsed": 1074887,
		"internal_node_id": "0.0-3.0-1.208"
	},
	{
		"rt": 731,
		"stimulus": "../audio/41-4-masc.mp3",
		"response": " ",
		"word": "de",
		"trial_type": "audio-keyboard-response",
		"trial_index": 262,
		"time_elapsed": 1075895,
		"internal_node_id": "0.0-3.0-1.209"
	},
	{
		"rt": 720,
		"stimulus": "../audio/41-5-masc.mp3",
		"response": " ",
		"word": "paixão",
		"trial_type": "audio-keyboard-response",
		"trial_index": 263,
		"time_elapsed": 1076887,
		"internal_node_id": "0.0-3.0-1.210"
	},
	{
		"rt": 589,
		"stimulus": "../audio/41-6-masc.mp3",
		"response": " ",
		"word": "e",
		"trial_type": "audio-keyboard-response",
		"trial_index": 264,
		"time_elapsed": 1077751,
		"internal_node_id": "0.0-3.0-1.211"
	},
	{
		"rt": 608,
		"stimulus": "../audio/41-7-masc.mp3",
		"response": " ",
		"word": "comédia.",
		"trial_type": "audio-keyboard-response",
		"trial_index": 265,
		"time_elapsed": 1078631,
		"internal_node_id": "0.0-3.0-1.212"
	},
	{
		"rt": null,
		"stimulus": "<span style= \"font-size:30px; font-family: monospace\">+</span>",
		"response": null,
		"trial_part": "fixation",
		"trial_type": "html-keyboard-response",
		"trial_index": 266,
		"time_elapsed": 1079908,
		"internal_node_id": "0.0-3.0-0.213-0.213"
	},
	{
		"rt": 480,
		"stimulus": "../audio/43-1-masc.mp3",
		"response": " ",
		"word": "Eu",
		"trial_type": "audio-keyboard-response",
		"trial_index": 267,
		"time_elapsed": 1080663,
		"internal_node_id": "0.0-3.0-1.213"
	},
	{
		"rt": 459,
		"stimulus": "../audio/43-2-masc.mp3",
		"response": " ",
		"word": "achei",
		"trial_type": "audio-keyboard-response",
		"trial_index": 268,
		"time_elapsed": 1081399,
		"internal_node_id": "0.0-3.0-1.214"
	},
	{
		"rt": 360,
		"stimulus": "../audio/43-3-masc.mp3",
		"response": " ",
		"word": "um",
		"trial_type": "audio-keyboard-response",
		"trial_index": 269,
		"time_elapsed": 1082039,
		"internal_node_id": "0.0-3.0-1.215"
	},
	{
		"rt": 440,
		"stimulus": "../audio/43-4-masc.mp3",
		"response": " ",
		"word": "colchão",
		"trial_type": "audio-keyboard-response",
		"trial_index": 270,
		"time_elapsed": 1082759,
		"internal_node_id": "0.0-3.0-1.216"
	},
	{
		"rt": 611,
		"stimulus": "../audio/43-5-masc.mp3",
		"response": " ",
		"word": "velho",
		"trial_type": "audio-keyboard-response",
		"trial_index": 271,
		"time_elapsed": 1083639,
		"internal_node_id": "0.0-3.0-1.217"
	},
	{
		"rt": 512,
		"stimulus": "../audio/43-6-masc.mp3",
		"response": " ",
		"word": "e",
		"trial_type": "audio-keyboard-response",
		"trial_index": 272,
		"time_elapsed": 1084423,
		"internal_node_id": "0.0-3.0-1.218"
	},
	{
		"rt": 549,
		"stimulus": "../audio/43-7-masc.mp3",
		"response": " ",
		"word": "imundo",
		"trial_type": "audio-keyboard-response",
		"trial_index": 273,
		"time_elapsed": 1085239,
		"internal_node_id": "0.0-3.0-1.219"
	},
	{
		"rt": 491,
		"stimulus": "../audio/43-8-masc.mp3",
		"response": " ",
		"word": "na",
		"trial_type": "audio-keyboard-response",
		"trial_index": 274,
		"time_elapsed": 1086007,
		"internal_node_id": "0.0-3.0-1.220"
	},
	{
		"rt": 520,
		"stimulus": "../audio/43-9-masc.mp3",
		"response": " ",
		"word": "casa.",
		"trial_type": "audio-keyboard-response",
		"trial_index": 275,
		"time_elapsed": 1086807,
		"internal_node_id": "0.0-3.0-1.221"
	},
	{
		"rt": null,
		"stimulus": "<span style= \"font-size:30px; font-family: monospace\">+</span>",
		"response": null,
		"trial_part": "fixation",
		"trial_type": "html-keyboard-response",
		"trial_index": 276,
		"time_elapsed": 1088078,
		"internal_node_id": "0.0-3.0-0.222-0.222"
	},
	{
		"rt": 251,
		"stimulus": "../audio/45-1-fem.mp3",
		"response": " ",
		"word": "O",
		"trial_type": "audio-keyboard-response",
		"trial_index": 277,
		"time_elapsed": 1088615,
		"internal_node_id": "0.0-3.0-1.222"
	},
	{
		"rt": 501,
		"stimulus": "../audio/45-2-fem.mp3",
		"response": " ",
		"word": "homem",
		"trial_type": "audio-keyboard-response",
		"trial_index": 278,
		"time_elapsed": 1089383,
		"internal_node_id": "0.0-3.0-1.223"
	},
	{
		"rt": 520,
		"stimulus": "../audio/45-3-fem.mp3",
		"response": " ",
		"word": "pagou",
		"trial_type": "audio-keyboard-response",
		"trial_index": 279,
		"time_elapsed": 1090183,
		"internal_node_id": "0.0-3.0-1.224"
	},
	{
		"rt": 549,
		"stimulus": "../audio/45-4-fem.mp3",
		"response": " ",
		"word": "o",
		"trial_type": "audio-keyboard-response",
		"trial_index": 280,
		"time_elapsed": 1091015,
		"internal_node_id": "0.0-3.0-1.225"
	},
	{
		"rt": 640,
		"stimulus": "../audio/45-5-fem.mp3",
		"response": " ",
		"word": "aluguel",
		"trial_type": "audio-keyboard-response",
		"trial_index": 281,
		"time_elapsed": 1091927,
		"internal_node_id": "0.0-3.0-1.226"
	},
	{
		"rt": 661,
		"stimulus": "../audio/45-6-fem.mp3",
		"response": " ",
		"word": "com",
		"trial_type": "audio-keyboard-response",
		"trial_index": 282,
		"time_elapsed": 1092855,
		"internal_node_id": "0.0-3.0-1.227"
	},
	{
		"rt": 709,
		"stimulus": "../audio/45-7-fem.mp3",
		"response": " ",
		"word": "atraso.",
		"trial_type": "audio-keyboard-response",
		"trial_index": 283,
		"time_elapsed": 1093847,
		"internal_node_id": "0.0-3.0-1.228"
	},
	{
		"rt": 7349,
		"stimulus": "<span style=\"font-size:25px; font-family: monospace\">O homem pagou o aluguel em dia?</span>",
		"response": "s",
		"question": "O homem pagou o aluguel em dia?",
		"answer": "null",
		"trial": "exp-sent",
		"trial_type": "html-keyboard-response",
		"trial_index": 284,
		"time_elapsed": 1101447,
		"internal_node_id": "0.0-3.0-2.228-0.228",
		"accuracy": false
	},
	{
		"rt": null,
		"stimulus": "<span style= \"font-size:30px; font-family: monospace\">+</span>",
		"response": null,
		"trial_part": "fixation",
		"trial_type": "html-keyboard-response",
		"trial_index": 285,
		"time_elapsed": 1102978,
		"internal_node_id": "0.0-3.0-0.229-0.229"
	},
	{
		"rt": 1189,
		"stimulus": "../audio/68-1-masc.mp3",
		"response": " ",
		"word": "Meu",
		"trial_type": "audio-keyboard-response",
		"trial_index": 286,
		"time_elapsed": 1104455,
		"internal_node_id": "0.0-3.0-1.229"
	},
	{
		"rt": 869,
		"stimulus": "../audio/68-2-masc.mp3",
		"response": " ",
		"word": "irmão",
		"trial_type": "audio-keyboard-response",
		"trial_index": 287,
		"time_elapsed": 1105591,
		"internal_node_id": "0.0-3.0-1.230"
	},
	{
		"rt": 819,
		"stimulus": "../audio/68-3-masc.mp3",
		"response": " ",
		"word": "teve",
		"trial_type": "audio-keyboard-response",
		"trial_index": 288,
		"time_elapsed": 1106679,
		"internal_node_id": "0.0-3.0-1.231"
	},
	{
		"rt": 891,
		"stimulus": "../audio/68-4-masc.mp3",
		"response": " ",
		"word": "um",
		"trial_type": "audio-keyboard-response",
		"trial_index": 289,
		"time_elapsed": 1107847,
		"internal_node_id": "0.0-3.0-1.232"
	},
	{
		"rt": 821,
		"stimulus": "../audio/68-5-masc.mp3",
		"response": " ",
		"word": "noivado",
		"trial_type": "audio-keyboard-response",
		"trial_index": 290,
		"time_elapsed": 1108935,
		"internal_node_id": "0.0-3.0-1.233"
	},
	{
		"rt": 840,
		"stimulus": "../audio/68-6-masc.mp3",
		"response": " ",
		"word": "longo",
		"trial_type": "audio-keyboard-response",
		"trial_index": 291,
		"time_elapsed": 1110055,
		"internal_node_id": "0.0-3.0-1.234"
	},
	{
		"rt": 589,
		"stimulus": "../audio/68-7-masc.mp3",
		"response": " ",
		"word": "e",
		"trial_type": "audio-keyboard-response",
		"trial_index": 292,
		"time_elapsed": 1110919,
		"internal_node_id": "0.0-3.0-1.235"
	},
	{
		"rt": 512,
		"stimulus": "../audio/68-8-masc.mp3",
		"response": " ",
		"word": "maravilhoso.",
		"trial_type": "audio-keyboard-response",
		"trial_index": 293,
		"time_elapsed": 1111703,
		"internal_node_id": "0.0-3.0-1.236"
	},
	{
		"rt": null,
		"stimulus": "<span style= \"font-size:30px; font-family: monospace\">+</span>",
		"response": null,
		"trial_part": "fixation",
		"trial_type": "html-keyboard-response",
		"trial_index": 294,
		"time_elapsed": 1112978,
		"internal_node_id": "0.0-3.0-0.237-0.237"
	},
	{
		"rt": 349,
		"stimulus": "../audio/69-1-masc.mp3",
		"response": " ",
		"word": "A",
		"trial_type": "audio-keyboard-response",
		"trial_index": 295,
		"time_elapsed": 1113591,
		"internal_node_id": "0.0-3.0-1.237"
	},
	{
		"rt": 509,
		"stimulus": "../audio/69-2-masc.mp3",
		"response": " ",
		"word": "loja",
		"trial_type": "audio-keyboard-response",
		"trial_index": 296,
		"time_elapsed": 1114375,
		"internal_node_id": "0.0-3.0-1.238"
	},
	{
		"rt": 531,
		"stimulus": "../audio/69-3-masc.mp3",
		"response": " ",
		"word": "recebeu",
		"trial_type": "audio-keyboard-response",
		"trial_index": 297,
		"time_elapsed": 1115175,
		"internal_node_id": "0.0-3.0-1.239"
	},
	{
		"rt": 531,
		"stimulus": "../audio/69-4-masc.mp3",
		"response": " ",
		"word": "uma",
		"trial_type": "audio-keyboard-response",
		"trial_index": 298,
		"time_elapsed": 1115975,
		"internal_node_id": "0.0-3.0-1.240"
	},
	{
		"rt": 600,
		"stimulus": "../audio/69-5-masc.mp3",
		"response": " ",
		"word": "poltrona",
		"trial_type": "audio-keyboard-response",
		"trial_index": 299,
		"time_elapsed": 1116839,
		"internal_node_id": "0.0-3.0-1.241"
	},
	{
		"rt": 541,
		"stimulus": "../audio/69-6-masc.mp3",
		"response": " ",
		"word": "de",
		"trial_type": "audio-keyboard-response",
		"trial_index": 300,
		"time_elapsed": 1117655,
		"internal_node_id": "0.0-3.0-1.242"
	},
	{
		"rt": 571,
		"stimulus": "../audio/69-7-masc.mp3",
		"response": " ",
		"word": "couro",
		"trial_type": "audio-keyboard-response",
		"trial_index": 301,
		"time_elapsed": 1118503,
		"internal_node_id": "0.0-3.0-1.243"
	},
	{
		"rt": 528,
		"stimulus": "../audio/69-8-masc.mp3",
		"response": " ",
		"word": "preto.",
		"trial_type": "audio-keyboard-response",
		"trial_index": 302,
		"time_elapsed": 1119319,
		"internal_node_id": "0.0-3.0-1.244"
	},
	{
		"rt": null,
		"stimulus": "<span style= \"font-size:30px; font-family: monospace\">+</span>",
		"response": null,
		"trial_part": "fixation",
		"trial_type": "html-keyboard-response",
		"trial_index": 303,
		"time_elapsed": 1120588,
		"internal_node_id": "0.0-3.0-0.245-0.245"
	},
	{
		"rt": 168,
		"stimulus": "../audio/66-1-fem.mp3",
		"response": " ",
		"word": "Não",
		"trial_type": "audio-keyboard-response",
		"trial_index": 304,
		"time_elapsed": 1121031,
		"internal_node_id": "0.0-3.0-1.245"
	},
	{
		"rt": 632,
		"stimulus": "../audio/66-2-fem.mp3",
		"response": " ",
		"word": "gosto",
		"trial_type": "audio-keyboard-response",
		"trial_index": 305,
		"time_elapsed": 1121945,
		"internal_node_id": "0.0-3.0-1.246"
	},
	{
		"rt": 531,
		"stimulus": "../audio/66-3-fem.mp3",
		"response": " ",
		"word": "de",
		"trial_type": "audio-keyboard-response",
		"trial_index": 306,
		"time_elapsed": 1122745,
		"internal_node_id": "0.0-3.0-1.247"
	},
	{
		"rt": 509,
		"stimulus": "../audio/66-4-fem.mp3",
		"response": " ",
		"word": "gente",
		"trial_type": "audio-keyboard-response",
		"trial_index": 307,
		"time_elapsed": 1123529,
		"internal_node_id": "0.0-3.0-1.248"
	},
	{
		"rt": 501,
		"stimulus": "../audio/66-5-fem.mp3",
		"response": " ",
		"word": "egoísta",
		"trial_type": "audio-keyboard-response",
		"trial_index": 308,
		"time_elapsed": 1124297,
		"internal_node_id": "0.0-3.0-1.249"
	},
	{
		"rt": 611,
		"stimulus": "../audio/66-6-fem.mp3",
		"response": " ",
		"word": "nem",
		"trial_type": "audio-keyboard-response",
		"trial_index": 309,
		"time_elapsed": 1125177,
		"internal_node_id": "0.0-3.0-1.250"
	},
	{
		"rt": 560,
		"stimulus": "../audio/66-7-fem.mp3",
		"response": " ",
		"word": "chata.",
		"trial_type": "audio-keyboard-response",
		"trial_index": 310,
		"time_elapsed": 1126009,
		"internal_node_id": "0.0-3.0-1.251"
	},
	{
		"rt": null,
		"stimulus": "<span style= \"font-size:30px; font-family: monospace\">+</span>",
		"response": null,
		"trial_part": "fixation",
		"trial_type": "html-keyboard-response",
		"trial_index": 311,
		"time_elapsed": 1127270,
		"internal_node_id": "0.0-3.0-0.252-0.252"
	},
	{
		"rt": 451,
		"stimulus": "../audio/67-1-fem.mp3",
		"response": " ",
		"word": "Minha",
		"trial_type": "audio-keyboard-response",
		"trial_index": 312,
		"time_elapsed": 1128009,
		"internal_node_id": "0.0-3.0-1.252"
	},
	{
		"rt": 571,
		"stimulus": "../audio/67-2-fem.mp3",
		"response": " ",
		"word": "tia",
		"trial_type": "audio-keyboard-response",
		"trial_index": 313,
		"time_elapsed": 1128857,
		"internal_node_id": "0.0-3.0-1.253"
	},
	{
		"rt": 531,
		"stimulus": "../audio/67-3-fem.mp3",
		"response": " ",
		"word": "comprou",
		"trial_type": "audio-keyboard-response",
		"trial_index": 314,
		"time_elapsed": 1129657,
		"internal_node_id": "0.0-3.0-1.254"
	},
	{
		"rt": 589,
		"stimulus": "../audio/67-4-fem.mp3",
		"response": " ",
		"word": "um",
		"trial_type": "audio-keyboard-response",
		"trial_index": 315,
		"time_elapsed": 1130521,
		"internal_node_id": "0.0-3.0-1.255"
	},
	{
		"rt": 531,
		"stimulus": "../audio/67-5-fem.mp3",
		"response": " ",
		"word": "cordão",
		"trial_type": "audio-keyboard-response",
		"trial_index": 316,
		"time_elapsed": 1131321,
		"internal_node_id": "0.0-3.0-1.256"
	},
	{
		"rt": 520,
		"stimulus": "../audio/67-6-fem.mp3",
		"response": " ",
		"word": "para",
		"trial_type": "audio-keyboard-response",
		"trial_index": 317,
		"time_elapsed": 1132105,
		"internal_node_id": "0.0-3.0-1.257"
	},
	{
		"rt": 499,
		"stimulus": "../audio/67-7-fem.mp3",
		"response": " ",
		"word": "o",
		"trial_type": "audio-keyboard-response",
		"trial_index": 318,
		"time_elapsed": 1132889,
		"internal_node_id": "0.0-3.0-1.258"
	},
	{
		"rt": 360,
		"stimulus": "../audio/67-8-fem.mp3",
		"response": " ",
		"word": "varal.",
		"trial_type": "audio-keyboard-response",
		"trial_index": 319,
		"time_elapsed": 1133512,
		"internal_node_id": "0.0-3.0-1.259"
	},
	{
		"rt": null,
		"stimulus": "<span style= \"font-size:30px; font-family: monospace\">+</span>",
		"response": null,
		"trial_part": "fixation",
		"trial_type": "html-keyboard-response",
		"trial_index": 320,
		"time_elapsed": 1134780,
		"internal_node_id": "0.0-3.0-0.260-0.260"
	},
	{
		"rt": 328,
		"stimulus": "../audio/70-1-fem.mp3",
		"response": " ",
		"word": "O",
		"trial_type": "audio-keyboard-response",
		"trial_index": 321,
		"time_elapsed": 1135401,
		"internal_node_id": "0.0-3.0-1.260"
	},
	{
		"rt": 581,
		"stimulus": "../audio/70-2-fem.mp3",
		"response": " ",
		"word": "meu",
		"trial_type": "audio-keyboard-response",
		"trial_index": 322,
		"time_elapsed": 1136265,
		"internal_node_id": "0.0-3.0-1.261"
	},
	{
		"rt": 589,
		"stimulus": "../audio/70-3-fem.mp3",
		"response": " ",
		"word": "filho",
		"trial_type": "audio-keyboard-response",
		"trial_index": 323,
		"time_elapsed": 1137129,
		"internal_node_id": "0.0-3.0-1.262"
	},
	{
		"rt": 741,
		"stimulus": "../audio/70-4-fem.mp3",
		"response": " ",
		"word": "tem",
		"trial_type": "audio-keyboard-response",
		"trial_index": 324,
		"time_elapsed": 1138137,
		"internal_node_id": "0.0-3.0-1.263"
	},
	{
		"rt": 629,
		"stimulus": "../audio/70-5-fem.mp3",
		"response": " ",
		"word": "medo",
		"trial_type": "audio-keyboard-response",
		"trial_index": 325,
		"time_elapsed": 1139049,
		"internal_node_id": "0.0-3.0-1.264"
	},
	{
		"rt": 611,
		"stimulus": "../audio/70-6-fem.mp3",
		"response": " ",
		"word": "de",
		"trial_type": "audio-keyboard-response",
		"trial_index": 326,
		"time_elapsed": 1139929,
		"internal_node_id": "0.0-3.0-1.265"
	},
	{
		"rt": 611,
		"stimulus": "../audio/70-7-fem.mp3",
		"response": " ",
		"word": "enguia",
		"trial_type": "audio-keyboard-response",
		"trial_index": 327,
		"time_elapsed": 1140809,
		"internal_node_id": "0.0-3.0-1.266"
	},
	{
		"rt": 661,
		"stimulus": "../audio/70-8-fem.mp3",
		"response": " ",
		"word": "e",
		"trial_type": "audio-keyboard-response",
		"trial_index": 328,
		"time_elapsed": 1141737,
		"internal_node_id": "0.0-3.0-1.267"
	},
	{
		"rt": 960,
		"stimulus": "../audio/70-9-fem.mp3",
		"response": " ",
		"word": "beija-flor.",
		"trial_type": "audio-keyboard-response",
		"trial_index": 329,
		"time_elapsed": 1142985,
		"internal_node_id": "0.0-3.0-1.268"
	},
	{
		"rt": 20641,
		"stimulus": "<span style=\"font-size:25px; font-family: monospace\">O filho tem medo de tigre?</span>",
		"response": "s",
		"question": "O filho tem medo de tigre?",
		"answer": "null",
		"trial": "exp-sent",
		"trial_type": "html-keyboard-response",
		"trial_index": 330,
		"time_elapsed": 1163881,
		"internal_node_id": "0.0-3.0-2.268-0.268",
		"accuracy": false
	},
	{
		"rt": null,
		"stimulus": "<span style= \"font-size:30px; font-family: monospace\">+</span>",
		"response": null,
		"trial_part": "fixation",
		"trial_type": "html-keyboard-response",
		"trial_index": 331,
		"time_elapsed": 1165410,
		"internal_node_id": "0.0-3.0-0.269-0.269"
	},
	{
		"rt": 11,
		"stimulus": "../audio/12-1-masc.mp3",
		"response": " ",
		"word": "O",
		"trial_type": "audio-keyboard-response",
		"trial_index": 332,
		"time_elapsed": 1165705,
		"internal_node_id": "0.0-3.0-1.269"
	},
	{
		"rt": 888,
		"stimulus": "../audio/12-2-masc.mp3",
		"response": " ",
		"word": "dia",
		"trial_type": "audio-keyboard-response",
		"trial_index": 333,
		"time_elapsed": 1166873,
		"internal_node_id": "0.0-3.0-1.270"
	},
	{
		"rt": 741,
		"stimulus": "../audio/12-3-masc.mp3",
		"response": " ",
		"word": "estava",
		"trial_type": "audio-keyboard-response",
		"trial_index": 334,
		"time_elapsed": 1167897,
		"internal_node_id": "0.0-3.0-1.271"
	},
	{
		"rt": 720,
		"stimulus": "../audio/12-4-masc.mp3",
		"response": " ",
		"word": "quente,",
		"trial_type": "audio-keyboard-response",
		"trial_index": 335,
		"time_elapsed": 1168889,
		"internal_node_id": "0.0-3.0-1.272"
	},
	{
		"rt": 712,
		"stimulus": "../audio/12-5-masc.mp3",
		"response": " ",
		"word": "tranquilo",
		"trial_type": "audio-keyboard-response",
		"trial_index": 336,
		"time_elapsed": 1169865,
		"internal_node_id": "0.0-3.0-1.273"
	},
	{
		"rt": 760,
		"stimulus": "../audio/12-6-masc.mp3",
		"response": " ",
		"word": "e",
		"trial_type": "audio-keyboard-response",
		"trial_index": 337,
		"time_elapsed": 1170905,
		"internal_node_id": "0.0-3.0-1.274"
	},
	{
		"rt": 931,
		"stimulus": "../audio/12-7-masc.mp3",
		"response": " ",
		"word": "ensolarado.",
		"trial_type": "audio-keyboard-response",
		"trial_index": 338,
		"time_elapsed": 1172105,
		"internal_node_id": "0.0-3.0-1.275"
	},
	{
		"rt": null,
		"stimulus": "<span style= \"font-size:30px; font-family: monospace\">+</span>",
		"response": null,
		"trial_part": "fixation",
		"trial_type": "html-keyboard-response",
		"trial_index": 339,
		"time_elapsed": 1173390,
		"internal_node_id": "0.0-3.0-0.276-0.276"
	},
	{
		"rt": 120,
		"stimulus": "../audio/11-1-fem.mp3",
		"response": " ",
		"word": "Elas",
		"trial_type": "audio-keyboard-response",
		"trial_index": 340,
		"time_elapsed": 1173801,
		"internal_node_id": "0.0-3.0-1.276"
	},
	{
		"rt": 549,
		"stimulus": "../audio/11-2-fem.mp3",
		"response": " ",
		"word": "gostam",
		"trial_type": "audio-keyboard-response",
		"trial_index": 341,
		"time_elapsed": 1174633,
		"internal_node_id": "0.0-3.0-1.277"
	},
	{
		"rt": 552,
		"stimulus": "../audio/11-3-fem.mp3",
		"response": " ",
		"word": "muito",
		"trial_type": "audio-keyboard-response",
		"trial_index": 342,
		"time_elapsed": 1175465,
		"internal_node_id": "0.0-3.0-1.278"
	},
	{
		"rt": 589,
		"stimulus": "../audio/11-4-fem.mp3",
		"response": " ",
		"word": "de",
		"trial_type": "audio-keyboard-response",
		"trial_index": 343,
		"time_elapsed": 1176328,
		"internal_node_id": "0.0-3.0-1.279"
	},
	{
		"rt": 621,
		"stimulus": "../audio/11-5-fem.mp3",
		"response": " ",
		"word": "aritmética",
		"trial_type": "audio-keyboard-response",
		"trial_index": 344,
		"time_elapsed": 1177224,
		"internal_node_id": "0.0-3.0-1.280"
	},
	{
		"rt": 691,
		"stimulus": "../audio/11-6-fem.mp3",
		"response": " ",
		"word": "e",
		"trial_type": "audio-keyboard-response",
		"trial_index": 345,
		"time_elapsed": 1178185,
		"internal_node_id": "0.0-3.0-1.281"
	},
	{
		"rt": 709,
		"stimulus": "../audio/11-7-fem.mp3",
		"response": " ",
		"word": "de",
		"trial_type": "audio-keyboard-response",
		"trial_index": 346,
		"time_elapsed": 1179177,
		"internal_node_id": "0.0-3.0-1.282"
	},
	{
		"rt": 669,
		"stimulus": "../audio/11-8-fem.mp3",
		"response": " ",
		"word": "leitura.",
		"trial_type": "audio-keyboard-response",
		"trial_index": 347,
		"time_elapsed": 1180120,
		"internal_node_id": "0.0-3.0-1.283"
	},
	{
		"rt": null,
		"stimulus": "<span style= \"font-size:30px; font-family: monospace\">+</span>",
		"response": null,
		"trial_part": "fixation",
		"trial_type": "html-keyboard-response",
		"trial_index": 348,
		"time_elapsed": 1181400,
		"internal_node_id": "0.0-3.0-0.284-0.284"
	},
	{
		"rt": 549,
		"stimulus": "../audio/14-1-masc.mp3",
		"response": " ",
		"word": "O",
		"trial_type": "audio-keyboard-response",
		"trial_index": 349,
		"time_elapsed": 1182235,
		"internal_node_id": "0.0-3.0-1.284"
	},
	{
		"rt": 760,
		"stimulus": "../audio/14-2-masc.mp3",
		"response": " ",
		"word": "cachorro",
		"trial_type": "audio-keyboard-response",
		"trial_index": 350,
		"time_elapsed": 1183275,
		"internal_node_id": "0.0-3.0-1.285"
	},
	{
		"rt": 720,
		"stimulus": "../audio/14-3-masc.mp3",
		"response": " ",
		"word": "é",
		"trial_type": "audio-keyboard-response",
		"trial_index": 351,
		"time_elapsed": 1184267,
		"internal_node_id": "0.0-3.0-1.286"
	},
	{
		"rt": 739,
		"stimulus": "../audio/14-4-masc.mp3",
		"response": " ",
		"word": "muito",
		"trial_type": "audio-keyboard-response",
		"trial_index": 352,
		"time_elapsed": 1185291,
		"internal_node_id": "0.0-3.0-1.287"
	},
	{
		"rt": 680,
		"stimulus": "../audio/14-5-masc.mp3",
		"response": " ",
		"word": "fiel",
		"trial_type": "audio-keyboard-response",
		"trial_index": 353,
		"time_elapsed": 1186251,
		"internal_node_id": "0.0-3.0-1.288"
	},
	{
		"rt": 651,
		"stimulus": "../audio/14-6-masc.mp3",
		"response": " ",
		"word": "a",
		"trial_type": "audio-keyboard-response",
		"trial_index": 354,
		"time_elapsed": 1187163,
		"internal_node_id": "0.0-3.0-1.289"
	},
	{
		"rt": 651,
		"stimulus": "../audio/14-7-masc.mp3",
		"response": " ",
		"word": "seus",
		"trial_type": "audio-keyboard-response",
		"trial_index": 355,
		"time_elapsed": 1188091,
		"internal_node_id": "0.0-3.0-1.290"
	},
	{
		"rt": 651,
		"stimulus": "../audio/14-8-masc.mp3",
		"response": " ",
		"word": "donos.",
		"trial_type": "audio-keyboard-response",
		"trial_index": 356,
		"time_elapsed": 1189019,
		"internal_node_id": "0.0-3.0-1.291"
	},
	{
		"rt": null,
		"stimulus": "<span style= \"font-size:30px; font-family: monospace\">+</span>",
		"response": null,
		"trial_part": "fixation",
		"trial_type": "html-keyboard-response",
		"trial_index": 357,
		"time_elapsed": 1190292,
		"internal_node_id": "0.0-3.0-0.292-0.292"
	},
	{
		"rt": 451,
		"stimulus": "../audio/13-1-masc.mp3",
		"response": " ",
		"word": "Para",
		"trial_type": "audio-keyboard-response",
		"trial_index": 358,
		"time_elapsed": 1191019,
		"internal_node_id": "0.0-3.0-1.292"
	},
	{
		"rt": 709,
		"stimulus": "../audio/13-2-masc.mp3",
		"response": " ",
		"word": "mim",
		"trial_type": "audio-keyboard-response",
		"trial_index": 359,
		"time_elapsed": 1192011,
		"internal_node_id": "0.0-3.0-1.293"
	},
	{
		"rt": 760,
		"stimulus": "../audio/13-3-masc.mp3",
		"response": " ",
		"word": "é",
		"trial_type": "audio-keyboard-response",
		"trial_index": 360,
		"time_elapsed": 1193051,
		"internal_node_id": "0.0-3.0-1.294"
	},
	{
		"rt": 800,
		"stimulus": "../audio/13-4-masc.mp3",
		"response": " ",
		"word": "muito",
		"trial_type": "audio-keyboard-response",
		"trial_index": 361,
		"time_elapsed": 1194139,
		"internal_node_id": "0.0-3.0-1.295"
	},
	{
		"rt": 939,
		"stimulus": "../audio/13-5-masc.mp3",
		"response": " ",
		"word": "difícil",
		"trial_type": "audio-keyboard-response",
		"trial_index": 362,
		"time_elapsed": 1195355,
		"internal_node_id": "0.0-3.0-1.296"
	},
	{
		"rt": 952,
		"stimulus": "../audio/13-6-masc.mp3",
		"response": " ",
		"word": "acordar",
		"trial_type": "audio-keyboard-response",
		"trial_index": 363,
		"time_elapsed": 1196587,
		"internal_node_id": "0.0-3.0-1.297"
	},
	{
		"rt": 899,
		"stimulus": "../audio/13-7-masc.mp3",
		"response": " ",
		"word": "cedo.",
		"trial_type": "audio-keyboard-response",
		"trial_index": 364,
		"time_elapsed": 1197771,
		"internal_node_id": "0.0-3.0-1.298"
	},
	{
		"rt": null,
		"stimulus": "<span style= \"font-size:30px; font-family: monospace\">+</span>",
		"response": null,
		"trial_part": "fixation",
		"trial_type": "html-keyboard-response",
		"trial_index": 365,
		"time_elapsed": 1199042,
		"internal_node_id": "0.0-3.0-0.299-0.299"
	},
	{
		"rt": 392,
		"stimulus": "../audio/15-1-masc.mp3",
		"response": " ",
		"word": "Meu",
		"trial_type": "audio-keyboard-response",
		"trial_index": 366,
		"time_elapsed": 1199707,
		"internal_node_id": "0.0-3.0-1.299"
	},
	{
		"rt": 469,
		"stimulus": "../audio/15-2-masc.mp3",
		"response": " ",
		"word": "primo",
		"trial_type": "audio-keyboard-response",
		"trial_index": 367,
		"time_elapsed": 1200459,
		"internal_node_id": "0.0-3.0-1.300"
	},
	{
		"rt": 640,
		"stimulus": "../audio/15-3-masc.mp3",
		"response": " ",
		"word": "é",
		"trial_type": "audio-keyboard-response",
		"trial_index": 368,
		"time_elapsed": 1201371,
		"internal_node_id": "0.0-3.0-1.301"
	},
	{
		"rt": 589,
		"stimulus": "../audio/15-4-masc.mp3",
		"response": " ",
		"word": "um",
		"trial_type": "audio-keyboard-response",
		"trial_index": 369,
		"time_elapsed": 1202235,
		"internal_node_id": "0.0-3.0-1.302"
	},
	{
		"rt": 640,
		"stimulus": "../audio/15-5-masc.mp3",
		"response": " ",
		"word": "grande",
		"trial_type": "audio-keyboard-response",
		"trial_index": 370,
		"time_elapsed": 1203163,
		"internal_node_id": "0.0-3.0-1.303"
	},
	{
		"rt": 571,
		"stimulus": "../audio/15-6-masc.mp3",
		"response": " ",
		"word": "vendedor",
		"trial_type": "audio-keyboard-response",
		"trial_index": 371,
		"time_elapsed": 1204011,
		"internal_node_id": "0.0-3.0-1.304"
	},
	{
		"rt": 637,
		"stimulus": "../audio/15-7-masc.mp3",
		"response": " ",
		"word": "de",
		"trial_type": "audio-keyboard-response",
		"trial_index": 372,
		"time_elapsed": 1204923,
		"internal_node_id": "0.0-3.0-1.305"
	},
	{
		"rt": 621,
		"stimulus": "../audio/15-8-masc.mp3",
		"response": " ",
		"word": "carros.",
		"trial_type": "audio-keyboard-response",
		"trial_index": 373,
		"time_elapsed": 1205819,
		"internal_node_id": "0.0-3.0-1.306"
	},
	{
		"rt": 18057,
		"stimulus": "<span style=\"font-size:25px; font-family: monospace\">O primo é um vendedor de carros?</span>",
		"response": "s",
		"question": "O primo é um vendedor de carros?",
		"answer": "null",
		"trial": "exp-sent",
		"trial_type": "html-keyboard-response",
		"trial_index": 374,
		"time_elapsed": 1224139,
		"internal_node_id": "0.0-3.0-2.306-0.306",
		"accuracy": false
	},
	{
		"rt": null,
		"stimulus": "<span style= \"font-size:30px; font-family: monospace\">+</span>",
		"response": null,
		"trial_part": "fixation",
		"trial_type": "html-keyboard-response",
		"trial_index": 375,
		"time_elapsed": 1225662,
		"internal_node_id": "0.0-3.0-0.307-0.307"
	},
	{
		"rt": 1328,
		"stimulus": "../audio/76-1-fem.mp3",
		"response": " ",
		"word": "O",
		"trial_type": "audio-keyboard-response",
		"trial_index": 376,
		"time_elapsed": 1227275,
		"internal_node_id": "0.0-3.0-1.307"
	},
	{
		"rt": 771,
		"stimulus": "../audio/76-2-fem.mp3",
		"response": " ",
		"word": "bisavô",
		"trial_type": "audio-keyboard-response",
		"trial_index": 377,
		"time_elapsed": 1228331,
		"internal_node_id": "0.0-3.0-1.308"
	},
	{
		"rt": 632,
		"stimulus": "../audio/76-3-fem.mp3",
		"response": " ",
		"word": "comprou",
		"trial_type": "audio-keyboard-response",
		"trial_index": 378,
		"time_elapsed": 1229227,
		"internal_node_id": "0.0-3.0-1.309"
	},
	{
		"rt": 789,
		"stimulus": "../audio/76-4-fem.mp3",
		"response": " ",
		"word": "um",
		"trial_type": "audio-keyboard-response",
		"trial_index": 379,
		"time_elapsed": 1230283,
		"internal_node_id": "0.0-3.0-1.310"
	},
	{
		"rt": 709,
		"stimulus": "../audio/76-5-fem.mp3",
		"response": " ",
		"word": "ralador",
		"trial_type": "audio-keyboard-response",
		"trial_index": 380,
		"time_elapsed": 1231275,
		"internal_node_id": "0.0-3.0-1.311"
	},
	{
		"rt": 579,
		"stimulus": "../audio/76-6-fem.mp3",
		"response": " ",
		"word": "de",
		"trial_type": "audio-keyboard-response",
		"trial_index": 381,
		"time_elapsed": 1232123,
		"internal_node_id": "0.0-3.0-1.312"
	},
	{
		"rt": 520,
		"stimulus": "../audio/76-7-fem.mp3",
		"response": " ",
		"word": "queijo.",
		"trial_type": "audio-keyboard-response",
		"trial_index": 382,
		"time_elapsed": 1232923,
		"internal_node_id": "0.0-3.0-1.313"
	},
	{
		"rt": null,
		"stimulus": "<span style= \"font-size:30px; font-family: monospace\">+</span>",
		"response": null,
		"trial_part": "fixation",
		"trial_type": "html-keyboard-response",
		"trial_index": 383,
		"time_elapsed": 1234192,
		"internal_node_id": "0.0-3.0-0.314-0.314"
	},
	{
		"rt": 549,
		"stimulus": "../audio/79-1-fem.mp3",
		"response": " ",
		"word": "A",
		"trial_type": "audio-keyboard-response",
		"trial_index": 384,
		"time_elapsed": 1235035,
		"internal_node_id": "0.0-3.0-1.314"
	},
	{
		"rt": 680,
		"stimulus": "../audio/79-2-fem.mp3",
		"response": " ",
		"word": "médica",
		"trial_type": "audio-keyboard-response",
		"trial_index": 385,
		"time_elapsed": 1235995,
		"internal_node_id": "0.0-3.0-1.315"
	},
	{
		"rt": 1571,
		"stimulus": "../audio/79-3-fem.mp3",
		"response": " ",
		"word": "verificou",
		"trial_type": "audio-keyboard-response",
		"trial_index": 386,
		"time_elapsed": 1237851,
		"internal_node_id": "0.0-3.0-1.316"
	},
	{
		"rt": 632,
		"stimulus": "../audio/79-4-fem.mp3",
		"response": " ",
		"word": "a",
		"trial_type": "audio-keyboard-response",
		"trial_index": 387,
		"time_elapsed": 1238747,
		"internal_node_id": "0.0-3.0-1.317"
	},
	{
		"rt": 640,
		"stimulus": "../audio/79-5-fem.mp3",
		"response": " ",
		"word": "gengiva",
		"trial_type": "audio-keyboard-response",
		"trial_index": 388,
		"time_elapsed": 1239659,
		"internal_node_id": "0.0-3.0-1.318"
	},
	{
		"rt": 709,
		"stimulus": "../audio/79-6-fem.mp3",
		"response": " ",
		"word": "por",
		"trial_type": "audio-keyboard-response",
		"trial_index": 389,
		"time_elapsed": 1240651,
		"internal_node_id": "0.0-3.0-1.319"
	},
	{
		"rt": 741,
		"stimulus": "../audio/79-7-fem.mp3",
		"response": " ",
		"word": "último.",
		"trial_type": "audio-keyboard-response",
		"trial_index": 390,
		"time_elapsed": 1241659,
		"internal_node_id": "0.0-3.0-1.320"
	},
	{
		"rt": null,
		"stimulus": "<span style= \"font-size:30px; font-family: monospace\">+</span>",
		"response": null,
		"trial_part": "fixation",
		"trial_type": "html-keyboard-response",
		"trial_index": 391,
		"time_elapsed": 1242934,
		"internal_node_id": "0.0-3.0-0.321-0.321"
	},
	{
		"rt": 651,
		"stimulus": "../audio/77-1-fem.mp3",
		"response": " ",
		"word": "A",
		"trial_type": "audio-keyboard-response",
		"trial_index": 392,
		"time_elapsed": 1243854,
		"internal_node_id": "0.0-3.0-1.321"
	},
	{
		"rt": 771,
		"stimulus": "../audio/77-2-fem.mp3",
		"response": " ",
		"word": "criança",
		"trial_type": "audio-keyboard-response",
		"trial_index": 393,
		"time_elapsed": 1244910,
		"internal_node_id": "0.0-3.0-1.322"
	},
	{
		"rt": 1059,
		"stimulus": "../audio/77-3-fem.mp3",
		"response": " ",
		"word": "ficou",
		"trial_type": "audio-keyboard-response",
		"trial_index": 394,
		"time_elapsed": 1246254,
		"internal_node_id": "0.0-3.0-1.323"
	},
	{
		"rt": 749,
		"stimulus": "../audio/77-4-fem.mp3",
		"response": " ",
		"word": "muito",
		"trial_type": "audio-keyboard-response",
		"trial_index": 395,
		"time_elapsed": 1247294,
		"internal_node_id": "0.0-3.0-1.324"
	},
	{
		"rt": 651,
		"stimulus": "../audio/77-5-fem.mp3",
		"response": " ",
		"word": "feliz",
		"trial_type": "audio-keyboard-response",
		"trial_index": 396,
		"time_elapsed": 1248222,
		"internal_node_id": "0.0-3.0-1.325"
	},
	{
		"rt": 549,
		"stimulus": "../audio/77-6-fem.mp3",
		"response": " ",
		"word": "com",
		"trial_type": "audio-keyboard-response",
		"trial_index": 397,
		"time_elapsed": 1249038,
		"internal_node_id": "0.0-3.0-1.326"
	},
	{
		"rt": 619,
		"stimulus": "../audio/77-7-fem.mp3",
		"response": " ",
		"word": "o",
		"trial_type": "audio-keyboard-response",
		"trial_index": 398,
		"time_elapsed": 1249918,
		"internal_node_id": "0.0-3.0-1.327"
	},
	{
		"rt": 560,
		"stimulus": "../audio/77-8-fem.mp3",
		"response": " ",
		"word": "brinquedo.",
		"trial_type": "audio-keyboard-response",
		"trial_index": 399,
		"time_elapsed": 1250750,
		"internal_node_id": "0.0-3.0-1.328"
	},
	{
		"rt": null,
		"stimulus": "<span style= \"font-size:30px; font-family: monospace\">+</span>",
		"response": null,
		"trial_part": "fixation",
		"trial_type": "html-keyboard-response",
		"trial_index": 400,
		"time_elapsed": 1252014,
		"internal_node_id": "0.0-3.0-0.329-0.329"
	},
	{
		"rt": 411,
		"stimulus": "../audio/78-1-fem.mp3",
		"response": " ",
		"word": "Eles",
		"trial_type": "audio-keyboard-response",
		"trial_index": 401,
		"time_elapsed": 1252702,
		"internal_node_id": "0.0-3.0-1.329"
	},
	{
		"rt": 581,
		"stimulus": "../audio/78-2-fem.mp3",
		"response": " ",
		"word": "trazem",
		"trial_type": "audio-keyboard-response",
		"trial_index": 402,
		"time_elapsed": 1253550,
		"internal_node_id": "0.0-3.0-1.330"
	},
	{
		"rt": 640,
		"stimulus": "../audio/78-3-fem.mp3",
		"response": " ",
		"word": "um",
		"trial_type": "audio-keyboard-response",
		"trial_index": 403,
		"time_elapsed": 1254446,
		"internal_node_id": "0.0-3.0-1.331"
	},
	{
		"rt": 621,
		"stimulus": "../audio/78-4-fem.mp3",
		"response": " ",
		"word": "fato",
		"trial_type": "audio-keyboard-response",
		"trial_index": 404,
		"time_elapsed": 1255342,
		"internal_node_id": "0.0-3.0-1.332"
	},
	{
		"rt": 619,
		"stimulus": "../audio/78-5-fem.mp3",
		"response": " ",
		"word": "urgente",
		"trial_type": "audio-keyboard-response",
		"trial_index": 405,
		"time_elapsed": 1256238,
		"internal_node_id": "0.0-3.0-1.333"
	},
	{
		"rt": 619,
		"stimulus": "../audio/78-6-fem.mp3",
		"response": " ",
		"word": "todos",
		"trial_type": "audio-keyboard-response",
		"trial_index": 406,
		"time_elapsed": 1257134,
		"internal_node_id": "0.0-3.0-1.334"
	},
	{
		"rt": 712,
		"stimulus": "../audio/78-7-fem.mp3",
		"response": " ",
		"word": "os",
		"trial_type": "audio-keyboard-response",
		"trial_index": 407,
		"time_elapsed": 1258110,
		"internal_node_id": "0.0-3.0-1.335"
	},
	{
		"rt": 709,
		"stimulus": "../audio/78-8-fem.mp3",
		"response": " ",
		"word": "dias.",
		"trial_type": "audio-keyboard-response",
		"trial_index": 408,
		"time_elapsed": 1259102,
		"internal_node_id": "0.0-3.0-1.336"
	},
	{
		"rt": null,
		"stimulus": "<span style= \"font-size:30px; font-family: monospace\">+</span>",
		"response": null,
		"trial_part": "fixation",
		"trial_type": "html-keyboard-response",
		"trial_index": 409,
		"time_elapsed": 1260355,
		"internal_node_id": "0.0-3.0-0.337-0.337"
	},
	{
		"rt": 840,
		"stimulus": "../audio/80-1-fem.mp3",
		"response": " ",
		"word": "Meu",
		"trial_type": "audio-keyboard-response",
		"trial_index": 410,
		"time_elapsed": 1261486,
		"internal_node_id": "0.0-3.0-1.337"
	},
	{
		"rt": 669,
		"stimulus": "../audio/80-2-fem.mp3",
		"response": " ",
		"word": "primo",
		"trial_type": "audio-keyboard-response",
		"trial_index": 411,
		"time_elapsed": 1262446,
		"internal_node_id": "0.0-3.0-1.338"
	},
	{
		"rt": 600,
		"stimulus": "../audio/80-3-fem.mp3",
		"response": " ",
		"word": "conheceu",
		"trial_type": "audio-keyboard-response",
		"trial_index": 412,
		"time_elapsed": 1263326,
		"internal_node_id": "0.0-3.0-1.339"
	},
	{
		"rt": 720,
		"stimulus": "../audio/80-4-fem.mp3",
		"response": " ",
		"word": "um",
		"trial_type": "audio-keyboard-response",
		"trial_index": 413,
		"time_elapsed": 1264318,
		"internal_node_id": "0.0-3.0-1.340"
	},
	{
		"rt": 731,
		"stimulus": "../audio/80-5-fem.mp3",
		"response": " ",
		"word": "jovem",
		"trial_type": "audio-keyboard-response",
		"trial_index": 414,
		"time_elapsed": 1265326,
		"internal_node_id": "0.0-3.0-1.341"
	},
	{
		"rt": 640,
		"stimulus": "../audio/80-6-fem.mp3",
		"response": " ",
		"word": "amável",
		"trial_type": "audio-keyboard-response",
		"trial_index": 415,
		"time_elapsed": 1266238,
		"internal_node_id": "0.0-3.0-1.342"
	},
	{
		"rt": 472,
		"stimulus": "../audio/80-7-fem.mp3",
		"response": " ",
		"word": "e",
		"trial_type": "audio-keyboard-response",
		"trial_index": 416,
		"time_elapsed": 1266990,
		"internal_node_id": "0.0-3.0-1.343"
	},
	{
		"rt": 499,
		"stimulus": "../audio/80-8-fem.mp3",
		"response": " ",
		"word": "confiante.",
		"trial_type": "audio-keyboard-response",
		"trial_index": 417,
		"time_elapsed": 1267774,
		"internal_node_id": "0.0-3.0-1.344"
	},
	{
		"rt": 33642,
		"stimulus": "<span style=\"font-size:25px; font-family: monospace\">O primo conheceu um jovem irritante?</span>",
		"response": "s",
		"question": "O primo conheceu um jovem irritante?",
		"answer": "null",
		"trial": "exp-sent",
		"trial_type": "html-keyboard-response",
		"trial_index": 418,
		"time_elapsed": 1301678,
		"internal_node_id": "0.0-3.0-2.344-0.344",
		"accuracy": false
	},
	{
		"rt": null,
		"stimulus": "<span style= \"font-size:30px; font-family: monospace\">+</span>",
		"response": null,
		"trial_part": "fixation",
		"trial_type": "html-keyboard-response",
		"trial_index": 419,
		"time_elapsed": 1303179,
		"internal_node_id": "0.0-3.0-0.345-0.345"
	},
	{
		"rt": 3621,
		"stimulus": "../audio/22-1-fem.mp3",
		"response": " ",
		"word": "Eu",
		"trial_type": "audio-keyboard-response",
		"trial_index": 420,
		"time_elapsed": 1307182,
		"internal_node_id": "0.0-3.0-1.345"
	},
	{
