[
	{
		"view_history": [
			{
				"page_index": 0,
				"viewing_time": 1076
			}
		],
		"rt": 1076,
		"trial_type": "instructions",
		"trial_index": 0,
		"time_elapsed": 1078,
		"internal_node_id": "0.0-0.0"
	},
	{
		"rt": 8494,
		"response": {
			"tcle": "Concordo voluntariamente em participar da pesquisa conforme texto acima."
		},
		"question_order": [
			0
		],
		"trial_type": "survey-multi-choice",
		"trial_index": 1,
		"time_elapsed": 9774,
		"internal_node_id": "0.0-1.0"
	},
	{
		"rt": 61864,
		"response": {
			"email": "70u1a"
		},
		"trial_type": "survey-text",
		"trial_index": 2,
		"time_elapsed": 72654,
		"internal_node_id": "0.0-2.0"
	}
]