[
	{
		"view_history": [
			{
				"page_index": 0,
				"viewing_time": 5752
			}
		],
		"rt": 5752,
		"trial_type": "instructions",
		"trial_index": 0,
		"time_elapsed": 5753,
		"internal_node_id": "0.0-0.0"
	},
	{
		"rt": 6683,
		"response": {
			"age": "26"
		},
		"trial_type": "survey-text",
		"trial_index": 1,
		"time_elapsed": 12545,
		"internal_node_id": "0.0-1.0"
	},
	{
		"rt": 2093,
		"response": {
			"sex": "Masculino"
		},
		"question_order": [
			0
		],
		"trial_type": "survey-multi-choice",
		"trial_index": 2,
		"time_elapsed": 14745,
		"internal_node_id": "0.0-2.0"
	},
	{
		"rt": 3765,
		"response": {
			"own_schooling": "Ensino Fundamental"
		},
		"question_order": [
			0
		],
		"trial_type": "survey-multi-choice",
		"trial_index": 3,
		"time_elapsed": 18616,
		"internal_node_id": "0.0-3.0"
	},
	{
		"rt": 3391,
		"response": {
			"mother_schooling": "Ensino Fundamental"
		},
		"question_order": [
			0
		],
		"trial_type": "survey-multi-choice",
		"trial_index": 4,
		"time_elapsed": 22112,
		"internal_node_id": "0.0-4.0"
	},
	{
		"rt": 5835,
		"response": {
			"father_schooling": "Ensino Fundamental"
		},
		"question_order": [
			0
		],
		"trial_type": "survey-multi-choice",
		"trial_index": 5,
		"time_elapsed": 28056,
		"internal_node_id": "0.0-5.0"
	},
	{
		"rt": 664999,
		"response": {
			"language_0": "CREOLE",
			"listening_0": "2",
			"speaking_0": "4",
			"reading_0": "9",
			"writing_0": "15",
			"language_1": "PORTUGUES",
			"listening_1": "21",
			"speaking_1": "21",
			"reading_1": "24",
			"writing_1": "25",
			"language_2": "FRANCAIS",
			"listening_2": "15",
			"speaking_2": "16",
			"reading_2": "15",
			"writing_2": "17",
			"language_3": "ESPANHOI",
			"listening_3": "15",
			"speaking_3": "16",
			"reading_3": "17",
			"writing_3": "17"
		},
		"trial_type": "survey-html-form",
		"trial_index": 6,
		"time_elapsed": 693160,
		"internal_node_id": "0.0-6.0"
	},
	{
		"rt": 275354,
		"response": {
			"language_3": "ESP",
			"listening_3": "3",
			"speaking_3": "2",
			"reading_3": "4",
			"writing_3": "6",
			"language_1": "PORT",
			"listening_1": "1",
			"speaking_1": "1",
			"reading_1": "1",
			"writing_1": "1",
			"language_2": "FRAN",
			"listening_2": "15",
			"speaking_2": "16",
			"reading_2": "16",
			"writing_2": "17"
		},
		"trial_type": "survey-html-form",
		"trial_index": 7,
		"time_elapsed": 968616,
		"internal_node_id": "0.0-7.0"
	},
	{
		"rt": 13249,
		"response": {
			"country_of_origin": "AYITI"
		},
		"trial_type": "survey-text",
		"trial_index": 8,
		"time_elapsed": 981967,
		"internal_node_id": "0.0-8.0"
	},
	{
		"rt": 88169,
		"response": {
			"country_of_residence": "SENMICHEL DE LATALAY"
		},
		"trial_type": "survey-text",
		"trial_index": 9,
		"time_elapsed": 1070239,
		"internal_node_id": "0.0-9.0"
	},
	{
		"rt": 474209,
		"response": {
			"country_0": "BRASIL",
			"duration_0": "2 7MES",
			"language_0": "PORTUGUES",
			"frequency_0": "7",
			"country_1": "AYITI",
			"duration_1": "24 ANOS",
			"language_1": "CREOI",
			"frequency_1": "7",
			"country_2": "AYITI",
			"duration_2": "24",
			"language_2": "FRAN",
			"frequency_2": "5",
			"country_3": "REP DOM",
			"duration_3": "5 ANOS",
			"language_3": "ESPANHOL",
			"frequency_3": "5"
		},
		"trial_type": "survey-html-form",
		"trial_index": 10,
		"time_elapsed": 1544551,
		"internal_node_id": "0.0-10.0"
	},
	{
		"rt": 106418,
		"response": {
			"language_0": "ESP",
			"context_0": "1",
			"language_1": "PORT",
			"context_1": "1",
			"language_2": "",
			"context_2": "",
			"language_3": "",
			"context_3": ""
		},
		"trial_type": "survey-html-form",
		"trial_index": 11,
		"time_elapsed": 1651070,
		"internal_node_id": "0.0-11.0"
	},
	{
		"rt": 303554,
		"response": {
			"language_0": "CREOL",
			"home_0": "2",
			"friends_0": "4",
			"school_0": "11",
			"work_0": "15",
			"computer_0": "-",
			"games_0": "-",
			"language_1": "FRAN",
			"home_1": "15",
			"friends_1": "15",
			"school_1": "15",
			"work_1": "-",
			"computer_1": "16",
			"games_1": "-",
			"language_2": "ESP",
			"home_2": "-",
			"friends_2": "16",
			"school_2": "-",
			"work_2": "17",
			"computer_2": "-",
			"games_2": "-",
			"language_3": "PORT",
			"home_3": "24",
			"friends_3": "24",
			"school_3": "-",
			"work_3": "24",
			"computer_3": "-",
			"games_3": "-"
		},
		"trial_type": "survey-html-form",
		"trial_index": 12,
		"time_elapsed": 1954726,
		"internal_node_id": "0.0-12.0"
	},
	{
		"rt": 61785,
		"response": {
			"new_languages": 2
		},
		"question_order": [
			0
		],
		"trial_type": "survey-likert",
		"trial_index": 13,
		"time_elapsed": 2016614,
		"internal_node_id": "0.0-13.0"
	},
	{
		"rt": 219146,
		"response": {
			"language_0": "CREOL",
			"listen_0": "6",
			"talk_0": "7",
			"read_0": "7",
			"write_0": "7",
			"language_1": "FRA",
			"listen_1": "6",
			"talk_1": "5",
			"read_1": "6",
			"write_1": "7",
			"language_2": "ESP",
			"listen_2": "5",
			"talk_2": "6",
			"read_2": "7",
			"write_2": "5",
			"language_3": "PORT",
			"listen_3": "7",
			"talk_3": "7",
			"read_3": "6",
			"write_3": "6"
		},
		"trial_type": "survey-html-form",
		"trial_index": 14,
		"time_elapsed": 2235862,
		"internal_node_id": "0.0-14.0"
	},
	{
		"rt": 286721,
		"response": {
			"language_0": "CREOL",
			"tv_0": "1",
			"radio_0": "1/2",
			"read_fun_0": "-",
			"read_work_0": "-",
			"write_0": "-",
			"social_nets_0": "1",
			"language_1": "FRA",
			"tv_1": "10 MIN",
			"radio_1": "1/2",
			"read_fun_1": "20 MIN",
			"read_work_1": "-",
			"write_1": "-",
			"social_nets_1": "-",
			"language_2": "ESP",
			"tv_2": "10 MIN",
			"radio_2": "5 MIN",
			"read_fun_2": "15 MIN",
			"read_work_2": "-",
			"write_2": "-",
			"social_nets_2": "-",
			"language_3": "PORT",
			"tv_3": "1/2",
			"radio_3": "10 MIN",
			"read_fun_3": "15 MIN",
			"read_work_3": "-",
			"write_3": "-",
			"social_nets_3": "-"
		},
		"trial_type": "survey-html-form",
		"trial_index": 15,
		"time_elapsed": 2522686,
		"internal_node_id": "0.0-15.0"
	},
	{
		"rt": 211393,
		"response": {
			"language_0": "CR",
			"family_0": "30 MIN",
			"friends_0": "20 MIN",
			"work_0": "0",
			"school_0": "",
			"language_1": "PORT",
			"family_1": "0",
			"friends_1": "15 MIN",
			"work_1": "0",
			"school_1": "",
			"language_2": "FRAN",
			"family_2": "10 MIN",
			"friends_2": "15 MIN",
			"work_2": "0",
			"school_2": "",
			"language_3": "ESP",
			"family_3": "0",
			"friends_3": "10 MIN",
			"work_3": "0",
			"school_3": ""
		},
		"trial_type": "survey-html-form",
		"trial_index": 16,
		"time_elapsed": 2734181,
		"internal_node_id": "0.0-16.0"
	},
	{
		"rt": 178864,
		"response": {
			"language_0_0": "C, P",
			"language_0_1": "C, P",
			"language_0_2": "C F",
			"language_0_3": "F C",
			"language_1_0": "C, F",
			"language_1_1": "C P",
			"language_1_2": "C F",
			"language_1_3": "F C",
			"language_2_0": "C",
			"language_2_1": "C F",
			"language_2_2": "F C",
			"language_2_3": "F C",
			"language_3_0": "P",
			"language_3_1": "C P",
			"language_3_2": "C F",
			"language_3_3": "F C"
		},
		"trial_type": "survey-html-form",
		"trial_index": 17,
		"time_elapsed": 2913149,
		"internal_node_id": "0.0-17.0"
	},
	{
		"rt": 289187,
		"response": {
			"language_2": "PORT",
			"think_2": "7",
			"selftalk_2": "7",
			"emotions_2": "7",
			"dream_2": "7",
			"math_2": "4",
			"remember_2": "4",
			"pray_2": "7",
			"language_1": "FRAN",
			"think_1": "7",
			"selftalk_1": "4",
			"emotions_1": "7",
			"dream_1": "4",
			"math_1": "4",
			"remember_1": "4",
			"pray_1": "7",
			"language_3": "",
			"think_3": "",
			"selftalk_3": "",
			"emotions_3": "",
			"dream_3": "",
			"math_3": "",
			"remember_3": "",
			"pray_3": ""
		},
		"trial_type": "survey-html-form",
		"trial_index": 18,
		"time_elapsed": 3202437,
		"internal_node_id": "0.0-18.0"
	},
	{
		"rt": 15025,
		"response": {
			"dificuldade_visao_ou_audicao": "Não"
		},
		"question_order": [
			0
		],
		"trial_type": "survey-multi-choice",
		"trial_index": 19,
		"time_elapsed": 3217564,
		"internal_node_id": "0.0-19.0"
	},
	{
		"rt": 550,
		"response": {
			"detalhes_dificuldades_audicao_ou_visao": ""
		},
		"trial_type": "survey-text",
		"trial_index": 20,
		"time_elapsed": 3218220,
		"internal_node_id": "0.0-20.0"
	},
	{
		"rt": 48505,
		"response": {
			"additional_info": "aprender inglês"
		},
		"trial_type": "survey-text",
		"trial_index": 21,
		"time_elapsed": 3266828,
		"internal_node_id": "0.0-21.0"
	}
]