"view_history","rt","trial_type","trial_index","time_elapsed","internal_node_id","stimulus","response","class","status","answer","correct","trial","letters"
"[{""page_index"":0,""viewing_time"":1306}]","1306","instructions","0","1307","0.0-0.0","","","","","","","",""
"","null","html-keyboard-response","1","1920","0.0-1.0-0.0","+","null","","","","","",""
"","32897","html-keyboard-response","2","34818","0.0-1.0-1.0","órgão","s","null","noncog","word","S","prac","null"
"","null","html-keyboard-response","3","35320","0.0-1.0-0.1","+","null","","","","","",""
"","16410","html-keyboard-response","4","51730","0.0-1.0-1.1","calmaria","s","null","noncog","word","S","prac","null"
"","null","html-keyboard-response","5","52233","0.0-1.0-0.2","+","null","","","","","",""
"","6841","html-keyboard-response","6","59074","0.0-1.0-1.2","plibar","s","null","noncog","pseudo","N","prac","null"
"","null","html-keyboard-response","7","59576","0.0-1.0-0.3","+","null","","","","","",""
"","5066","html-keyboard-response","8","64642","0.0-1.0-1.3","daja","n","null","noncog","pseudo","N","prac","null"
"","null","html-keyboard-response","9","65144","0.0-1.0-0.4","+","null","","","","","",""
"","3881","html-keyboard-response","10","69026","0.0-1.0-1.4","oliva","s","null","cog","word","S","prac","null"
"","null","html-keyboard-response","11","69528","0.0-1.0-0.5","+","null","","","","","",""
"","9930","html-keyboard-response","12","79458","0.0-1.0-1.5","chassi","s","null","cog","word","S","prac","null"
"","null","html-keyboard-response","13","79961","0.0-1.0-0.6","+","null","","","","","",""
"","16840","html-keyboard-response","14","96802","0.0-1.0-1.6","crante","s","null","noncog","pseudo","N","prac","null"
"[{""page_index"":0,""viewing_time"":39831}]","39832","instructions","15","136634","0.0-2.0","","","","","","","",""
"","null","html-keyboard-response","16","137236","0.0-3.0-0.0","+","null","","","","","",""
"","4173","html-keyboard-response","17","141410","0.0-3.0-1.0","aperor","s","null","noncog","pseudo","N","exp","null"
"","null","html-keyboard-response","18","141911","0.0-3.0-0.1","+","null","","","","","",""
"","6955","html-keyboard-response","19","148866","0.0-3.0-1.1","socorro","s","n","noncog","word","S","exp","7"
"","null","html-keyboard-response","20","149367","0.0-3.0-0.2","+","null","","","","","",""
"","4570","html-keyboard-response","21","153938","0.0-3.0-1.2","verceja","n","null","noncog","pseudo","N","exp","null"
"","null","html-keyboard-response","22","154439","0.0-3.0-0.3","+","null","","","","","",""
"","3674","html-keyboard-response","23","158114","0.0-3.0-1.3","perbas","n","null","noncog","pseudo","N","exp","null"
"","null","html-keyboard-response","24","158614","0.0-3.0-0.4","+","null","","","","","",""
"","2763","html-keyboard-response","25","161378","0.0-3.0-1.4","fratos","s","null","noncog","pseudo","N","exp","null"
"","null","html-keyboard-response","26","161879","0.0-3.0-0.5","+","null","","","","","",""
"","3594","html-keyboard-response","27","165474","0.0-3.0-1.5","carregar","s","v","noncog","word","S","exp","8"
"","null","html-keyboard-response","28","165975","0.0-3.0-0.6","+","null","","","","","",""
"","3834","html-keyboard-response","29","169810","0.0-3.0-1.6","atitro","n","null","noncog","pseudo","N","exp","null"
"","null","html-keyboard-response","30","170311","0.0-3.0-0.7","+","null","","","","","",""
"","6378","html-keyboard-response","31","176690","0.0-3.0-1.7","bambu","s","n","cog","word","S","exp","5"
"","null","html-keyboard-response","32","177191","0.0-3.0-0.8","+","null","","","","","",""
"","2682","html-keyboard-response","33","179874","0.0-3.0-1.8","destino","s","n","cog","word","S","exp","7"
"","null","html-keyboard-response","34","180374","0.0-3.0-0.9","+","null","","","","","",""
"","6107","html-keyboard-response","35","186482","0.0-3.0-1.9","pitada","n","n","noncog","word","S","exp","6"
"","null","html-keyboard-response","36","186983","0.0-3.0-0.10","+","null","","","","","",""
"","3594","html-keyboard-response","37","190578","0.0-3.0-1.10","bancada","s","n","noncog","word","S","exp","7"
"","null","html-keyboard-response","38","191079","0.0-3.0-0.11","+","null","","","","","",""
"","5802","html-keyboard-response","39","196882","0.0-3.0-1.11","franda","s","null","noncog","pseudo","N","exp","null"
"","null","html-keyboard-response","40","197383","0.0-3.0-0.12","+","null","","","","","",""
"","5451","html-keyboard-response","41","202834","0.0-3.0-1.12","hipócrita","s","a","noncog","word","S","exp","9"
"","null","html-keyboard-response","42","203347","0.0-3.0-0.13","+","null","","","","","",""
"","3487","html-keyboard-response","43","206834","0.0-3.0-1.13","fofo","s","a","noncog","word","S","exp","4"
"","null","html-keyboard-response","44","207335","0.0-3.0-0.14","+","null","","","","","",""
"","5914","html-keyboard-response","45","213250","0.0-3.0-1.14","garastia","n","null","noncog","pseudo","N","exp","null"
"","null","html-keyboard-response","46","213751","0.0-3.0-0.15","+","null","","","","","",""
"","3307","html-keyboard-response","47","217058","0.0-3.0-1.15","grótis","n","null","noncog","pseudo","N","exp","null"
"","null","html-keyboard-response","48","217558","0.0-3.0-0.16","+","null","","","","","",""
"","3099","html-keyboard-response","49","220658","0.0-3.0-1.16","morija","n","null","noncog","pseudo","N","exp","null"
"","null","html-keyboard-response","50","221159","0.0-3.0-0.17","+","null","","","","","",""
"","3483","html-keyboard-response","51","224642","0.0-3.0-1.17","telafonir","n","null","noncog","pseudo","N","exp","null"
"","null","html-keyboard-response","52","225144","0.0-3.0-0.18","+","null","","","","","",""
"","3434","html-keyboard-response","53","228578","0.0-3.0-1.18","trenos","n","null","noncog","pseudo","N","exp","null"
"","null","html-keyboard-response","54","229078","0.0-3.0-0.19","+","null","","","","","",""
"","2635","html-keyboard-response","55","231714","0.0-3.0-1.19","pneucania","n","null","noncog","pseudo","N","exp","null"
"","null","html-keyboard-response","56","232216","0.0-3.0-0.20","+","null","","","","","",""
"","4329","html-keyboard-response","57","236546","0.0-3.0-1.20","dipata","n","null","noncog","pseudo","N","exp","null"
"","null","html-keyboard-response","58","237047","0.0-3.0-0.21","+","null","","","","","",""
"","3546","html-keyboard-response","59","240593","0.0-3.0-1.21","carona","s","n","noncog","word","S","exp","6"
"","null","html-keyboard-response","60","241094","0.0-3.0-0.22","+","null","","","","","",""
"","3371","html-keyboard-response","61","244466","0.0-3.0-1.22","revista","s","n","cog","word","S","exp","7"
"","null","html-keyboard-response","62","244967","0.0-3.0-0.23","+","null","","","","","",""
"","2699","html-keyboard-response","63","247666","0.0-3.0-1.23","espaço","s","n","cog","word","S","exp","6"
"","null","html-keyboard-response","64","248167","0.0-3.0-0.24","+","null","","","","","",""
"","2378","html-keyboard-response","65","250545","0.0-3.0-1.24","atrasar","s","v","noncog","word","S","exp","7"
"","null","html-keyboard-response","66","251047","0.0-3.0-0.25","+","null","","","","","",""
"","3818","html-keyboard-response","67","254865","0.0-3.0-1.25","undivídio","s","null","noncog","pseudo","N","exp","null"
"","null","html-keyboard-response","68","255366","0.0-3.0-0.26","+","null","","","","","",""
"","6587","html-keyboard-response","69","261954","0.0-3.0-1.26","nivelado","s","a","cog","word","S","exp","8"
"","null","html-keyboard-response","70","262454","0.0-3.0-0.27","+","null","","","","","",""
"","4347","html-keyboard-response","71","266802","0.0-3.0-1.27","rédesa","s","null","noncog","pseudo","N","exp","null"
"","null","html-keyboard-response","72","267303","0.0-3.0-0.28","+","null","","","","","",""
"","2090","html-keyboard-response","73","269393","0.0-3.0-1.28","trair","n","v","cog","word","S","exp","5"
"","null","html-keyboard-response","74","269895","0.0-3.0-0.29","+","null","","","","","",""
"","1115","html-keyboard-response","75","271010","0.0-3.0-1.29","telefone","s","n","cog","word","S","exp","8"
"","null","html-keyboard-response","76","271511","0.0-3.0-0.30","+","null","","","","","",""
"","1978","html-keyboard-response","77","273490","0.0-3.0-1.30","aivões","n","null","noncog","pseudo","N","exp","null"
"","null","html-keyboard-response","78","273991","0.0-3.0-0.31","+","null","","","","","",""
"","1370","html-keyboard-response","79","275362","0.0-3.0-1.31","especial","s","a","cog","word","S","exp","8"
"","null","html-keyboard-response","80","275863","0.0-3.0-0.32","+","null","","","","","",""
"","3114","html-keyboard-response","81","278977","0.0-3.0-1.32","loaco","s","null","noncog","pseudo","N","exp","null"
"","null","html-keyboard-response","82","279479","0.0-3.0-0.33","+","null","","","","","",""
"","4378","html-keyboard-response","83","283858","0.0-3.0-1.33","mania","s","n","cog","word","S","exp","5"
"","null","html-keyboard-response","84","284359","0.0-3.0-0.34","+","null","","","","","",""
"","2570","html-keyboard-response","85","286930","0.0-3.0-1.34","comércio","s","n","noncog","word","S","exp","8"
"","null","html-keyboard-response","86","287431","0.0-3.0-0.35","+","null","","","","","",""
"","5274","html-keyboard-response","87","292705","0.0-3.0-1.35","propaganda","n","n","cog","word","S","exp","10"
"","null","html-keyboard-response","88","293207","0.0-3.0-0.36","+","null","","","","","",""
"","2602","html-keyboard-response","89","295810","0.0-3.0-1.36","imitar","s","v","cog","word","S","exp","6"
"","null","html-keyboard-response","90","296312","0.0-3.0-0.37","+","null","","","","","",""
"","3018","html-keyboard-response","91","299330","0.0-3.0-1.37","aitrou","s","null","noncog","pseudo","N","exp","null"
"","null","html-keyboard-response","92","299831","0.0-3.0-0.38","+","null","","","","","",""
"","1722","html-keyboard-response","93","301553","0.0-3.0-1.38","filme","s","n","cog","word","S","exp","5"
"","null","html-keyboard-response","94","302054","0.0-3.0-0.39","+","null","","","","","",""
"","3675","html-keyboard-response","95","305730","0.0-3.0-1.39","encelhor","s","null","noncog","pseudo","N","exp","null"
"","null","html-keyboard-response","96","306231","0.0-3.0-0.40","+","null","","","","","",""
"","2682","html-keyboard-response","97","308913","0.0-3.0-1.40","beima","s","null","noncog","pseudo","N","exp","null"
"","null","html-keyboard-response","98","309414","0.0-3.0-0.41","+","null","","","","","",""
"","2875","html-keyboard-response","99","312290","0.0-3.0-1.41","ênclio","n","null","noncog","pseudo","N","exp","null"
"","null","html-keyboard-response","100","312791","0.0-3.0-0.42","+","null","","","","","",""
"","4121","html-keyboard-response","101","316913","0.0-3.0-1.42","farcas","s","null","noncog","pseudo","N","exp","null"
"","null","html-keyboard-response","102","317414","0.0-3.0-0.43","+","null","","","","","",""
"","1979","html-keyboard-response","103","319393","0.0-3.0-1.43","mua","s","null","noncog","pseudo","N","exp","null"
"","null","html-keyboard-response","104","319894","0.0-3.0-0.44","+","null","","","","","",""
"","4555","html-keyboard-response","105","324449","0.0-3.0-1.44","animado","s","a","noncog","word","S","exp","7"
"","null","html-keyboard-response","106","324956","0.0-3.0-0.45","+","null","","","","","",""
"","5797","html-keyboard-response","107","330754","0.0-3.0-1.45","gordo","s","a","noncog","word","S","exp","5"
"","null","html-keyboard-response","108","331255","0.0-3.0-0.46","+","null","","","","","",""
"","1594","html-keyboard-response","109","332850","0.0-3.0-1.46","cravo","n","n","noncog","word","S","exp","5"
"","null","html-keyboard-response","110","333351","0.0-3.0-0.47","+","null","","","","","",""
"","4842","html-keyboard-response","111","338193","0.0-3.0-1.47","pega-pega","s","n","noncog","word","S","exp","8"
"","null","html-keyboard-response","112","338694","0.0-3.0-0.48","+","null","","","","","",""
"","1611","html-keyboard-response","113","340305","0.0-3.0-1.48","civil","s","a","cog","word","S","exp","5"
"","null","html-keyboard-response","114","340807","0.0-3.0-0.49","+","null","","","","","",""
"","2026","html-keyboard-response","115","342834","0.0-3.0-1.49","livro","s","n","cog","word","S","exp","5"
"","null","html-keyboard-response","116","343335","0.0-3.0-0.50","+","null","","","","","",""
"","3706","html-keyboard-response","117","347042","0.0-3.0-1.50","vervas","n","null","noncog","pseudo","N","exp","null"
"","null","html-keyboard-response","118","347543","0.0-3.0-0.51","+","null","","","","","",""
"","1674","html-keyboard-response","119","349218","0.0-3.0-1.51","afual","n","null","noncog","pseudo","N","exp","null"
"","null","html-keyboard-response","120","349719","0.0-3.0-0.52","+","null","","","","","",""
"","4842","html-keyboard-response","121","354561","0.0-3.0-1.52","deselegante","n","a","noncog","word","S","exp","11"
"","null","html-keyboard-response","122","355062","0.0-3.0-0.53","+","null","","","","","",""
"","3243","html-keyboard-response","123","358305","0.0-3.0-1.53","burtos","s","null","noncog","pseudo","N","exp","null"
"","null","html-keyboard-response","124","358807","0.0-3.0-0.54","+","null","","","","","",""
"","2090","html-keyboard-response","125","360897","0.0-3.0-1.54","nome","s","n","cog","word","S","exp","4"
"","null","html-keyboard-response","126","361398","0.0-3.0-0.55","+","null","","","","","",""
"","3499","html-keyboard-response","127","364897","0.0-3.0-1.55","alpica","n","null","noncog","pseudo","N","exp","null"
"","null","html-keyboard-response","128","365398","0.0-3.0-0.56","+","null","","","","","",""
"","2731","html-keyboard-response","129","368129","0.0-3.0-1.56","nevela","n","null","noncog","pseudo","N","exp","null"
"","null","html-keyboard-response","130","368630","0.0-3.0-0.57","+","null","","","","","",""
"","5355","html-keyboard-response","131","373985","0.0-3.0-1.57","orupas","n","null","noncog","pseudo","N","exp","null"
"","null","html-keyboard-response","132","374487","0.0-3.0-0.58","+","null","","","","","",""
"","3467","html-keyboard-response","133","377954","0.0-3.0-1.58","ejerro","s","null","noncog","pseudo","N","exp","null"
"","null","html-keyboard-response","134","378454","0.0-3.0-0.59","+","null","","","","","",""
"","4011","html-keyboard-response","135","382465","0.0-3.0-1.59","anjo","n","n","cog","word","S","exp","4"
"","null","html-keyboard-response","136","382966","0.0-3.0-0.60","+","null","","","","","",""
"","1371","html-keyboard-response","137","384337","0.0-3.0-1.60","mal","s","a","cog","word","S","exp","3"
"","null","html-keyboard-response","138","384839","0.0-3.0-0.61","+","null","","","","","",""
"","5162","html-keyboard-response","139","390002","0.0-3.0-1.61","montanha","s","n","cog","word","S","exp","8"
"","null","html-keyboard-response","140","390503","0.0-3.0-0.62","+","null","","","","","",""
"","2682","html-keyboard-response","141","393185","0.0-3.0-1.62","hedoru","n","null","noncog","pseudo","N","exp","null"
"","null","html-keyboard-response","142","393686","0.0-3.0-0.63","+","null","","","","","",""
"","2811","html-keyboard-response","143","396497","0.0-3.0-1.63","verdade","s","n","cog","word","S","exp","7"
"","null","html-keyboard-response","144","396999","0.0-3.0-0.64","+","null","","","","","",""
"","1450","html-keyboard-response","145","398449","0.0-3.0-1.64","azul","s","n","noncog","word","S","exp","4"
"","null","html-keyboard-response","146","398951","0.0-3.0-0.65","+","null","","","","","",""
"","2714","html-keyboard-response","147","401665","0.0-3.0-1.65","fogão","s","n","noncog","word","S","exp","5"
"","null","html-keyboard-response","148","402167","0.0-3.0-0.66","+","null","","","","","",""
"","1386","html-keyboard-response","149","403553","0.0-3.0-1.66","uçar","s","null","noncog","pseudo","N","exp","null"
"","null","html-keyboard-response","150","404055","0.0-3.0-0.67","+","null","","","","","",""
"","2426","html-keyboard-response","151","406481","0.0-3.0-1.67","tímido","s","a","cog","word","S","exp","6"
"","null","html-keyboard-response","152","406984","0.0-3.0-0.68","+","null","","","","","",""
"","3657","html-keyboard-response","153","410641","0.0-3.0-1.68","crutas","s","null","noncog","pseudo","N","exp","null"
"","null","html-keyboard-response","154","411143","0.0-3.0-0.69","+","null","","","","","",""
"","3210","html-keyboard-response","155","414354","0.0-3.0-1.69","pantufa","s","n","cog","word","S","exp","7"
"","null","html-keyboard-response","156","414854","0.0-3.0-0.70","+","null","","","","","",""
"","3338","html-keyboard-response","157","418193","0.0-3.0-1.70","avenas","n","null","noncog","pseudo","N","exp","null"
"","null","html-keyboard-response","158","418694","0.0-3.0-0.71","+","null","","","","","",""
"","2059","html-keyboard-response","159","420753","0.0-3.0-1.71","costra","s","null","noncog","pseudo","N","exp","null"
"","null","html-keyboard-response","160","421254","0.0-3.0-0.72","+","null","","","","","",""
"","1451","html-keyboard-response","161","422705","0.0-3.0-1.72","tênis","s","n","cog","word","S","exp","5"
"","null","html-keyboard-response","162","423207","0.0-3.0-0.73","+","null","","","","","",""
"","2378","html-keyboard-response","163","425586","0.0-3.0-1.73","viver","s","v","cog","word","S","exp","5"
"","null","html-keyboard-response","164","426092","0.0-3.0-0.74","+","null","","","","","",""
"","5349","html-keyboard-response","165","431441","0.0-3.0-1.74","ronronar","n","v","cog","word","S","exp","8"
"","null","html-keyboard-response","166","431943","0.0-3.0-0.75","+","null","","","","","",""
"","3962","html-keyboard-response","167","435905","0.0-3.0-1.75","cenada","s","null","noncog","pseudo","N","exp","null"
"","null","html-keyboard-response","168","436407","0.0-3.0-0.76","+","null","","","","","",""
"","2890","html-keyboard-response","169","439297","0.0-3.0-1.76","convidado","s","n","noncog","word","S","exp","9"
"","null","html-keyboard-response","170","439799","0.0-3.0-0.77","+","null","","","","","",""
"","2986","html-keyboard-response","171","442785","0.0-3.0-1.77","aemaça","n","null","noncog","pseudo","N","exp","null"
"","null","html-keyboard-response","172","443287","0.0-3.0-0.78","+","null","","","","","",""
"","1898","html-keyboard-response","173","445185","0.0-3.0-1.78","nacional","s","a","cog","word","S","exp","8"
"","null","html-keyboard-response","174","445686","0.0-3.0-0.79","+","null","","","","","",""
"","2571","html-keyboard-response","175","448258","0.0-3.0-1.79","matinal","s","a","cog","word","S","exp","7"
"","null","html-keyboard-response","176","448759","0.0-3.0-0.80","+","null","","","","","",""
"","3338","html-keyboard-response","177","452097","0.0-3.0-1.80","filosofia","s","n","cog","word","S","exp","9"
"","null","html-keyboard-response","178","452597","0.0-3.0-0.81","+","null","","","","","",""
"","2956","html-keyboard-response","179","455553","0.0-3.0-1.81","esperar","s","v","cog","word","S","exp","7"
"","null","html-keyboard-response","180","456054","0.0-3.0-0.82","+","null","","","","","",""
"","2827","html-keyboard-response","181","458881","0.0-3.0-1.82","refletir","n","v","cog","word","S","exp","8"
"","null","html-keyboard-response","182","459382","0.0-3.0-0.83","+","null","","","","","",""
"","2971","html-keyboard-response","183","462353","0.0-3.0-1.83","crolatário","n","null","noncog","pseudo","N","exp","null"
"","null","html-keyboard-response","184","462855","0.0-3.0-0.84","+","null","","","","","",""
"","1354","html-keyboard-response","185","464209","0.0-3.0-1.84","país","s","n","noncog","word","S","exp","4"
"","null","html-keyboard-response","186","464710","0.0-3.0-0.85","+","null","","","","","",""
"","3387","html-keyboard-response","187","468097","0.0-3.0-1.85","terdia","s","null","noncog","pseudo","N","exp","null"
"","null","html-keyboard-response","188","468598","0.0-3.0-0.86","+","null","","","","","",""
"","2571","html-keyboard-response","189","471170","0.0-3.0-1.86","lagoa","s","n","cog","word","S","exp","5"
"","null","html-keyboard-response","190","471671","0.0-3.0-0.87","+","null","","","","","",""
"","1210","html-keyboard-response","191","472881","0.0-3.0-1.87","morar","n","v","noncog","word","S","exp","5"
"","null","html-keyboard-response","192","473382","0.0-3.0-0.88","+","null","","","","","",""
"","2715","html-keyboard-response","193","476097","0.0-3.0-1.88","enxarto","s","null","noncog","pseudo","N","exp","null"
"","null","html-keyboard-response","194","476598","0.0-3.0-0.89","+","null","","","","","",""
"","2571","html-keyboard-response","195","479169","0.0-3.0-1.89","vitrive","n","null","noncog","pseudo","N","exp","null"
"","null","html-keyboard-response","196","479671","0.0-3.0-0.90","+","null","","","","","",""
"","1418","html-keyboard-response","197","481089","0.0-3.0-1.90","verde","s","a","noncog","word","S","exp","5"
"","null","html-keyboard-response","198","481590","0.0-3.0-0.91","+","null","","","","","",""
"","4171","html-keyboard-response","199","485762","0.0-3.0-1.91","bagunceira","n","a","noncog","word","S","exp","10"
"","null","html-keyboard-response","200","486262","0.0-3.0-0.92","+","null","","","","","",""
"","1706","html-keyboard-response","201","487969","0.0-3.0-1.92","temperar","s","v","noncog","word","S","exp","8"
"","null","html-keyboard-response","202","488471","0.0-3.0-0.93","+","null","","","","","",""
"","3194","html-keyboard-response","203","491665","0.0-3.0-1.93","macras","n","null","noncog","pseudo","N","exp","null"
"","null","html-keyboard-response","204","492167","0.0-3.0-0.94","+","null","","","","","",""
"","1994","html-keyboard-response","205","494161","0.0-3.0-1.94","revear","n","null","noncog","pseudo","N","exp","null"
"","null","html-keyboard-response","206","494662","0.0-3.0-0.95","+","null","","","","","",""
"","2107","html-keyboard-response","207","496769","0.0-3.0-1.95","tartos","s","null","noncog","pseudo","N","exp","null"
"","null","html-keyboard-response","208","497271","0.0-3.0-0.96","+","null","","","","","",""
"","1593","html-keyboard-response","209","498865","0.0-3.0-1.96","fusbão","s","null","noncog","pseudo","N","exp","null"
"","null","html-keyboard-response","210","499372","0.0-3.0-0.97","+","null","","","","","",""
"","2789","html-keyboard-response","211","502161","0.0-3.0-1.97","delomir","s","null","noncog","pseudo","N","exp","null"
"","null","html-keyboard-response","212","502662","0.0-3.0-0.98","+","null","","","","","",""
"","1515","html-keyboard-response","213","504177","0.0-3.0-1.98","oecano","s","null","noncog","pseudo","N","exp","null"
"","null","html-keyboard-response","214","504678","0.0-3.0-0.99","+","null","","","","","",""
"","2107","html-keyboard-response","215","506786","0.0-3.0-1.99","irratinte","n","null","noncog","pseudo","N","exp","null"
"","null","html-keyboard-response","216","507287","0.0-3.0-0.100","+","null","","","","","",""
"","2554","html-keyboard-response","217","509841","0.0-3.0-1.100","lagras","s","null","noncog","pseudo","N","exp","null"
"","null","html-keyboard-response","218","510342","0.0-3.0-0.101","+","null","","","","","",""
"","2379","html-keyboard-response","219","512721","0.0-3.0-1.101","planalto","s","n","cog","word","S","exp","8"
"","null","html-keyboard-response","220","513224","0.0-3.0-0.102","+","null","","","","","",""
"","1785","html-keyboard-response","221","515009","0.0-3.0-1.102","reduzir","n","v","cog","word","S","exp","7"
"","null","html-keyboard-response","222","515511","0.0-3.0-0.103","+","null","","","","","",""
"","1257","html-keyboard-response","223","516769","0.0-3.0-1.103","instruído","s","a","noncog","word","S","exp","9"
"","null","html-keyboard-response","224","517270","0.0-3.0-0.104","+","null","","","","","",""
"","891","html-keyboard-response","225","518161","0.0-3.0-1.104","frotes","n","null","noncog","pseudo","N","exp","null"
"","null","html-keyboard-response","226","518663","0.0-3.0-0.105","+","null","","","","","",""
"","4170","html-keyboard-response","227","522833","0.0-3.0-1.105","protas","n","null","noncog","pseudo","N","exp","null"
"","null","html-keyboard-response","228","523334","0.0-3.0-0.106","+","null","","","","","",""
"","1034","html-keyboard-response","229","524369","0.0-3.0-1.106","lorfaz","n","null","noncog","pseudo","N","exp","null"
"","null","html-keyboard-response","230","524871","0.0-3.0-0.107","+","null","","","","","",""
"","1642","html-keyboard-response","231","526513","0.0-3.0-1.107","usnado","s","null","noncog","pseudo","N","exp","null"
"","null","html-keyboard-response","232","527014","0.0-3.0-0.108","+","null","","","","","",""
"","4266","html-keyboard-response","233","531281","0.0-3.0-1.108","grave","n","a","cog","word","S","exp","5"
"","null","html-keyboard-response","234","531783","0.0-3.0-0.109","+","null","","","","","",""
"","2298","html-keyboard-response","235","534081","0.0-3.0-1.109","grátis","s","a","cog","word","S","exp","6"
"","null","html-keyboard-response","236","534583","0.0-3.0-0.110","+","null","","","","","",""
"","7978","html-keyboard-response","237","542561","0.0-3.0-1.110","dobradiça","n","n","noncog","word","S","exp","9"
"","null","html-keyboard-response","238","543062","0.0-3.0-0.111","+","null","","","","","",""
"","5195","html-keyboard-response","239","548257","0.0-3.0-1.111","boreta","n","null","noncog","pseudo","N","exp","null"
"","null","html-keyboard-response","240","548759","0.0-3.0-0.112","+","null","","","","","",""
"","3306","html-keyboard-response","241","552065","0.0-3.0-1.112","senareta","s","null","noncog","pseudo","N","exp","null"
"","null","html-keyboard-response","242","552567","0.0-3.0-0.113","+","null","","","","","",""
"","1802","html-keyboard-response","243","554369","0.0-3.0-1.113","oper","n","null","noncog","pseudo","N","exp","null"
"","null","html-keyboard-response","244","554871","0.0-3.0-0.114","+","null","","","","","",""
"","1882","html-keyboard-response","245","556753","0.0-3.0-1.114","cerca","n","n","noncog","word","S","exp","5"
"","null","html-keyboard-response","246","557256","0.0-3.0-0.115","+","null","","","","","",""
"","3097","html-keyboard-response","247","560353","0.0-3.0-1.115","salpicado","n","a","noncog","word","S","exp","9"
"","null","html-keyboard-response","248","560854","0.0-3.0-0.116","+","null","","","","","",""
"","1387","html-keyboard-response","249","562241","0.0-3.0-1.116","suipestar","n","null","noncog","pseudo","N","exp","null"
"","null","html-keyboard-response","250","562743","0.0-3.0-0.117","+","null","","","","","",""
"","2122","html-keyboard-response","251","564865","0.0-3.0-1.117","manfa","n","null","noncog","pseudo","N","exp","null"
"","null","html-keyboard-response","252","565367","0.0-3.0-0.118","+","null","","","","","",""
"","2682","html-keyboard-response","253","568049","0.0-3.0-1.118","cascata","n","n","noncog","word","S","exp","7"
"","null","html-keyboard-response","254","568550","0.0-3.0-0.119","+","null","","","","","",""
"","811","html-keyboard-response","255","569361","0.0-3.0-1.119","tinta","n","n","cog","word","S","exp","5"
"","null","html-keyboard-response","256","569863","0.0-3.0-0.120","+","null","","","","","",""
"","4122","html-keyboard-response","257","573985","0.0-3.0-1.120","glória","s","n","cog","word","S","exp","6"
"","null","html-keyboard-response","258","574487","0.0-3.0-0.121","+","null","","","","","",""
"","3578","html-keyboard-response","259","578065","0.0-3.0-1.121","pedaço","s","n","noncog","word","S","exp","6"
"","null","html-keyboard-response","260","578567","0.0-3.0-0.122","+","null","","","","","",""
"","2522","html-keyboard-response","261","581089","0.0-3.0-1.122","tronca","s","null","noncog","pseudo","N","exp","null"
"","null","html-keyboard-response","262","581591","0.0-3.0-0.123","+","null","","","","","",""
"","1530","html-keyboard-response","263","583121","0.0-3.0-1.123","areia","n","n","noncog","word","S","exp","5"
"","null","html-keyboard-response","264","583622","0.0-3.0-0.124","+","null","","","","","",""
"","4618","html-keyboard-response","265","588241","0.0-3.0-1.124","fasdas","s","null","noncog","pseudo","N","exp","null"
"","null","html-keyboard-response","266","588743","0.0-3.0-0.125","+","null","","","","","",""
"","2058","html-keyboard-response","267","590801","0.0-3.0-1.125","memória","n","n","cog","word","S","exp","7"
"","null","html-keyboard-response","268","591302","0.0-3.0-0.126","+","null","","","","","",""
"","939","html-keyboard-response","269","592241","0.0-3.0-1.126","berquesa","n","null","noncog","pseudo","N","exp","null"
"","null","html-keyboard-response","270","592742","0.0-3.0-0.127","+","null","","","","","",""
"","1274","html-keyboard-response","271","594017","0.0-3.0-1.127","usfiga","n","null","noncog","pseudo","N","exp","null"
"","null","html-keyboard-response","272","594527","0.0-3.0-0.128","+","null","","","","","",""
"","4210","html-keyboard-response","273","598737","0.0-3.0-1.128","independente","s","a","noncog","word","S","exp","12"
"","null","html-keyboard-response","274","599238","0.0-3.0-0.129","+","null","","","","","",""
"","1994","html-keyboard-response","275","601233","0.0-3.0-1.129","jantar","s","v","noncog","word","S","exp","6"
"","null","html-keyboard-response","276","601734","0.0-3.0-0.130","+","null","","","","","",""
"","3114","html-keyboard-response","277","604849","0.0-3.0-1.130","braras","n","null","noncog","pseudo","N","exp","null"
"","null","html-keyboard-response","278","605350","0.0-3.0-0.131","+","null","","","","","",""
"","2154","html-keyboard-response","279","607505","0.0-3.0-1.131","detative","s","null","noncog","pseudo","N","exp","null"
"","null","html-keyboard-response","280","608006","0.0-3.0-0.132","+","null","","","","","",""
"","3787","html-keyboard-response","281","611793","0.0-3.0-1.132","dacada","n","null","noncog","pseudo","N","exp","null"
"","null","html-keyboard-response","282","612294","0.0-3.0-0.133","+","null","","","","","",""
"","5146","html-keyboard-response","283","617441","0.0-3.0-1.133","açúcar","n","n","noncog","word","S","exp","6"
"","null","html-keyboard-response","284","617942","0.0-3.0-0.134","+","null","","","","","",""
"","2875","html-keyboard-response","285","620817","0.0-3.0-1.134","enedro","n","null","noncog","pseudo","N","exp","null"
"","null","html-keyboard-response","286","621319","0.0-3.0-0.135","+","null","","","","","",""
"","1786","html-keyboard-response","287","623105","0.0-3.0-1.135","perdão","n","n","noncog","word","S","exp","6"
"","null","html-keyboard-response","288","623606","0.0-3.0-0.136","+","null","","","","","",""
"","1018","html-keyboard-response","289","624625","0.0-3.0-1.136","chorão","n","a","noncog","word","S","exp","6"
"","null","html-keyboard-response","290","625127","0.0-3.0-0.137","+","null","","","","","",""
"","2602","html-keyboard-response","291","627729","0.0-3.0-1.137","pangos","n","null","noncog","pseudo","N","exp","null"
"","null","html-keyboard-response","292","628231","0.0-3.0-0.138","+","null","","","","","",""
"","4202","html-keyboard-response","293","632433","0.0-3.0-1.138","manais","n","null","noncog","pseudo","N","exp","null"
"","null","html-keyboard-response","294","632934","0.0-3.0-0.139","+","null","","","","","",""
"","811","html-keyboard-response","295","633745","0.0-3.0-1.139","hébies","n","null","noncog","pseudo","N","exp","null"
"","null","html-keyboard-response","296","634246","0.0-3.0-0.140","+","null","","","","","",""
"","778","html-keyboard-response","297","635025","0.0-3.0-1.140","faínas","n","null","noncog","pseudo","N","exp","null"
"","null","html-keyboard-response","298","635527","0.0-3.0-0.141","+","null","","","","","",""
"","5466","html-keyboard-response","299","640993","0.0-3.0-1.141","preferir","s","v","cog","word","S","exp","8"
"","null","html-keyboard-response","300","641494","0.0-3.0-0.142","+","null","","","","","",""
"","1770","html-keyboard-response","301","643265","0.0-3.0-1.142","brincar","s","v","noncog","word","S","exp","7"
"","null","html-keyboard-response","302","643767","0.0-3.0-0.143","+","null","","","","","",""
"","4602","html-keyboard-response","303","648369","0.0-3.0-1.143","lapestra","n","null","noncog","pseudo","N","exp","null"
"","null","html-keyboard-response","304","648870","0.0-3.0-0.144","+","null","","","","","",""
"","3642","html-keyboard-response","305","652513","0.0-3.0-1.144","ideisa","n","null","noncog","pseudo","N","exp","null"
"","null","html-keyboard-response","306","653014","0.0-3.0-0.145","+","null","","","","","",""
"","4027","html-keyboard-response","307","657041","0.0-3.0-1.145","euorpa","n","null","noncog","pseudo","N","exp","null"
"","null","html-keyboard-response","308","657542","0.0-3.0-0.146","+","null","","","","","",""
"","1259","html-keyboard-response","309","658801","0.0-3.0-1.146","motre","n","null","noncog","pseudo","N","exp","null"
"","null","html-keyboard-response","310","659303","0.0-3.0-0.147","+","null","","","","","",""
"","2202","html-keyboard-response","311","661505","0.0-3.0-1.147","mudança","s","n","noncog","word","S","exp","7"
"","null","html-keyboard-response","312","662007","0.0-3.0-0.148","+","null","","","","","",""
"","1626","html-keyboard-response","313","663633","0.0-3.0-1.148","esfoce","s","null","noncog","pseudo","N","exp","null"
"","null","html-keyboard-response","314","664135","0.0-3.0-0.149","+","null","","","","","",""
"","2250","html-keyboard-response","315","666385","0.0-3.0-1.149","multiplicar","s","v","cog","word","S","exp","11"
"","null","html-keyboard-response","316","666885","0.0-3.0-0.150","+","null","","","","","",""
"","1003","html-keyboard-response","317","667889","0.0-3.0-1.150","mabras","n","null","noncog","pseudo","N","exp","null"
"","null","html-keyboard-response","318","668390","0.0-3.0-0.151","+","null","","","","","",""
"","1291","html-keyboard-response","319","669681","0.0-3.0-1.151","agravar","n","v","cog","word","S","exp","7"
"","null","html-keyboard-response","320","670183","0.0-3.0-0.152","+","null","","","","","",""
"","3514","html-keyboard-response","321","673697","0.0-3.0-1.152","dilheira","n","null","noncog","pseudo","N","exp","null"
"","null","html-keyboard-response","322","674198","0.0-3.0-0.153","+","null","","","","","",""
"","2587","html-keyboard-response","323","676785","0.0-3.0-1.153","resmungar","n","v","noncog","word","S","exp","9"
"","null","html-keyboard-response","324","677286","0.0-3.0-0.154","+","null","","","","","",""
"","2571","html-keyboard-response","325","679857","0.0-3.0-1.154","ocinto","s","null","noncog","pseudo","N","exp","null"
"","null","html-keyboard-response","326","680359","0.0-3.0-0.155","+","null","","","","","",""
"","2650","html-keyboard-response","327","683009","0.0-3.0-1.155","arranjar","n","v","cog","word","S","exp","8"
"","null","html-keyboard-response","328","683510","0.0-3.0-0.156","+","null","","","","","",""
"","1242","html-keyboard-response","329","684753","0.0-3.0-1.156","gilha","n","null","noncog","pseudo","N","exp","null"
"","null","html-keyboard-response","330","685254","0.0-3.0-0.157","+","null","","","","","",""
"","1866","html-keyboard-response","331","687121","0.0-3.0-1.157","liso","s","n","noncog","word","S","exp","4"
"","null","html-keyboard-response","332","687623","0.0-3.0-0.158","+","null","","","","","",""
"","2298","html-keyboard-response","333","689921","0.0-3.0-1.158","cinema","s","n","cog","word","S","exp","6"
"","null","html-keyboard-response","334","690423","0.0-3.0-0.159","+","null","","","","","",""
"","2089","html-keyboard-response","335","692513","0.0-3.0-1.159","cirado","n","null","noncog","pseudo","N","exp","null"
"","null","html-keyboard-response","336","693014","0.0-3.0-0.160","+","null","","","","","",""
"","2283","html-keyboard-response","337","695297","0.0-3.0-1.160","distraído","n","a","cog","word","S","exp","9"
"","null","html-keyboard-response","338","695799","0.0-3.0-0.161","+","null","","","","","",""
"","970","html-keyboard-response","339","696769","0.0-3.0-1.161","ilhure","n","null","noncog","pseudo","N","exp","null"
"","null","html-keyboard-response","340","697270","0.0-3.0-0.162","+","null","","","","","",""
"","2939","html-keyboard-response","341","700209","0.0-3.0-1.162","traduzir","s","v","cog","word","S","exp","8"
"","null","html-keyboard-response","342","700711","0.0-3.0-0.163","+","null","","","","","",""
"","2314","html-keyboard-response","343","703025","0.0-3.0-1.163","esprotiar","s","null","noncog","pseudo","N","exp","null"
"","null","html-keyboard-response","344","703527","0.0-3.0-0.164","+","null","","","","","",""
"","3242","html-keyboard-response","345","706769","0.0-3.0-1.164","delirar","s","v","noncog","word","S","exp","7"
"","null","html-keyboard-response","346","707275","0.0-3.0-0.165","+","null","","","","","",""
"","1766","html-keyboard-response","347","709041","0.0-3.0-1.165","gruja","n","null","noncog","pseudo","N","exp","null"
"","null","html-keyboard-response","348","709543","0.0-3.0-0.166","+","null","","","","","",""
"","2090","html-keyboard-response","349","711633","0.0-3.0-1.166","quenzina","n","null","noncog","pseudo","N","exp","null"
"","null","html-keyboard-response","350","712134","0.0-3.0-0.167","+","null","","","","","",""
"","3082","html-keyboard-response","351","715217","0.0-3.0-1.167","chato","s","n","noncog","word","S","exp","5"
"","null","html-keyboard-response","352","715719","0.0-3.0-0.168","+","null","","","","","",""
"","2634","html-keyboard-response","353","718353","0.0-3.0-1.168","pritas","s","null","noncog","pseudo","N","exp","null"
"","null","html-keyboard-response","354","718854","0.0-3.0-0.169","+","null","","","","","",""
"","6203","html-keyboard-response","355","725057","0.0-3.0-1.169","nervoso","n","a","noncog","word","S","exp","7"
"","null","html-keyboard-response","356","725559","0.0-3.0-0.170","+","null","","","","","",""
"","1945","html-keyboard-response","357","727505","0.0-3.0-1.170","selir","s","null","noncog","pseudo","N","exp","null"
"","null","html-keyboard-response","358","728007","0.0-3.0-0.171","+","null","","","","","",""
"","2890","html-keyboard-response","359","730897","0.0-3.0-1.171","podilo","n","null","noncog","pseudo","N","exp","null"
"","null","html-keyboard-response","360","731399","0.0-3.0-0.172","+","null","","","","","",""
"","906","html-keyboard-response","361","732305","0.0-3.0-1.172","prenas","s","null","noncog","pseudo","N","exp","null"
"","null","html-keyboard-response","362","732806","0.0-3.0-0.173","+","null","","","","","",""
"","1498","html-keyboard-response","363","734305","0.0-3.0-1.173","ensuas","s","null","noncog","pseudo","N","exp","null"
"","null","html-keyboard-response","364","734806","0.0-3.0-0.174","+","null","","","","","",""
"","1130","html-keyboard-response","365","735937","0.0-3.0-1.174","cápsula","n","n","noncog","word","S","exp","7"
"","null","html-keyboard-response","366","736438","0.0-3.0-0.175","+","null","","","","","",""
"","874","html-keyboard-response","367","737313","0.0-3.0-1.175","sábio","n","n","noncog","word","S","exp","5"
"","null","html-keyboard-response","368","737814","0.0-3.0-0.176","+","null","","","","","",""
"","939","html-keyboard-response","369","738753","0.0-3.0-1.176","rovaz","n","null","noncog","pseudo","N","exp","null"
"","null","html-keyboard-response","370","739256","0.0-3.0-0.177","+","null","","","","","",""
"","1080","html-keyboard-response","371","740337","0.0-3.0-1.177","aletiê","n","null","noncog","pseudo","N","exp","null"
"","null","html-keyboard-response","372","740838","0.0-3.0-0.178","+","null","","","","","",""
"","1738","html-keyboard-response","373","742577","0.0-3.0-1.178","barco","s","n","cog","word","S","exp","5"
"","null","html-keyboard-response","374","743078","0.0-3.0-0.179","+","null","","","","","",""
"","3659","html-keyboard-response","375","746737","0.0-3.0-1.179","carro","s","n","noncog","word","S","exp","5"
"","null","html-keyboard-response","376","747239","0.0-3.0-0.180","+","null","","","","","",""
"","1098","html-keyboard-response","377","748337","0.0-3.0-1.180","árovre","n","null","noncog","pseudo","N","exp","null"
"","null","html-keyboard-response","378","748838","0.0-3.0-0.181","+","null","","","","","",""
"","2443","html-keyboard-response","379","751281","0.0-3.0-1.181","cristal","s","n","cog","word","S","exp","7"
"","null","html-keyboard-response","380","751783","0.0-3.0-0.182","+","null","","","","","",""
"","1914","html-keyboard-response","381","753697","0.0-3.0-1.182","parceter","n","null","noncog","pseudo","N","exp","null"
"","null","html-keyboard-response","382","754198","0.0-3.0-0.183","+","null","","","","","",""
"","4091","html-keyboard-response","383","758289","0.0-3.0-1.183","taberia","n","null","noncog","pseudo","N","exp","null"
"","null","html-keyboard-response","384","758790","0.0-3.0-0.184","+","null","","","","","",""
"","1818","html-keyboard-response","385","760609","0.0-3.0-1.184","ofreta","n","null","noncog","pseudo","N","exp","null"
"","null","html-keyboard-response","386","761109","0.0-3.0-0.185","+","null","","","","","",""
"","2811","html-keyboard-response","387","763921","0.0-3.0-1.185","morno","n","a","noncog","word","S","exp","5"
"","null","html-keyboard-response","388","764421","0.0-3.0-0.186","+","null","","","","","",""
"","2283","html-keyboard-response","389","766705","0.0-3.0-1.186","papai","s","n","cog","word","S","exp","5"
"","null","html-keyboard-response","390","767207","0.0-3.0-0.187","+","null","","","","","",""
"","1465","html-keyboard-response","391","768673","0.0-3.0-1.187","âgnulo","n","null","noncog","pseudo","N","exp","null"
"","null","html-keyboard-response","392","769189","0.0-3.0-0.188","+","null","","","","","",""
"","2715","html-keyboard-response","393","771905","0.0-3.0-1.188","aparme","n","null","noncog","pseudo","N","exp","null"
"","null","html-keyboard-response","394","772406","0.0-3.0-0.189","+","null","","","","","",""
"","1690","html-keyboard-response","395","774097","0.0-3.0-1.189","agressivo","n","a","cog","word","S","exp","9"
"","null","html-keyboard-response","396","774599","0.0-3.0-0.190","+","null","","","","","",""
"","2266","html-keyboard-response","397","776865","0.0-3.0-1.190","promeção","n","null","noncog","pseudo","N","exp","null"
"","null","html-keyboard-response","398","777366","0.0-3.0-0.191","+","null","","","","","",""
"","842","html-keyboard-response","399","778209","0.0-3.0-1.191","prantal","n","null","noncog","pseudo","N","exp","null"
"","null","html-keyboard-response","400","778710","0.0-3.0-0.192","+","null","","","","","",""
"","1193","html-keyboard-response","401","779904","0.0-3.0-1.192","gertas","n","null","noncog","pseudo","N","exp","null"
"","null","html-keyboard-response","402","780405","0.0-3.0-0.193","+","null","","","","","",""
"","2123","html-keyboard-response","403","782529","0.0-3.0-1.193","atapdar","n","null","noncog","pseudo","N","exp","null"
"","null","html-keyboard-response","404","783030","0.0-3.0-0.194","+","null","","","","","",""
"","3946","html-keyboard-response","405","786977","0.0-3.0-1.194","bracos","s","null","noncog","pseudo","N","exp","null"
"","null","html-keyboard-response","406","787479","0.0-3.0-0.195","+","null","","","","","",""
"","3802","html-keyboard-response","407","791281","0.0-3.0-1.195","pulmão","n","n","noncog","word","S","exp","6"
"","null","html-keyboard-response","408","791783","0.0-3.0-0.196","+","null","","","","","",""
"","2474","html-keyboard-response","409","794257","0.0-3.0-1.196","tatear","s","v","cog","word","S","exp","6"
"","null","html-keyboard-response","410","794758","0.0-3.0-0.197","+","null","","","","","",""
"","2186","html-keyboard-response","411","796945","0.0-3.0-1.197","francês","s","a","cog","word","S","exp","7"
"","null","html-keyboard-response","412","797446","0.0-3.0-0.198","+","null","","","","","",""
"","4186","html-keyboard-response","413","801633","0.0-3.0-1.198","casuas","n","null","noncog","pseudo","N","exp","null"
"","null","html-keyboard-response","414","802134","0.0-3.0-0.199","+","null","","","","","",""
"","1498","html-keyboard-response","415","803633","0.0-3.0-1.199","tela","n","n","noncog","word","S","exp","4"
"","null","html-keyboard-response","416","804134","0.0-3.0-0.200","+","null","","","","","",""
"","1930","html-keyboard-response","417","806065","0.0-3.0-1.200","adoçar","n","v","noncog","word","S","exp","6"
"","null","html-keyboard-response","418","806566","0.0-3.0-0.201","+","null","","","","","",""
"","938","html-keyboard-response","419","807505","0.0-3.0-1.201","sustentar","n","v","noncog","word","S","exp","9"
"","null","html-keyboard-response","420","808006","0.0-3.0-0.202","+","null","","","","","",""
"","1658","html-keyboard-response","421","809665","0.0-3.0-1.202","raspar","n","v","noncog","word","S","exp","6"
"","null","html-keyboard-response","422","810165","0.0-3.0-0.203","+","null","","","","","",""
"","1851","html-keyboard-response","423","812017","0.0-3.0-1.203","risbos","n","null","noncog","pseudo","N","exp","null"
"","null","html-keyboard-response","424","812518","0.0-3.0-0.204","+","null","","","","","",""
"","1818","html-keyboard-response","425","814337","0.0-3.0-1.204","incomodar","n","v","noncog","word","S","exp","9"
"","null","html-keyboard-response","426","814839","0.0-3.0-0.205","+","null","","","","","",""
"","2313","html-keyboard-response","427","817153","0.0-3.0-1.205","escumo","n","null","noncog","pseudo","N","exp","null"
"","null","html-keyboard-response","428","817654","0.0-3.0-0.206","+","null","","","","","",""
"","2858","html-keyboard-response","429","820513","0.0-3.0-1.206","bibarconato","n","null","noncog","pseudo","N","exp","null"
"","null","html-keyboard-response","430","821014","0.0-3.0-0.207","+","null","","","","","",""
"","1114","html-keyboard-response","431","822129","0.0-3.0-1.207","uchães","n","null","noncog","pseudo","N","exp","null"
"","null","html-keyboard-response","432","822631","0.0-3.0-0.208","+","null","","","","","",""
"","1866","html-keyboard-response","433","824497","0.0-3.0-1.208","ótimo","n","a","noncog","word","S","exp","5"
"","null","html-keyboard-response","434","824999","0.0-3.0-0.209","+","null","","","","","",""
"","2489","html-keyboard-response","435","827489","0.0-3.0-1.209","promessa","s","n","noncog","word","S","exp","8"
"","null","html-keyboard-response","436","827991","0.0-3.0-0.210","+","null","","","","","",""
"","2650","html-keyboard-response","437","830641","0.0-3.0-1.210","fino","s","a","cog","word","S","exp","4"
"","null","html-keyboard-response","438","831142","0.0-3.0-0.211","+","null","","","","","",""
"","2666","html-keyboard-response","439","833809","0.0-3.0-1.211","drama","s","n","cog","word","S","exp","5"
"","null","html-keyboard-response","440","834311","0.0-3.0-0.212","+","null","","","","","",""
"","2538","html-keyboard-response","441","836849","0.0-3.0-1.212","espinho","s","n","noncog","word","S","exp","7"
"","null","html-keyboard-response","442","837351","0.0-3.0-0.213","+","null","","","","","",""
"","1001","html-keyboard-response","443","838353","0.0-3.0-1.213","abieso","n","null","noncog","pseudo","N","exp","null"
"","null","html-keyboard-response","444","838854","0.0-3.0-0.214","+","null","","","","","",""
"","2362","html-keyboard-response","445","841217","0.0-3.0-1.214","sanque","s","null","noncog","pseudo","N","exp","null"
"","null","html-keyboard-response","446","841719","0.0-3.0-0.215","+","null","","","","","",""
"","3914","html-keyboard-response","447","845633","0.0-3.0-1.215","dencosto","n","null","noncog","pseudo","N","exp","null"
"","null","html-keyboard-response","448","846135","0.0-3.0-0.216","+","null","","","","","",""
"","2634","html-keyboard-response","449","848769","0.0-3.0-1.216","conjerto","s","null","noncog","pseudo","N","exp","null"
"","null","html-keyboard-response","450","849269","0.0-3.0-0.217","+","null","","","","","",""
"","1147","html-keyboard-response","451","850417","0.0-3.0-1.217","tio","n","n","noncog","word","S","exp","3"
"","null","html-keyboard-response","452","850918","0.0-3.0-0.218","+","null","","","","","",""
"","4618","html-keyboard-response","453","855537","0.0-3.0-1.218","apontar","n","v","noncog","word","S","exp","7"
"","null","html-keyboard-response","454","856038","0.0-3.0-0.219","+","null","","","","","",""
"","1402","html-keyboard-response","455","857441","0.0-3.0-1.219","bandido","n","n","cog","word","S","exp","7"
"","null","html-keyboard-response","456","857942","0.0-3.0-0.220","+","null","","","","","",""
"","5434","html-keyboard-response","457","863377","0.0-3.0-1.220","prever","n","v","cog","word","S","exp","6"
"","null","html-keyboard-response","458","863879","0.0-3.0-0.221","+","null","","","","","",""
"","3130","html-keyboard-response","459","867009","0.0-3.0-1.221","plinta","n","null","noncog","pseudo","N","exp","null"
"","null","html-keyboard-response","460","867511","0.0-3.0-0.222","+","null","","","","","",""
"","730","html-keyboard-response","461","868241","0.0-3.0-1.222","jastor","n","null","noncog","pseudo","N","exp","null"
"","null","html-keyboard-response","462","868742","0.0-3.0-0.223","+","null","","","","","",""
"","842","html-keyboard-response","463","869585","0.0-3.0-1.223","enxerido","n","a","noncog","word","S","exp","8"
"","null","html-keyboard-response","464","870100","0.0-3.0-0.224","+","null","","","","","",""
"","1452","html-keyboard-response","465","871553","0.0-3.0-1.224","afonher","n","null","noncog","pseudo","N","exp","null"
"","null","html-keyboard-response","466","872054","0.0-3.0-0.225","+","null","","","","","",""
"","1994","html-keyboard-response","467","874049","0.0-3.0-1.225","dia","s","n","noncog","word","S","exp","3"
"","null","html-keyboard-response","468","874551","0.0-3.0-0.226","+","null","","","","","",""
"","1450","html-keyboard-response","469","876001","0.0-3.0-1.226","oricia","n","null","noncog","pseudo","N","exp","null"
"","null","html-keyboard-response","470","876503","0.0-3.0-0.227","+","null","","","","","",""
"","2538","html-keyboard-response","471","879041","0.0-3.0-1.227","disbrituir","n","null","noncog","pseudo","N","exp","null"
"","null","html-keyboard-response","472","879542","0.0-3.0-0.228","+","null","","","","","",""
"","3915","html-keyboard-response","473","883457","0.0-3.0-1.228","espionar","n","v","cog","word","S","exp","8"
"","null","html-keyboard-response","474","883958","0.0-3.0-0.229","+","null","","","","","",""
"","3498","html-keyboard-response","475","887457","0.0-3.0-1.229","alfabeto","s","n","cog","word","S","exp","8"
"","null","html-keyboard-response","476","887958","0.0-3.0-0.230","+","null","","","","","",""
"","1466","html-keyboard-response","477","889425","0.0-3.0-1.230","trabalhar","s","v","noncog","word","S","exp","9"
"","null","html-keyboard-response","478","889926","0.0-3.0-0.231","+","null","","","","","",""
"","2746","html-keyboard-response","479","892673","0.0-3.0-1.231","candifência","s","null","noncog","pseudo","N","exp","null"
"","null","html-keyboard-response","480","893174","0.0-3.0-0.232","+","null","","","","","",""
"","1978","html-keyboard-response","481","895153","0.0-3.0-1.232","liberal","s","a","cog","word","S","exp","7"
"","null","html-keyboard-response","482","895658","0.0-3.0-0.233","+","null","","","","","",""
"","2263","html-keyboard-response","483","897921","0.0-3.0-1.233","bachir","s","null","noncog","pseudo","N","exp","null"
"","null","html-keyboard-response","484","898422","0.0-3.0-0.234","+","null","","","","","",""
"","4474","html-keyboard-response","485","902897","0.0-3.0-1.234","sintonizar","s","v","noncog","word","S","exp","10"
"","null","html-keyboard-response","486","903398","0.0-3.0-0.235","+","null","","","","","",""
"","2762","html-keyboard-response","487","906161","0.0-3.0-1.235","extravagante","s","a","cog","word","S","exp","12"
"","null","html-keyboard-response","488","906662","0.0-3.0-0.236","+","null","","","","","",""
"","2441","html-keyboard-response","489","909104","0.0-3.0-1.236","pimada","s","null","noncog","pseudo","N","exp","null"
"","null","html-keyboard-response","490","909605","0.0-3.0-0.237","+","null","","","","","",""
"","2251","html-keyboard-response","491","911857","0.0-3.0-1.237","melão","s","n","cog","word","S","exp","5"
"","null","html-keyboard-response","492","912357","0.0-3.0-0.238","+","null","","","","","",""
"","2811","html-keyboard-response","493","915169","0.0-3.0-1.238","motros","n","null","noncog","pseudo","N","exp","null"
"","null","html-keyboard-response","494","915670","0.0-3.0-0.239","+","null","","","","","",""
"","3146","html-keyboard-response","495","918817","0.0-3.0-1.239","medalha","n","n","cog","word","S","exp","7"
