"view_history","rt","trial_type","trial_index","time_elapsed","internal_node_id","stimulus","response","trial_part","trial","word","question","answer","accuracy"
"[{""page_index"":0,""viewing_time"":554941},{""page_index"":1,""viewing_time"":14016}]","568958","instructions","0","568959","0.0-0.0","","","","","","","",""
"","null","html-keyboard-response","1","570062","0.0-1.0-0.0-0.0","<span style= ""font-size:30px; font-family: monospace"">+</span>","null","fixation","","","","",""
"","7180","html-keyboard-response","2","577494","0.0-1.0-1.0","<span style=""font-size:30px; font-family: monospace"">O</span>"," ","","prac-sent","O","","",""
"","10564","html-keyboard-response","3","588310","0.0-1.0-1.1","<span style=""font-size:30px; font-family: monospace"">dia</span>"," ","","prac-sent","dia","","",""
"","1205","html-keyboard-response","4","589765","0.0-1.0-1.2","<span style=""font-size:30px; font-family: monospace"">estará</span>"," ","","prac-sent","estará","","",""
"","1269","html-keyboard-response","5","591285","0.0-1.0-1.3","<span style=""font-size:30px; font-family: monospace"">cheio</span>"," ","","prac-sent","cheio","","",""
"","85","html-keyboard-response","6","591621","0.0-1.0-1.4","<span style=""font-size:30px; font-family: monospace"">de</span>"," ","","prac-sent","de","","",""
"","484","html-keyboard-response","7","592357","0.0-1.0-1.5","<span style=""font-size:30px; font-family: monospace"">nuvens</span>"," ","","prac-sent","nuvens","","",""
"","5429","html-keyboard-response","8","598037","0.0-1.0-1.6","<span style=""font-size:30px; font-family: monospace"">hoje.</span>"," ","","prac-sent","hoje.","","",""
"","null","html-keyboard-response","9","599289","0.0-1.0-0.7-0.7","<span style= ""font-size:30px; font-family: monospace"">+</span>","null","fixation","","","","",""
"","785","html-keyboard-response","10","600325","0.0-1.0-1.7","<span style=""font-size:30px; font-family: monospace"">A</span>"," ","","prac-sent","A","","",""
"","3781","html-keyboard-response","11","604357","0.0-1.0-1.8","<span style=""font-size:30px; font-family: monospace"">caneca</span>"," ","","prac-sent","caneca","","",""
"","5973","html-keyboard-response","12","610582","0.0-1.0-1.9","<span style=""font-size:30px; font-family: monospace"">colorida</span>"," ","","prac-sent","colorida","","",""
"","4117","html-keyboard-response","13","614949","0.0-1.0-1.10","<span style=""font-size:30px; font-family: monospace"">caiu</span>"," ","","prac-sent","caiu","","",""
"","1556","html-keyboard-response","14","616757","0.0-1.0-1.11","<span style=""font-size:30px; font-family: monospace"">da</span>"," ","","prac-sent","da","","",""
"","12532","html-keyboard-response","15","629541","0.0-1.0-1.12","<span style=""font-size:30px; font-family: monospace"">mesa</span>"," ","","prac-sent","mesa","","",""
"","741","html-keyboard-response","16","630533","0.0-1.0-1.13","<span style=""font-size:30px; font-family: monospace"">de</span>"," ","","prac-sent","de","","",""
"","19636","html-keyboard-response","17","650421","0.0-1.0-1.14","<span style=""font-size:30px; font-family: monospace"">jantar.</span>"," ","","prac-comp","jantar.","","",""
"","32260","html-keyboard-response","18","682933","0.0-1.0-2.14-0.14","<span style=""font-size:30px; font-family: monospace"">A caneca permaneceu na mesa?</span>","s","","prac-comp","","A caneca permaneceu na mesa?","não","false"
"[{""page_index"":0,""viewing_time"":32938}]","32939","instructions","19","716373","0.0-2.0","","","","","","","",""
"","null","html-keyboard-response","20","717476","0.0-3.0-0.0-0.0","<span style= ""font-size:30px; font-family: monospace"">+</span>","null","fixation","","","","",""
"","2790","html-keyboard-response","21","720517","0.0-3.0-1.0","<span style=""font-size:30px; font-family: monospace"">No</span>"," ","","exp-sent","No","","",""
"","741","html-keyboard-response","22","721509","0.0-3.0-1.1","<span style=""font-size:30px; font-family: monospace"">passado</span>"," ","","exp-sent","passado","","",""
"","868","html-keyboard-response","23","722629","0.0-3.0-1.2","<span style=""font-size:30px; font-family: monospace"">houve</span>"," ","","exp-sent","houve","","",""
"","724","html-keyboard-response","24","723605","0.0-3.0-1.3","<span style=""font-size:30px; font-family: monospace"">uma</span>"," ","","exp-sent","uma","","",""
"","853","html-keyboard-response","25","724709","0.0-3.0-1.4","<span style=""font-size:30px; font-family: monospace"">rebelião</span>"," ","","exp-sent","rebelião","","",""
"","500","html-keyboard-response","26","725461","0.0-3.0-1.5","<span style=""font-size:30px; font-family: monospace"">nesta</span>"," ","","exp-sent","nesta","","",""
"","1317","html-keyboard-response","27","727029","0.0-3.0-1.6","<span style=""font-size:30px; font-family: monospace"">cidade.</span>"," ","","exp-sent","cidade.","","",""
"","null","html-keyboard-response","28","728282","0.0-3.0-0.7-0.7","<span style= ""font-size:30px; font-family: monospace"">+</span>","null","fixation","","","","",""
"","417","html-keyboard-response","29","728949","0.0-3.0-1.7","<span style=""font-size:30px; font-family: monospace"">Ele</span>"," ","","exp-sent","Ele","","",""
"","788","html-keyboard-response","30","729989","0.0-3.0-1.8","<span style=""font-size:30px; font-family: monospace"">fundou</span>"," ","","exp-sent","fundou","","",""
"","1091","html-keyboard-response","31","731333","0.0-3.0-1.9","<span style=""font-size:30px; font-family: monospace"">uma</span>"," ","","exp-sent","uma","","",""
"","2293","html-keyboard-response","32","733877","0.0-3.0-1.10","<span style=""font-size:30px; font-family: monospace"">empresa</span>"," ","","exp-sent","empresa","","",""
"","1493","html-keyboard-response","33","735621","0.0-3.0-1.11","<span style=""font-size:30px; font-family: monospace"">privada</span>"," ","","exp-sent","privada","","",""
"","965","html-keyboard-response","34","736837","0.0-3.0-1.12","<span style=""font-size:30px; font-family: monospace"">sem</span>"," ","","exp-sent","sem","","",""
"","1189","html-keyboard-response","35","738277","0.0-3.0-1.13","<span style=""font-size:30px; font-family: monospace"">ajuda.</span>"," ","","exp-sent","ajuda.","","",""
"","null","html-keyboard-response","36","739529","0.0-3.0-0.14-0.14","<span style= ""font-size:30px; font-family: monospace"">+</span>","null","fixation","","","","",""
"","449","html-keyboard-response","37","740229","0.0-3.0-1.14","<span style=""font-size:30px; font-family: monospace"">As</span>"," ","","exp-sent","As","","",""
"","1605","html-keyboard-response","38","742085","0.0-3.0-1.15","<span style=""font-size:30px; font-family: monospace"">meninas</span>"," ","","exp-sent","meninas","","",""
"","3253","html-keyboard-response","39","745589","0.0-3.0-1.16","<span style=""font-size:30px; font-family: monospace"">encontraram</span>"," ","","exp-sent","encontraram","","",""
"","628","html-keyboard-response","40","746469","0.0-3.0-1.17","<span style=""font-size:30px; font-family: monospace"">um</span>"," ","","exp-sent","um","","",""
"","757","html-keyboard-response","41","747477","0.0-3.0-1.18","<span style=""font-size:30px; font-family: monospace"">rato</span>"," ","","exp-sent","rato","","",""
"","5173","html-keyboard-response","42","752901","0.0-3.0-1.19","<span style=""font-size:30px; font-family: monospace"">dentro</span>"," ","","exp-sent","dentro","","",""
"","2341","html-keyboard-response","43","755493","0.0-3.0-1.20","<span style=""font-size:30px; font-family: monospace"">de</span>"," ","","exp-sent","de","","",""
"","693","html-keyboard-response","44","756437","0.0-3.0-1.21","<span style=""font-size:30px; font-family: monospace"">casa.</span>"," ","","exp-sent","casa.","","",""
"","null","html-keyboard-response","45","757689","0.0-3.0-0.22-0.22","<span style= ""font-size:30px; font-family: monospace"">+</span>","null","fixation","","","","",""
"","369","html-keyboard-response","46","758309","0.0-3.0-1.22","<span style=""font-size:30px; font-family: monospace"">O</span>"," ","","exp-sent","O","","",""
"","516","html-keyboard-response","47","759077","0.0-3.0-1.23","<span style=""font-size:30px; font-family: monospace"">texto</span>"," ","","exp-sent","texto","","",""
"","517","html-keyboard-response","48","759845","0.0-3.0-1.24","<span style=""font-size:30px; font-family: monospace"">tinha</span>"," ","","exp-sent","tinha","","",""
"","565","html-keyboard-response","49","760661","0.0-3.0-1.25","<span style=""font-size:30px; font-family: monospace"">ideias</span>"," ","","exp-sent","ideias","","",""
"","1221","html-keyboard-response","50","762133","0.0-3.0-1.26","<span style=""font-size:30px; font-family: monospace"">vagas</span>"," ","","exp-sent","vagas","","",""
"","629","html-keyboard-response","51","763013","0.0-3.0-1.27","<span style=""font-size:30px; font-family: monospace"">e</span>"," ","","exp-sent","e","","",""
"","2469","html-keyboard-response","52","765733","0.0-3.0-1.28","<span style=""font-size:30px; font-family: monospace"">confusas.</span>"," ","","exp-sent","confusas.","","",""
"","null","html-keyboard-response","53","766986","0.0-3.0-0.29-0.29","<span style= ""font-size:30px; font-family: monospace"">+</span>","null","fixation","","","","",""
"","448","html-keyboard-response","54","767685","0.0-3.0-1.29","<span style=""font-size:30px; font-family: monospace"">As</span>"," ","","exp-sent","As","","",""
"","1605","html-keyboard-response","55","769541","0.0-3.0-1.30","<span style=""font-size:30px; font-family: monospace"">crianças</span>"," ","","exp-sent","crianças","","",""
"","1493","html-keyboard-response","56","771285","0.0-3.0-1.31","<span style=""font-size:30px; font-family: monospace"">viram</span>"," ","","exp-sent","viram","","",""
"","597","html-keyboard-response","57","772133","0.0-3.0-1.32","<span style=""font-size:30px; font-family: monospace"">a</span>"," ","","exp-sent","a","","",""
"","1045","html-keyboard-response","58","773429","0.0-3.0-1.33","<span style=""font-size:30px; font-family: monospace"">acrobata</span>"," ","","exp-sent","acrobata","","",""
"","517","html-keyboard-response","59","774197","0.0-3.0-1.34","<span style=""font-size:30px; font-family: monospace"">talentosa</span>"," ","","exp-sent","talentosa","","",""
"","517","html-keyboard-response","60","774965","0.0-3.0-1.35","<span style=""font-size:30px; font-family: monospace"">no</span>"," ","","exp-sent","no","","",""
"","437","html-keyboard-response","61","775653","0.0-3.0-1.36","<span style=""font-size:30px; font-family: monospace"">circo.</span>"," ","","comp","circo.","","",""
"","11653","html-keyboard-response","62","787557","0.0-3.0-2.36-0.36","<span style=""font-size:30px; font-family: monospace"">As crianças viram o palhaço no circo?</span>","s","","comp","","As crianças viram o palhaço no circo?","não","false"
"","null","html-keyboard-response","63","789060","0.0-3.0-0.37-0.37","<span style= ""font-size:30px; font-family: monospace"">+</span>","null","fixation","","","","",""
"","3350","html-keyboard-response","64","792661","0.0-3.0-1.37","<span style=""font-size:30px; font-family: monospace"">A</span>"," ","","exp-sent","A","","",""
"","629","html-keyboard-response","65","793541","0.0-3.0-1.38","<span style=""font-size:30px; font-family: monospace"">senhora</span>"," ","","exp-sent","senhora","","",""
"","613","html-keyboard-response","66","794405","0.0-3.0-1.39","<span style=""font-size:30px; font-family: monospace"">cumprimentou</span>"," ","","exp-sent","cumprimentou","","",""
"","549","html-keyboard-response","67","795205","0.0-3.0-1.40","<span style=""font-size:30px; font-family: monospace"">o</span>"," ","","exp-sent","o","","",""
"","485","html-keyboard-response","68","795941","0.0-3.0-1.41","<span style=""font-size:30px; font-family: monospace"">operador</span>"," ","","exp-sent","operador","","",""
"","453","html-keyboard-response","69","796645","0.0-3.0-1.42","<span style=""font-size:30px; font-family: monospace"">de</span>"," ","","exp-sent","de","","",""
"","565","html-keyboard-response","70","797461","0.0-3.0-1.43","<span style=""font-size:30px; font-family: monospace"">caixa.</span>"," ","","exp-sent","caixa.","","",""
"","null","html-keyboard-response","71","798713","0.0-3.0-0.44-0.44","<span style= ""font-size:30px; font-family: monospace"">+</span>","null","fixation","","","","",""
"","449","html-keyboard-response","72","799413","0.0-3.0-1.44","<span style=""font-size:30px; font-family: monospace"">A</span>"," ","","exp-sent","A","","",""
"","646","html-keyboard-response","73","800309","0.0-3.0-1.45","<span style=""font-size:30px; font-family: monospace"">gente</span>"," ","","exp-sent","gente","","",""
"","549","html-keyboard-response","74","801109","0.0-3.0-1.46","<span style=""font-size:30px; font-family: monospace"">viu</span>"," ","","exp-sent","viu","","",""
"","596","html-keyboard-response","75","801957","0.0-3.0-1.47","<span style=""font-size:30px; font-family: monospace"">o</span>"," ","","exp-sent","o","","",""
"","1365","html-keyboard-response","76","803573","0.0-3.0-1.48","<span style=""font-size:30px; font-family: monospace"">eclipse</span>"," ","","exp-sent","eclipse","","",""
"","741","html-keyboard-response","77","804565","0.0-3.0-1.49","<span style=""font-size:30px; font-family: monospace"">lunar</span>"," ","","exp-sent","lunar","","",""
"","804","html-keyboard-response","78","805621","0.0-3.0-1.50","<span style=""font-size:30px; font-family: monospace"">durante</span>"," ","","exp-sent","durante","","",""
"","677","html-keyboard-response","79","806549","0.0-3.0-1.51","<span style=""font-size:30px; font-family: monospace"">o</span>"," ","","exp-sent","o","","",""
"","580","html-keyboard-response","80","807381","0.0-3.0-1.52","<span style=""font-size:30px; font-family: monospace"">dia.</span>"," ","","exp-sent","dia.","","",""
"","null","html-keyboard-response","81","808634","0.0-3.0-0.53-0.53","<span style= ""font-size:30px; font-family: monospace"">+</span>","null","fixation","","","","",""
"","159","html-keyboard-response","82","809045","0.0-3.0-1.53","<span style=""font-size:30px; font-family: monospace"">A</span>"," ","","exp-sent","A","","",""
"","932","html-keyboard-response","83","810229","0.0-3.0-1.54","<span style=""font-size:30px; font-family: monospace"">mordida</span>"," ","","exp-sent","mordida","","",""
"","629","html-keyboard-response","84","811109","0.0-3.0-1.55","<span style=""font-size:30px; font-family: monospace"">do</span>"," ","","exp-sent","do","","",""
"","1093","html-keyboard-response","85","812453","0.0-3.0-1.56","<span style=""font-size:30px; font-family: monospace"">cachorro</span>"," ","","exp-sent","cachorro","","",""
"","676","html-keyboard-response","86","813381","0.0-3.0-1.57","<span style=""font-size:30px; font-family: monospace"">voraz</span>"," ","","exp-sent","voraz","","",""
"","805","html-keyboard-response","87","814437","0.0-3.0-1.58","<span style=""font-size:30px; font-family: monospace"">causou</span>"," ","","exp-sent","causou","","",""
"","757","html-keyboard-response","88","815445","0.0-3.0-1.59","<span style=""font-size:30px; font-family: monospace"">uma</span>"," ","","exp-sent","uma","","",""
"","773","html-keyboard-response","89","816469","0.0-3.0-1.60","<span style=""font-size:30px; font-family: monospace"">cicatriz.</span>"," ","","exp-sent","cicatriz.","","",""
"","null","html-keyboard-response","90","817723","0.0-3.0-0.61-0.61","<span style= ""font-size:30px; font-family: monospace"">+</span>","null","fixation","","","","",""
"","367","html-keyboard-response","91","818341","0.0-3.0-1.61","<span style=""font-size:30px; font-family: monospace"">Elas</span>"," ","","exp-sent","Elas","","",""
"","469","html-keyboard-response","92","819061","0.0-3.0-1.62","<span style=""font-size:30px; font-family: monospace"">não</span>"," ","","exp-sent","não","","",""
"","613","html-keyboard-response","93","819925","0.0-3.0-1.63","<span style=""font-size:30px; font-family: monospace"">viram</span>"," ","","exp-sent","viram","","",""
"","693","html-keyboard-response","94","820869","0.0-3.0-1.64","<span style=""font-size:30px; font-family: monospace"">nenhuma</span>"," ","","exp-sent","nenhuma","","",""
"","692","html-keyboard-response","95","821813","0.0-3.0-1.65","<span style=""font-size:30px; font-family: monospace"">diferença</span>"," ","","exp-sent","diferença","","",""
"","581","html-keyboard-response","96","822645","0.0-3.0-1.66","<span style=""font-size:30px; font-family: monospace"">entre</span>"," ","","exp-sent","entre","","",""
"","532","html-keyboard-response","97","823429","0.0-3.0-1.67","<span style=""font-size:30px; font-family: monospace"">os</span>"," ","","exp-sent","os","","",""
"","500","html-keyboard-response","98","824181","0.0-3.0-1.68","<span style=""font-size:30px; font-family: monospace"">textos.</span>"," ","","exp-sent","textos.","","",""
"","null","html-keyboard-response","99","825432","0.0-3.0-0.69-0.69","<span style= ""font-size:30px; font-family: monospace"">+</span>","null","fixation","","","","",""
"","385","html-keyboard-response","100","826069","0.0-3.0-1.69","<span style=""font-size:30px; font-family: monospace"">Amanhã</span>"," ","","exp-sent","Amanhã","","",""
"","518","html-keyboard-response","101","826837","0.0-3.0-1.70","<span style=""font-size:30px; font-family: monospace"">vai</span>"," ","","exp-sent","vai","","",""
"","581","html-keyboard-response","102","827669","0.0-3.0-1.71","<span style=""font-size:30px; font-family: monospace"">ter</span>"," ","","exp-sent","ter","","",""
"","485","html-keyboard-response","103","828405","0.0-3.0-1.72","<span style=""font-size:30px; font-family: monospace"">um</span>"," ","","exp-sent","um","","",""
"","564","html-keyboard-response","104","829221","0.0-3.0-1.73","<span style=""font-size:30px; font-family: monospace"">bazar</span>"," ","","exp-sent","bazar","","",""
"","565","html-keyboard-response","105","830037","0.0-3.0-1.74","<span style=""font-size:30px; font-family: monospace"">no</span>"," ","","exp-sent","no","","",""
"","789","html-keyboard-response","106","831077","0.0-3.0-1.75","<span style=""font-size:30px; font-family: monospace"">bairro.</span>"," ","","comp","bairro.","","",""
"","29333","html-keyboard-response","107","860661","0.0-3.0-2.75-0.75","<span style=""font-size:30px; font-family: monospace"">Amanhã vai acontecer um bazar no bairro?</span>","s","","comp","","Amanhã vai acontecer um bazar no bairro?","sim","false"
"","null","html-keyboard-response","108","862162","0.0-3.0-0.76-0.76","<span style= ""font-size:30px; font-family: monospace"">+</span>","null","fixation","","","","",""
"","2439","html-keyboard-response","109","864853","0.0-3.0-1.76","<span style=""font-size:30px; font-family: monospace"">Ursos</span>"," ","","exp-sent","Ursos","","",""
"","677","html-keyboard-response","110","865781","0.0-3.0-1.77","<span style=""font-size:30px; font-family: monospace"">têm</span>"," ","","exp-sent","têm","","",""
"","549","html-keyboard-response","111","866581","0.0-3.0-1.78","<span style=""font-size:30px; font-family: monospace"">uma</span>"," ","","exp-sent","uma","","",""
"","548","html-keyboard-response","112","867381","0.0-3.0-1.79","<span style=""font-size:30px; font-family: monospace"">patada</span>"," ","","exp-sent","patada","","",""
"","517","html-keyboard-response","113","868149","0.0-3.0-1.80","<span style=""font-size:30px; font-family: monospace"">brutal</span>"," ","","exp-sent","brutal","","",""
"","549","html-keyboard-response","114","868949","0.0-3.0-1.81","<span style=""font-size:30px; font-family: monospace"">e</span>"," ","","exp-sent","e","","",""
"","629","html-keyboard-response","115","869829","0.0-3.0-1.82","<span style=""font-size:30px; font-family: monospace"">poderosa.</span>"," ","","exp-sent","poderosa.","","",""
"","null","html-keyboard-response","116","871082","0.0-3.0-0.83-0.83","<span style= ""font-size:30px; font-family: monospace"">+</span>","null","fixation","","","","",""
"","432","html-keyboard-response","117","871765","0.0-3.0-1.83","<span style=""font-size:30px; font-family: monospace"">Eu</span>"," ","","exp-sent","Eu","","",""
"","869","html-keyboard-response","118","872885","0.0-3.0-1.84","<span style=""font-size:30px; font-family: monospace"">fiz</span>"," ","","exp-sent","fiz","","",""
"","533","html-keyboard-response","119","873669","0.0-3.0-1.85","<span style=""font-size:30px; font-family: monospace"">aulas</span>"," ","","exp-sent","aulas","","",""
"","516","html-keyboard-response","120","874437","0.0-3.0-1.86","<span style=""font-size:30px; font-family: monospace"">de</span>"," ","","exp-sent","de","","",""
"","565","html-keyboard-response","121","875253","0.0-3.0-1.87","<span style=""font-size:30px; font-family: monospace"">espanhol</span>"," ","","exp-sent","espanhol","","",""
"","500","html-keyboard-response","122","876005","0.0-3.0-1.88","<span style=""font-size:30px; font-family: monospace"">nesta</span>"," ","","exp-sent","nesta","","",""
"","533","html-keyboard-response","123","876789","0.0-3.0-1.89","<span style=""font-size:30px; font-family: monospace"">cidade.</span>"," ","","exp-sent","cidade.","","",""
"","null","html-keyboard-response","124","878042","0.0-3.0-0.90-0.90","<span style= ""font-size:30px; font-family: monospace"">+</span>","null","fixation","","","","",""
"","384","html-keyboard-response","125","878677","0.0-3.0-1.90","<span style=""font-size:30px; font-family: monospace"">Ele</span>"," ","","exp-sent","Ele","","",""
"","628","html-keyboard-response","126","879557","0.0-3.0-1.91","<span style=""font-size:30px; font-family: monospace"">comprou</span>"," ","","exp-sent","comprou","","",""
"","597","html-keyboard-response","127","880405","0.0-3.0-1.92","<span style=""font-size:30px; font-family: monospace"">mais</span>"," ","","exp-sent","mais","","",""
"","550","html-keyboard-response","128","881205","0.0-3.0-1.93","<span style=""font-size:30px; font-family: monospace"">uma</span>"," ","","exp-sent","uma","","",""
"","565","html-keyboard-response","129","882021","0.0-3.0-1.94","<span style=""font-size:30px; font-family: monospace"">esponja</span>"," ","","exp-sent","esponja","","",""
"","533","html-keyboard-response","130","882805","0.0-3.0-1.95","<span style=""font-size:30px; font-family: monospace"">para</span>"," ","","exp-sent","para","","",""
"","933","html-keyboard-response","131","883989","0.0-3.0-1.96","<span style=""font-size:30px; font-family: monospace"">a</span>"," ","","exp-sent","a","","",""
"","1156","html-keyboard-response","132","885397","0.0-3.0-1.97","<span style=""font-size:30px; font-family: monospace"">cozinha.</span>"," ","","exp-sent","cozinha.","","",""
"","null","html-keyboard-response","133","886649","0.0-3.0-0.98-0.98","<span style= ""font-size:30px; font-family: monospace"">+</span>","null","fixation","","","","",""
"","752","html-keyboard-response","134","887653","0.0-3.0-1.98","<span style=""font-size:30px; font-family: monospace"">Ele</span>"," ","","exp-sent","Ele","","",""
"","645","html-keyboard-response","135","888549","0.0-3.0-1.99","<span style=""font-size:30px; font-family: monospace"">teve</span>"," ","","exp-sent","teve","","",""
"","548","html-keyboard-response","136","889349","0.0-3.0-1.100","<span style=""font-size:30px; font-family: monospace"">um</span>"," ","","exp-sent","um","","",""
"","549","html-keyboard-response","137","890149","0.0-3.0-1.101","<span style=""font-size:30px; font-family: monospace"">sono</span>"," ","","exp-sent","sono","","",""
"","933","html-keyboard-response","138","891333","0.0-3.0-1.102","<span style=""font-size:30px; font-family: monospace"">bizarro</span>"," ","","exp-sent","bizarro","","",""
"","533","html-keyboard-response","139","892117","0.0-3.0-1.103","<span style=""font-size:30px; font-family: monospace"">sem</span>"," ","","exp-sent","sem","","",""
"","692","html-keyboard-response","140","893060","0.0-3.0-1.104","<span style=""font-size:30px; font-family: monospace"">nenhum</span>"," ","","exp-sent","nenhum","","",""
"","710","html-keyboard-response","141","894020","0.0-3.0-1.105","<span style=""font-size:30px; font-family: monospace"">motivo.</span>"," ","","exp-sent","motivo.","","",""
"","null","html-keyboard-response","142","895272","0.0-3.0-0.106-0.106","<span style= ""font-size:30px; font-family: monospace"">+</span>","null","fixation","","","","",""
"","401","html-keyboard-response","143","895924","0.0-3.0-1.106","<span style=""font-size:30px; font-family: monospace"">A</span>"," ","","exp-sent","A","","",""
"","486","html-keyboard-response","144","896661","0.0-3.0-1.107","<span style=""font-size:30px; font-family: monospace"">moça</span>"," ","","exp-sent","moça","","",""
"","485","html-keyboard-response","145","897397","0.0-3.0-1.108","<span style=""font-size:30px; font-family: monospace"">comprou</span>"," ","","exp-sent","comprou","","",""
"","581","html-keyboard-response","146","898229","0.0-3.0-1.109","<span style=""font-size:30px; font-family: monospace"">um</span>"," ","","exp-sent","um","","",""
"","820","html-keyboard-response","147","899301","0.0-3.0-1.110","<span style=""font-size:30px; font-family: monospace"">diamante</span>"," ","","exp-sent","diamante","","",""
"","549","html-keyboard-response","148","900101","0.0-3.0-1.111","<span style=""font-size:30px; font-family: monospace"">para</span>"," ","","exp-sent","para","","",""
"","468","html-keyboard-response","149","900821","0.0-3.0-1.112","<span style=""font-size:30px; font-family: monospace"">sua</span>"," ","","exp-sent","sua","","",""
"","501","html-keyboard-response","150","901573","0.0-3.0-1.113","<span style=""font-size:30px; font-family: monospace"">prima.</span>"," ","","comp","prima.","","",""
"","17525","html-keyboard-response","151","919349","0.0-3.0-2.113-0.113","<span style=""font-size:30px; font-family: monospace"">A moça comprou um diamante?</span>","s","","comp","","A moça comprou um diamante?","sim","false"
"","null","html-keyboard-response","152","920851","0.0-3.0-0.114-0.114","<span style= ""font-size:30px; font-family: monospace"">+</span>","null","fixation","","","","",""
"","727","html-keyboard-response","153","921829","0.0-3.0-1.114","<span style=""font-size:30px; font-family: monospace"">Barulho</span>"," ","","exp-sent","Barulho","","",""
"","773","html-keyboard-response","154","922853","0.0-3.0-1.115","<span style=""font-size:30px; font-family: monospace"">de</span>"," ","","exp-sent","de","","",""
"","661","html-keyboard-response","155","923765","0.0-3.0-1.116","<span style=""font-size:30px; font-family: monospace"">carros</span>"," ","","exp-sent","carros","","",""
"","693","html-keyboard-response","156","924709","0.0-3.0-1.117","<span style=""font-size:30px; font-family: monospace"">é</span>"," ","","exp-sent","é","","",""
"","581","html-keyboard-response","157","925541","0.0-3.0-1.118","<span style=""font-size:30px; font-family: monospace"">irritante</span>"," ","","exp-sent","irritante","","",""
"","517","html-keyboard-response","158","926309","0.0-3.0-1.119","<span style=""font-size:30px; font-family: monospace"">para</span>"," ","","exp-sent","para","","",""
"","549","html-keyboard-response","159","927109","0.0-3.0-1.120","<span style=""font-size:30px; font-family: monospace"">a</span>"," ","","exp-sent","a","","",""
"","484","html-keyboard-response","160","927845","0.0-3.0-1.121","<span style=""font-size:30px; font-family: monospace"">moça.</span>"," ","","exp-sent","moça.","","",""
"","null","html-keyboard-response","161","929098","0.0-3.0-0.122-0.122","<span style= ""font-size:30px; font-family: monospace"">+</span>","null","fixation","","","","",""
"","295","html-keyboard-response","162","929653","0.0-3.0-1.122","<span style=""font-size:30px; font-family: monospace"">A</span>"," ","","exp-sent","A","","",""
"","740","html-keyboard-response","163","930645","0.0-3.0-1.123","<span style=""font-size:30px; font-family: monospace"">loja</span>"," ","","exp-sent","loja","","",""
"","709","html-keyboard-response","164","931605","0.0-3.0-1.124","<span style=""font-size:30px; font-family: monospace"">também</span>"," ","","exp-sent","também","","",""
"","709","html-keyboard-response","165","932565","0.0-3.0-1.125","<span style=""font-size:30px; font-family: monospace"">vende</span>"," ","","exp-sent","vende","","",""
"","773","html-keyboard-response","166","933589","0.0-3.0-1.126","<span style=""font-size:30px; font-family: monospace"">taça</span>"," ","","exp-sent","taça","","",""
"","757","html-keyboard-response","167","934597","0.0-3.0-1.127","<span style=""font-size:30px; font-family: monospace"">de</span>"," ","","exp-sent","de","","",""
"","740","html-keyboard-response","168","935589","0.0-3.0-1.128","<span style=""font-size:30px; font-family: monospace"">vinho</span>"," ","","exp-sent","vinho","","",""
"","933","html-keyboard-response","169","936773","0.0-3.0-1.129","<span style=""font-size:30px; font-family: monospace"">e</span>"," ","","exp-sent","e","","",""
"","1205","html-keyboard-response","170","938229","0.0-3.0-1.130","<span style=""font-size:30px; font-family: monospace"">espumante.</span>"," ","","exp-sent","espumante.","","",""
"","null","html-keyboard-response","171","939481","0.0-3.0-0.131-0.131","<span style= ""font-size:30px; font-family: monospace"">+</span>","null","fixation","","","","",""
"","385","html-keyboard-response","172","940117","0.0-3.0-1.131","<span style=""font-size:30px; font-family: monospace"">A</span>"," ","","exp-sent","A","","",""
"","597","html-keyboard-response","173","940965","0.0-3.0-1.132","<span style=""font-size:30px; font-family: monospace"">bruxa</span>"," ","","exp-sent","bruxa","","",""
"","581","html-keyboard-response","174","941797","0.0-3.0-1.133","<span style=""font-size:30px; font-family: monospace"">tinha</span>"," ","","exp-sent","tinha","","",""
"","517","html-keyboard-response","175","942565","0.0-3.0-1.134","<span style=""font-size:30px; font-family: monospace"">uma</span>"," ","","exp-sent","uma","","",""
"","885","html-keyboard-response","176","943701","0.0-3.0-1.135","<span style=""font-size:30px; font-family: monospace"">vassoura</span>"," ","","exp-sent","vassoura","","",""
"","549","html-keyboard-response","177","944501","0.0-3.0-1.136","<span style=""font-size:30px; font-family: monospace"">e</span>"," ","","exp-sent","e","","",""
"","437","html-keyboard-response","178","945189","0.0-3.0-1.137","<span style=""font-size:30px; font-family: monospace"">um</span>"," ","","exp-sent","um","","",""
"","453","html-keyboard-response","179","945893","0.0-3.0-1.138","<span style=""font-size:30px; font-family: monospace"">gato.</span>"," ","","exp-sent","gato.","","",""
"","null","html-keyboard-response","180","947145","0.0-3.0-0.139-0.139","<span style= ""font-size:30px; font-family: monospace"">+</span>","null","fixation","","","","",""
"","369","html-keyboard-response","181","947765","0.0-3.0-1.139","<span style=""font-size:30px; font-family: monospace"">Eu</span>"," ","","exp-sent","Eu","","",""
"","581","html-keyboard-response","182","948597","0.0-3.0-1.140","<span style=""font-size:30px; font-family: monospace"">me</span>"," ","","exp-sent","me","","",""
"","933","html-keyboard-response","183","949781","0.0-3.0-1.141","<span style=""font-size:30px; font-family: monospace"">divirto</span>"," ","","exp-sent","divirto","","",""
"","645","html-keyboard-response","184","950677","0.0-3.0-1.142","<span style=""font-size:30px; font-family: monospace"">em</span>"," ","","exp-sent","em","","",""
"","885","html-keyboard-response","185","951813","0.0-3.0-1.143","<span style=""font-size:30px; font-family: monospace"">festas</span>"," ","","exp-sent","festas","","",""
"","565","html-keyboard-response","186","952629","0.0-3.0-1.144","<span style=""font-size:30px; font-family: monospace"">de</span>"," ","","exp-sent","de","","",""
"","1317","html-keyboard-response","187","954197","0.0-3.0-1.145","<span style=""font-size:30px; font-family: monospace"">criança.</span>"," ","","exp-sent","criança.","","",""
"","null","html-keyboard-response","188","955458","0.0-3.0-0.146-0.146","<span style= ""font-size:30px; font-family: monospace"">+</span>","null","fixation","","","","",""
"","489","html-keyboard-response","189","956197","0.0-3.0-1.146","<span style=""font-size:30px; font-family: monospace"">A</span>"," ","","exp-sent","A","","",""
"","3061","html-keyboard-response","190","959509","0.0-3.0-1.147","<span style=""font-size:30px; font-family: monospace"">janela</span>"," ","","exp-sent","janela","","",""
"","853","html-keyboard-response","191","960613","0.0-3.0-1.148","<span style=""font-size:30px; font-family: monospace"">alta</span>"," ","","exp-sent","alta","","",""
"","916","html-keyboard-response","192","961780","0.0-3.0-1.149","<span style=""font-size:30px; font-family: monospace"">estava</span>"," ","","exp-sent","estava","","",""
"","1030","html-keyboard-response","193","963061","0.0-3.0-1.150","<span style=""font-size:30px; font-family: monospace"">quebrada</span>"," ","","exp-sent","quebrada","","",""
"","645","html-keyboard-response","194","963957","0.0-3.0-1.151","<span style=""font-size:30px; font-family: monospace"">desde</span>"," ","","exp-sent","desde","","",""
"","613","html-keyboard-response","195","964821","0.0-3.0-1.152","<span style=""font-size:30px; font-family: monospace"">ontem.</span>"," ","","comp","ontem.","","",""
"","24389","html-keyboard-response","196","989461","0.0-3.0-2.152-0.152","<span style=""font-size:30px; font-family: monospace"">A janela alta estava quebrada?</span>","s","","comp","","A janela alta estava quebrada?","sim","false"
"","null","html-keyboard-response","197","990962","0.0-3.0-0.153-0.153","<span style= ""font-size:30px; font-family: monospace"">+</span>","null","fixation","","","","",""
"","1719","html-keyboard-response","198","992933","0.0-3.0-1.153","<span style=""font-size:30px; font-family: monospace"">Ganhamos</span>"," ","","exp-sent","Ganhamos","","",""
"","1333","html-keyboard-response","199","994517","0.0-3.0-1.154","<span style=""font-size:30px; font-family: monospace"">passagem</span>"," ","","exp-sent","passagem","","",""
"","725","html-keyboard-response","200","995493","0.0-3.0-1.155","<span style=""font-size:30px; font-family: monospace"">para</span>"," ","","exp-sent","para","","",""
"","885","html-keyboard-response","201","996629","0.0-3.0-1.156","<span style=""font-size:30px; font-family: monospace"">uma</span>"," ","","exp-sent","uma","","",""
"","900","html-keyboard-response","202","997781","0.0-3.0-1.157","<span style=""font-size:30px; font-family: monospace"">viagem</span>"," ","","exp-sent","viagem","","",""
"","581","html-keyboard-response","203","998613","0.0-3.0-1.158","<span style=""font-size:30px; font-family: monospace"">de</span>"," ","","exp-sent","de","","",""
"","646","html-keyboard-response","204","999509","0.0-3.0-1.159","<span style=""font-size:30px; font-family: monospace"">férias.</span>"," ","","exp-sent","férias.","","",""
"","null","html-keyboard-response","205","1000761","0.0-3.0-0.160-0.160","<span style= ""font-size:30px; font-family: monospace"">+</span>","null","fixation","","","","",""
"","433","html-keyboard-response","206","1001445","0.0-3.0-1.160","<span style=""font-size:30px; font-family: monospace"">Caiu</span>"," ","","exp-sent","Caiu","","",""
"","597","html-keyboard-response","207","1002293","0.0-3.0-1.161","<span style=""font-size:30px; font-family: monospace"">algo</span>"," ","","exp-sent","algo","","",""
"","533","html-keyboard-response","208","1003077","0.0-3.0-1.162","<span style=""font-size:30px; font-family: monospace"">no</span>"," ","","exp-sent","no","","",""
"","501","html-keyboard-response","209","1003829","0.0-3.0-1.163","<span style=""font-size:30px; font-family: monospace"">meu</span>"," ","","exp-sent","meu","","",""
"","483","html-keyboard-response","210","1004565","0.0-3.0-1.164","<span style=""font-size:30px; font-family: monospace"">olho</span>"," ","","exp-sent","olho","","",""
"","581","html-keyboard-response","211","1005397","0.0-3.0-1.165","<span style=""font-size:30px; font-family: monospace"">ontem</span>"," ","","exp-sent","ontem","","",""
"","597","html-keyboard-response","212","1006245","0.0-3.0-1.166","<span style=""font-size:30px; font-family: monospace"">de</span>"," ","","exp-sent","de","","",""
"","517","html-keyboard-response","213","1007013","0.0-3.0-1.167","<span style=""font-size:30px; font-family: monospace"">tarde.</span>"," ","","exp-sent","tarde.","","",""
"","null","html-keyboard-response","214","1008266","0.0-3.0-0.168-0.168","<span style= ""font-size:30px; font-family: monospace"">+</span>","null","fixation","","","","",""
"","335","html-keyboard-response","215","1008853","0.0-3.0-1.168","<span style=""font-size:30px; font-family: monospace"">Não</span>"," ","","exp-sent","Não","","",""
"","613","html-keyboard-response","216","1009717","0.0-3.0-1.169","<span style=""font-size:30px; font-family: monospace"">havia</span>"," ","","exp-sent","havia","","",""
"","674","html-keyboard-response","217","1010645","0.0-3.0-1.170","<span style=""font-size:30px; font-family: monospace"">mais</span>"," ","","exp-sent","mais","","",""
"","997","html-keyboard-response","218","1011893","0.0-3.0-1.171","<span style=""font-size:30px; font-family: monospace"">nenhum</span>"," ","","exp-sent","nenhum","","",""
"","613","html-keyboard-response","219","1012757","0.0-3.0-1.172","<span style=""font-size:30px; font-family: monospace"">ingresso</span>"," ","","exp-sent","ingresso","","",""
"","837","html-keyboard-response","220","1013845","0.0-3.0-1.173","<span style=""font-size:30px; font-family: monospace"">para</span>"," ","","exp-sent","para","","",""
"","581","html-keyboard-response","221","1014677","0.0-3.0-1.174","<span style=""font-size:30px; font-family: monospace"">o</span>"," ","","exp-sent","o","","",""
"","789","html-keyboard-response","222","1015717","0.0-3.0-1.175","<span style=""font-size:30px; font-family: monospace"">evento.</span>"," ","","exp-sent","evento.","","",""
"","null","html-keyboard-response","223","1016968","0.0-3.0-0.176-0.176","<span style= ""font-size:30px; font-family: monospace"">+</span>","null","fixation","","","","",""
"","441","html-keyboard-response","224","1017669","0.0-3.0-1.176","<span style=""font-size:30px; font-family: monospace"">A</span>"," ","","exp-sent","A","","",""
"","548","html-keyboard-response","225","1018469","0.0-3.0-1.177","<span style=""font-size:30px; font-family: monospace"">médica</span>"," ","","exp-sent","médica","","",""
"","884","html-keyboard-response","226","1019605","0.0-3.0-1.178","<span style=""font-size:30px; font-family: monospace"">descobriu</span>"," ","","exp-sent","descobriu","","",""
"","724","html-keyboard-response","227","1020581","0.0-3.0-1.179","<span style=""font-size:30px; font-family: monospace"">uma</span>"," ","","exp-sent","uma","","",""
"","821","html-keyboard-response","228","1021653","0.0-3.0-1.180","<span style=""font-size:30px; font-family: monospace"">cura</span>"," ","","exp-sent","cura","","",""
"","995","html-keyboard-response","229","1022900","0.0-3.0-1.181","<span style=""font-size:30px; font-family: monospace"">para</span>"," ","","exp-sent","para","","",""
"","613","html-keyboard-response","230","1023765","0.0-3.0-1.182","<span style=""font-size:30px; font-family: monospace"">a</span>"," ","","exp-sent","a","","",""
"","1157","html-keyboard-response","231","1025173","0.0-3.0-1.183","<span style=""font-size:30px; font-family: monospace"">doença.</span>"," ","","exp-sent","doença.","","",""
"","null","html-keyboard-response","232","1026424","0.0-3.0-0.184-0.184","<span style= ""font-size:30px; font-family: monospace"">+</span>","null","fixation","","","","",""
"","532","html-keyboard-response","233","1027221","0.0-3.0-1.184","<span style=""font-size:30px; font-family: monospace"">O</span>"," ","","exp-sent","O","","",""
"","757","html-keyboard-response","234","1028229","0.0-3.0-1.185","<span style=""font-size:30px; font-family: monospace"">menino</span>"," ","","exp-sent","menino","","",""
"","853","html-keyboard-response","235","1029333","0.0-3.0-1.186","<span style=""font-size:30px; font-family: monospace"">riscou</span>"," ","","exp-sent","riscou","","",""
"","580","html-keyboard-response","236","1030165","0.0-3.0-1.187","<span style=""font-size:30px; font-family: monospace"">o</span>"," ","","exp-sent","o","","",""
"","933","html-keyboard-response","237","1031349","0.0-3.0-1.188","<span style=""font-size:30px; font-family: monospace"">caderno</span>"," ","","exp-sent","caderno","","",""
"","676","html-keyboard-response","238","1032277","0.0-3.0-1.189","<span style=""font-size:30px; font-family: monospace"">com</span>"," ","","exp-sent","com","","",""
"","597","html-keyboard-response","239","1033125","0.0-3.0-1.190","<span style=""font-size:30px; font-family: monospace"">a</span>"," ","","exp-sent","a","","",""
"","837","html-keyboard-response","240","1034213","0.0-3.0-1.191","<span style=""font-size:30px; font-family: monospace"">caneta.</span>"," ","","comp","caneta.","","",""
"","29829","html-keyboard-response","241","1064293","0.0-3.0-2.191-0.191","<span style=""font-size:30px; font-family: monospace"">O menino riscou a parede com a caneta?</span>","s","","comp","","O menino riscou a parede com a caneta?","não","false"
"","null","html-keyboard-response","242","1065795","0.0-3.0-0.192-0.192","<span style= ""font-size:30px; font-family: monospace"">+</span>","null","fixation","","","","",""
"","1095","html-keyboard-response","243","1067141","0.0-3.0-1.192","<span style=""font-size:30px; font-family: monospace"">O</span>"," ","","exp-sent","O","","",""
"","1221","html-keyboard-response","244","1068613","0.0-3.0-1.193","<span style=""font-size:30px; font-family: monospace"">travesseiro</span>"," ","","exp-sent","travesseiro","","",""
"","660","html-keyboard-response","245","1069525","0.0-3.0-1.194","<span style=""font-size:30px; font-family: monospace"">era</span>"," ","","exp-sent","era","","",""
"","981","html-keyboard-response","246","1070757","0.0-3.0-1.195","<span style=""font-size:30px; font-family: monospace"">muito</span>"," ","","exp-sent","muito","","",""
"","1013","html-keyboard-response","247","1072020","0.0-3.0-1.196","<span style=""font-size:30px; font-family: monospace"">macio</span>"," ","","exp-sent","macio","","",""
"","566","html-keyboard-response","248","1072837","0.0-3.0-1.197","<span style=""font-size:30px; font-family: monospace"">e</span>"," ","","exp-sent","e","","",""
"","1861","html-keyboard-response","249","1074949","0.0-3.0-1.198","<span style=""font-size:30px; font-family: monospace"">confortável.</span>"," ","","exp-sent","confortável.","","",""
"","null","html-keyboard-response","250","1076210","0.0-3.0-0.199-0.199","<span style= ""font-size:30px; font-family: monospace"">+</span>","null","fixation","","","","",""
"","584","html-keyboard-response","251","1077045","0.0-3.0-1.199","<span style=""font-size:30px; font-family: monospace"">Hoje</span>"," ","","exp-sent","Hoje","","",""
"","581","html-keyboard-response","252","1077877","0.0-3.0-1.200","<span style=""font-size:30px; font-family: monospace"">a</span>"," ","","exp-sent","a","","",""
"","1348","html-keyboard-response","253","1079477","0.0-3.0-1.201","<span style=""font-size:30px; font-family: monospace"">atendente</span>"," ","","exp-sent","atendente","","",""
"","2132","html-keyboard-response","254","1081861","0.0-3.0-1.202","<span style=""font-size:30px; font-family: monospace"">estava</span>"," ","","exp-sent","estava","","",""
"","1029","html-keyboard-response","255","1083141","0.0-3.0-1.203","<span style=""font-size:30px; font-family: monospace"">furiosa</span>"," ","","exp-sent","furiosa","","",""
"","661","html-keyboard-response","256","1084053","0.0-3.0-1.204","<span style=""font-size:30px; font-family: monospace"">com</span>"," ","","exp-sent","com","","",""
"","613","html-keyboard-response","257","1084917","0.0-3.0-1.205","<span style=""font-size:30px; font-family: monospace"">o</span>"," ","","exp-sent","o","","",""
"","1253","html-keyboard-response","258","1086421","0.0-3.0-1.206","<span style=""font-size:30px; font-family: monospace"">cliente.</span>"," ","","exp-sent","cliente.","","",""
"","null","html-keyboard-response","259","1087673","0.0-3.0-0.207-0.207","<span style= ""font-size:30px; font-family: monospace"">+</span>","null","fixation","","","","",""
"","496","html-keyboard-response","260","1088421","0.0-3.0-1.207","<span style=""font-size:30px; font-family: monospace"">O</span>"," ","","exp-sent","O","","",""
"","1526","html-keyboard-response","261","1090197","0.0-3.0-1.208","<span style=""font-size:30px; font-family: monospace"">vizinho</span>"," ","","exp-sent","vizinho","","",""
"","644","html-keyboard-response","262","1091093","0.0-3.0-1.209","<span style=""font-size:30px; font-family: monospace"">é</span>"," ","","exp-sent","é","","",""
"","517","html-keyboard-response","263","1091861","0.0-3.0-1.210","<span style=""font-size:30px; font-family: monospace"">um</span>"," ","","exp-sent","um","","",""
"","820","html-keyboard-response","264","1092933","0.0-3.0-1.211","<span style=""font-size:30px; font-family: monospace"">arquiteto</span>"," ","","exp-sent","arquiteto","","",""
"","581","html-keyboard-response","265","1093765","0.0-3.0-1.212","<span style=""font-size:30px; font-family: monospace"">muito</span>"," ","","exp-sent","muito","","",""
"","1077","html-keyboard-response","266","1095093","0.0-3.0-1.213","<span style=""font-size:30px; font-family: monospace"">excêntrico.</span>"," ","","exp-sent","excêntrico.","","",""
"","null","html-keyboard-response","267","1096345","0.0-3.0-0.214-0.214","<span style= ""font-size:30px; font-family: monospace"">+</span>","null","fixation","","","","",""
"","481","html-keyboard-response","268","1097077","0.0-3.0-1.214","<span style=""font-size:30px; font-family: monospace"">A</span>"," ","","exp-sent","A","","",""
"","613","html-keyboard-response","269","1097941","0.0-3.0-1.215","<span style=""font-size:30px; font-family: monospace"">nossa</span>"," ","","exp-sent","nossa","","",""
"","645","html-keyboard-response","270","1098837","0.0-3.0-1.216","<span style=""font-size:30px; font-family: monospace"">colega</span>"," ","","exp-sent","colega","","",""
"","661","html-keyboard-response","271","1099749","0.0-3.0-1.217","<span style=""font-size:30px; font-family: monospace"">foi</span>"," ","","exp-sent","foi","","",""
"","629","html-keyboard-response","272","1100629","0.0-3.0-1.218","<span style=""font-size:30px; font-family: monospace"">má</span>"," ","","exp-sent","má","","",""
"","660","html-keyboard-response","273","1101541","0.0-3.0-1.219","<span style=""font-size:30px; font-family: monospace"">com</span>"," ","","exp-sent","com","","",""
"","981","html-keyboard-response","274","1102773","0.0-3.0-1.220","<span style=""font-size:30px; font-family: monospace"">as</span>"," ","","exp-sent","as","","",""
"","757","html-keyboard-response","275","1103780","0.0-3.0-1.221","<span style=""font-size:30px; font-family: monospace"">crianças.</span>"," ","","exp-sent","crianças.","","",""
"","null","html-keyboard-response","276","1105032","0.0-3.0-0.222-0.222","<span style= ""font-size:30px; font-family: monospace"">+</span>","null","fixation","","","","",""
"","1202","html-keyboard-response","277","1106485","0.0-3.0-1.222","<span style=""font-size:30px; font-family: monospace"">Virtudes</span>"," ","","exp-sent","Virtudes","","",""
"","661","html-keyboard-response","278","1107397","0.0-3.0-1.223","<span style=""font-size:30px; font-family: monospace"">não</span>"," ","","exp-sent","não","","",""
"","805","html-keyboard-response","279","1108453","0.0-3.0-1.224","<span style=""font-size:30px; font-family: monospace"">são</span>"," ","","exp-sent","são","","",""
"","1109","html-keyboard-response","280","1109813","0.0-3.0-1.225","<span style=""font-size:30px; font-family: monospace"">preguiça,</span>"," ","","exp-sent","preguiça,","","",""
"","821","html-keyboard-response","281","1110885","0.0-3.0-1.226","<span style=""font-size:30px; font-family: monospace"">gula</span>"," ","","exp-sent","gula","","",""
"","581","html-keyboard-response","282","1111717","0.0-3.0-1.227","<span style=""font-size:30px; font-family: monospace"">nem</span>"," ","","exp-sent","nem","","",""
"","821","html-keyboard-response","283","1112789","0.0-3.0-1.228","<span style=""font-size:30px; font-family: monospace"">ganância.</span>"," ","","comp","ganância.","","",""
"","25829","html-keyboard-response","284","1138869","0.0-3.0-2.228-0.228","<span style=""font-size:30px; font-family: monospace"">Preguiça é uma virtude?</span>","s","","comp","","Preguiça é uma virtude?","não","false"
"","null","html-keyboard-response","285","1140377","0.0-3.0-0.229-0.229","<span style= ""font-size:30px; font-family: monospace"">+</span>","null","fixation","","","","",""
"","385","html-keyboard-response","286","1141013","0.0-3.0-1.229","<span style=""font-size:30px; font-family: monospace"">As</span>"," ","","exp-sent","As","","",""
"","661","html-keyboard-response","287","1141925","0.0-3.0-1.230","<span style=""font-size:30px; font-family: monospace"">crianças</span>"," ","","exp-sent","crianças","","",""
"","548","html-keyboard-response","288","1142725","0.0-3.0-1.231","<span style=""font-size:30px; font-family: monospace"">viram</span>"," ","","exp-sent","viram","","",""
"","628","html-keyboard-response","289","1143605","0.0-3.0-1.232","<span style=""font-size:30px; font-family: monospace"">um</span>"," ","","exp-sent","um","","",""
"","613","html-keyboard-response","290","1144469","0.0-3.0-1.233","<span style=""font-size:30px; font-family: monospace"">vaga-lume</span>"," ","","exp-sent","vaga-lume","","",""
"","597","html-keyboard-response","291","1145317","0.0-3.0-1.234","<span style=""font-size:30px; font-family: monospace"">nos</span>"," ","","exp-sent","nos","","",""
"","773","html-keyboard-response","292","1146340","0.0-3.0-1.235","<span style=""font-size:30px; font-family: monospace"">arbustos.</span>"," ","","exp-sent","arbustos.","","",""
"","null","html-keyboard-response","293","1147592","0.0-3.0-0.236-0.236","<span style= ""font-size:30px; font-family: monospace"">+</span>","null","fixation","","","","",""
"","337","html-keyboard-response","294","1148180","0.0-3.0-1.236","<span style=""font-size:30px; font-family: monospace"">Ontem</span>"," ","","exp-sent","Ontem","","",""
"","582","html-keyboard-response","295","1149013","0.0-3.0-1.237","<span style=""font-size:30px; font-family: monospace"">o</span>"," ","","exp-sent","o","","",""
"","1396","html-keyboard-response","296","1150660","0.0-3.0-1.238","<span style=""font-size:30px; font-family: monospace"">funcionário</span>"," ","","exp-sent","funcionário","","",""
"","788","html-keyboard-response","297","1151700","0.0-3.0-1.239","<span style=""font-size:30px; font-family: monospace"">pediu</span>"," ","","exp-sent","pediu","","",""
"","756","html-keyboard-response","298","1152709","0.0-3.0-1.240","<span style=""font-size:30px; font-family: monospace"">autorização</span>"," ","","exp-sent","autorização","","",""
"","836","html-keyboard-response","299","1153796","0.0-3.0-1.241","<span style=""font-size:30px; font-family: monospace"">para</span>"," ","","exp-sent","para","","",""
"","645","html-keyboard-response","300","1154692","0.0-3.0-1.242","<span style=""font-size:30px; font-family: monospace"">a</span>"," ","","exp-sent","a","","",""
"","1094","html-keyboard-response","301","1156037","0.0-3.0-1.243","<span style=""font-size:30px; font-family: monospace"">colega.</span>"," ","","exp-sent","colega.","","",""
"","null","html-keyboard-response","302","1157288","0.0-3.0-0.244-0.244","<span style= ""font-size:30px; font-family: monospace"">+</span>","null","fixation","","","","",""
"","641","html-keyboard-response","303","1158180","0.0-3.0-1.244","<span style=""font-size:30px; font-family: monospace"">Eu</span>"," ","","exp-sent","Eu","","",""
"","774","html-keyboard-response","304","1159204","0.0-3.0-1.245","<span style=""font-size:30px; font-family: monospace"">sempre</span>"," ","","exp-sent","sempre","","",""
"","917","html-keyboard-response","305","1160372","0.0-3.0-1.246","<span style=""font-size:30px; font-family: monospace"">fujo</span>"," ","","exp-sent","fujo","","",""
"","1061","html-keyboard-response","306","1161685","0.0-3.0-1.247","<span style=""font-size:30px; font-family: monospace"">de</span>"," ","","exp-sent","de","","",""
"","5349","html-keyboard-response","307","1167285","0.0-3.0-1.248","<span style=""font-size:30px; font-family: monospace"">conflito</span>"," ","","exp-sent","conflito","","",""
"","1045","html-keyboard-response","308","1168581","0.0-3.0-1.249","<span style=""font-size:30px; font-family: monospace"">com</span>"," ","","exp-sent","com","","",""
"","806","html-keyboard-response","309","1169637","0.0-3.0-1.250","<span style=""font-size:30px; font-family: monospace"">as</span>"," ","","exp-sent","as","","",""
"","1157","html-keyboard-response","310","1171045","0.0-3.0-1.251","<span style=""font-size:30px; font-family: monospace"">pessoas.</span>"," ","","exp-sent","pessoas.","","",""
"","null","html-keyboard-response","311","1172310","0.0-3.0-0.252-0.252","<span style= ""font-size:30px; font-family: monospace"">+</span>","null","fixation","","","","",""
"","435","html-keyboard-response","312","1172997","0.0-3.0-1.252","<span style=""font-size:30px; font-family: monospace"">O</span>"," ","","exp-sent","O","","",""
"","677","html-keyboard-response","313","1173925","0.0-3.0-1.253","<span style=""font-size:30px; font-family: monospace"">bolo</span>"," ","","exp-sent","bolo","","",""
"","837","html-keyboard-response","314","1175012","0.0-3.0-1.254","<span style=""font-size:30px; font-family: monospace"">era</span>"," ","","exp-sent","era","","",""
"","773","html-keyboard-response","315","1176037","0.0-3.0-1.255","<span style=""font-size:30px; font-family: monospace"">de</span>"," ","","exp-sent","de","","",""
"","1605","html-keyboard-response","316","1177893","0.0-3.0-1.256","<span style=""font-size:30px; font-family: monospace"">abacaxi</span>"," ","","exp-sent","abacaxi","","",""
"","533","html-keyboard-response","317","1178676","0.0-3.0-1.257","<span style=""font-size:30px; font-family: monospace"">e</span>"," ","","exp-sent","e","","",""
"","869","html-keyboard-response","318","1179797","0.0-3.0-1.258","<span style=""font-size:30px; font-family: monospace"">creme</span>"," ","","exp-sent","creme","","",""
"","565","html-keyboard-response","319","1180612","0.0-3.0-1.259","<span style=""font-size:30px; font-family: monospace"">de</span>"," ","","exp-sent","de","","",""
"","869","html-keyboard-response","320","1181732","0.0-3.0-1.260","<span style=""font-size:30px; font-family: monospace"">coco.</span>"," ","","exp-sent","coco.","","",""
"","null","html-keyboard-response","321","1182985","0.0-3.0-0.261-0.261","<span style= ""font-size:30px; font-family: monospace"">+</span>","null","fixation","","","","",""
"","592","html-keyboard-response","322","1183828","0.0-3.0-1.261","<span style=""font-size:30px; font-family: monospace"">As</span>"," ","","exp-sent","As","","",""
"","1717","html-keyboard-response","323","1185796","0.0-3.0-1.262","<span style=""font-size:30px; font-family: monospace"">crianças</span>"," ","","exp-sent","crianças","","",""
"","2085","html-keyboard-response","324","1188132","0.0-3.0-1.263","<span style=""font-size:30px; font-family: monospace"">brincaram</span>"," ","","exp-sent","brincaram","","",""
"","1989","html-keyboard-response","325","1190373","0.0-3.0-1.264","<span style=""font-size:30px; font-family: monospace"">com</span>"," ","","exp-sent","com","","",""
"","2725","html-keyboard-response","326","1193348","0.0-3.0-1.265","<span style=""font-size:30px; font-family: monospace"">bolhas</span>"," ","","exp-sent","bolhas","","",""
"","549","html-keyboard-response","327","1194148","0.0-3.0-1.266","<span style=""font-size:30px; font-family: monospace"">no</span>"," ","","exp-sent","no","","",""
"","949","html-keyboard-response","328","1195348","0.0-3.0-1.267","<span style=""font-size:30px; font-family: monospace"">banho.</span>"," ","","comp","banho.","","",""
"","23773","html-keyboard-response","329","1219380","0.0-3.0-2.267-0.267","<span style=""font-size:30px; font-family: monospace"">As crianças brincaram com bolhas?</span>","n","","comp","","As crianças brincaram com bolhas?","sim","false"
"","null","html-keyboard-response","330","1220883","0.0-3.0-0.268-0.268","<span style= ""font-size:30px; font-family: monospace"">+</span>","null","fixation","","","","",""
"","631","html-keyboard-response","331","1221764","0.0-3.0-1.268","<span style=""font-size:30px; font-family: monospace"">A</span>"," ","","exp-sent","A","","",""
"","677","html-keyboard-response","332","1222692","0.0-3.0-1.269","<span style=""font-size:30px; font-family: monospace"">força</span>"," ","","exp-sent","força","","",""
"","486","html-keyboard-response","333","1223428","0.0-3.0-1.270","<span style=""font-size:30px; font-family: monospace"">d'água</span>"," ","","exp-sent","d'água","","",""
"","741","html-keyboard-response","334","1224420","0.0-3.0-1.271","<span style=""font-size:30px; font-family: monospace"">estava</span>"," ","","exp-sent","estava","","",""
"","1093","html-keyboard-response","335","1225764","0.0-3.0-1.272","<span style=""font-size:30px; font-family: monospace"">normal</span>"," ","","exp-sent","normal","","",""
"","1045","html-keyboard-response","336","1227060","0.0-3.0-1.273","<span style=""font-size:30px; font-family: monospace"">naquele</span>"," ","","exp-sent","naquele","","",""
"","853","html-keyboard-response","337","1228164","0.0-3.0-1.274","<span style=""font-size:30px; font-family: monospace"">dia.</span>"," ","","exp-sent","dia.","","",""
"","null","html-keyboard-response","338","1229417","0.0-3.0-0.275-0.275","<span style= ""font-size:30px; font-family: monospace"">+</span>","null","fixation","","","","",""
"","432","html-keyboard-response","339","1230100","0.0-3.0-1.275","<span style=""font-size:30px; font-family: monospace"">A</span>"," ","","exp-sent","A","","",""
"","1427","html-keyboard-response","340","1231780","0.0-3.0-1.276","<span style=""font-size:30px; font-family: monospace"">médica</span>"," ","","exp-sent","médica","","",""
"","1252","html-keyboard-response","341","1233284","0.0-3.0-1.277","<span style=""font-size:30px; font-family: monospace"">ofereceu</span>"," ","","exp-sent","ofereceu","","",""
"","549","html-keyboard-response","342","1234084","0.0-3.0-1.278","<span style=""font-size:30px; font-family: monospace"">a</span>"," ","","exp-sent","a","","",""
"","709","html-keyboard-response","343","1235044","0.0-3.0-1.279","<span style=""font-size:30px; font-family: monospace"">pomada</span>"," ","","exp-sent","pomada","","",""
"","628","html-keyboard-response","344","1235924","0.0-3.0-1.280","<span style=""font-size:30px; font-family: monospace"">para</span>"," ","","exp-sent","para","","",""
"","549","html-keyboard-response","345","1236725","0.0-3.0-1.281","<span style=""font-size:30px; font-family: monospace"">o</span>"," ","","exp-sent","o","","",""
"","628","html-keyboard-response","346","1237604","0.0-3.0-1.282","<span style=""font-size:30px; font-family: monospace"">avô.</span>"," ","","exp-sent","avô.","","",""
"","null","html-keyboard-response","347","1238857","0.0-3.0-0.283-0.283","<span style= ""font-size:30px; font-family: monospace"">+</span>","null","fixation","","","","",""
"","433","html-keyboard-response","348","1239540","0.0-3.0-1.283","<span style=""font-size:30px; font-family: monospace"">Ele</span>"," ","","exp-sent","Ele","","",""
"","1189","html-keyboard-response","349","1240980","0.0-3.0-1.284","<span style=""font-size:30px; font-family: monospace"">conversou</span>"," ","","exp-sent","conversou","","",""
"","693","html-keyboard-response","350","1241924","0.0-3.0-1.285","<span style=""font-size:30px; font-family: monospace"">com</span>"," ","","exp-sent","com","","",""
"","613","html-keyboard-response","351","1242788","0.0-3.0-1.286","<span style=""font-size:30px; font-family: monospace"">o</span>"," ","","exp-sent","o","","",""
"","853","html-keyboard-response","352","1243892","0.0-3.0-1.287","<span style=""font-size:30px; font-family: monospace"">patrão</span>"," ","","exp-sent","patrão","","",""
"","1029","html-keyboard-response","353","1245172","0.0-3.0-1.288","<span style=""font-size:30px; font-family: monospace"">durante</span>"," ","","exp-sent","durante","","",""
"","725","html-keyboard-response","354","1246148","0.0-3.0-1.289","<span style=""font-size:30px; font-family: monospace"">a</span>"," ","","exp-sent","a","","",""
"","789","html-keyboard-response","355","1247188","0.0-3.0-1.290","<span style=""font-size:30px; font-family: monospace"">tarde.</span>"," ","","exp-sent","tarde.","","",""
"","null","html-keyboard-response","356","1248451","0.0-3.0-0.291-0.291","<span style= ""font-size:30px; font-family: monospace"">+</span>","null","fixation","","","","",""
"","566","html-keyboard-response","357","1249268","0.0-3.0-1.291","<span style=""font-size:30px; font-family: monospace"">Algumas</span>"," ","","exp-sent","Algumas","","",""
"","757","html-keyboard-response","358","1250276","0.0-3.0-1.292","<span style=""font-size:30px; font-family: monospace"">pessoas</span>"," ","","exp-sent","pessoas","","",""
"","1013","html-keyboard-response","359","1251541","0.0-3.0-1.293","<span style=""font-size:30px; font-family: monospace"">acreditam</span>"," ","","exp-sent","acreditam","","",""
"","644","html-keyboard-response","360","1252436","0.0-3.0-1.294","<span style=""font-size:30px; font-family: monospace"">em</span>"," ","","exp-sent","em","","",""
"","981","html-keyboard-response","361","1253668","0.0-3.0-1.295","<span style=""font-size:30px; font-family: monospace"">espíritos</span>"," ","","exp-sent","espíritos","","",""
"","740","html-keyboard-response","362","1254660","0.0-3.0-1.296","<span style=""font-size:30px; font-family: monospace"">e</span>"," ","","exp-sent","e","","",""
"","629","html-keyboard-response","363","1255540","0.0-3.0-1.297","<span style=""font-size:30px; font-family: monospace"">em</span>"," ","","exp-sent","em","","",""
"","901","html-keyboard-response","364","1256692","0.0-3.0-1.298","<span style=""font-size:30px; font-family: monospace"">outras</span>"," ","","exp-sent","outras","","",""
"","2133","html-keyboard-response","365","1259076","0.0-3.0-1.299","<span style=""font-size:30px; font-family: monospace"">vidas.</span>"," ","","exp-sent","vidas.","","",""
"","null","html-keyboard-response","366","1260329","0.0-3.0-0.300-0.300","<span style= ""font-size:30px; font-family: monospace"">+</span>","null","fixation","","","","",""
"","1152","html-keyboard-response","367","1261732","0.0-3.0-1.300","<span style=""font-size:30px; font-family: monospace"">Ela</span>"," ","","exp-sent","Ela","","",""
"","1125","html-keyboard-response","368","1263108","0.0-3.0-1.301","<span style=""font-size:30px; font-family: monospace"">gosta</span>"," ","","exp-sent","gosta","","",""
"","1013","html-keyboard-response","369","1264372","0.0-3.0-1.302","<span style=""font-size:30px; font-family: monospace"">de</span>"," ","","exp-sent","de","","",""
"","1733","html-keyboard-response","370","1266356","0.0-3.0-1.303","<span style=""font-size:30px; font-family: monospace"">estudar</span>"," ","","exp-sent","estudar","","",""
"","11749","html-keyboard-response","371","1278357","0.0-3.0-1.304","<span style=""font-size:30px; font-family: monospace"">matemática</span>"," ","","exp-sent","matemática","","",""
"","837","html-keyboard-response","372","1279444","0.0-3.0-1.305","<span style=""font-size:30px; font-family: monospace"">com</span>"," ","","exp-sent","com","","",""
"","1605","html-keyboard-response","373","1281300","0.0-3.0-1.306","<span style=""font-size:30px; font-family: monospace"">colegas.</span>"," ","","comp","colegas.","","",""
"","12677","html-keyboard-response","374","1294229","0.0-3.0-2.306-0.306","<span style=""font-size:30px; font-family: monospace"">Ela gosta de estudar física?</span>","s","","comp","","Ela gosta de estudar física?","não","false"
"","null","html-keyboard-response","375","1295732","0.0-3.0-0.307-0.307","<span style= ""font-size:30px; font-family: monospace"">+</span>","null","fixation","","","","",""
"","1509","html-keyboard-response","376","1297492","0.0-3.0-1.307","<span style=""font-size:30px; font-family: monospace"">Este</span>"," ","","exp-sent","Este","","",""
"","3845","html-keyboard-response","377","1301588","0.0-3.0-1.308","<span style=""font-size:30px; font-family: monospace"">conto</span>"," ","","exp-sent","conto","","",""
"","981","html-keyboard-response","378","1302820","0.0-3.0-1.309","<span style=""font-size:30px; font-family: monospace"">tem</span>"," ","","exp-sent","tem","","",""
"","837","html-keyboard-response","379","1303908","0.0-3.0-1.310","<span style=""font-size:30px; font-family: monospace"">um</span>"," ","","exp-sent","um","","",""
"","1477","html-keyboard-response","380","1305636","0.0-3.0-1.311","<span style=""font-size:30px; font-family: monospace"">final</span>"," ","","exp-sent","final","","",""
"","2452","html-keyboard-response","381","1308340","0.0-3.0-1.312","<span style=""font-size:30px; font-family: monospace"">perfeito.</span>"," ","","exp-sent","perfeito.","","",""
"","null","html-keyboard-response","382","1309592","0.0-3.0-0.313-0.313","<span style= ""font-size:30px; font-family: monospace"">+</span>","null","fixation","","","","",""
"","624","html-keyboard-response","383","1310468","0.0-3.0-1.313","<span style=""font-size:30px; font-family: monospace"">Ele</span>"," ","","exp-sent","Ele","","",""
"","1349","html-keyboard-response","384","1312068","0.0-3.0-1.314","<span style=""font-size:30px; font-family: monospace"">precisa</span>"," ","","exp-sent","precisa","","",""
"","1588","html-keyboard-response","385","1313908","0.0-3.0-1.315","<span style=""font-size:30px; font-family: monospace"">de</span>"," ","","exp-sent","de","","",""
"","773","html-keyboard-response","386","1314932","0.0-3.0-1.316","<span style=""font-size:30px; font-family: monospace"">um</span>"," ","","exp-sent","um","","",""
"","6453","html-keyboard-response","387","1321636","0.0-3.0-1.317","<span style=""font-size:30px; font-family: monospace"">protetor</span>"," ","","exp-sent","protetor","","",""
"","933","html-keyboard-response","388","1322820","0.0-3.0-1.318","<span style=""font-size:30px; font-family: monospace"">de</span>"," ","","exp-sent","de","","",""
"","2485","html-keyboard-response","389","1325556","0.0-3.0-1.319","<span style=""font-size:30px; font-family: monospace"">ouvido.</span>"," ","","exp-sent","ouvido.","","",""
"","null","html-keyboard-response","390","1326808","0.0-3.0-0.320-0.320","<span style= ""font-size:30px; font-family: monospace"">+</span>","null","fixation","","","","",""
"","828","html-keyboard-response","391","1327892","0.0-3.0-1.320","<span style=""font-size:30px; font-family: monospace"">Os</span>"," ","","exp-sent","Os","","",""
"","2085","html-keyboard-response","392","1330228","0.0-3.0-1.321","<span style=""font-size:30px; font-family: monospace"">hábitos</span>"," ","","exp-sent","hábitos","","",""
"","628","html-keyboard-response","393","1331108","0.0-3.0-1.322","<span style=""font-size:30px; font-family: monospace"">de</span>"," ","","exp-sent","de","","",""
"","2005","html-keyboard-response","394","1333364","0.0-3.0-1.323","<span style=""font-size:30px; font-family: monospace"">lugares</span>"," ","","exp-sent","lugares","","",""
"","2293","html-keyboard-response","395","1335908","0.0-3.0-1.324","<span style=""font-size:30px; font-family: monospace"">diferentes</span>"," ","","exp-sent","diferentes","","",""
"","1237","html-keyboard-response","396","1337396","0.0-3.0-1.325","<span style=""font-size:30px; font-family: monospace"">são</span>"," ","","exp-sent","são","","",""
"","1509","html-keyboard-response","397","1339156","0.0-3.0-1.326","<span style=""font-size:30px; font-family: monospace"">muito</span>"," ","","exp-sent","muito","","",""
"","1765","html-keyboard-response","398","1341172","0.0-3.0-1.327","<span style=""font-size:30px; font-family: monospace"">lindos.</span>"," ","","exp-sent","lindos.","","",""
"","null","html-keyboard-response","399","1342424","0.0-3.0-0.328-0.328","<span style= ""font-size:30px; font-family: monospace"">+</span>","null","fixation","","","","",""
"","890","html-keyboard-response","400","1343572","0.0-3.0-1.328","<span style=""font-size:30px; font-family: monospace"">O</span>"," ","","exp-sent","O","","",""
"","1701","html-keyboard-response","401","1345524","0.0-3.0-1.329","<span style=""font-size:30px; font-family: monospace"">médico</span>"," ","","exp-sent","médico","","",""
"","2453","html-keyboard-response","402","1348228","0.0-3.0-1.330","<span style=""font-size:30px; font-family: monospace"">corrigiu</span>"," ","","exp-sent","corrigiu","","",""
"","1028","html-keyboard-response","403","1349508","0.0-3.0-1.331","<span style=""font-size:30px; font-family: monospace"">a</span>"," ","","exp-sent","a","","",""
"","2325","html-keyboard-response","404","1352084","0.0-3.0-1.332","<span style=""font-size:30px; font-family: monospace"">postura</span>"," ","","exp-sent","postura","","",""
"","1140","html-keyboard-response","405","1353476","0.0-3.0-1.333","<span style=""font-size:30px; font-family: monospace"">das</span>"," ","","exp-sent","das","","",""
"","1334","html-keyboard-response","406","1355060","0.0-3.0-1.334","<span style=""font-size:30px; font-family: monospace"">costas</span>"," ","","exp-sent","costas","","",""
"","3605","html-keyboard-response","407","1358916","0.0-3.0-1.335","<span style=""font-size:30px; font-family: monospace"">da</span>"," ","","exp-sent","da","","",""
"","1333","html-keyboard-response","408","1360500","0.0-3.0-1.336","<span style=""font-size:30px; font-family: monospace"">pessoa.</span>"," ","","exp-sent","pessoa.","","",""
"","null","html-keyboard-response","409","1361752","0.0-3.0-0.337-0.337","<span style= ""font-size:30px; font-family: monospace"">+</span>","null","fixation","","","","",""
"","1265","html-keyboard-response","410","1363268","0.0-3.0-1.337","<span style=""font-size:30px; font-family: monospace"">Aquele</span>"," ","","exp-sent","Aquele","","",""
"","917","html-keyboard-response","411","1364436","0.0-3.0-1.338","<span style=""font-size:30px; font-family: monospace"">era</span>"," ","","exp-sent","era","","",""
"","869","html-keyboard-response","412","1365556","0.0-3.0-1.339","<span style=""font-size:30px; font-family: monospace"">um</span>"," ","","exp-sent","um","","",""
"","2277","html-keyboard-response","413","1368084","0.0-3.0-1.340","<span style=""font-size:30px; font-family: monospace"">caso</span>"," ","","exp-sent","caso","","",""
"","1189","html-keyboard-response","414","1369524","0.0-3.0-1.341","<span style=""font-size:30px; font-family: monospace"">real</span>"," ","","exp-sent","real","","",""
"","1236","html-keyboard-response","415","1371012","0.0-3.0-1.342","<span style=""font-size:30px; font-family: monospace"">de</span>"," ","","exp-sent","de","","",""
"","3317","html-keyboard-response","416","1374580","0.0-3.0-1.343","<span style=""font-size:30px; font-family: monospace"">sequestro</span>"," ","","exp-sent","sequestro","","",""
"","3317","html-keyboard-response","417","1378148","0.0-3.0-1.344","<span style=""font-size:30px; font-family: monospace"">premeditado.</span>"," ","","comp","premeditado.","","",""
"","13956","html-keyboard-response","418","1392356","0.0-3.0-2.344-0.344","<span style=""font-size:30px; font-family: monospace"">Aquele era um caso real de roubo?</span>","s","","comp","","Aquele era um caso real de roubo?","não","false"
"","null","html-keyboard-response","419","1393872","0.0-3.0-0.345-0.345","<span style= ""font-size:30px; font-family: monospace"">+</span>","null","fixation","","","","",""
"","3017","html-keyboard-response","420","1397140","0.0-3.0-1.345","<span style=""font-size:30px; font-family: monospace"">Minha</span>"," ","","exp-sent","Minha","","",""
"","1269","html-keyboard-response","421","1398660","0.0-3.0-1.346","<span style=""font-size:30px; font-family: monospace"">prima</span>"," ","","exp-sent","prima","","",""
"","2997","html-keyboard-response","422","1401908","0.0-3.0-1.347","<span style=""font-size:30px; font-family: monospace"">trocou</span>"," ","","exp-sent","trocou","","",""
"","1301","html-keyboard-response","423","1403460","0.0-3.0-1.348","<span style=""font-size:30px; font-family: monospace"">a</span>"," ","","exp-sent","a","","",""
"","1621","html-keyboard-response","424","1405332","0.0-3.0-1.349","<span style=""font-size:30px; font-family: monospace"">tela</span>"," ","","exp-sent","tela","","",""
"","1093","html-keyboard-response","425","1406676","0.0-3.0-1.350","<span style=""font-size:30px; font-family: monospace"">do</span>"," ","","exp-sent","do","","",""
"","2581","html-keyboard-response","426","1409508","0.0-3.0-1.351","<span style=""font-size:30px; font-family: monospace"">celular</span>"," ","","exp-sent","celular","","",""
"","2709","html-keyboard-response","427","1412468","0.0-3.0-1.352","<span style=""font-size:30px; font-family: monospace"">duas</span>"," ","","exp-sent","duas","","",""
"","2133","html-keyboard-response","428","1414852","0.0-3.0-1.353","<span style=""font-size:30px; font-family: monospace"">vezes.</span>"," ","","exp-sent","vezes.","","",""
"","null","html-keyboard-response","429","1416105","0.0-3.0-0.354-0.354","<span style= ""font-size:30px; font-family: monospace"">+</span>","null","fixation","","","","",""
"","193","html-keyboard-response","430","1416548","0.0-3.0-1.354","<span style=""font-size:30px; font-family: monospace"">Agora</span>"," ","","exp-sent","Agora","","",""
"","2037","html-keyboard-response","431","1418836","0.0-3.0-1.355","<span style=""font-size:30px; font-family: monospace"">a</span>"," ","","exp-sent","a","","",""
"","2133","html-keyboard-response","432","1421220","0.0-3.0-1.356","<span style=""font-size:30px; font-family: monospace"">minha</span>"," ","","exp-sent","minha","","",""
"","2245","html-keyboard-response","433","1423716","0.0-3.0-1.357","<span style=""font-size:30px; font-family: monospace"">única</span>"," ","","exp-sent","única","","",""
"","3413","html-keyboard-response","434","1427380","0.0-3.0-1.358","<span style=""font-size:30px; font-family: monospace"">preocupação</span>"," ","","exp-sent","preocupação","","",""
"","1189","html-keyboard-response","435","1428820","0.0-3.0-1.359","<span style=""font-size:30px; font-family: monospace"">é</span>"," ","","exp-sent","é","","",""
"","870","html-keyboard-response","436","1429940","0.0-3.0-1.360","<span style=""font-size:30px; font-family: monospace"">um</span>"," ","","exp-sent","um","","",""
"","3269","html-keyboard-response","437","1433460","0.0-3.0-1.361","<span style=""font-size:30px; font-family: monospace"">descanso</span>"," ","","exp-sent","descanso","","",""
"","2357","html-keyboard-response","438","1436068","0.0-3.0-1.362","<span style=""font-size:30px; font-family: monospace"">tranquilo.</span>"," ","","exp-sent","tranquilo.","","",""
"","null","html-keyboard-response","439","1437331","0.0-3.0-0.363-0.363","<span style= ""font-size:30px; font-family: monospace"">+</span>","null","fixation","","","","",""
"","582","html-keyboard-response","440","1438164","0.0-3.0-1.363","<span style=""font-size:30px; font-family: monospace"">A</span>"," ","","exp-sent","A","","",""
"","1492","html-keyboard-response","441","1439908","0.0-3.0-1.364","<span style=""font-size:30px; font-family: monospace"">criança</span>"," ","","exp-sent","criança","","",""
"","2739","html-keyboard-response","442","1442900","0.0-3.0-1.365","<span style=""font-size:30px; font-family: monospace"">ganhou</span>"," ","","exp-sent","ganhou","","",""
"","1269","html-keyboard-response","443","1444420","0.0-3.0-1.366","<span style=""font-size:30px; font-family: monospace"">um</span>"," ","","exp-sent","um","","",""
"","2214","html-keyboard-response","444","1446884","0.0-3.0-1.367","<span style=""font-size:30px; font-family: monospace"">presente</span>"," ","","exp-sent","presente","","",""
"","5477","html-keyboard-response","445","1452612","0.0-3.0-1.368","<span style=""font-size:30px; font-family: monospace"">maravilhoso.</span>"," ","","exp-sent","maravilhoso.","","",""
"","null","html-keyboard-response","446","1453864","0.0-3.0-0.369-0.369","<span style= ""font-size:30px; font-family: monospace"">+</span>","null","fixation","","","","",""
"","769","html-keyboard-response","447","1454884","0.0-3.0-1.369","<span style=""font-size:30px; font-family: monospace"">Os</span>"," ","","exp-sent","Os","","",""
"","2533","html-keyboard-response","448","1457668","0.0-3.0-1.370","<span style=""font-size:30px; font-family: monospace"">bichos</span>"," ","","exp-sent","bichos","","",""
"","980","html-keyboard-response","449","1458900","0.0-3.0-1.371","<span style=""font-size:30px; font-family: monospace"">têm</span>"," ","","exp-sent","têm","","",""
"","997","html-keyboard-response","450","1460148","0.0-3.0-1.372","<span style=""font-size:30px; font-family: monospace"">um</span>"," ","","exp-sent","um","","",""
"","2853","html-keyboard-response","451","1463252","0.0-3.0-1.373","<span style=""font-size:30px; font-family: monospace"">instinto</span>"," ","","exp-sent","instinto","","",""
"","1076","html-keyboard-response","452","1464580","0.0-3.0-1.374","<span style=""font-size:30px; font-family: monospace"">de</span>"," ","","exp-sent","de","","",""
"","3269","html-keyboard-response","453","1468100","0.0-3.0-1.375","<span style=""font-size:30px; font-family: monospace"">sobrevivência</span>"," ","","exp-sent","sobrevivência","","",""
"","1413","html-keyboard-response","454","1469764","0.0-3.0-1.376","<span style=""font-size:30px; font-family: monospace"">forte.</span>"," ","","exp-sent","forte.","","",""
"","null","html-keyboard-response","455","1471016","0.0-3.0-0.377-0.377","<span style= ""font-size:30px; font-family: monospace"">+</span>","null","fixation","","","","",""
"","2226","html-keyboard-response","456","1473492","0.0-3.0-1.377","<span style=""font-size:30px; font-family: monospace"">Aquele</span>"," ","","exp-sent","Aquele","","",""
"","4628","html-keyboard-response","457","1478372","0.0-3.0-1.378","<span style=""font-size:30px; font-family: monospace"">menino</span>"," ","","exp-sent","menino","","",""
"","1973","html-keyboard-response","458","1480596","0.0-3.0-1.379","<span style=""font-size:30px; font-family: monospace"">alto</span>"," ","","exp-sent","alto","","",""
"","1349","html-keyboard-response","459","1482196","0.0-3.0-1.380","<span style=""font-size:30px; font-family: monospace"">é</span>"," ","","exp-sent","é","","",""
"","3157","html-keyboard-response","460","1485604","0.0-3.0-1.381","<span style=""font-size:30px; font-family: monospace"">exibido</span>"," ","","exp-sent","exibido","","",""
"","1925","html-keyboard-response","461","1487780","0.0-3.0-1.382","<span style=""font-size:30px; font-family: monospace"">e</span>"," ","","exp-sent","e","","",""
"","3508","html-keyboard-response","462","1491540","0.0-3.0-1.383","<span style=""font-size:30px; font-family: monospace"">sovina.</span>"," ","","comp","sovina.","","",""
"","23189","html-keyboard-response","463","1514980","0.0-3.0-2.383-0.383","<span style=""font-size:30px; font-family: monospace"">Aquele menino é humilde?</span>","s","","comp","","Aquele menino é humilde?","não","false"
"","null","html-keyboard-response","464","1516483","0.0-3.0-0.384-0.384","<span style= ""font-size:30px; font-family: monospace"">+</span>","null","fixation","","","","",""
"","1125","html-keyboard-response","465","1517860","0.0-3.0-1.384","<span style=""font-size:30px; font-family: monospace"">Eu</span>"," ","","exp-sent","Eu","","",""
"","1237","html-keyboard-response","466","1519348","0.0-3.0-1.385","<span style=""font-size:30px; font-family: monospace"">gosto</span>"," ","","exp-sent","gosto","","",""
"","1093","html-keyboard-response","467","1520692","0.0-3.0-1.386","<span style=""font-size:30px; font-family: monospace"">de</span>"," ","","exp-sent","de","","",""
"","4245","html-keyboard-response","468","1525188","0.0-3.0-1.387","<span style=""font-size:30px; font-family: monospace"">molho</span>"," ","","exp-sent","molho","","",""
"","3925","html-keyboard-response","469","1529364","0.0-3.0-1.388","<span style=""font-size:30px; font-family: monospace"">picante</span>"," ","","exp-sent","picante","","",""
"","4020","html-keyboard-response","470","1533636","0.0-3.0-1.389","<span style=""font-size:30px; font-family: monospace"">nas</span>"," ","","exp-sent","nas","","",""
"","4069","html-keyboard-response","471","1537956","0.0-3.0-1.390","<span style=""font-size:30px; font-family: monospace"">batatas.</span>"," ","","exp-sent","batatas.","","",""
"","null","html-keyboard-response","472","1539207","0.0-3.0-0.391-0.391","<span style= ""font-size:30px; font-family: monospace"">+</span>","null","fixation","","","","",""
"","818","html-keyboard-response","473","1540276","0.0-3.0-1.391","<span style=""font-size:30px; font-family: monospace"">As</span>"," ","","exp-sent","As","","",""
"","1893","html-keyboard-response","474","1542420","0.0-3.0-1.392","<span style=""font-size:30px; font-family: monospace"">pessoas</span>"," ","","exp-sent","pessoas","","",""
"","1413","html-keyboard-response","475","1544084","0.0-3.0-1.393","<span style=""font-size:30px; font-family: monospace"">têm</span>"," ","","exp-sent","têm","","",""
"","1157","html-keyboard-response","476","1545492","0.0-3.0-1.394","<span style=""font-size:30px; font-family: monospace"">sua</span>"," ","","exp-sent","sua","","",""
"","2677","html-keyboard-response","477","1548420","0.0-3.0-1.395","<span style=""font-size:30px; font-family: monospace"">liberdade</span>"," ","","exp-sent","liberdade","","",""
"","1541","html-keyboard-response","478","1550212","0.0-3.0-1.396","<span style=""font-size:30px; font-family: monospace"">até</span>"," ","","exp-sent","até","","",""
"","2597","html-keyboard-response","479","1553060","0.0-3.0-1.397","<span style=""font-size:30px; font-family: monospace"">certo</span>"," ","","exp-sent","certo","","",""
"","1605","html-keyboard-response","480","1554916","0.0-3.0-1.398","<span style=""font-size:30px; font-family: monospace"">ponto.</span>"," ","","exp-sent","ponto.","","",""
"","null","html-keyboard-response","481","1556168","0.0-3.0-0.399-0.399","<span style= ""font-size:30px; font-family: monospace"">+</span>","null","fixation","","","","",""
"","849","html-keyboard-response","482","1557268","0.0-3.0-1.399","<span style=""font-size:30px; font-family: monospace"">A</span>"," ","","exp-sent","A","","",""
"","2885","html-keyboard-response","483","1560404","0.0-3.0-1.400","<span style=""font-size:30px; font-family: monospace"">empresa</span>"," ","","exp-sent","empresa","","",""
"","2548","html-keyboard-response","484","1563204","0.0-3.0-1.401","<span style=""font-size:30px; font-family: monospace"">enviou</span>"," ","","exp-sent","enviou","","",""
"","917","html-keyboard-response","485","1564372","0.0-3.0-1.402","<span style=""font-size:30px; font-family: monospace"">o</span>"," ","","exp-sent","o","","",""
"","1509","html-keyboard-response","486","1566132","0.0-3.0-1.403","<span style=""font-size:30px; font-family: monospace"">aviso</span>"," ","","exp-sent","aviso","","",""
"","1077","html-keyboard-response","487","1567460","0.0-3.0-1.404","<span style=""font-size:30px; font-family: monospace"">hoje</span>"," ","","exp-sent","hoje","","",""
"","933","html-keyboard-response","488","1568644","0.0-3.0-1.405","<span style=""font-size:30px; font-family: monospace"">de</span>"," ","","exp-sent","de","","",""
"","1204","html-keyboard-response","489","1570100","0.0-3.0-1.406","<span style=""font-size:30px; font-family: monospace"">tarde.</span>"," ","","exp-sent","tarde.","","",""
"","null","html-keyboard-response","490","1571352","0.0-3.0-0.407-0.407","<span style= ""font-size:30px; font-family: monospace"">+</span>","null","fixation","","","","",""
"","509","html-keyboard-response","491","1572116","0.0-3.0-1.407","<span style=""font-size:30px; font-family: monospace"">A</span>"," ","","exp-sent","A","","",""
"","2677","html-keyboard-response","492","1575044","0.0-3.0-1.408","<span style=""font-size:30px; font-family: monospace"">loja</span>"," ","","exp-sent","loja","","",""
"","1349","html-keyboard-response","493","1576644","0.0-3.0-1.409","<span style=""font-size:30px; font-family: monospace"">vende</span>"," ","","exp-sent","vende","","",""
"","2196","html-keyboard-response","494","1579092","0.0-3.0-1.410","<span style=""font-size:30px; font-family: monospace"">tanto</span>"," ","","exp-sent","tanto","","",""
"","3716","html-keyboard-response","495","1583060","0.0-3.0-1.411","<span style=""font-size:30px; font-family: monospace"">frituras</span>"," ","","exp-sent","frituras","","",""
"","3317","html-keyboard-response","496","1586628","0.0-3.0-1.412","<span style=""font-size:30px; font-family: monospace"">quanto</span>"," ","","exp-sent","quanto","","",""
"","2069","html-keyboard-response","497","1588948","0.0-3.0-1.413","<span style=""font-size:30px; font-family: monospace"">comidas</span>"," ","","exp-sent","comidas","","",""
"","2021","html-keyboard-response","498","1591220","0.0-3.0-1.414","<span style=""font-size:30px; font-family: monospace"">leves.</span>"," ","","exp-sent","leves.","","",""
"","null","html-keyboard-response","499","1592472","0.0-3.0-0.415-0.415","<span style= ""font-size:30px; font-family: monospace"">+</span>","null","fixation","","","","",""
"","753","html-keyboard-response","500","1593476","0.0-3.0-1.415","<span style=""font-size:30px; font-family: monospace"">As</span>"," ","","exp-sent","As","","",""
"","5285","html-keyboard-response","501","1599012","0.0-3.0-1.416","<span style=""font-size:30px; font-family: monospace"">cadeiras</span>"," ","","exp-sent","cadeiras","","",""
"","3397","html-keyboard-response","502","1602660","0.0-3.0-1.417","<span style=""font-size:30px; font-family: monospace"">azuis</span>"," ","","exp-sent","azuis","","",""
"","950","html-keyboard-response","503","1603860","0.0-3.0-1.418","<span style=""font-size:30px; font-family: monospace"">da</span>"," ","","exp-sent","da","","",""
"","1381","html-keyboard-response","504","1605492","0.0-3.0-1.419","<span style=""font-size:30px; font-family: monospace"">sala</span>"," ","","exp-sent","sala","","",""
"","1589","html-keyboard-response","505","1607332","0.0-3.0-1.420","<span style=""font-size:30px; font-family: monospace"">eram</span>"," ","","exp-sent","eram","","",""
"","1125","html-keyboard-response","506","1608708","0.0-3.0-1.421","<span style=""font-size:30px; font-family: monospace"">da</span>"," ","","exp-sent","da","","",""
"","2356","html-keyboard-response","507","1611316","0.0-3.0-1.422","<span style=""font-size:30px; font-family: monospace"">minha</span>"," ","","exp-sent","minha","","",""
"","1237","html-keyboard-response","508","1612804","0.0-3.0-1.423","<span style=""font-size:30px; font-family: monospace"">vó.</span>"," ","","comp","vó.","","",""
"","17477","html-keyboard-response","509","1630532","0.0-3.0-2.423-0.423","<span style=""font-size:30px; font-family: monospace"">As cadeiras eram da avó?</span>","n","","comp","","As cadeiras eram da avó?","sim","false"
"","null","html-keyboard-response","510","1632034","0.0-3.0-0.424-0.424","<span style= ""font-size:30px; font-family: monospace"">+</span>","null","fixation","","","","",""
"","823","html-keyboard-response","511","1633108","0.0-3.0-1.424","<span style=""font-size:30px; font-family: monospace"">O</span>"," ","","exp-sent","O","","",""
"","1381","html-keyboard-response","512","1634740","0.0-3.0-1.425","<span style=""font-size:30px; font-family: monospace"">moço</span>"," ","","exp-sent","moço","","",""
"","2661","html-keyboard-response","513","1637652","0.0-3.0-1.426","<span style=""font-size:30px; font-family: monospace"">usou</span>"," ","","exp-sent","usou","","",""
"","2613","html-keyboard-response","514","1640516","0.0-3.0-1.427","<span style=""font-size:30px; font-family: monospace"">várias</span>"," ","","exp-sent","várias","","",""
"","3765","html-keyboard-response","515","1644532","0.0-3.0-1.428","<span style=""font-size:30px; font-family: monospace"">velas</span>"," ","","exp-sent","velas","","",""
"","1189","html-keyboard-response","516","1645972","0.0-3.0-1.429","<span style=""font-size:30px; font-family: monospace"">no</span>"," ","","exp-sent","no","","",""
"","3733","html-keyboard-response","517","1649956","0.0-3.0-1.430","<span style=""font-size:30px; font-family: monospace"">enfeite</span>"," ","","exp-sent","enfeite","","",""
"","1173","html-keyboard-response","518","1651380","0.0-3.0-1.431","<span style=""font-size:30px; font-family: monospace"">de</span>"," ","","exp-sent","de","","",""
"","1381","html-keyboard-response","519","1653012","0.0-3.0-1.432","<span style=""font-size:30px; font-family: monospace"">mesa.</span>"," ","","exp-sent","mesa.","","",""
"","null","html-keyboard-response","520","1654263","0.0-3.0-0.433-0.433","<span style= ""font-size:30px; font-family: monospace"">+</span>","null","fixation","","","","",""
"","2850","html-keyboard-response","521","1657364","0.0-3.0-1.433","<span style=""font-size:30px; font-family: monospace"">Gostamos</span>"," ","","exp-sent","Gostamos","","",""
"","1237","html-keyboard-response","522","1658852","0.0-3.0-1.434","<span style=""font-size:30px; font-family: monospace"">de</span>"," ","","exp-sent","de","","",""
"","4486","html-keyboard-response","523","1663588","0.0-3.0-1.435","<span style=""font-size:30px; font-family: monospace"">suco</span>"," ","","exp-sent","suco","","",""
"","1173","html-keyboard-response","524","1665012","0.0-3.0-1.436","<span style=""font-size:30px; font-family: monospace"">em</span>"," ","","exp-sent","em","","",""
"","5525","html-keyboard-response","525","1670788","0.0-3.0-1.437","<span style=""font-size:30px; font-family: monospace"">garrafa</span>"," ","","exp-sent","garrafa","","",""
"","1189","html-keyboard-response","526","1672228","0.0-3.0-1.438","<span style=""font-size:30px; font-family: monospace"">de</span>"," ","","exp-sent","de","","",""
"","7493","html-keyboard-response","527","1679972","0.0-3.0-1.439","<span style=""font-size:30px; font-family: monospace"">tamanho</span>"," ","","exp-sent","tamanho","","",""
"","3381","html-keyboard-response","528","1683604","0.0-3.0-1.440","<span style=""font-size:30px; font-family: monospace"">pequeno.</span>"," ","","exp-sent","pequeno.","","",""
"","null","html-keyboard-response","529","1684855","0.0-3.0-0.441-0.441","<span style= ""font-size:30px; font-family: monospace"">+</span>","null","fixation","","","","",""
"","1009","html-keyboard-response","530","1686115","0.0-3.0-1.441","<span style=""font-size:30px; font-family: monospace"">Sua</span>"," ","","exp-sent","Sua","","",""
"","2469","html-keyboard-response","531","1688836","0.0-3.0-1.442","<span style=""font-size:30px; font-family: monospace"">filha</span>"," ","","exp-sent","filha","","",""
"","1557","html-keyboard-response","532","1690644","0.0-3.0-1.443","<span style=""font-size:30px; font-family: monospace"">é</span>"," ","","exp-sent","é","","",""
"","1008","html-keyboard-response","533","1691908","0.0-3.0-1.444","<span style=""font-size:30px; font-family: monospace"">muito</span>"," ","","exp-sent","muito","","",""
"","2005","html-keyboard-response","534","1694164","0.0-3.0-1.445","<span style=""font-size:30px; font-family: monospace"">capaz</span>"," ","","exp-sent","capaz","","",""
"","965","html-keyboard-response","535","1695380","0.0-3.0-1.446","<span style=""font-size:30px; font-family: monospace"">e</span>"," ","","exp-sent","e","","",""
"","5173","html-keyboard-response","536","1700804","0.0-3.0-1.447","<span style=""font-size:30px; font-family: monospace"">esforçada.</span>"," ","","exp-sent","esforçada.","","",""
"","null","html-keyboard-response","537","1702056","0.0-3.0-0.448-0.448","<span style= ""font-size:30px; font-family: monospace"">+</span>","null","fixation","","","","",""
"","1185","html-keyboard-response","538","1703492","0.0-3.0-1.448","<span style=""font-size:30px; font-family: monospace"">A</span>"," ","","exp-sent","A","","",""
"","3205","html-keyboard-response","539","1706948","0.0-3.0-1.449","<span style=""font-size:30px; font-family: monospace"">batida</span>"," ","","exp-sent","batida","","",""
"","2016","html-keyboard-response","540","1709219","0.0-3.0-1.450","<span style=""font-size:30px; font-family: monospace"">causou</span>"," ","","exp-sent","causou","","",""
"","1813","html-keyboard-response","541","1711284","0.0-3.0-1.451","<span style=""font-size:30px; font-family: monospace"">muita</span>"," ","","exp-sent","muita","","",""
"","2340","html-keyboard-response","542","1713876","0.0-3.0-1.452","<span style=""font-size:30px; font-family: monospace"">confusão</span>"," ","","exp-sent","confusão","","",""
"","1717","html-keyboard-response","543","1715844","0.0-3.0-1.453","<span style=""font-size:30px; font-family: monospace"">na</span>"," ","","exp-sent","na","","",""
"","2165","html-keyboard-response","544","1718260","0.0-3.0-1.454","<span style=""font-size:30px; font-family: monospace"">estrada.</span>"," ","","exp-sent","estrada.","","",""
"","null","html-keyboard-response","545","1719512","0.0-3.0-0.455-0.455","<span style= ""font-size:30px; font-family: monospace"">+</span>","null","fixation","","","","",""
"","976","html-keyboard-response","546","1720740","0.0-3.0-1.455","<span style=""font-size:30px; font-family: monospace"">Eu</span>"," ","","exp-sent","Eu","","",""
"","3045","html-keyboard-response","547","1724036","0.0-3.0-1.456","<span style=""font-size:30px; font-family: monospace"">cozinhei</span>"," ","","exp-sent","cozinhei","","",""
"","1013","html-keyboard-response","548","1725300","0.0-3.0-1.457","<span style=""font-size:30px; font-family: monospace"">um</span>"," ","","exp-sent","um","","",""
"","3205","html-keyboard-response","549","1728756","0.0-3.0-1.458","<span style=""font-size:30px; font-family: monospace"">almoço</span>"," ","","exp-sent","almoço","","",""
"","9685","html-keyboard-response","550","1738692","0.0-3.0-1.459","<span style=""font-size:30px; font-family: monospace"">nutritivo</span>"," ","","exp-sent","nutritivo","","",""
"","2150","html-keyboard-response","551","1741092","0.0-3.0-1.460","<span style=""font-size:30px; font-family: monospace"">para</span>"," ","","exp-sent","para","","",""
"","1460","html-keyboard-response","552","1742804","0.0-3.0-1.461","<span style=""font-size:30px; font-family: monospace"">hoje.</span>"," ","","comp","hoje.","","",""
"","12581","html-keyboard-response","553","1755636","0.0-3.0-2.461-0.461","<span style=""font-size:30px; font-family: monospace"">O almoço era nutritivo?</span>","n","","comp","","O almoço era nutritivo?","sim","false"
"","null","html-keyboard-response","554","1757138","0.0-3.0-0.462-0.462","<span style= ""font-size:30px; font-family: monospace"">+</span>","null","fixation","","","","",""
"","2384","html-keyboard-response","555","1759779","0.0-3.0-1.462","<span style=""font-size:30px; font-family: monospace"">Preciso</span>"," ","","exp-sent","Preciso","","",""
"","1061","html-keyboard-response","556","1761092","0.0-3.0-1.463","<span style=""font-size:30px; font-family: monospace"">de</span>"," ","","exp-sent","de","","",""
"","980","html-keyboard-response","557","1762324","0.0-3.0-1.464","<span style=""font-size:30px; font-family: monospace"">um</span>"," ","","exp-sent","um","","",""
"","4741","html-keyboard-response","558","1767316","0.0-3.0-1.465","<span style=""font-size:30px; font-family: monospace"">relatório</span>"," ","","exp-sent","relatório","","",""
"","1844","html-keyboard-response","559","1769411","0.0-3.0-1.466","<span style=""font-size:30px; font-family: monospace"">oficial</span>"," ","","exp-sent","oficial","","",""
"","981","html-keyboard-response","560","1770644","0.0-3.0-1.467","<span style=""font-size:30px; font-family: monospace"">para</span>"," ","","exp-sent","para","","",""
"","2997","html-keyboard-response","561","1773892","0.0-3.0-1.468","<span style=""font-size:30px; font-family: monospace"">amanhã.</span>"," ","","exp-sent","amanhã.","","",""
"","null","html-keyboard-response","562","1775144","0.0-3.0-0.469-0.469","<span style= ""font-size:30px; font-family: monospace"">+</span>","null","fixation","","","","",""
"","1153","html-keyboard-response","563","1776548","0.0-3.0-1.469","<span style=""font-size:30px; font-family: monospace"">Ele</span>"," ","","exp-sent","Ele","","",""
"","1221","html-keyboard-response","564","1778020","0.0-3.0-1.470","<span style=""font-size:30px; font-family: monospace"">viu</span>"," ","","exp-sent","viu","","",""
"","1269","html-keyboard-response","565","1779540","0.0-3.0-1.471","<span style=""font-size:30px; font-family: monospace"">um</span>"," ","","exp-sent","um","","",""
"","2500","html-keyboard-response","566","1782292","0.0-3.0-1.472","<span style=""font-size:30px; font-family: monospace"">inseto</span>"," ","","exp-sent","inseto","","",""
"","3445","html-keyboard-response","567","1785988","0.0-3.0-1.473","<span style=""font-size:30px; font-family: monospace"">marrom</span>"," ","","exp-sent","marrom","","",""
"","965","html-keyboard-response","568","1787204","0.0-3.0-1.474","<span style=""font-size:30px; font-family: monospace"">na</span>"," ","","exp-sent","na","","",""
"","3829","html-keyboard-response","569","1791284","0.0-3.0-1.475","<span style=""font-size:30px; font-family: monospace"">parede.</span>"," ","","exp-sent","parede.","","",""
"","null","html-keyboard-response","570","1792536","0.0-3.0-0.476-0.476","<span style= ""font-size:30px; font-family: monospace"">+</span>","null","fixation","","","","",""
"","800","html-keyboard-response","571","1793588","0.0-3.0-1.476","<span style=""font-size:30px; font-family: monospace"">O</span>"," ","","exp-sent","O","","",""
"","1397","html-keyboard-response","572","1795236","0.0-3.0-1.477","<span style=""font-size:30px; font-family: monospace"">avô</span>"," ","","exp-sent","avô","","",""
"","1877","html-keyboard-response","573","1797364","0.0-3.0-1.478","<span style=""font-size:30px; font-family: monospace"">fez</span>"," ","","exp-sent","fez","","",""
"","1253","html-keyboard-response","574","1798868","0.0-3.0-1.479","<span style=""font-size:30px; font-family: monospace"">uma</span>"," ","","exp-sent","uma","","",""
"","1605","html-keyboard-response","575","1800724","0.0-3.0-1.480","<span style=""font-size:30px; font-family: monospace"">lista</span>"," ","","exp-sent","lista","","",""
"","1061","html-keyboard-response","576","1802036","0.0-3.0-1.481","<span style=""font-size:30px; font-family: monospace"">de</span>"," ","","exp-sent","de","","",""
"","2357","html-keyboard-response","577","1804644","0.0-3.0-1.482","<span style=""font-size:30px; font-family: monospace"">compras</span>"," ","","exp-sent","compras","","",""
"","997","html-keyboard-response","578","1805891","0.0-3.0-1.483","<span style=""font-size:30px; font-family: monospace"">do</span>"," ","","exp-sent","do","","",""
"","2149","html-keyboard-response","579","1808292","0.0-3.0-1.484","<span style=""font-size:30px; font-family: monospace"">mercado.</span>"," ","","exp-sent","mercado.","","",""
"","null","html-keyboard-response","580","1809544","0.0-3.0-0.485-0.485","<span style= ""font-size:30px; font-family: monospace"">+</span>","null","fixation","","","","",""
"","833","html-keyboard-response","581","1810628","0.0-3.0-1.485","<span style=""font-size:30px; font-family: monospace"">As</span>"," ","","exp-sent","As","","",""
