"view_history","rt","trial_type","trial_index","time_elapsed","internal_node_id","stimulus","response","trial_part","word","question","answer","trial","accuracy"
"[{""page_index"":0,""viewing_time"":56495},{""page_index"":1,""viewing_time"":1895}]","58391","instructions","0","58392","0.0-0.0","","","","","","","",""
"","null","html-keyboard-response","1","59496","0.0-1.0-0.0-0.0","<span style= ""font-size:30px; font-family: monospace"">+</span>","null","fixation","","","","",""
"","3731","audio-keyboard-response","2","63616","0.0-1.0-1.0","../audio/prac-question-1-1.mp3"," ","","O","","","",""
"","10789","audio-keyboard-response","3","74688","0.0-1.0-1.1","../audio/prac-question-1-2.mp3"," ","","dia","","","",""
"","7952","audio-keyboard-response","4","82912","0.0-1.0-1.2","../audio/prac-question-1-3.mp3"," ","","estará","","","",""
"","5920","audio-keyboard-response","5","89103","0.0-1.0-1.3","../audio/prac-question-1-4.mp3"," ","","cheio","","","",""
"","4051","audio-keyboard-response","6","93424","0.0-1.0-1.4","../audio/prac-question-1-5.mp3"," ","","de","","","",""
"","7389","audio-keyboard-response","7","101088","0.0-1.0-1.5","../audio/prac-question-1-6.mp3"," ","","nuvens","","","",""
"","7672","audio-keyboard-response","8","109024","0.0-1.0-1.6","../audio/prac-question-1-7.mp3"," ","","hoje.","","","",""
"","null","html-keyboard-response","9","110301","0.0-1.0-0.7-0.7","<span style= ""font-size:30px; font-family: monospace"">+</span>","null","fixation","","","","",""
"","6149","audio-keyboard-response","10","116731","0.0-1.0-1.7","../audio/prac-question-2-1.mp3"," ","","A","","","",""
"","7520","audio-keyboard-response","11","124523","0.0-1.0-1.8","../audio/prac-question-2-2.mp3"," ","","caneca","","","",""
"","4141","audio-keyboard-response","12","128939","0.0-1.0-1.9","../audio/prac-question-2-3.mp3"," ","","colorida","","","",""
"","5709","audio-keyboard-response","13","134923","0.0-1.0-1.10","../audio/prac-question-2-4.mp3"," ","","caiu","","","",""
"","7840","audio-keyboard-response","14","143035","0.0-1.0-1.11","../audio/prac-question-2-5.mp3"," ","","da","","","",""
"","4229","audio-keyboard-response","15","147531","0.0-1.0-1.12","../audio/prac-question-2-6.mp3"," ","","mesa","","","",""
"","6149","audio-keyboard-response","16","153963","0.0-1.0-1.13","../audio/prac-question-2-7.mp3"," ","","de","","","",""
"","3312","audio-keyboard-response","17","157547","0.0-1.0-1.14","../audio/prac-question-2-8.mp3"," ","","jantar.","","","",""
"","20273","html-keyboard-response","18","178071","0.0-1.0-2.14-0.14","<span style=""font-size:25px; font-family: monospace"">A caneca era colorida?</span>","n","","","A caneca era colorida?","null","prac-sent","false"
"[{""page_index"":0,""viewing_time"":30171}]","30171","instructions","19","208743","0.0-2.0","","","","","","","",""
"","null","html-keyboard-response","20","209851","0.0-3.0-0.0-0.0","<span style= ""font-size:30px; font-family: monospace"">+</span>","null","fixation","","","","",""
"","8760","audio-keyboard-response","21","218999","0.0-3.0-1.0","../audio/61-1-masc.mp3"," ","","Aquele","","","",""
"","4128","audio-keyboard-response","22","223414","0.0-3.0-1.1","../audio/61-2-masc.mp3"," ","","senhor","","","",""
"","3219","audio-keyboard-response","23","226902","0.0-3.0-1.2","../audio/61-3-masc.mp3"," ","","é","","","",""
"","4691","audio-keyboard-response","24","231879","0.0-3.0-1.3","../audio/61-4-masc.mp3"," ","","muito","","","",""
"","3909","audio-keyboard-response","25","236071","0.0-3.0-1.4","../audio/61-5-masc.mp3"," ","","sovina","","","",""
"","5469","audio-keyboard-response","26","241817","0.0-3.0-1.5","../audio/61-6-masc.mp3"," ","","e","","","",""
"","3680","audio-keyboard-response","27","245785","0.0-3.0-1.6","../audio/61-7-masc.mp3"," ","","inflexível.","","","",""
"","null","html-keyboard-response","28","247051","0.0-3.0-0.7-0.7","<span style= ""font-size:30px; font-family: monospace"">+</span>","null","fixation","","","","",""
"","3920","audio-keyboard-response","29","251257","0.0-3.0-1.7","../audio/64-1-fem.mp3"," ","","O","","","",""
"","4872","audio-keyboard-response","30","256409","0.0-3.0-1.8","../audio/64-2-fem.mp3"," ","","dia","","","",""
"","6109","audio-keyboard-response","31","262793","0.0-3.0-1.9","../audio/64-3-fem.mp3"," ","","começou","","","",""
"","5091","audio-keyboard-response","32","268153","0.0-3.0-1.10","../audio/64-4-fem.mp3"," ","","com","","","",""
"","11128","audio-keyboard-response","33","279577","0.0-3.0-1.11","../audio/64-5-fem.mp3"," ","","garoa","","","",""
"","3939","audio-keyboard-response","34","283785","0.0-3.0-1.12","../audio/64-6-fem.mp3"," ","","gelada","","","",""
"","4520","audio-keyboard-response","35","288585","0.0-3.0-1.13","../audio/64-7-fem.mp3"," ","","e","","","",""
"","4051","audio-keyboard-response","36","292921","0.0-3.0-1.14","../audio/64-8-fem.mp3"," ","","leve.","","","",""
"","null","html-keyboard-response","37","294211","0.0-3.0-0.15-0.15","<span style= ""font-size:30px; font-family: monospace"">+</span>","null","fixation","","","","",""
"","3960","audio-keyboard-response","38","298457","0.0-3.0-1.15","../audio/63-1-fem.mp3"," ","","A","","","",""
"","5149","audio-keyboard-response","39","303887","0.0-3.0-1.16","../audio/63-2-fem.mp3"," ","","chuva","","","",""
"","3120","audio-keyboard-response","40","307279","0.0-3.0-1.17","../audio/63-3-fem.mp3"," ","","entrou","","","",""
"","2829","audio-keyboard-response","41","310383","0.0-3.0-1.18","../audio/63-4-fem.mp3"," ","","pela","","","",""
"","4000","audio-keyboard-response","42","314655","0.0-3.0-1.19","../audio/63-5-fem.mp3"," ","","abertura","","","",""
"","2629","audio-keyboard-response","43","317567","0.0-3.0-1.20","../audio/63-6-fem.mp3"," ","","na","","","",""
"","3051","audio-keyboard-response","44","320910","0.0-3.0-1.21","../audio/63-7-fem.mp3"," ","","janela.","","","",""
"","null","html-keyboard-response","45","322184","0.0-3.0-0.22-0.22","<span style= ""font-size:30px; font-family: monospace"">+</span>","null","fixation","","","","",""
"","18939","audio-keyboard-response","46","341391","0.0-3.0-1.22","../audio/62-1-masc.mp3"," ","","As","","","",""
"","3771","audio-keyboard-response","47","345455","0.0-3.0-1.23","../audio/62-2-masc.mp3"," ","","artesãs","","","",""
"","3560","audio-keyboard-response","48","349295","0.0-3.0-1.24","../audio/62-3-masc.mp3"," ","","gostam","","","",""
"","2659","audio-keyboard-response","49","352223","0.0-3.0-1.25","../audio/62-4-masc.mp3"," ","","de","","","",""
"","4251","audio-keyboard-response","50","356751","0.0-3.0-1.26","../audio/62-5-masc.mp3"," ","","maquiagem","","","",""
"","2640","audio-keyboard-response","51","359663","0.0-3.0-1.27","../audio/62-6-masc.mp3"," ","","e","","","",""
"","2571","audio-keyboard-response","52","362511","0.0-3.0-1.28","../audio/62-7-masc.mp3"," ","","de","","","",""
"","2800","audio-keyboard-response","53","365577","0.0-3.0-1.29","../audio/62-8-masc.mp3"," ","","crochê.","","","",""
"","null","html-keyboard-response","54","366845","0.0-3.0-0.30-0.30","<span style= ""font-size:30px; font-family: monospace"">+</span>","null","fixation","","","","",""
"","3168","audio-keyboard-response","55","370297","0.0-3.0-1.30","../audio/65-1-fem.mp3"," ","","O","","","",""
"","2800","audio-keyboard-response","56","373369","0.0-3.0-1.31","../audio/65-2-fem.mp3"," ","","fantasma","","","",""
"","3499","audio-keyboard-response","57","377145","0.0-3.0-1.32","../audio/65-3-fem.mp3"," ","","veio","","","",""
"","2720","audio-keyboard-response","58","380137","0.0-3.0-1.33","../audio/65-4-fem.mp3"," ","","da","","","",""
"","4651","audio-keyboard-response","59","385065","0.0-3.0-1.34","../audio/65-5-fem.mp3"," ","","escuridão","","","",""
"","4421","audio-keyboard-response","60","389753","0.0-3.0-1.35","../audio/65-6-fem.mp3"," ","","do","","","",""
"","5899","audio-keyboard-response","61","395945","0.0-3.0-1.36","../audio/65-7-fem.mp3"," ","","armário.","","","",""
"","6176","html-keyboard-response","62","402377","0.0-3.0-2.36-0.36","<span style=""font-size:25px; font-family: monospace"">O fantasma veio da escuridão do armário?</span>","n","","","O fantasma veio da escuridão do armário?","null","exp-sent","false"
"","null","html-keyboard-response","63","403911","0.0-3.0-0.37-0.37","<span style= ""font-size:30px; font-family: monospace"">+</span>","null","fixation","","","","",""
"","6899","audio-keyboard-response","64","411097","0.0-3.0-1.37","../audio/18-1-fem.mp3"," ","","O","","","",""
"","4712","audio-keyboard-response","65","416089","0.0-3.0-1.38","../audio/18-2-fem.mp3"," ","","enredo","","","",""
"","3949","audio-keyboard-response","66","420314","0.0-3.0-1.39","../audio/18-3-fem.mp3"," ","","traz","","","",""
"","3531","audio-keyboard-response","67","424121","0.0-3.0-1.40","../audio/18-4-fem.mp3"," ","","um","","","",""
"","5040","audio-keyboard-response","68","429447","0.0-3.0-1.41","../audio/18-5-fem.mp3"," ","","dragão","","","",""
"","4149","audio-keyboard-response","69","433863","0.0-3.0-1.42","../audio/18-6-fem.mp3"," ","","forte","","","",""
"","5611","audio-keyboard-response","70","439751","0.0-3.0-1.43","../audio/18-7-fem.mp3"," ","","e","","","",""
"","4088","audio-keyboard-response","71","444134","0.0-3.0-1.44","../audio/18-8-fem.mp3"," ","","solitário.","","","",""
"","null","html-keyboard-response","72","445398","0.0-3.0-0.45-0.45","<span style= ""font-size:30px; font-family: monospace"">+</span>","null","fixation","","","","",""
"","3080","audio-keyboard-response","73","448743","0.0-3.0-1.45","../audio/19-1-fem.mp3"," ","","O","","","",""
"","5240","audio-keyboard-response","74","454279","0.0-3.0-1.46","../audio/19-2-fem.mp3"," ","","menino","","","",""
"","3120","audio-keyboard-response","75","457670","0.0-3.0-1.47","../audio/19-3-fem.mp3"," ","","ganhou","","","",""
"","3371","audio-keyboard-response","76","461319","0.0-3.0-1.48","../audio/19-4-fem.mp3"," ","","uma","","","",""
"","3480","audio-keyboard-response","77","465079","0.0-3.0-1.49","../audio/19-5-fem.mp3"," ","","bala","","","",""
"","3040","audio-keyboard-response","78","468390","0.0-3.0-1.50","../audio/19-6-fem.mp3"," ","","depois","","","",""
"","3440","audio-keyboard-response","79","472102","0.0-3.0-1.51","../audio/19-7-fem.mp3"," ","","do","","","",""
"","3669","audio-keyboard-response","80","476055","0.0-3.0-1.52","../audio/19-8-fem.mp3"," ","","almoço.","","","",""
"","null","html-keyboard-response","81","477319","0.0-3.0-0.53-0.53","<span style= ""font-size:30px; font-family: monospace"">+</span>","null","fixation","","","","",""
"","3640","audio-keyboard-response","82","481238","0.0-3.0-1.53","../audio/17-1-fem.mp3"," ","","Falaram","","","",""
"","6379","audio-keyboard-response","83","487895","0.0-3.0-1.54","../audio/17-2-fem.mp3"," ","","da","","","",""
"","6101","audio-keyboard-response","84","494286","0.0-3.0-1.55","../audio/17-3-fem.mp3"," ","","lei","","","",""
"","5059","audio-keyboard-response","85","499630","0.0-3.0-1.56","../audio/17-4-fem.mp3"," ","","no","","","",""
"","9440","audio-keyboard-response","86","509343","0.0-3.0-1.57","../audio/17-5-fem.mp3"," ","","ministério","","","",""
"","6232","audio-keyboard-response","87","515854","0.0-3.0-1.58","../audio/17-6-fem.mp3"," ","","diversas","","","",""
"","4352","audio-keyboard-response","88","520494","0.0-3.0-1.59","../audio/17-7-fem.mp3"," ","","vezes.","","","",""
"","null","html-keyboard-response","89","521766","0.0-3.0-0.60-0.60","<span style= ""font-size:30px; font-family: monospace"">+</span>","null","fixation","","","","",""
"","4899","audio-keyboard-response","90","526942","0.0-3.0-1.60","../audio/16-1-masc.mp3"," ","","Eu","","","",""
"","3912","audio-keyboard-response","91","531134","0.0-3.0-1.61","../audio/16-2-masc.mp3"," ","","nunca","","","",""
"","4451","audio-keyboard-response","92","535854","0.0-3.0-1.62","../audio/16-3-masc.mp3"," ","","conheci","","","",""
"","2739","audio-keyboard-response","93","538862","0.0-3.0-1.63","../audio/16-4-masc.mp3"," ","","um","","","",""
"","4501","audio-keyboard-response","94","543646","0.0-3.0-1.64","../audio/16-5-masc.mp3"," ","","general","","","",""
"","3400","audio-keyboard-response","95","547326","0.0-3.0-1.65","../audio/16-6-masc.mp3"," ","","do","","","",""
"","3149","audio-keyboard-response","96","550750","0.0-3.0-1.66","../audio/16-7-masc.mp3"," ","","exército.","","","",""
"","null","html-keyboard-response","97","552018","0.0-3.0-0.67-0.67","<span style= ""font-size:30px; font-family: monospace"">+</span>","null","fixation","","","","",""
"","2992","audio-keyboard-response","98","555286","0.0-3.0-1.67","../audio/20-1-fem.mp3"," ","","O","","","",""
"","5309","audio-keyboard-response","99","560870","0.0-3.0-1.68","../audio/20-2-fem.mp3"," ","","colega","","","",""
"","4251","audio-keyboard-response","100","565399","0.0-3.0-1.69","../audio/20-3-fem.mp3"," ","","parecia","","","",""
"","3080","audio-keyboard-response","101","568758","0.0-3.0-1.70","../audio/20-4-fem.mp3"," ","","muito","","","",""
"","2800","audio-keyboard-response","102","571830","0.0-3.0-1.71","../audio/20-5-fem.mp3"," ","","gripado","","","",""
"","6280","audio-keyboard-response","103","578390","0.0-3.0-1.72","../audio/20-6-fem.mp3"," ","","no","","","",""
"","4320","audio-keyboard-response","104","582982","0.0-3.0-1.73","../audio/20-7-fem.mp3"," ","","dia","","","",""
"","6280","audio-keyboard-response","105","589542","0.0-3.0-1.74","../audio/20-8-fem.mp3"," ","","anterior.","","","",""
"","3478","html-keyboard-response","106","593286","0.0-3.0-2.74-0.74","<span style=""font-size:25px; font-family: monospace"">O colega parecia muito gripado?</span>","n","","","O colega parecia muito gripado?","null","exp-sent","false"
"","null","html-keyboard-response","107","594808","0.0-3.0-0.75-0.75","<span style= ""font-size:30px; font-family: monospace"">+</span>","null","fixation","","","","",""
"","7072","audio-keyboard-response","108","602166","0.0-3.0-1.75","../audio/07-1-fem.mp3"," ","","Meu","","","",""
"","3288","audio-keyboard-response","109","605734","0.0-3.0-1.76","../audio/07-2-fem.mp3"," ","","filho","","","",""
"","3560","audio-keyboard-response","110","609574","0.0-3.0-1.77","../audio/07-3-fem.mp3"," ","","é","","","",""
"","3040","audio-keyboard-response","111","612886","0.0-3.0-1.78","../audio/07-4-fem.mp3"," ","","muito","","","",""
"","5640","audio-keyboard-response","112","618807","0.0-3.0-1.79","../audio/07-5-fem.mp3"," ","","responsável","","","",""
"","2669","audio-keyboard-response","113","621751","0.0-3.0-1.80","../audio/07-6-fem.mp3"," ","","nos","","","",""
"","6960","audio-keyboard-response","114","628999","0.0-3.0-1.81","../audio/07-7-fem.mp3"," ","","estudos.","","","",""
"","null","html-keyboard-response","115","630287","0.0-3.0-0.82-0.82","<span style= ""font-size:30px; font-family: monospace"">+</span>","null","fixation","","","","",""
"","3549","audio-keyboard-response","116","634119","0.0-3.0-1.82","../audio/09-1-fem.mp3"," ","","O","","","",""
"","5709","audio-keyboard-response","117","640103","0.0-3.0-1.83","../audio/09-2-fem.mp3"," ","","rapaz","","","",""
"","5109","audio-keyboard-response","118","645495","0.0-3.0-1.84","../audio/09-3-fem.mp3"," ","","limpou","","","",""
"","3248","audio-keyboard-response","119","649015","0.0-3.0-1.85","../audio/09-4-fem.mp3"," ","","o","","","",""
"","3192","audio-keyboard-response","120","652487","0.0-3.0-1.86","../audio/09-5-fem.mp3"," ","","terreno","","","",""
"","4189","audio-keyboard-response","121","656950","0.0-3.0-1.87","../audio/09-6-fem.mp3"," ","","com","","","",""
"","3840","audio-keyboard-response","122","661063","0.0-3.0-1.88","../audio/09-7-fem.mp3"," ","","uma","","","",""
"","2352","audio-keyboard-response","123","663686","0.0-3.0-1.89","../audio/09-8-fem.mp3"," ","","pá.","","","",""
"","null","html-keyboard-response","124","664944","0.0-3.0-0.90-0.90","<span style= ""font-size:30px; font-family: monospace"">+</span>","null","fixation","","","","",""
"","5971","audio-keyboard-response","125","671191","0.0-3.0-1.90","../audio/06-1-fem.mp3"," ","","Ouvimos","","","",""
"","4051","audio-keyboard-response","126","675510","0.0-3.0-1.91","../audio/06-2-fem.mp3"," ","","a","","","",""
"","3021","audio-keyboard-response","127","678806","0.0-3.0-1.92","../audio/06-3-fem.mp3"," ","","fala","","","",""
"","3539","audio-keyboard-response","128","682623","0.0-3.0-1.93","../audio/06-4-fem.mp3"," ","","do","","","",""
"","2949","audio-keyboard-response","129","685839","0.0-3.0-1.94","../audio/06-5-fem.mp3"," ","","profeta","","","",""
"","2680","audio-keyboard-response","130","688798","0.0-3.0-1.95","../audio/06-6-fem.mp3"," ","","no","","","",""
"","4291","audio-keyboard-response","131","693358","0.0-3.0-1.96","../audio/06-7-fem.mp3"," ","","púlpito","","","",""
"","2800","audio-keyboard-response","132","696446","0.0-3.0-1.97","../audio/06-8-fem.mp3"," ","","da","","","",""
"","2379","audio-keyboard-response","133","699103","0.0-3.0-1.98","../audio/06-9-fem.mp3"," ","","igreja.","","","",""
"","null","html-keyboard-response","134","700376","0.0-3.0-0.99-0.99","<span style= ""font-size:30px; font-family: monospace"">+</span>","null","fixation","","","","",""
"","4101","audio-keyboard-response","135","704766","0.0-3.0-1.99","../audio/08-1-masc.mp3"," ","","A","","","",""
"","3499","audio-keyboard-response","136","708543","0.0-3.0-1.100","../audio/08-2-masc.mp3"," ","","receita","","","",""
"","5080","audio-keyboard-response","137","713902","0.0-3.0-1.101","../audio/08-3-masc.mp3"," ","","pede","","","",""
"","2829","audio-keyboard-response","138","717006","0.0-3.0-1.102","../audio/08-4-masc.mp3"," ","","um","","","",""
"","2989","audio-keyboard-response","139","720286","0.0-3.0-1.103","../audio/08-5-masc.mp3"," ","","litro","","","",""
"","6189","audio-keyboard-response","140","726767","0.0-3.0-1.104","../audio/08-6-masc.mp3"," ","","de","","","",""
"","3360","audio-keyboard-response","141","730398","0.0-3.0-1.105","../audio/08-7-masc.mp3"," ","","leite","","","",""
"","3560","audio-keyboard-response","142","734238","0.0-3.0-1.106","../audio/08-8-masc.mp3"," ","","integral.","","","",""
"","null","html-keyboard-response","143","735503","0.0-3.0-0.107-0.107","<span style= ""font-size:30px; font-family: monospace"">+</span>","null","fixation","","","","",""
"","3088","audio-keyboard-response","144","738863","0.0-3.0-1.107","../audio/10-1-fem.mp3"," ","","O","","","",""
"","3341","audio-keyboard-response","145","742479","0.0-3.0-1.108","../audio/10-2-fem.mp3"," ","","pássaro","","","",""
"","2771","audio-keyboard-response","146","745519","0.0-3.0-1.109","../audio/10-3-fem.mp3"," ","","azul","","","",""
"","2808","audio-keyboard-response","147","748623","0.0-3.0-1.110","../audio/10-4-fem.mp3"," ","","estava","","","",""
"","1992","audio-keyboard-response","148","750895","0.0-3.0-1.111","../audio/10-5-fem.mp3"," ","","vivo","","","",""
"","1560","audio-keyboard-response","149","752735","0.0-3.0-1.112","../audio/10-6-fem.mp3"," ","","e","","","",""
"","2469","audio-keyboard-response","150","755471","0.0-3.0-1.113","../audio/10-7-fem.mp3"," ","","em","","","",""
"","2349","audio-keyboard-response","151","758111","0.0-3.0-1.114","../audio/10-8-fem.mp3"," ","","segurança.","","","",""
"","4240","html-keyboard-response","152","762607","0.0-3.0-2.114-0.114","<span style=""font-size:25px; font-family: monospace"">O pássaro vermelho estava em segurança?</span>","s","","","O pássaro vermelho estava em segurança?","null","exp-sent","false"
"","null","html-keyboard-response","153","764136","0.0-3.0-0.115-0.115","<span style= ""font-size:30px; font-family: monospace"">+</span>","null","fixation","","","","",""
"","3640","audio-keyboard-response","154","768063","0.0-3.0-1.115","../audio/58-1-masc.mp3"," ","","Havia","","","",""
"","3680","audio-keyboard-response","155","772015","0.0-3.0-1.116","../audio/58-2-masc.mp3"," ","","apenas","","","",""
"","2189","audio-keyboard-response","156","774478","0.0-3.0-1.117","../audio/58-3-masc.mp3"," ","","um","","","",""
"","2480","audio-keyboard-response","157","777230","0.0-3.0-1.118","../audio/58-4-masc.mp3"," ","","último","","","",""
"","3691","audio-keyboard-response","158","781198","0.0-3.0-1.119","../audio/58-5-masc.mp3"," ","","herdeiro","","","",""
"","2451","audio-keyboard-response","159","783918","0.0-3.0-1.120","../audio/58-6-masc.mp3"," ","","do","","","",""
"","3699","audio-keyboard-response","160","787903","0.0-3.0-1.121","../audio/58-7-masc.mp3"," ","","dinheiro.","","","",""
"","null","html-keyboard-response","161","789186","0.0-3.0-0.122-0.122","<span style= ""font-size:30px; font-family: monospace"">+</span>","null","fixation","","","","",""
"","5229","audio-keyboard-response","162","794703","0.0-3.0-1.122","../audio/59-1-masc.mp3"," ","","O","","","",""
"","7360","audio-keyboard-response","163","802326","0.0-3.0-1.123","../audio/59-2-masc.mp3"," ","","carteiro","","","",""
"","6229","audio-keyboard-response","164","808822","0.0-3.0-1.124","../audio/59-3-masc.mp3"," ","","fez","","","",""
"","3632","audio-keyboard-response","165","812726","0.0-3.0-1.125","../audio/59-4-masc.mp3"," ","","uma","","","",""
"","3699","audio-keyboard-response","166","816695","0.0-3.0-1.126","../audio/59-5-masc.mp3"," ","","tentativa","","","",""
"","2251","audio-keyboard-response","167","819222","0.0-3.0-1.127","../audio/59-6-masc.mp3"," ","","de","","","",""
"","2480","audio-keyboard-response","168","821974","0.0-3.0-1.128","../audio/59-7-masc.mp3"," ","","entrega.","","","",""
"","null","html-keyboard-response","169","823250","0.0-3.0-0.129-0.129","<span style= ""font-size:30px; font-family: monospace"">+</span>","null","fixation","","","","",""
"","1901","audio-keyboard-response","170","825430","0.0-3.0-1.129","../audio/57-1-fem.mp3"," ","","O","","","",""
"","2640","audio-keyboard-response","171","828342","0.0-3.0-1.130","../audio/57-2-fem.mp3"," ","","capitão","","","",""
"","5501","audio-keyboard-response","172","834118","0.0-3.0-1.131","../audio/57-3-fem.mp3"," ","","deu","","","",""
"","1989","audio-keyboard-response","173","836390","0.0-3.0-1.132","../audio/57-4-fem.mp3"," ","","uma","","","",""
"","3440","audio-keyboard-response","174","840102","0.0-3.0-1.133","../audio/57-5-fem.mp3"," ","","instrução","","","",""
"","2501","audio-keyboard-response","175","842886","0.0-3.0-1.134","../audio/57-6-fem.mp3"," ","","para","","","",""
"","2309","audio-keyboard-response","176","845478","0.0-3.0-1.135","../audio/57-7-fem.mp3"," ","","as","","","",""
"","2720","audio-keyboard-response","177","848486","0.0-3.0-1.136","../audio/57-8-fem.mp3"," ","","pessoas.","","","",""
"","null","html-keyboard-response","178","849760","0.0-3.0-0.137-0.137","<span style= ""font-size:30px; font-family: monospace"">+</span>","null","fixation","","","","",""
"","3629","audio-keyboard-response","179","853654","0.0-3.0-1.137","../audio/56-1-masc.mp3"," ","","A","","","",""
"","2448","audio-keyboard-response","180","856374","0.0-3.0-1.138","../audio/56-2-masc.mp3"," ","","moça","","","",""
"","2861","audio-keyboard-response","181","859510","0.0-3.0-1.139","../audio/56-3-masc.mp3"," ","","foi","","","",""
"","2240","audio-keyboard-response","182","862038","0.0-3.0-1.140","../audio/56-4-masc.mp3"," ","","à","","","",""
"","2589","audio-keyboard-response","183","864926","0.0-3.0-1.141","../audio/56-5-masc.mp3"," ","","agência","","","",""
"","3000","audio-keyboard-response","184","868222","0.0-3.0-1.142","../audio/56-6-masc.mp3"," ","","bancária","","","",""
"","2792","audio-keyboard-response","185","871294","0.0-3.0-1.143","../audio/56-7-masc.mp3"," ","","ontem","","","",""
"","2459","audio-keyboard-response","186","874030","0.0-3.0-1.144","../audio/56-8-masc.mp3"," ","","de","","","",""
"","3181","audio-keyboard-response","187","877486","0.0-3.0-1.145","../audio/56-9-masc.mp3"," ","","tarde.","","","",""
"","null","html-keyboard-response","188","878765","0.0-3.0-0.146-0.146","<span style= ""font-size:30px; font-family: monospace"">+</span>","null","fixation","","","","",""
"","2731","audio-keyboard-response","189","881774","0.0-3.0-1.146","../audio/60-1-fem.mp3"," ","","Ondas","","","",""
"","6400","audio-keyboard-response","190","888446","0.0-3.0-1.147","../audio/60-2-fem.mp3"," ","","têm","","","",""
"","11869","audio-keyboard-response","191","900590","0.0-3.0-1.148","../audio/60-3-fem.mp3"," ","","um","","","",""
"","3429","audio-keyboard-response","192","904302","0.0-3.0-1.149","../audio/60-4-fem.mp3"," ","","impacto","","","",""
"","3211","audio-keyboard-response","193","907806","0.0-3.0-1.150","../audio/60-5-fem.mp3"," ","","destrutivo","","","",""
"","3040","audio-keyboard-response","194","911117","0.0-3.0-1.151","../audio/60-6-fem.mp3"," ","","no","","","",""
"","2309","audio-keyboard-response","195","913710","0.0-3.0-1.152","../audio/60-7-fem.mp3"," ","","litoral.","","","",""
"","27046","html-keyboard-response","196","941016","0.0-3.0-2.152-0.152","<span style=""font-size:25px; font-family: monospace"">Ondas têm um impacto destrutivo?</span>","n","","","Ondas têm um impacto destrutivo?","null","exp-sent","false"
"","null","html-keyboard-response","197","942539","0.0-3.0-0.153-0.153","<span style= ""font-size:30px; font-family: monospace"">+</span>","null","fixation","","","","",""
"","3392","audio-keyboard-response","198","946200","0.0-3.0-1.153","../audio/71-1-fem.mp3"," ","","Minhas","","","",""
"","1288","audio-keyboard-response","199","947768","0.0-3.0-1.154","../audio/71-2-fem.mp3"," ","","comidas","","","",""
"","4432","audio-keyboard-response","200","952472","0.0-3.0-1.155","../audio/71-3-fem.mp3"," ","","favoritas","","","",""
"","1408","audio-keyboard-response","201","954168","0.0-3.0-1.156","../audio/71-4-fem.mp3"," ","","são","","","",""
"","3072","audio-keyboard-response","202","957511","0.0-3.0-1.157","../audio/71-5-fem.mp3"," ","","morango","","","",""
"","3000","audio-keyboard-response","203","960791","0.0-3.0-1.158","../audio/71-6-fem.mp3"," ","","e","","","",""
"","3819","audio-keyboard-response","204","964888","0.0-3.0-1.159","../audio/71-7-fem.mp3"," ","","uva.","","","",""
"","null","html-keyboard-response","205","966169","0.0-3.0-0.160-0.160","<span style= ""font-size:30px; font-family: monospace"">+</span>","null","fixation","","","","",""
"","1312","audio-keyboard-response","206","967751","0.0-3.0-1.160","../audio/74-1-masc.mp3"," ","","Este","","","",""
"","2499","audio-keyboard-response","207","970536","0.0-3.0-1.161","../audio/74-2-masc.mp3"," ","","emprego","","","",""
"","1781","audio-keyboard-response","208","972600","0.0-3.0-1.162","../audio/74-3-masc.mp3"," ","","é","","","",""
"","1432","audio-keyboard-response","209","974312","0.0-3.0-1.163","../audio/74-4-masc.mp3"," ","","muito","","","",""
"","1488","audio-keyboard-response","210","976088","0.0-3.0-1.164","../audio/74-5-masc.mp3"," ","","cansativo","","","",""
"","1040","audio-keyboard-response","211","977400","0.0-3.0-1.165","../audio/74-6-masc.mp3"," ","","a","","","",""
"","1331","audio-keyboard-response","212","979016","0.0-3.0-1.166","../audio/74-7-masc.mp3"," ","","longo","","","",""
"","1189","audio-keyboard-response","213","980488","0.0-3.0-1.167","../audio/74-8-masc.mp3"," ","","prazo.","","","",""
"","null","html-keyboard-response","214","981759","0.0-3.0-0.168-0.168","<span style= ""font-size:30px; font-family: monospace"">+</span>","null","fixation","","","","",""
"","1139","audio-keyboard-response","215","983176","0.0-3.0-1.168","../audio/72-1-masc.mp3"," ","","A","","","",""
"","1021","audio-keyboard-response","216","984472","0.0-3.0-1.169","../audio/72-2-masc.mp3"," ","","vencedora","","","",""
"","1099","audio-keyboard-response","217","985848","0.0-3.0-1.170","../audio/72-3-masc.mp3"," ","","recebeu","","","",""
"","1000","audio-keyboard-response","218","987112","0.0-3.0-1.171","../audio/72-4-masc.mp3"," ","","um","","","",""
"","928","audio-keyboard-response","219","988328","0.0-3.0-1.172","../audio/72-5-masc.mp3"," ","","prêmio","","","",""
"","1059","audio-keyboard-response","220","989656","0.0-3.0-1.173","../audio/72-6-masc.mp3"," ","","em","","","",""
"","1080","audio-keyboard-response","221","991016","0.0-3.0-1.174","../audio/72-7-masc.mp3"," ","","dinheiro.","","","",""
"","null","html-keyboard-response","222","992289","0.0-3.0-0.175-0.175","<span style= ""font-size:30px; font-family: monospace"">+</span>","null","fixation","","","","",""
"","632","audio-keyboard-response","223","993191","0.0-3.0-1.175","../audio/73-1-fem.mp3"," ","","O","","","",""
"","811","audio-keyboard-response","224","994280","0.0-3.0-1.176","../audio/73-2-fem.mp3"," ","","cliente","","","",""
"","619","audio-keyboard-response","225","995176","0.0-3.0-1.177","../audio/73-3-fem.mp3"," ","","era","","","",""
"","1131","audio-keyboard-response","226","996584","0.0-3.0-1.178","../audio/73-4-fem.mp3"," ","","um","","","",""
"","931","audio-keyboard-response","227","997800","0.0-3.0-1.179","../audio/73-5-fem.mp3"," ","","homem","","","",""
"","1440","audio-keyboard-response","228","999528","0.0-3.0-1.180","../audio/73-6-fem.mp3"," ","","muito","","","",""
"","1488","audio-keyboard-response","229","1001286","0.0-3.0-1.181","../audio/73-7-fem.mp3"," ","","educado.","","","",""
"","null","html-keyboard-response","230","1002558","0.0-3.0-0.182-0.182","<span style= ""font-size:30px; font-family: monospace"">+</span>","null","fixation","","","","",""
"","499","audio-keyboard-response","231","1003334","0.0-3.0-1.182","../audio/75-1-masc.mp3"," ","","Só","","","",""
"","600","audio-keyboard-response","232","1004214","0.0-3.0-1.183","../audio/75-2-masc.mp3"," ","","existe","","","",""
"","600","audio-keyboard-response","233","1005094","0.0-3.0-1.184","../audio/75-3-masc.mp3"," ","","uma","","","",""
"","611","audio-keyboard-response","234","1005974","0.0-3.0-1.185","../audio/75-4-masc.mp3"," ","","pessoa","","","",""
"","632","audio-keyboard-response","235","1006870","0.0-3.0-1.186","../audio/75-5-masc.mp3"," ","","canhota","","","",""
"","811","audio-keyboard-response","236","1007958","0.0-3.0-1.187","../audio/75-6-masc.mp3"," ","","nesta","","","",""
"","952","audio-keyboard-response","237","1009190","0.0-3.0-1.188","../audio/75-7-masc.mp3"," ","","cidade.","","","",""
"","39518","html-keyboard-response","238","1048966","0.0-3.0-2.188-0.188","<span style=""font-size:25px; font-family: monospace"">Só existe uma pessoa canhota na cidade?</span>","s","","","Só existe uma pessoa canhota na cidade?","null","exp-sent","false"
"","null","html-keyboard-response","239","1050467","0.0-3.0-0.189-0.189","<span style= ""font-size:30px; font-family: monospace"">+</span>","null","fixation","","","","",""
"","1549","audio-keyboard-response","240","1052406","0.0-3.0-1.189","../audio/42-1-masc.mp3"," ","","Eu","","","",""
"","2541","audio-keyboard-response","241","1055222","0.0-3.0-1.190","../audio/42-2-masc.mp3"," ","","fui","","","",""
"","1539","audio-keyboard-response","242","1057030","0.0-3.0-1.191","../audio/42-3-masc.mp3"," ","","a","","","",""
"","872","audio-keyboard-response","243","1058182","0.0-3.0-1.192","../audio/42-4-masc.mp3"," ","","uma","","","",""
"","899","audio-keyboard-response","244","1059366","0.0-3.0-1.193","../audio/42-5-masc.mp3"," ","","loja","","","",""
"","941","audio-keyboard-response","245","1060582","0.0-3.0-1.194","../audio/42-6-masc.mp3"," ","","de","","","",""
"","789","audio-keyboard-response","246","1061655","0.0-3.0-1.195","../audio/42-7-masc.mp3"," ","","móveis","","","",""
"","709","audio-keyboard-response","247","1062647","0.0-3.0-1.196","../audio/42-8-masc.mp3"," ","","no","","","",""
"","800","audio-keyboard-response","248","1063719","0.0-3.0-1.197","../audio/42-9-masc.mp3"," ","","bairro.","","","",""
"","null","html-keyboard-response","249","1064988","0.0-3.0-0.198-0.198","<span style= ""font-size:30px; font-family: monospace"">+</span>","null","fixation","","","","",""
"","491","audio-keyboard-response","250","1065767","0.0-3.0-1.198","../audio/44-1-fem.mp3"," ","","Meus","","","",""
"","531","audio-keyboard-response","251","1066567","0.0-3.0-1.199","../audio/44-2-fem.mp3"," ","","irmãos","","","",""
"","440","audio-keyboard-response","252","1067271","0.0-3.0-1.200","../audio/44-3-fem.mp3"," ","","brigam","","","",""
"","459","audio-keyboard-response","253","1068007","0.0-3.0-1.201","../audio/44-4-fem.mp3"," ","","por","","","",""
"","571","audio-keyboard-response","254","1068855","0.0-3.0-1.202","../audio/44-5-fem.mp3"," ","","bobagem","","","",""
"","549","audio-keyboard-response","255","1069687","0.0-3.0-1.203","../audio/44-6-fem.mp3"," ","","todos","","","",""
"","491","audio-keyboard-response","256","1070455","0.0-3.0-1.204","../audio/44-7-fem.mp3"," ","","os","","","",""
"","491","audio-keyboard-response","257","1071223","0.0-3.0-1.205","../audio/44-8-fem.mp3"," ","","dias.","","","",""
"","null","html-keyboard-response","258","1072488","0.0-3.0-0.206-0.206","<span style= ""font-size:30px; font-family: monospace"">+</span>","null","fixation","","","","",""
"","331","audio-keyboard-response","259","1073095","0.0-3.0-1.206","../audio/41-1-masc.mp3"," ","","A","","","",""
"","581","audio-keyboard-response","260","1073943","0.0-3.0-1.207","../audio/41-2-masc.mp3"," ","","novela","","","",""
"","669","audio-keyboard-response","261","1074887","0.0-3.0-1.208","../audio/41-3-masc.mp3"," ","","falava","","","",""
"","731","audio-keyboard-response","262","1075895","0.0-3.0-1.209","../audio/41-4-masc.mp3"," ","","de","","","",""
"","720","audio-keyboard-response","263","1076887","0.0-3.0-1.210","../audio/41-5-masc.mp3"," ","","paixão","","","",""
"","589","audio-keyboard-response","264","1077751","0.0-3.0-1.211","../audio/41-6-masc.mp3"," ","","e","","","",""
"","608","audio-keyboard-response","265","1078631","0.0-3.0-1.212","../audio/41-7-masc.mp3"," ","","comédia.","","","",""
"","null","html-keyboard-response","266","1079908","0.0-3.0-0.213-0.213","<span style= ""font-size:30px; font-family: monospace"">+</span>","null","fixation","","","","",""
"","480","audio-keyboard-response","267","1080663","0.0-3.0-1.213","../audio/43-1-masc.mp3"," ","","Eu","","","",""
"","459","audio-keyboard-response","268","1081399","0.0-3.0-1.214","../audio/43-2-masc.mp3"," ","","achei","","","",""
"","360","audio-keyboard-response","269","1082039","0.0-3.0-1.215","../audio/43-3-masc.mp3"," ","","um","","","",""
"","440","audio-keyboard-response","270","1082759","0.0-3.0-1.216","../audio/43-4-masc.mp3"," ","","colchão","","","",""
"","611","audio-keyboard-response","271","1083639","0.0-3.0-1.217","../audio/43-5-masc.mp3"," ","","velho","","","",""
"","512","audio-keyboard-response","272","1084423","0.0-3.0-1.218","../audio/43-6-masc.mp3"," ","","e","","","",""
"","549","audio-keyboard-response","273","1085239","0.0-3.0-1.219","../audio/43-7-masc.mp3"," ","","imundo","","","",""
"","491","audio-keyboard-response","274","1086007","0.0-3.0-1.220","../audio/43-8-masc.mp3"," ","","na","","","",""
"","520","audio-keyboard-response","275","1086807","0.0-3.0-1.221","../audio/43-9-masc.mp3"," ","","casa.","","","",""
"","null","html-keyboard-response","276","1088078","0.0-3.0-0.222-0.222","<span style= ""font-size:30px; font-family: monospace"">+</span>","null","fixation","","","","",""
"","251","audio-keyboard-response","277","1088615","0.0-3.0-1.222","../audio/45-1-fem.mp3"," ","","O","","","",""
"","501","audio-keyboard-response","278","1089383","0.0-3.0-1.223","../audio/45-2-fem.mp3"," ","","homem","","","",""
"","520","audio-keyboard-response","279","1090183","0.0-3.0-1.224","../audio/45-3-fem.mp3"," ","","pagou","","","",""
"","549","audio-keyboard-response","280","1091015","0.0-3.0-1.225","../audio/45-4-fem.mp3"," ","","o","","","",""
"","640","audio-keyboard-response","281","1091927","0.0-3.0-1.226","../audio/45-5-fem.mp3"," ","","aluguel","","","",""
"","661","audio-keyboard-response","282","1092855","0.0-3.0-1.227","../audio/45-6-fem.mp3"," ","","com","","","",""
"","709","audio-keyboard-response","283","1093847","0.0-3.0-1.228","../audio/45-7-fem.mp3"," ","","atraso.","","","",""
"","7349","html-keyboard-response","284","1101447","0.0-3.0-2.228-0.228","<span style=""font-size:25px; font-family: monospace"">O homem pagou o aluguel em dia?</span>","s","","","O homem pagou o aluguel em dia?","null","exp-sent","false"
"","null","html-keyboard-response","285","1102978","0.0-3.0-0.229-0.229","<span style= ""font-size:30px; font-family: monospace"">+</span>","null","fixation","","","","",""
"","1189","audio-keyboard-response","286","1104455","0.0-3.0-1.229","../audio/68-1-masc.mp3"," ","","Meu","","","",""
"","869","audio-keyboard-response","287","1105591","0.0-3.0-1.230","../audio/68-2-masc.mp3"," ","","irmão","","","",""
"","819","audio-keyboard-response","288","1106679","0.0-3.0-1.231","../audio/68-3-masc.mp3"," ","","teve","","","",""
"","891","audio-keyboard-response","289","1107847","0.0-3.0-1.232","../audio/68-4-masc.mp3"," ","","um","","","",""
"","821","audio-keyboard-response","290","1108935","0.0-3.0-1.233","../audio/68-5-masc.mp3"," ","","noivado","","","",""
"","840","audio-keyboard-response","291","1110055","0.0-3.0-1.234","../audio/68-6-masc.mp3"," ","","longo","","","",""
"","589","audio-keyboard-response","292","1110919","0.0-3.0-1.235","../audio/68-7-masc.mp3"," ","","e","","","",""
"","512","audio-keyboard-response","293","1111703","0.0-3.0-1.236","../audio/68-8-masc.mp3"," ","","maravilhoso.","","","",""
"","null","html-keyboard-response","294","1112978","0.0-3.0-0.237-0.237","<span style= ""font-size:30px; font-family: monospace"">+</span>","null","fixation","","","","",""
"","349","audio-keyboard-response","295","1113591","0.0-3.0-1.237","../audio/69-1-masc.mp3"," ","","A","","","",""
"","509","audio-keyboard-response","296","1114375","0.0-3.0-1.238","../audio/69-2-masc.mp3"," ","","loja","","","",""
"","531","audio-keyboard-response","297","1115175","0.0-3.0-1.239","../audio/69-3-masc.mp3"," ","","recebeu","","","",""
"","531","audio-keyboard-response","298","1115975","0.0-3.0-1.240","../audio/69-4-masc.mp3"," ","","uma","","","",""
"","600","audio-keyboard-response","299","1116839","0.0-3.0-1.241","../audio/69-5-masc.mp3"," ","","poltrona","","","",""
"","541","audio-keyboard-response","300","1117655","0.0-3.0-1.242","../audio/69-6-masc.mp3"," ","","de","","","",""
"","571","audio-keyboard-response","301","1118503","0.0-3.0-1.243","../audio/69-7-masc.mp3"," ","","couro","","","",""
"","528","audio-keyboard-response","302","1119319","0.0-3.0-1.244","../audio/69-8-masc.mp3"," ","","preto.","","","",""
"","null","html-keyboard-response","303","1120588","0.0-3.0-0.245-0.245","<span style= ""font-size:30px; font-family: monospace"">+</span>","null","fixation","","","","",""
"","168","audio-keyboard-response","304","1121031","0.0-3.0-1.245","../audio/66-1-fem.mp3"," ","","Não","","","",""
"","632","audio-keyboard-response","305","1121945","0.0-3.0-1.246","../audio/66-2-fem.mp3"," ","","gosto","","","",""
"","531","audio-keyboard-response","306","1122745","0.0-3.0-1.247","../audio/66-3-fem.mp3"," ","","de","","","",""
"","509","audio-keyboard-response","307","1123529","0.0-3.0-1.248","../audio/66-4-fem.mp3"," ","","gente","","","",""
"","501","audio-keyboard-response","308","1124297","0.0-3.0-1.249","../audio/66-5-fem.mp3"," ","","egoísta","","","",""
"","611","audio-keyboard-response","309","1125177","0.0-3.0-1.250","../audio/66-6-fem.mp3"," ","","nem","","","",""
"","560","audio-keyboard-response","310","1126009","0.0-3.0-1.251","../audio/66-7-fem.mp3"," ","","chata.","","","",""
"","null","html-keyboard-response","311","1127270","0.0-3.0-0.252-0.252","<span style= ""font-size:30px; font-family: monospace"">+</span>","null","fixation","","","","",""
"","451","audio-keyboard-response","312","1128009","0.0-3.0-1.252","../audio/67-1-fem.mp3"," ","","Minha","","","",""
"","571","audio-keyboard-response","313","1128857","0.0-3.0-1.253","../audio/67-2-fem.mp3"," ","","tia","","","",""
"","531","audio-keyboard-response","314","1129657","0.0-3.0-1.254","../audio/67-3-fem.mp3"," ","","comprou","","","",""
"","589","audio-keyboard-response","315","1130521","0.0-3.0-1.255","../audio/67-4-fem.mp3"," ","","um","","","",""
"","531","audio-keyboard-response","316","1131321","0.0-3.0-1.256","../audio/67-5-fem.mp3"," ","","cordão","","","",""
"","520","audio-keyboard-response","317","1132105","0.0-3.0-1.257","../audio/67-6-fem.mp3"," ","","para","","","",""
"","499","audio-keyboard-response","318","1132889","0.0-3.0-1.258","../audio/67-7-fem.mp3"," ","","o","","","",""
"","360","audio-keyboard-response","319","1133512","0.0-3.0-1.259","../audio/67-8-fem.mp3"," ","","varal.","","","",""
"","null","html-keyboard-response","320","1134780","0.0-3.0-0.260-0.260","<span style= ""font-size:30px; font-family: monospace"">+</span>","null","fixation","","","","",""
"","328","audio-keyboard-response","321","1135401","0.0-3.0-1.260","../audio/70-1-fem.mp3"," ","","O","","","",""
"","581","audio-keyboard-response","322","1136265","0.0-3.0-1.261","../audio/70-2-fem.mp3"," ","","meu","","","",""
"","589","audio-keyboard-response","323","1137129","0.0-3.0-1.262","../audio/70-3-fem.mp3"," ","","filho","","","",""
"","741","audio-keyboard-response","324","1138137","0.0-3.0-1.263","../audio/70-4-fem.mp3"," ","","tem","","","",""
"","629","audio-keyboard-response","325","1139049","0.0-3.0-1.264","../audio/70-5-fem.mp3"," ","","medo","","","",""
"","611","audio-keyboard-response","326","1139929","0.0-3.0-1.265","../audio/70-6-fem.mp3"," ","","de","","","",""
"","611","audio-keyboard-response","327","1140809","0.0-3.0-1.266","../audio/70-7-fem.mp3"," ","","enguia","","","",""
"","661","audio-keyboard-response","328","1141737","0.0-3.0-1.267","../audio/70-8-fem.mp3"," ","","e","","","",""
"","960","audio-keyboard-response","329","1142985","0.0-3.0-1.268","../audio/70-9-fem.mp3"," ","","beija-flor.","","","",""
"","20641","html-keyboard-response","330","1163881","0.0-3.0-2.268-0.268","<span style=""font-size:25px; font-family: monospace"">O filho tem medo de tigre?</span>","s","","","O filho tem medo de tigre?","null","exp-sent","false"
"","null","html-keyboard-response","331","1165410","0.0-3.0-0.269-0.269","<span style= ""font-size:30px; font-family: monospace"">+</span>","null","fixation","","","","",""
"","11","audio-keyboard-response","332","1165705","0.0-3.0-1.269","../audio/12-1-masc.mp3"," ","","O","","","",""
"","888","audio-keyboard-response","333","1166873","0.0-3.0-1.270","../audio/12-2-masc.mp3"," ","","dia","","","",""
"","741","audio-keyboard-response","334","1167897","0.0-3.0-1.271","../audio/12-3-masc.mp3"," ","","estava","","","",""
"","720","audio-keyboard-response","335","1168889","0.0-3.0-1.272","../audio/12-4-masc.mp3"," ","","quente,","","","",""
"","712","audio-keyboard-response","336","1169865","0.0-3.0-1.273","../audio/12-5-masc.mp3"," ","","tranquilo","","","",""
"","760","audio-keyboard-response","337","1170905","0.0-3.0-1.274","../audio/12-6-masc.mp3"," ","","e","","","",""
"","931","audio-keyboard-response","338","1172105","0.0-3.0-1.275","../audio/12-7-masc.mp3"," ","","ensolarado.","","","",""
"","null","html-keyboard-response","339","1173390","0.0-3.0-0.276-0.276","<span style= ""font-size:30px; font-family: monospace"">+</span>","null","fixation","","","","",""
"","120","audio-keyboard-response","340","1173801","0.0-3.0-1.276","../audio/11-1-fem.mp3"," ","","Elas","","","",""
"","549","audio-keyboard-response","341","1174633","0.0-3.0-1.277","../audio/11-2-fem.mp3"," ","","gostam","","","",""
"","552","audio-keyboard-response","342","1175465","0.0-3.0-1.278","../audio/11-3-fem.mp3"," ","","muito","","","",""
"","589","audio-keyboard-response","343","1176328","0.0-3.0-1.279","../audio/11-4-fem.mp3"," ","","de","","","",""
"","621","audio-keyboard-response","344","1177224","0.0-3.0-1.280","../audio/11-5-fem.mp3"," ","","aritmética","","","",""
"","691","audio-keyboard-response","345","1178185","0.0-3.0-1.281","../audio/11-6-fem.mp3"," ","","e","","","",""
"","709","audio-keyboard-response","346","1179177","0.0-3.0-1.282","../audio/11-7-fem.mp3"," ","","de","","","",""
"","669","audio-keyboard-response","347","1180120","0.0-3.0-1.283","../audio/11-8-fem.mp3"," ","","leitura.","","","",""
"","null","html-keyboard-response","348","1181400","0.0-3.0-0.284-0.284","<span style= ""font-size:30px; font-family: monospace"">+</span>","null","fixation","","","","",""
"","549","audio-keyboard-response","349","1182235","0.0-3.0-1.284","../audio/14-1-masc.mp3"," ","","O","","","",""
"","760","audio-keyboard-response","350","1183275","0.0-3.0-1.285","../audio/14-2-masc.mp3"," ","","cachorro","","","",""
"","720","audio-keyboard-response","351","1184267","0.0-3.0-1.286","../audio/14-3-masc.mp3"," ","","é","","","",""
"","739","audio-keyboard-response","352","1185291","0.0-3.0-1.287","../audio/14-4-masc.mp3"," ","","muito","","","",""
"","680","audio-keyboard-response","353","1186251","0.0-3.0-1.288","../audio/14-5-masc.mp3"," ","","fiel","","","",""
"","651","audio-keyboard-response","354","1187163","0.0-3.0-1.289","../audio/14-6-masc.mp3"," ","","a","","","",""
"","651","audio-keyboard-response","355","1188091","0.0-3.0-1.290","../audio/14-7-masc.mp3"," ","","seus","","","",""
"","651","audio-keyboard-response","356","1189019","0.0-3.0-1.291","../audio/14-8-masc.mp3"," ","","donos.","","","",""
"","null","html-keyboard-response","357","1190292","0.0-3.0-0.292-0.292","<span style= ""font-size:30px; font-family: monospace"">+</span>","null","fixation","","","","",""
"","451","audio-keyboard-response","358","1191019","0.0-3.0-1.292","../audio/13-1-masc.mp3"," ","","Para","","","",""
"","709","audio-keyboard-response","359","1192011","0.0-3.0-1.293","../audio/13-2-masc.mp3"," ","","mim","","","",""
"","760","audio-keyboard-response","360","1193051","0.0-3.0-1.294","../audio/13-3-masc.mp3"," ","","é","","","",""
"","800","audio-keyboard-response","361","1194139","0.0-3.0-1.295","../audio/13-4-masc.mp3"," ","","muito","","","",""
"","939","audio-keyboard-response","362","1195355","0.0-3.0-1.296","../audio/13-5-masc.mp3"," ","","difícil","","","",""
"","952","audio-keyboard-response","363","1196587","0.0-3.0-1.297","../audio/13-6-masc.mp3"," ","","acordar","","","",""
"","899","audio-keyboard-response","364","1197771","0.0-3.0-1.298","../audio/13-7-masc.mp3"," ","","cedo.","","","",""
"","null","html-keyboard-response","365","1199042","0.0-3.0-0.299-0.299","<span style= ""font-size:30px; font-family: monospace"">+</span>","null","fixation","","","","",""
"","392","audio-keyboard-response","366","1199707","0.0-3.0-1.299","../audio/15-1-masc.mp3"," ","","Meu","","","",""
"","469","audio-keyboard-response","367","1200459","0.0-3.0-1.300","../audio/15-2-masc.mp3"," ","","primo","","","",""
"","640","audio-keyboard-response","368","1201371","0.0-3.0-1.301","../audio/15-3-masc.mp3"," ","","é","","","",""
"","589","audio-keyboard-response","369","1202235","0.0-3.0-1.302","../audio/15-4-masc.mp3"," ","","um","","","",""
"","640","audio-keyboard-response","370","1203163","0.0-3.0-1.303","../audio/15-5-masc.mp3"," ","","grande","","","",""
"","571","audio-keyboard-response","371","1204011","0.0-3.0-1.304","../audio/15-6-masc.mp3"," ","","vendedor","","","",""
"","637","audio-keyboard-response","372","1204923","0.0-3.0-1.305","../audio/15-7-masc.mp3"," ","","de","","","",""
"","621","audio-keyboard-response","373","1205819","0.0-3.0-1.306","../audio/15-8-masc.mp3"," ","","carros.","","","",""
"","18057","html-keyboard-response","374","1224139","0.0-3.0-2.306-0.306","<span style=""font-size:25px; font-family: monospace"">O primo é um vendedor de carros?</span>","s","","","O primo é um vendedor de carros?","null","exp-sent","false"
"","null","html-keyboard-response","375","1225662","0.0-3.0-0.307-0.307","<span style= ""font-size:30px; font-family: monospace"">+</span>","null","fixation","","","","",""
"","1328","audio-keyboard-response","376","1227275","0.0-3.0-1.307","../audio/76-1-fem.mp3"," ","","O","","","",""
"","771","audio-keyboard-response","377","1228331","0.0-3.0-1.308","../audio/76-2-fem.mp3"," ","","bisavô","","","",""
"","632","audio-keyboard-response","378","1229227","0.0-3.0-1.309","../audio/76-3-fem.mp3"," ","","comprou","","","",""
"","789","audio-keyboard-response","379","1230283","0.0-3.0-1.310","../audio/76-4-fem.mp3"," ","","um","","","",""
"","709","audio-keyboard-response","380","1231275","0.0-3.0-1.311","../audio/76-5-fem.mp3"," ","","ralador","","","",""
"","579","audio-keyboard-response","381","1232123","0.0-3.0-1.312","../audio/76-6-fem.mp3"," ","","de","","","",""
"","520","audio-keyboard-response","382","1232923","0.0-3.0-1.313","../audio/76-7-fem.mp3"," ","","queijo.","","","",""
"","null","html-keyboard-response","383","1234192","0.0-3.0-0.314-0.314","<span style= ""font-size:30px; font-family: monospace"">+</span>","null","fixation","","","","",""
"","549","audio-keyboard-response","384","1235035","0.0-3.0-1.314","../audio/79-1-fem.mp3"," ","","A","","","",""
"","680","audio-keyboard-response","385","1235995","0.0-3.0-1.315","../audio/79-2-fem.mp3"," ","","médica","","","",""
"","1571","audio-keyboard-response","386","1237851","0.0-3.0-1.316","../audio/79-3-fem.mp3"," ","","verificou","","","",""
"","632","audio-keyboard-response","387","1238747","0.0-3.0-1.317","../audio/79-4-fem.mp3"," ","","a","","","",""
"","640","audio-keyboard-response","388","1239659","0.0-3.0-1.318","../audio/79-5-fem.mp3"," ","","gengiva","","","",""
"","709","audio-keyboard-response","389","1240651","0.0-3.0-1.319","../audio/79-6-fem.mp3"," ","","por","","","",""
"","741","audio-keyboard-response","390","1241659","0.0-3.0-1.320","../audio/79-7-fem.mp3"," ","","último.","","","",""
"","null","html-keyboard-response","391","1242934","0.0-3.0-0.321-0.321","<span style= ""font-size:30px; font-family: monospace"">+</span>","null","fixation","","","","",""
"","651","audio-keyboard-response","392","1243854","0.0-3.0-1.321","../audio/77-1-fem.mp3"," ","","A","","","",""
"","771","audio-keyboard-response","393","1244910","0.0-3.0-1.322","../audio/77-2-fem.mp3"," ","","criança","","","",""
"","1059","audio-keyboard-response","394","1246254","0.0-3.0-1.323","../audio/77-3-fem.mp3"," ","","ficou","","","",""
"","749","audio-keyboard-response","395","1247294","0.0-3.0-1.324","../audio/77-4-fem.mp3"," ","","muito","","","",""
"","651","audio-keyboard-response","396","1248222","0.0-3.0-1.325","../audio/77-5-fem.mp3"," ","","feliz","","","",""
"","549","audio-keyboard-response","397","1249038","0.0-3.0-1.326","../audio/77-6-fem.mp3"," ","","com","","","",""
"","619","audio-keyboard-response","398","1249918","0.0-3.0-1.327","../audio/77-7-fem.mp3"," ","","o","","","",""
"","560","audio-keyboard-response","399","1250750","0.0-3.0-1.328","../audio/77-8-fem.mp3"," ","","brinquedo.","","","",""
"","null","html-keyboard-response","400","1252014","0.0-3.0-0.329-0.329","<span style= ""font-size:30px; font-family: monospace"">+</span>","null","fixation","","","","",""
"","411","audio-keyboard-response","401","1252702","0.0-3.0-1.329","../audio/78-1-fem.mp3"," ","","Eles","","","",""
"","581","audio-keyboard-response","402","1253550","0.0-3.0-1.330","../audio/78-2-fem.mp3"," ","","trazem","","","",""
"","640","audio-keyboard-response","403","1254446","0.0-3.0-1.331","../audio/78-3-fem.mp3"," ","","um","","","",""
"","621","audio-keyboard-response","404","1255342","0.0-3.0-1.332","../audio/78-4-fem.mp3"," ","","fato","","","",""
"","619","audio-keyboard-response","405","1256238","0.0-3.0-1.333","../audio/78-5-fem.mp3"," ","","urgente","","","",""
"","619","audio-keyboard-response","406","1257134","0.0-3.0-1.334","../audio/78-6-fem.mp3"," ","","todos","","","",""
"","712","audio-keyboard-response","407","1258110","0.0-3.0-1.335","../audio/78-7-fem.mp3"," ","","os","","","",""
"","709","audio-keyboard-response","408","1259102","0.0-3.0-1.336","../audio/78-8-fem.mp3"," ","","dias.","","","",""
"","null","html-keyboard-response","409","1260355","0.0-3.0-0.337-0.337","<span style= ""font-size:30px; font-family: monospace"">+</span>","null","fixation","","","","",""
"","840","audio-keyboard-response","410","1261486","0.0-3.0-1.337","../audio/80-1-fem.mp3"," ","","Meu","","","",""
"","669","audio-keyboard-response","411","1262446","0.0-3.0-1.338","../audio/80-2-fem.mp3"," ","","primo","","","",""
"","600","audio-keyboard-response","412","1263326","0.0-3.0-1.339","../audio/80-3-fem.mp3"," ","","conheceu","","","",""
"","720","audio-keyboard-response","413","1264318","0.0-3.0-1.340","../audio/80-4-fem.mp3"," ","","um","","","",""
"","731","audio-keyboard-response","414","1265326","0.0-3.0-1.341","../audio/80-5-fem.mp3"," ","","jovem","","","",""
"","640","audio-keyboard-response","415","1266238","0.0-3.0-1.342","../audio/80-6-fem.mp3"," ","","amável","","","",""
"","472","audio-keyboard-response","416","1266990","0.0-3.0-1.343","../audio/80-7-fem.mp3"," ","","e","","","",""
"","499","audio-keyboard-response","417","1267774","0.0-3.0-1.344","../audio/80-8-fem.mp3"," ","","confiante.","","","",""
"","33642","html-keyboard-response","418","1301678","0.0-3.0-2.344-0.344","<span style=""font-size:25px; font-family: monospace"">O primo conheceu um jovem irritante?</span>","s","","","O primo conheceu um jovem irritante?","null","exp-sent","false"
"","null","html-keyboard-response","419","1303179","0.0-3.0-0.345-0.345","<span style= ""font-size:30px; font-family: monospace"">+</span>","null","fixation","","","","",""
"","3621","audio-keyboard-response","420","1307182","0.0-3.0-1.345","../audio/22-1-fem.mp3"," ","","Eu","","","",""
"","800","audio-keyboard-response","421","1308253","0.0-3.0-1.346","../audio/22-2-fem.mp3"," ","","detesto","","","",""
"","739","audio-keyboard-response","422","1309278","0.0-3.0-1.347","../audio/22-3-fem.mp3"," ","","fumaça","","","",""
"","720","audio-keyboard-response","423","1310269","0.0-3.0-1.348","../audio/22-4-fem.mp3"," ","","de","","","",""
"","680","audio-keyboard-response","424","1311214","0.0-3.0-1.349","../audio/22-5-fem.mp3"," ","","cachimbo","","","",""
"","611","audio-keyboard-response","425","1312094","0.0-3.0-1.350","../audio/22-6-fem.mp3"," ","","e","","","",""
"","619","audio-keyboard-response","426","1312990","0.0-3.0-1.351","../audio/22-7-fem.mp3"," ","","de","","","",""
"","720","audio-keyboard-response","427","1313982","0.0-3.0-1.352","../audio/22-8-fem.mp3"," ","","cigarro.","","","",""
"","null","html-keyboard-response","428","1315252","0.0-3.0-0.353-0.353","<span style= ""font-size:30px; font-family: monospace"">+</span>","null","fixation","","","","",""
"","400","audio-keyboard-response","429","1315934","0.0-3.0-1.353","../audio/24-1-fem.mp3"," ","","As","","","",""
"","720","audio-keyboard-response","430","1316926","0.0-3.0-1.354","../audio/24-2-fem.mp3"," ","","crianças","","","",""
"","851","audio-keyboard-response","431","1318062","0.0-3.0-1.355","../audio/24-3-fem.mp3"," ","","vão","","","",""
"","1120","audio-keyboard-response","432","1319454","0.0-3.0-1.356","../audio/24-4-fem.mp3"," ","","ao","","","",""
"","1429","audio-keyboard-response","433","1321166","0.0-3.0-1.357","../audio/24-5-fem.mp3"," ","","cinema","","","",""
"","1061","audio-keyboard-response","434","1322494","0.0-3.0-1.358","../audio/24-6-fem.mp3"," ","","mais","","","",""
"","1080","audio-keyboard-response","435","1323854","0.0-3.0-1.359","../audio/24-7-fem.mp3"," ","","tarde.","","","",""
"","null","html-keyboard-response","436","1325132","0.0-3.0-0.360-0.360","<span style= ""font-size:30px; font-family: monospace"">+</span>","null","fixation","","","","",""
"","539","audio-keyboard-response","437","1325950","0.0-3.0-1.360","../audio/21-1-fem.mp3"," ","","Precisamos","","","",""
"","659","audio-keyboard-response","438","1326878","0.0-3.0-1.361","../audio/21-2-fem.mp3"," ","","de","","","",""
"","1051","audio-keyboard-response","439","1328206","0.0-3.0-1.362","../audio/21-3-fem.mp3"," ","","paciência","","","",""
"","851","audio-keyboard-response","440","1329342","0.0-3.0-1.363","../audio/21-4-fem.mp3"," ","","e","","","",""
"","779","audio-keyboard-response","441","1330398","0.0-3.0-1.364","../audio/21-5-fem.mp3"," ","","bondade","","","",""
"","752","audio-keyboard-response","442","1331422","0.0-3.0-1.365","../audio/21-6-fem.mp3"," ","","para","","","",""
"","912","audio-keyboard-response","443","1332622","0.0-3.0-1.366","../audio/21-7-fem.mp3"," ","","um","","","",""
"","741","audio-keyboard-response","444","1333646","0.0-3.0-1.367","../audio/21-8-fem.mp3"," ","","mundo","","","",""
"","741","audio-keyboard-response","445","1334654","0.0-3.0-1.368","../audio/21-9-fem.mp3"," ","","melhor.","","","",""
"","null","html-keyboard-response","446","1335927","0.0-3.0-0.369-0.369","<span style= ""font-size:30px; font-family: monospace"">+</span>","null","fixation","","","","",""
"","1171","audio-keyboard-response","447","1337374","0.0-3.0-1.369","../audio/23-1-fem.mp3"," ","","Português","","","",""
"","789","audio-keyboard-response","448","1338446","0.0-3.0-1.370","../audio/23-2-fem.mp3"," ","","é","","","",""
"","781","audio-keyboard-response","449","1339502","0.0-3.0-1.371","../audio/23-3-fem.mp3"," ","","um","","","",""
"","931","audio-keyboard-response","450","1340718","0.0-3.0-1.372","../audio/23-4-fem.mp3"," ","","assunto","","","",""
"","949","audio-keyboard-response","451","1341950","0.0-3.0-1.373","../audio/23-5-fem.mp3"," ","","elementar","","","",""
"","811","audio-keyboard-response","452","1343038","0.0-3.0-1.374","../audio/23-6-fem.mp3"," ","","para","","","",""
"","869","audio-keyboard-response","453","1344190","0.0-3.0-1.375","../audio/23-7-fem.mp3"," ","","os","","","",""
"","720","audio-keyboard-response","454","1345182","0.0-3.0-1.376","../audio/23-8-fem.mp3"," ","","alunos.","","","",""
"","null","html-keyboard-response","455","1346462","0.0-3.0-0.377-0.377","<span style= ""font-size:30px; font-family: monospace"">+</span>","null","fixation","","","","",""
"","800","audio-keyboard-response","456","1347534","0.0-3.0-1.377","../audio/25-1-masc.mp3"," ","","Ela","","","",""
"","611","audio-keyboard-response","457","1348414","0.0-3.0-1.378","../audio/25-2-masc.mp3"," ","","faz","","","",""
"","571","audio-keyboard-response","458","1349262","0.0-3.0-1.379","../audio/25-3-masc.mp3"," ","","tanto","","","",""
"","720","audio-keyboard-response","459","1350254","0.0-3.0-1.380","../audio/25-4-masc.mp3"," ","","cabelo","","","",""
"","608","audio-keyboard-response","460","1351150","0.0-3.0-1.381","../audio/25-5-masc.mp3"," ","","liso","","","",""
"","629","audio-keyboard-response","461","1352046","0.0-3.0-1.382","../audio/25-6-masc.mp3"," ","","quanto","","","",""
"","611","audio-keyboard-response","462","1352942","0.0-3.0-1.383","../audio/25-7-masc.mp3"," ","","cacheado.","","","",""
"","23538","html-keyboard-response","463","1376745","0.0-3.0-2.383-0.383","<span style=""font-size:25px; font-family: monospace"">Ela só faz cabelo cacheado?</span>","s","","","Ela só faz cabelo cacheado?","null","exp-sent","false"
"","null","html-keyboard-response","464","1378276","0.0-3.0-0.384-0.384","<span style= ""font-size:30px; font-family: monospace"">+</span>","null","fixation","","","","",""
"","611","audio-keyboard-response","465","1379161","0.0-3.0-1.384","../audio/31-1-masc.mp3"," ","","O","","","",""
"","771","audio-keyboard-response","466","1380201","0.0-3.0-1.385","../audio/31-2-masc.mp3"," ","","padeiro","","","",""
"","811","audio-keyboard-response","467","1381289","0.0-3.0-1.386","../audio/31-3-masc.mp3"," ","","usou","","","",""
"","709","audio-keyboard-response","468","1382281","0.0-3.0-1.387","../audio/31-4-masc.mp3"," ","","a","","","",""
"","840","audio-keyboard-response","469","1383401","0.0-3.0-1.388","../audio/31-5-masc.mp3"," ","","balança","","","",""
"","1000","audio-keyboard-response","470","1384681","0.0-3.0-1.389","../audio/31-6-masc.mp3"," ","","o","","","",""
"","960","audio-keyboard-response","471","1385913","0.0-3.0-1.390","../audio/31-7-masc.mp3"," ","","dia","","","",""
"","1112","audio-keyboard-response","472","1387289","0.0-3.0-1.391","../audio/31-8-masc.mp3"," ","","inteiro.","","","",""
"","null","html-keyboard-response","473","1388557","0.0-3.0-0.392-0.392","<span style= ""font-size:30px; font-family: monospace"">+</span>","null","fixation","","","","",""
"","680","audio-keyboard-response","474","1389513","0.0-3.0-1.392","../audio/33-1-fem.mp3"," ","","Eles","","","",""
"","1080","audio-keyboard-response","475","1390873","0.0-3.0-1.393","../audio/33-2-fem.mp3"," ","","sabem","","","",""
"","1029","audio-keyboard-response","476","1392185","0.0-3.0-1.394","../audio/33-3-fem.mp3"," ","","do","","","",""
"","1261","audio-keyboard-response","477","1393721","0.0-3.0-1.395","../audio/33-4-fem.mp3"," ","","seu","","","",""
"","1549","audio-keyboard-response","478","1395561","0.0-3.0-1.396","../audio/33-5-fem.mp3"," ","","privilégio","","","",""
"","1269","audio-keyboard-response","479","1397113","0.0-3.0-1.397","../audio/33-6-fem.mp3"," ","","nessa","","","",""
"","1411","audio-keyboard-response","480","1398793","0.0-3.0-1.398","../audio/33-7-fem.mp3"," ","","confusão.","","","",""
"","null","html-keyboard-response","481","1400057","0.0-3.0-0.399-0.399","<span style= ""font-size:30px; font-family: monospace"">+</span>","null","fixation","","","","",""
"","1288","audio-keyboard-response","482","1401625","0.0-3.0-1.399","../audio/34-1-fem.mp3"," ","","Cobrança","","","",""
"","1272","audio-keyboard-response","483","1403177","0.0-3.0-1.400","../audio/34-2-fem.mp3"," ","","excessiva","","","",""
"","709","audio-keyboard-response","484","1404153","0.0-3.0-1.401","../audio/34-3-fem.mp3"," ","","é","","","",""
"","840","audio-keyboard-response","485","1405273","0.0-3.0-1.402","../audio/34-4-fem.mp3"," ","","um","","","",""
"","1061","audio-keyboard-response","486","1406617","0.0-3.0-1.403","../audio/34-5-fem.mp3"," ","","fardo","","","",""
"","949","audio-keyboard-response","487","1407833","0.0-3.0-1.404","../audio/34-6-fem.mp3"," ","","para","","","",""
"","811","audio-keyboard-response","488","1408921","0.0-3.0-1.405","../audio/34-7-fem.mp3"," ","","a","","","",""
"","851","audio-keyboard-response","489","1410057","0.0-3.0-1.406","../audio/34-8-fem.mp3"," ","","cabeça.","","","",""
"","null","html-keyboard-response","490","1411327","0.0-3.0-0.407-0.407","<span style= ""font-size:30px; font-family: monospace"">+</span>","null","fixation","","","","",""
"","771","audio-keyboard-response","491","1412377","0.0-3.0-1.407","../audio/32-1-fem.mp3"," ","","A","","","",""
"","939","audio-keyboard-response","492","1413593","0.0-3.0-1.408","../audio/32-2-fem.mp3"," ","","tia","","","",""
"","949","audio-keyboard-response","493","1414825","0.0-3.0-1.409","../audio/32-3-fem.mp3"," ","","comprou","","","",""
"","768","audio-keyboard-response","494","1415865","0.0-3.0-1.410","../audio/32-4-fem.mp3"," ","","um","","","",""
"","832","audio-keyboard-response","495","1416969","0.0-3.0-1.411","../audio/32-5-fem.mp3"," ","","pilão","","","",""
"","499","audio-keyboard-response","496","1417753","0.0-3.0-1.412","../audio/32-6-fem.mp3"," ","","para","","","",""
"","469","audio-keyboard-response","497","1418505","0.0-3.0-1.413","../audio/32-7-fem.mp3"," ","","a","","","",""
"","432","audio-keyboard-response","498","1419209","0.0-3.0-1.414","../audio/32-8-fem.mp3"," ","","cozinha.","","","",""
"","null","html-keyboard-response","499","1420477","0.0-3.0-0.415-0.415","<span style= ""font-size:30px; font-family: monospace"">+</span>","null","fixation","","","","",""
"","389","audio-keyboard-response","500","1421145","0.0-3.0-1.415","../audio/35-1-fem.mp3"," ","","A","","","",""
"","579","audio-keyboard-response","501","1421993","0.0-3.0-1.416","../audio/35-2-fem.mp3"," ","","receita","","","",""
"","552","audio-keyboard-response","502","1422809","0.0-3.0-1.417","../audio/35-3-fem.mp3"," ","","para","","","",""
"","491","audio-keyboard-response","503","1423577","0.0-3.0-1.418","../audio/35-4-fem.mp3"," ","","a","","","",""
"","531","audio-keyboard-response","504","1424393","0.0-3.0-1.419","../audio/35-5-fem.mp3"," ","","preparação","","","",""
"","552","audio-keyboard-response","505","1425209","0.0-3.0-1.420","../audio/35-6-fem.mp3"," ","","do","","","",""
"","549","audio-keyboard-response","506","1426025","0.0-3.0-1.421","../audio/35-7-fem.mp3"," ","","bolo","","","",""
"","499","audio-keyboard-response","507","1426793","0.0-3.0-1.422","../audio/35-8-fem.mp3"," ","","é","","","",""
"","581","audio-keyboard-response","508","1427641","0.0-3.0-1.423","../audio/35-9-fem.mp3"," ","","leve.","","","",""
"","21984","html-keyboard-response","509","1449882","0.0-3.0-2.423-0.423","<span style=""font-size:25px; font-family: monospace"">A receita do bolo é pesada?</span>","n","","","A receita do bolo é pesada?","null","exp-sent","false"
"","null","html-keyboard-response","510","1451407","0.0-3.0-0.424-0.424","<span style= ""font-size:30px; font-family: monospace"">+</span>","null","fixation","","","","",""
"","1080","audio-keyboard-response","511","1452761","0.0-3.0-1.424","../audio/47-1-masc.mp3"," ","","O","","","",""
"","1200","audio-keyboard-response","512","1454233","0.0-3.0-1.425","../audio/47-2-masc.mp3"," ","","tio","","","",""
"","832","audio-keyboard-response","513","1455337","0.0-3.0-1.426","../audio/47-3-masc.mp3"," ","","recusou","","","",""
"","1229","audio-keyboard-response","514","1456841","0.0-3.0-1.427","../audio/47-4-masc.mp3"," ","","a","","","",""
"","1571","audio-keyboard-response","515","1458698","0.0-3.0-1.428","../audio/47-5-masc.mp3"," ","","sobremesa","","","",""
"","1541","audio-keyboard-response","516","1460521","0.0-3.0-1.429","../audio/47-6-masc.mp3"," ","","no","","","",""
"","1421","audio-keyboard-response","517","1462217","0.0-3.0-1.430","../audio/47-7-masc.mp3"," ","","almoço.","","","",""
"","null","html-keyboard-response","518","1463507","0.0-3.0-0.431-0.431","<span style= ""font-size:30px; font-family: monospace"">+</span>","null","fixation","","","","",""
"","480","audio-keyboard-response","519","1464265","0.0-3.0-1.431","../audio/46-1-fem.mp3"," ","","Meu","","","",""
"","1189","audio-keyboard-response","520","1465721","0.0-3.0-1.432","../audio/46-2-fem.mp3"," ","","primo","","","",""
"","1059","audio-keyboard-response","521","1467065","0.0-3.0-1.433","../audio/46-3-fem.mp3"," ","","estava","","","",""
"","1109","audio-keyboard-response","522","1468441","0.0-3.0-1.434","../audio/46-4-fem.mp3"," ","","muito","","","",""
"","1219","audio-keyboard-response","523","1469945","0.0-3.0-1.435","../audio/46-5-fem.mp3"," ","","deprimido","","","",""
"","1291","audio-keyboard-response","524","1471514","0.0-3.0-1.436","../audio/46-6-fem.mp3"," ","","no","","","",""
"","1221","audio-keyboard-response","525","1473017","0.0-3.0-1.437","../audio/46-7-fem.mp3"," ","","inverno.","","","",""
"","null","html-keyboard-response","526","1474307","0.0-3.0-0.438-0.438","<span style= ""font-size:30px; font-family: monospace"">+</span>","null","fixation","","","","",""
"","21","audio-keyboard-response","527","1474601","0.0-3.0-1.438","../audio/48-1-masc.mp3"," ","","Ela","","","",""
"","1101","audio-keyboard-response","528","1475977","0.0-3.0-1.439","../audio/48-2-masc.mp3"," ","","come","","","",""
"","880","audio-keyboard-response","529","1477145","0.0-3.0-1.440","../audio/48-3-masc.mp3"," ","","feijão","","","",""
"","1008","audio-keyboard-response","530","1478425","0.0-3.0-1.441","../audio/48-4-masc.mp3"," ","","com","","","",""
"","1000","audio-keyboard-response","531","1479705","0.0-3.0-1.442","../audio/48-5-masc.mp3"," ","","arroz","","","",""
"","1139","audio-keyboard-response","532","1481113","0.0-3.0-1.443","../audio/48-6-masc.mp3"," ","","todos","","","",""
"","872","audio-keyboard-response","533","1482249","0.0-3.0-1.444","../audio/48-7-masc.mp3"," ","","os","","","",""
"","821","audio-keyboard-response","534","1483337","0.0-3.0-1.445","../audio/48-8-masc.mp3"," ","","dias.","","","",""
"","null","html-keyboard-response","535","1484627","0.0-3.0-0.446-0.446","<span style= ""font-size:30px; font-family: monospace"">+</span>","null","fixation","","","","",""
"","771","audio-keyboard-response","536","1485673","0.0-3.0-1.446","../audio/49-1-masc.mp3"," ","","Eu","","","",""
"","931","audio-keyboard-response","537","1486873","0.0-3.0-1.447","../audio/49-2-masc.mp3"," ","","quero","","","",""
"","840","audio-keyboard-response","538","1487993","0.0-3.0-1.448","../audio/49-3-masc.mp3"," ","","um","","","",""
"","992","audio-keyboard-response","539","1489257","0.0-3.0-1.449","../audio/49-4-masc.mp3"," ","","lanche","","","",""
"","880","audio-keyboard-response","540","1490409","0.0-3.0-1.450","../audio/49-5-masc.mp3"," ","","duplo","","","",""
"","749","audio-keyboard-response","541","1491433","0.0-3.0-1.451","../audio/49-6-masc.mp3"," ","","e","","","",""
"","680","audio-keyboard-response","542","1492393","0.0-3.0-1.452","../audio/49-7-masc.mp3"," ","","um","","","",""
"","891","audio-keyboard-response","543","1493561","0.0-3.0-1.453","../audio/49-8-masc.mp3"," ","","suco.","","","",""
"","null","html-keyboard-response","544","1494837","0.0-3.0-0.454-0.454","<span style= ""font-size:30px; font-family: monospace"">+</span>","null","fixation","","","","",""
"","541","audio-keyboard-response","545","1495657","0.0-3.0-1.454","../audio/50-1-fem.mp3"," ","","O","","","",""
"","560","audio-keyboard-response","546","1496489","0.0-3.0-1.455","../audio/50-2-fem.mp3"," ","","pássaro","","","",""
"","491","audio-keyboard-response","547","1497257","0.0-3.0-1.456","../audio/50-3-fem.mp3"," ","","fugiu","","","",""
"","539","audio-keyboard-response","548","1498073","0.0-3.0-1.457","../audio/50-4-fem.mp3"," ","","da","","","",""
"","680","audio-keyboard-response","549","1499033","0.0-3.0-1.458","../audio/50-5-fem.mp3"," ","","gaiola","","","",""
"","1021","audio-keyboard-response","550","1500329","0.0-3.0-1.459","../audio/50-6-fem.mp3"," ","","pela","","","",""
"","1192","audio-keyboard-response","551","1501818","0.0-3.0-1.460","../audio/50-7-fem.mp3"," ","","portinhola.","","","",""
"","21010","html-keyboard-response","552","1523101","0.0-3.0-2.460-0.460","<span style=""font-size:25px; font-family: monospace"">O pássaro fugiu da gaiola?</span>","s","","","O pássaro fugiu da gaiola?","null","exp-sent","false"
"","null","html-keyboard-response","553","1524630","0.0-3.0-0.461-0.461","<span style= ""font-size:30px; font-family: monospace"">+</span>","null","fixation","","","","",""
"","1320","audio-keyboard-response","554","1526237","0.0-3.0-1.461","../audio/53-1-fem.mp3"," ","","O","","","",""
"","861","audio-keyboard-response","555","1527372","0.0-3.0-1.462","../audio/53-2-fem.mp3"," ","","médico","","","",""
"","749","audio-keyboard-response","556","1528397","0.0-3.0-1.463","../audio/53-3-fem.mp3"," ","","foi","","","",""
"","912","audio-keyboard-response","557","1529581","0.0-3.0-1.464","../audio/53-4-fem.mp3"," ","","bastante","","","",""
"","1240","audio-keyboard-response","558","1531085","0.0-3.0-1.465","../audio/53-5-fem.mp3"," ","","preciso","","","",""
"","1101","audio-keyboard-response","559","1532461","0.0-3.0-1.466","../audio/53-6-fem.mp3"," ","","durante","","","",""
"","939","audio-keyboard-response","560","1533677","0.0-3.0-1.467","../audio/53-7-fem.mp3"," ","","a","","","",""
"","1261","audio-keyboard-response","561","1535212","0.0-3.0-1.468","../audio/53-8-fem.mp3"," ","","cirurgia.","","","",""
"","null","html-keyboard-response","562","1536481","0.0-3.0-0.469-0.469","<span style= ""font-size:30px; font-family: monospace"">+</span>","null","fixation","","","","",""
"","541","audio-keyboard-response","563","1537292","0.0-3.0-1.469","../audio/52-1-fem.mp3"," ","","Às","","","",""
"","800","audio-keyboard-response","564","1538365","0.0-3.0-1.470","../audio/52-2-fem.mp3"," ","","vezes","","","",""
"","821","audio-keyboard-response","565","1539452","0.0-3.0-1.471","../audio/52-3-fem.mp3"," ","","eu","","","",""
"","949","audio-keyboard-response","566","1540685","0.0-3.0-1.472","../audio/52-4-fem.mp3"," ","","tenho","","","",""
"","1219","audio-keyboard-response","567","1542188","0.0-3.0-1.473","../audio/52-5-fem.mp3"," ","","azia","","","",""
"","1189","audio-keyboard-response","568","1543644","0.0-3.0-1.474","../audio/52-6-fem.mp3"," ","","depois","","","",""
"","1000","audio-keyboard-response","569","1544925","0.0-3.0-1.475","../audio/52-7-fem.mp3"," ","","da","","","",""
"","979","audio-keyboard-response","570","1546189","0.0-3.0-1.476","../audio/52-8-fem.mp3"," ","","janta.","","","",""
"","null","html-keyboard-response","571","1547461","0.0-3.0-0.477-0.477","<span style= ""font-size:30px; font-family: monospace"">+</span>","null","fixation","","","","",""
"","1152","audio-keyboard-response","572","1548892","0.0-3.0-1.477","../audio/51-1-masc.mp3"," ","","Suco","","","",""
"","1029","audio-keyboard-response","573","1550205","0.0-3.0-1.478","../audio/51-2-masc.mp3"," ","","de","","","",""
"","1240","audio-keyboard-response","574","1551725","0.0-3.0-1.479","../audio/51-3-masc.mp3"," ","","acerola","","","",""
"","891","audio-keyboard-response","575","1552892","0.0-3.0-1.480","../audio/51-4-masc.mp3"," ","","é","","","",""
"","1000","audio-keyboard-response","576","1554172","0.0-3.0-1.481","../audio/51-5-masc.mp3"," ","","azedo","","","",""
"","768","audio-keyboard-response","577","1555229","0.0-3.0-1.482","../audio/51-6-masc.mp3"," ","","e","","","",""
"","920","audio-keyboard-response","578","1556429","0.0-3.0-1.483","../audio/51-7-masc.mp3"," ","","até","","","",""
"","912","audio-keyboard-response","579","1557612","0.0-3.0-1.484","../audio/51-8-masc.mp3"," ","","barato.","","","",""
"","null","html-keyboard-response","580","1558880","0.0-3.0-0.485-0.485","<span style= ""font-size:30px; font-family: monospace"">+</span>","null","fixation","","","","",""
"","1229","audio-keyboard-response","581","1560397","0.0-3.0-1.485","../audio/54-1-masc.mp3"," ","","Estou","","","",""
"","1571","audio-keyboard-response","582","1562237","0.0-3.0-1.486","../audio/54-2-masc.mp3"," ","","com","","","",""
"","1651","audio-keyboard-response","583","1564157","0.0-3.0-1.487","../audio/54-3-masc.mp3"," ","","medo","","","",""
"","1109","audio-keyboard-response","584","1565549","0.0-3.0-1.488","../audio/54-4-masc.mp3"," ","","da","","","",""
"","1280","audio-keyboard-response","585","1567101","0.0-3.0-1.489","../audio/54-5-masc.mp3"," ","","atual","","","",""
"","1461","audio-keyboard-response","586","1568845","0.0-3.0-1.490","../audio/54-6-masc.mp3"," ","","organização","","","",""
"","1171","audio-keyboard-response","587","1570284","0.0-3.0-1.491","../audio/54-7-masc.mp3"," ","","do","","","",""
"","1611","audio-keyboard-response","588","1572172","0.0-3.0-1.492","../audio/54-8-masc.mp3"," ","","país.","","","",""
"","null","html-keyboard-response","589","1573460","0.0-3.0-0.493-0.493","<span style= ""font-size:30px; font-family: monospace"">+</span>","null","fixation","","","","",""
"","880","audio-keyboard-response","590","1574620","0.0-3.0-1.493","../audio/55-1-fem.mp3"," ","","O","","","",""
"","1632","audio-keyboard-response","591","1576541","0.0-3.0-1.494","../audio/55-2-fem.mp3"," ","","insulto","","","",""
"","1448","audio-keyboard-response","592","1578269","0.0-3.0-1.495","../audio/55-3-fem.mp3"," ","","recente","","","",""
"","1200","audio-keyboard-response","593","1579741","0.0-3.0-1.496","../audio/55-4-fem.mp3"," ","","causou","","","",""
"","1579","audio-keyboard-response","594","1581596","0.0-3.0-1.497","../audio/55-5-fem.mp3"," ","","indignação","","","",""
"","832","audio-keyboard-response","595","1582700","0.0-3.0-1.498","../audio/55-6-fem.mp3"," ","","em","","","",""
"","901","audio-keyboard-response","596","1583881","0.0-3.0-1.499","../audio/55-7-fem.mp3"," ","","todos.","","","",""
"","12118","html-keyboard-response","597","1596266","0.0-3.0-2.499-0.499","<span style=""font-size:25px; font-family: monospace"">O insulto causou calmaria?</span>","n","","","O insulto causou calmaria?","null","exp-sent","false"
"","null","html-keyboard-response","598","1597797","0.0-3.0-0.500-0.500","<span style= ""font-size:30px; font-family: monospace"">+</span>","null","fixation","","","","",""
"","360","audio-keyboard-response","599","1598441","0.0-3.0-1.500","../audio/29-1-fem.mp3"," ","","Hoje","","","",""
"","680","audio-keyboard-response","600","1599401","0.0-3.0-1.501","../audio/29-2-fem.mp3"," ","","vamos","","","",""
"","339","audio-keyboard-response","601","1600025","0.0-3.0-1.502","../audio/29-3-fem.mp3"," ","","fazer","","","",""
"","301","audio-keyboard-response","602","1600601","0.0-3.0-1.503","../audio/29-4-fem.mp3"," ","","uma","","","",""
"","11","audio-keyboard-response","603","1600889","0.0-3.0-1.504","../audio/29-5-fem.mp3"," ","","atividade","","","",""
"","59","audio-keyboard-response","604","1601225","0.0-3.0-1.505","../audio/29-6-fem.mp3"," ","","sobre","","","",""
"","128","audio-keyboard-response","605","1601625","0.0-3.0-1.506","../audio/29-7-fem.mp3"," ","","fauna","","","",""
"","141","audio-keyboard-response","606","1602041","0.0-3.0-1.507","../audio/29-8-fem.mp3"," ","","marinha.","","","",""
"","null","html-keyboard-response","607","1603317","0.0-3.0-0.508-0.508","<span style= ""font-size:30px; font-family: monospace"">+</span>","null","fixation","","","","",""
"","131","audio-keyboard-response","608","1603737","0.0-3.0-1.508","../audio/26-1-masc.mp3"," ","","Amanhã","","","",""
"","459","audio-keyboard-response","609","1604473","0.0-3.0-1.509","../audio/26-2-masc.mp3"," ","","temos","","","",""
"","571","audio-keyboard-response","610","1605321","0.0-3.0-1.510","../audio/26-3-masc.mp3"," ","","festa","","","",""
"","549","audio-keyboard-response","611","1606153","0.0-3.0-1.511","../audio/26-4-masc.mp3"," ","","na","","","",""
"","491","audio-keyboard-response","612","1606921","0.0-3.0-1.512","../audio/26-5-masc.mp3"," ","","piscina","","","",""
"","491","audio-keyboard-response","613","1607689","0.0-3.0-1.513","../audio/26-6-masc.mp3"," ","","o","","","",""
"","549","audio-keyboard-response","614","1608521","0.0-3.0-1.514","../audio/26-7-masc.mp3"," ","","dia","","","",""
"","611","audio-keyboard-response","615","1609417","0.0-3.0-1.515","../audio/26-8-masc.mp3"," ","","todo.","","","",""
"","null","html-keyboard-response","616","1610697","0.0-3.0-0.516-0.516","<span style= ""font-size:30px; font-family: monospace"">+</span>","null","fixation","","","","",""
"","640","audio-keyboard-response","617","1611625","0.0-3.0-1.516","../audio/28-1-fem.mp3"," ","","O","","","",""
"","752","audio-keyboard-response","618","1612649","0.0-3.0-1.517","../audio/28-2-fem.mp3"," ","","time","","","",""
"","600","audio-keyboard-response","619","1613529","0.0-3.0-1.518","../audio/28-3-fem.mp3"," ","","quer","","","",""
"","619","audio-keyboard-response","620","1614425","0.0-3.0-1.519","../audio/28-4-fem.mp3"," ","","a","","","",""
"","621","audio-keyboard-response","621","1615321","0.0-3.0-1.520","../audio/28-5-fem.mp3"," ","","vitória","","","",""
"","869","audio-keyboard-response","622","1616473","0.0-3.0-1.521","../audio/28-6-fem.mp3"," ","","no","","","",""
"","949","audio-keyboard-response","623","1617705","0.0-3.0-1.522","../audio/28-7-fem.mp3"," ","","jogo","","","",""
"","912","audio-keyboard-response","624","1618889","0.0-3.0-1.523","../audio/28-8-fem.mp3"," ","","de","","","",""
"","989","audio-keyboard-response","625","1620153","0.0-3.0-1.524","../audio/28-9-fem.mp3"," ","","vôlei.","","","",""
"","null","html-keyboard-response","626","1621427","0.0-3.0-0.525-0.525","<span style= ""font-size:30px; font-family: monospace"">+</span>","null","fixation","","","","",""
"","512","audio-keyboard-response","627","1622217","0.0-3.0-1.525","../audio/27-1-masc.mp3"," ","","O","","","",""
"","512","audio-keyboard-response","628","1623017","0.0-3.0-1.526","../audio/27-2-masc.mp3"," ","","dinheiro","","","",""
"","501","audio-keyboard-response","629","1623817","0.0-3.0-1.527","../audio/27-3-masc.mp3"," ","","chegou","","","",""
"","512","audio-keyboard-response","630","1624617","0.0-3.0-1.528","../audio/27-4-masc.mp3"," ","","à","","","",""
"","592","audio-keyboard-response","631","1625497","0.0-3.0-1.529","../audio/27-5-masc.mp3"," ","","elite","","","",""
"","640","audio-keyboard-response","632","1626425","0.0-3.0-1.530","../audio/27-6-masc.mp3"," ","","deste","","","",""
"","672","audio-keyboard-response","633","1627369","0.0-3.0-1.531","../audio/27-7-masc.mp3"," ","","país.","","","",""
"","null","html-keyboard-response","634","1628647","0.0-3.0-0.532-0.532","<span style= ""font-size:30px; font-family: monospace"">+</span>","null","fixation","","","","",""
"","229","audio-keyboard-response","635","1629161","0.0-3.0-1.532","../audio/30-1-fem.mp3"," ","","O","","","",""
"","589","audio-keyboard-response","636","1630025","0.0-3.0-1.533","../audio/30-2-fem.mp3"," ","","funcionário","","","",""
"","861","audio-keyboard-response","637","1631161","0.0-3.0-1.534","../audio/30-3-fem.mp3"," ","","entregou","","","",""
"","851","audio-keyboard-response","638","1632281","0.0-3.0-1.535","../audio/30-4-fem.mp3"," ","","o","","","",""
"","1421","audio-keyboard-response","639","1633977","0.0-3.0-1.536","../audio/30-5-fem.mp3"," ","","restante","","","",""
"","1099","audio-keyboard-response","640","1635353","0.0-3.0-1.537","../audio/30-6-fem.mp3"," ","","do","","","",""
"","1029","audio-keyboard-response","641","1636665","0.0-3.0-1.538","../audio/30-7-fem.mp3"," ","","dinheiro.","","","",""
"","50756","html-keyboard-response","642","1687676","0.0-3.0-2.538-0.538","<span style=""font-size:25px; font-family: monospace"">O funcionário entregou o contrato?</span>","s","","","O funcionário entregou o contrato?","null","exp-sent","false"
"","null","html-keyboard-response","643","1689178","0.0-3.0-0.539-0.539","<span style= ""font-size:30px; font-family: monospace"">+</span>","null","fixation","","","","",""
"","309","audio-keyboard-response","644","1689868","0.0-3.0-1.539","../audio/37-1-fem.mp3"," ","","Eu","","","",""
"","520","audio-keyboard-response","645","1690668","0.0-3.0-1.540","../audio/37-2-fem.mp3"," ","","adoro","","","",""
"","749","audio-keyboard-response","646","1691692","0.0-3.0-1.541","../audio/37-3-fem.mp3"," ","","suco","","","",""
"","739","audio-keyboard-response","647","1692700","0.0-3.0-1.542","../audio/37-4-fem.mp3"," ","","de","","","",""
"","640","audio-keyboard-response","648","1693612","0.0-3.0-1.543","../audio/37-5-fem.mp3"," ","","manga","","","",""
"","709","audio-keyboard-response","649","1694588","0.0-3.0-1.544","../audio/37-6-fem.mp3"," ","","com","","","",""
"","629","audio-keyboard-response","650","1695500","0.0-3.0-1.545","../audio/37-7-fem.mp3"," ","","hortelã.","","","",""
"","null","html-keyboard-response","651","1696763","0.0-3.0-0.546-0.546","<span style= ""font-size:30px; font-family: monospace"">+</span>","null","fixation","","","","",""
"","669","audio-keyboard-response","652","1697708","0.0-3.0-1.546","../audio/36-1-masc.mp3"," ","","Meu","","","",""
"","771","audio-keyboard-response","653","1698764","0.0-3.0-1.547","../audio/36-2-masc.mp3"," ","","tio","","","",""
"","829","audio-keyboard-response","654","1699868","0.0-3.0-1.548","../audio/36-3-masc.mp3"," ","","comprou","","","",""
"","920","audio-keyboard-response","655","1701068","0.0-3.0-1.549","../audio/36-4-masc.mp3"," ","","um","","","",""
"","869","audio-keyboard-response","656","1702220","0.0-3.0-1.550","../audio/36-5-masc.mp3"," ","","filtro","","","",""
"","901","audio-keyboard-response","657","1703388","0.0-3.0-1.551","../audio/36-6-masc.mp3"," ","","de","","","",""
"","979","audio-keyboard-response","658","1704652","0.0-3.0-1.552","../audio/36-7-masc.mp3"," ","","água","","","",""
"","1059","audio-keyboard-response","659","1705979","0.0-3.0-1.553","../audio/36-8-masc.mp3"," ","","hoje","","","",""
"","1080","audio-keyboard-response","660","1707324","0.0-3.0-1.554","../audio/36-9-masc.mp3"," ","","cedo.","","","",""
"","null","html-keyboard-response","661","1708613","0.0-3.0-0.555-0.555","<span style= ""font-size:30px; font-family: monospace"">+</span>","null","fixation","","","","",""
"","632","audio-keyboard-response","662","1709516","0.0-3.0-1.555","../audio/39-1-fem.mp3"," ","","O","","","",""
"","1000","audio-keyboard-response","663","1710796","0.0-3.0-1.556","../audio/39-2-fem.mp3"," ","","conselho","","","",""
"","939","audio-keyboard-response","664","1712012","0.0-3.0-1.557","../audio/39-3-fem.mp3"," ","","foi","","","",""
"","1211","audio-keyboard-response","665","1713500","0.0-3.0-1.558","../audio/39-4-fem.mp3"," ","","muito","","","",""
"","1200","audio-keyboard-response","666","1714972","0.0-3.0-1.559","../audio/39-5-fem.mp3"," ","","útil","","","",""
"","1101","audio-keyboard-response","667","1716348","0.0-3.0-1.560","../audio/39-6-fem.mp3"," ","","para","","","",""
"","1091","audio-keyboard-response","668","1717724","0.0-3.0-1.561","../audio/39-7-fem.mp3"," ","","minha","","","",""
"","960","audio-keyboard-response","669","1718956","0.0-3.0-1.562","../audio/39-8-fem.mp3"," ","","tia.","","","",""
"","null","html-keyboard-response","670","1720234","0.0-3.0-0.563-0.563","<span style= ""font-size:30px; font-family: monospace"">+</span>","null","fixation","","","","",""
"","560","audio-keyboard-response","671","1721084","0.0-3.0-1.563","../audio/38-1-fem.mp3"," ","","A","","","",""
"","808","audio-keyboard-response","672","1722172","0.0-3.0-1.564","../audio/38-2-fem.mp3"," ","","empresa","","","",""
"","819","audio-keyboard-response","673","1723260","0.0-3.0-1.565","../audio/38-3-fem.mp3"," ","","criou","","","",""
"","771","audio-keyboard-response","674","1724300","0.0-3.0-1.566","../audio/38-4-fem.mp3"," ","","a","","","",""
"","1000","audio-keyboard-response","675","1725580","0.0-3.0-1.567","../audio/38-5-fem.mp3"," ","","patente","","","",""
"","891","audio-keyboard-response","676","1726744","0.0-3.0-1.568","../audio/38-6-fem.mp3"," ","","da","","","",""
"","1029","audio-keyboard-response","677","1728040","0.0-3.0-1.569","../audio/38-7-fem.mp3"," ","","frigideira.","","","",""
"","null","html-keyboard-response","678","1729300","0.0-3.0-0.570-0.570","<span style= ""font-size:30px; font-family: monospace"">+</span>","null","fixation","","","","",""
"","1029","audio-keyboard-response","679","1730616","0.0-3.0-1.570","../audio/40-1-masc.mp3"," ","","O","","","",""
"","1221","audio-keyboard-response","680","1732104","0.0-3.0-1.571","../audio/40-2-masc.mp3"," ","","jogo","","","",""
"","1200","audio-keyboard-response","681","1733576","0.0-3.0-1.572","../audio/40-3-masc.mp3"," ","","falava","","","",""
"","1021","audio-keyboard-response","682","1734872","0.0-3.0-1.573","../audio/40-4-masc.mp3"," ","","de","","","",""
"","1269","audio-keyboard-response","683","1736424","0.0-3.0-1.574","../audio/40-5-masc.mp3"," ","","fantasia","","","",""
"","960","audio-keyboard-response","684","1737656","0.0-3.0-1.575","../audio/40-6-masc.mp3"," ","","e","","","",""
"","880","audio-keyboard-response","685","1738808","0.0-3.0-1.576","../audio/40-7-masc.mp3"," ","","de","","","",""
"","1131","audio-keyboard-response","686","1740217","0.0-3.0-1.577","../audio/40-8-masc.mp3"," ","","aventura.","","","",""
"","23187","html-keyboard-response","687","1763657","0.0-3.0-2.577-0.577","<span style=""font-size:25px; font-family: monospace"">O jogo tinha fantasia e aventura?</span>","s","","","O jogo tinha fantasia e aventura?","null","exp-sent","false"
"","null","html-keyboard-response","688","1765179","0.0-3.0-0.578-0.578","<span style= ""font-size:30px; font-family: monospace"">+</span>","null","fixation","","","","",""
"","928","audio-keyboard-response","689","1766408","0.0-3.0-1.578","../audio/04-1-fem.mp3"," ","","Duzentos","","","",""
"","731","audio-keyboard-response","690","1767416","0.0-3.0-1.579","../audio/04-2-fem.mp3"," ","","carros","","","",""
"","752","audio-keyboard-response","691","1768440","0.0-3.0-1.580","../audio/04-3-fem.mp3"," ","","passaram","","","",""
"","899","audio-keyboard-response","692","1769608","0.0-3.0-1.581","../audio/04-4-fem.mp3"," ","","pela","","","",""
"","848","audio-keyboard-response","693","1770728","0.0-3.0-1.582","../audio/04-5-fem.mp3"," ","","ponte","","","",""
"","819","audio-keyboard-response","694","1771816","0.0-3.0-1.583","../audio/04-6-fem.mp3"," ","","hoje","","","",""
"","891","audio-keyboard-response","695","1772984","0.0-3.0-1.584","../audio/04-7-fem.mp3"," ","","de","","","",""
"","1040","audio-keyboard-response","696","1774312","0.0-3.0-1.585","../audio/04-8-fem.mp3"," ","","tarde.","","","",""
"","null","html-keyboard-response","697","1775589","0.0-3.0-0.586-0.586","<span style= ""font-size:30px; font-family: monospace"">+</span>","null","fixation","","","","",""
"","800","audio-keyboard-response","698","1776664","0.0-3.0-1.586","../audio/02-2-fem.mp3"," ","","Havia","","","",""
"","819","audio-keyboard-response","699","1777736","0.0-3.0-1.587","../audio/02-2-fem.mp3"," ","","um","","","",""
"","840","audio-keyboard-response","700","1778840","0.0-3.0-1.588","../audio/02-3-fem.mp3"," ","","cheiro","","","",""
"","840","audio-keyboard-response","701","1779960","0.0-3.0-1.589","../audio/02-4-fem.mp3"," ","","de","","","",""
"","912","audio-keyboard-response","702","1781160","0.0-3.0-1.590","../audio/02-5-fem.mp3"," ","","gasolina","","","",""
"","939","audio-keyboard-response","703","1782376","0.0-3.0-1.591","../audio/02-6-fem.mp3"," ","","na","","","",""
"","941","audio-keyboard-response","704","1783592","0.0-3.0-1.592","../audio/02-7-fem.mp3"," ","","garagem.","","","",""
"","null","html-keyboard-response","705","1784860","0.0-3.0-0.593-0.593","<span style= ""font-size:30px; font-family: monospace"">+</span>","null","fixation","","","","",""
"","189","audio-keyboard-response","706","1785321","0.0-3.0-1.593","../audio/01-1-masc.mp3"," ","","O","","","",""
"","1019","audio-keyboard-response","707","1786616","0.0-3.0-1.594","../audio/01-2-masc.mp3"," ","","menino","","","",""
"","1160","audio-keyboard-response","708","1788061","0.0-3.0-1.595","../audio/01-3-masc.mp3"," ","","derrubou","","","",""
"","851","audio-keyboard-response","709","1789181","0.0-3.0-1.596","../audio/01-4-masc.mp3"," ","","a","","","",""
"","869","audio-keyboard-response","710","1790333","0.0-3.0-1.597","../audio/01-5-masc.mp3"," ","","guitarra","","","",""
"","792","audio-keyboard-response","711","1791405","0.0-3.0-1.598","../audio/01-6-masc.mp3"," ","","no","","","",""
"","880","audio-keyboard-response","712","1792573","0.0-3.0-1.599","../audio/01-7-masc.mp3"," ","","chão.","","","",""
"","null","html-keyboard-response","713","1793844","0.0-3.0-0.600-0.600","<span style= ""font-size:30px; font-family: monospace"">+</span>","null","fixation","","","","",""
"","629","audio-keyboard-response","714","1794749","0.0-3.0-1.600","../audio/03-1-masc.mp3"," ","","O","","","",""
"","581","audio-keyboard-response","715","1795597","0.0-3.0-1.601","../audio/03-2-masc.mp3"," ","","coelho","","","",""
"","568","audio-keyboard-response","716","1796445","0.0-3.0-1.602","../audio/03-3-masc.mp3"," ","","foi","","","",""
"","808","audio-keyboard-response","717","1797533","0.0-3.0-1.603","../audio/03-4-masc.mp3"," ","","bastante","","","",""
"","760","audio-keyboard-response","718","1798557","0.0-3.0-1.604","../audio/03-5-masc.mp3"," ","","dócil","","","",""
"","709","audio-keyboard-response","719","1799549","0.0-3.0-1.605","../audio/03-6-masc.mp3"," ","","com","","","",""
"","691","audio-keyboard-response","720","1800509","0.0-3.0-1.606","../audio/03-7-masc.mp3"," ","","as","","","",""
"","771","audio-keyboard-response","721","1801549","0.0-3.0-1.607","../audio/03-8-masc.mp3"," ","","crianças.","","","",""
"","null","html-keyboard-response","722","1802814","0.0-3.0-0.608-0.608","<span style= ""font-size:30px; font-family: monospace"">+</span>","null","fixation","","","","",""
"","541","audio-keyboard-response","723","1803629","0.0-3.0-1.608","../audio/05-1-masc.mp3"," ","","A","","","",""
"","851","audio-keyboard-response","724","1804765","0.0-3.0-1.609","../audio/05-2-masc.mp3"," ","","vendedora","","","",""
"","1192","audio-keyboard-response","725","1806237","0.0-3.0-1.610","../audio/05-3-masc.mp3"," ","","ajudou","","","",""
"","1029","audio-keyboard-response","726","1807548","0.0-3.0-1.611","../audio/05-4-masc.mp3"," ","","um","","","",""
"","1149","audio-keyboard-response","727","1808973","0.0-3.0-1.612","../audio/05-5-masc.mp3"," ","","turista","","","",""
"","1029","audio-keyboard-response","728","1810269","0.0-3.0-1.613","../audio/05-6-masc.mp3"," ","","na","","","",""
"","989","audio-keyboard-response","729","1811533","0.0-3.0-1.614","../audio/05-7-masc.mp3"," ","","loja.","","","",""
"","23317","html-keyboard-response","730","1835101","0.0-3.0-2.614-0.614","<span style=""font-size:25px; font-family: monospace"">A vendedora ajudou um turista?</span>","s","","","A vendedora ajudou um turista?","null","exp-sent","false"
"[{""page_index"":0,""viewing_time"":5974}]","5975","instructions","731","1841589","0.0-4.0","","","","","","","",""
