[
	{
		"view_history": [
			{
				"page_index": 0,
				"viewing_time": 554941
			},
			{
				"page_index": 1,
				"viewing_time": 14016
			}
		],
		"rt": 568958,
		"trial_type": "instructions",
		"trial_index": 0,
		"time_elapsed": 568959,
		"internal_node_id": "0.0-0.0"
	},
	{
		"rt": null,
		"stimulus": "<span style= \"font-size:30px; font-family: monospace\">+</span>",
		"response": null,
		"trial_part": "fixation",
		"trial_type": "html-keyboard-response",
		"trial_index": 1,
		"time_elapsed": 570062,
		"internal_node_id": "0.0-1.0-0.0-0.0"
	},
	{
		"rt": 7180,
		"stimulus": "<span style=\"font-size:30px; font-family: monospace\">O</span>",
		"response": " ",
		"trial": "prac-sent",
		"word": "O",
		"trial_type": "html-keyboard-response",
		"trial_index": 2,
		"time_elapsed": 577494,
		"internal_node_id": "0.0-1.0-1.0"
	},
	{
		"rt": 10564,
		"stimulus": "<span style=\"font-size:30px; font-family: monospace\">dia</span>",
		"response": " ",
		"trial": "prac-sent",
		"word": "dia",
		"trial_type": "html-keyboard-response",
		"trial_index": 3,
		"time_elapsed": 588310,
		"internal_node_id": "0.0-1.0-1.1"
	},
	{
		"rt": 1205,
		"stimulus": "<span style=\"font-size:30px; font-family: monospace\">estará</span>",
		"response": " ",
		"trial": "prac-sent",
		"word": "estará",
		"trial_type": "html-keyboard-response",
		"trial_index": 4,
		"time_elapsed": 589765,
		"internal_node_id": "0.0-1.0-1.2"
	},
	{
		"rt": 1269,
		"stimulus": "<span style=\"font-size:30px; font-family: monospace\">cheio</span>",
		"response": " ",
		"trial": "prac-sent",
		"word": "cheio",
		"trial_type": "html-keyboard-response",
		"trial_index": 5,
		"time_elapsed": 591285,
		"internal_node_id": "0.0-1.0-1.3"
	},
	{
		"rt": 85,
		"stimulus": "<span style=\"font-size:30px; font-family: monospace\">de</span>",
		"response": " ",
		"trial": "prac-sent",
		"word": "de",
		"trial_type": "html-keyboard-response",
		"trial_index": 6,
		"time_elapsed": 591621,
		"internal_node_id": "0.0-1.0-1.4"
	},
	{
		"rt": 484,
		"stimulus": "<span style=\"font-size:30px; font-family: monospace\">nuvens</span>",
		"response": " ",
		"trial": "prac-sent",
		"word": "nuvens",
		"trial_type": "html-keyboard-response",
		"trial_index": 7,
		"time_elapsed": 592357,
		"internal_node_id": "0.0-1.0-1.5"
	},
	{
		"rt": 5429,
		"stimulus": "<span style=\"font-size:30px; font-family: monospace\">hoje.</span>",
		"response": " ",
		"trial": "prac-sent",
		"word": "hoje.",
		"trial_type": "html-keyboard-response",
		"trial_index": 8,
		"time_elapsed": 598037,
		"internal_node_id": "0.0-1.0-1.6"
	},
	{
		"rt": null,
		"stimulus": "<span style= \"font-size:30px; font-family: monospace\">+</span>",
		"response": null,
		"trial_part": "fixation",
		"trial_type": "html-keyboard-response",
		"trial_index": 9,
		"time_elapsed": 599289,
		"internal_node_id": "0.0-1.0-0.7-0.7"
	},
	{
		"rt": 785,
		"stimulus": "<span style=\"font-size:30px; font-family: monospace\">A</span>",
		"response": " ",
		"trial": "prac-sent",
		"word": "A",
		"trial_type": "html-keyboard-response",
		"trial_index": 10,
		"time_elapsed": 600325,
		"internal_node_id": "0.0-1.0-1.7"
	},
	{
		"rt": 3781,
		"stimulus": "<span style=\"font-size:30px; font-family: monospace\">caneca</span>",
		"response": " ",
		"trial": "prac-sent",
		"word": "caneca",
		"trial_type": "html-keyboard-response",
		"trial_index": 11,
		"time_elapsed": 604357,
		"internal_node_id": "0.0-1.0-1.8"
	},
	{
		"rt": 5973,
		"stimulus": "<span style=\"font-size:30px; font-family: monospace\">colorida</span>",
		"response": " ",
		"trial": "prac-sent",
		"word": "colorida",
		"trial_type": "html-keyboard-response",
		"trial_index": 12,
		"time_elapsed": 610582,
		"internal_node_id": "0.0-1.0-1.9"
	},
	{
		"rt": 4117,
		"stimulus": "<span style=\"font-size:30px; font-family: monospace\">caiu</span>",
		"response": " ",
		"trial": "prac-sent",
		"word": "caiu",
		"trial_type": "html-keyboard-response",
		"trial_index": 13,
		"time_elapsed": 614949,
		"internal_node_id": "0.0-1.0-1.10"
	},
	{
		"rt": 1556,
		"stimulus": "<span style=\"font-size:30px; font-family: monospace\">da</span>",
		"response": " ",
		"trial": "prac-sent",
		"word": "da",
		"trial_type": "html-keyboard-response",
		"trial_index": 14,
		"time_elapsed": 616757,
		"internal_node_id": "0.0-1.0-1.11"
	},
	{
		"rt": 12532,
		"stimulus": "<span style=\"font-size:30px; font-family: monospace\">mesa</span>",
		"response": " ",
		"trial": "prac-sent",
		"word": "mesa",
		"trial_type": "html-keyboard-response",
		"trial_index": 15,
		"time_elapsed": 629541,
		"internal_node_id": "0.0-1.0-1.12"
	},
	{
		"rt": 741,
		"stimulus": "<span style=\"font-size:30px; font-family: monospace\">de</span>",
		"response": " ",
		"trial": "prac-sent",
		"word": "de",
		"trial_type": "html-keyboard-response",
		"trial_index": 16,
		"time_elapsed": 630533,
		"internal_node_id": "0.0-1.0-1.13"
	},
	{
		"rt": 19636,
		"stimulus": "<span style=\"font-size:30px; font-family: monospace\">jantar.</span>",
		"response": " ",
		"trial": "prac-comp",
		"word": "jantar.",
		"trial_type": "html-keyboard-response",
		"trial_index": 17,
		"time_elapsed": 650421,
		"internal_node_id": "0.0-1.0-1.14"
	},
	{
		"rt": 32260,
		"stimulus": "<span style=\"font-size:30px; font-family: monospace\">A caneca permaneceu na mesa?</span>",
		"response": "s",
		"question": "A caneca permaneceu na mesa?",
		"answer": "não",
		"trial": "prac-comp",
		"trial_type": "html-keyboard-response",
		"trial_index": 18,
		"time_elapsed": 682933,
		"internal_node_id": "0.0-1.0-2.14-0.14",
		"accuracy": false
	},
	{
		"view_history": [
			{
				"page_index": 0,
				"viewing_time": 32938
			}
		],
		"rt": 32939,
		"trial_type": "instructions",
		"trial_index": 19,
		"time_elapsed": 716373,
		"internal_node_id": "0.0-2.0"
	},
	{
		"rt": null,
		"stimulus": "<span style= \"font-size:30px; font-family: monospace\">+</span>",
		"response": null,
		"trial_part": "fixation",
		"trial_type": "html-keyboard-response",
		"trial_index": 20,
		"time_elapsed": 717476,
		"internal_node_id": "0.0-3.0-0.0-0.0"
	},
	{
		"rt": 2790,
		"stimulus": "<span style=\"font-size:30px; font-family: monospace\">No</span>",
		"response": " ",
		"trial": "exp-sent",
		"word": "No",
		"trial_type": "html-keyboard-response",
		"trial_index": 21,
		"time_elapsed": 720517,
		"internal_node_id": "0.0-3.0-1.0"
	},
	{
		"rt": 741,
		"stimulus": "<span style=\"font-size:30px; font-family: monospace\">passado</span>",
		"response": " ",
		"trial": "exp-sent",
		"word": "passado",
		"trial_type": "html-keyboard-response",
		"trial_index": 22,
		"time_elapsed": 721509,
		"internal_node_id": "0.0-3.0-1.1"
	},
	{
		"rt": 868,
		"stimulus": "<span style=\"font-size:30px; font-family: monospace\">houve</span>",
		"response": " ",
		"trial": "exp-sent",
		"word": "houve",
		"trial_type": "html-keyboard-response",
		"trial_index": 23,
		"time_elapsed": 722629,
		"internal_node_id": "0.0-3.0-1.2"
	},
	{
		"rt": 724,
		"stimulus": "<span style=\"font-size:30px; font-family: monospace\">uma</span>",
		"response": " ",
		"trial": "exp-sent",
		"word": "uma",
		"trial_type": "html-keyboard-response",
		"trial_index": 24,
		"time_elapsed": 723605,
		"internal_node_id": "0.0-3.0-1.3"
	},
	{
		"rt": 853,
		"stimulus": "<span style=\"font-size:30px; font-family: monospace\">rebelião</span>",
		"response": " ",
		"trial": "exp-sent",
		"word": "rebelião",
		"trial_type": "html-keyboard-response",
		"trial_index": 25,
		"time_elapsed": 724709,
		"internal_node_id": "0.0-3.0-1.4"
	},
	{
		"rt": 500,
		"stimulus": "<span style=\"font-size:30px; font-family: monospace\">nesta</span>",
		"response": " ",
		"trial": "exp-sent",
		"word": "nesta",
		"trial_type": "html-keyboard-response",
		"trial_index": 26,
		"time_elapsed": 725461,
		"internal_node_id": "0.0-3.0-1.5"
	},
	{
		"rt": 1317,
		"stimulus": "<span style=\"font-size:30px; font-family: monospace\">cidade.</span>",
		"response": " ",
		"trial": "exp-sent",
		"word": "cidade.",
		"trial_type": "html-keyboard-response",
		"trial_index": 27,
		"time_elapsed": 727029,
		"internal_node_id": "0.0-3.0-1.6"
	},
	{
		"rt": null,
		"stimulus": "<span style= \"font-size:30px; font-family: monospace\">+</span>",
		"response": null,
		"trial_part": "fixation",
		"trial_type": "html-keyboard-response",
		"trial_index": 28,
		"time_elapsed": 728282,
		"internal_node_id": "0.0-3.0-0.7-0.7"
	},
	{
		"rt": 417,
		"stimulus": "<span style=\"font-size:30px; font-family: monospace\">Ele</span>",
		"response": " ",
		"trial": "exp-sent",
		"word": "Ele",
		"trial_type": "html-keyboard-response",
		"trial_index": 29,
		"time_elapsed": 728949,
		"internal_node_id": "0.0-3.0-1.7"
	},
	{
		"rt": 788,
		"stimulus": "<span style=\"font-size:30px; font-family: monospace\">fundou</span>",
		"response": " ",
		"trial": "exp-sent",
		"word": "fundou",
		"trial_type": "html-keyboard-response",
		"trial_index": 30,
		"time_elapsed": 729989,
		"internal_node_id": "0.0-3.0-1.8"
	},
	{
		"rt": 1091,
		"stimulus": "<span style=\"font-size:30px; font-family: monospace\">uma</span>",
		"response": " ",
		"trial": "exp-sent",
		"word": "uma",
		"trial_type": "html-keyboard-response",
		"trial_index": 31,
		"time_elapsed": 731333,
		"internal_node_id": "0.0-3.0-1.9"
	},
	{
		"rt": 2293,
		"stimulus": "<span style=\"font-size:30px; font-family: monospace\">empresa</span>",
		"response": " ",
		"trial": "exp-sent",
		"word": "empresa",
		"trial_type": "html-keyboard-response",
		"trial_index": 32,
		"time_elapsed": 733877,
		"internal_node_id": "0.0-3.0-1.10"
	},
	{
		"rt": 1493,
		"stimulus": "<span style=\"font-size:30px; font-family: monospace\">privada</span>",
		"response": " ",
		"trial": "exp-sent",
		"word": "privada",
		"trial_type": "html-keyboard-response",
		"trial_index": 33,
		"time_elapsed": 735621,
		"internal_node_id": "0.0-3.0-1.11"
	},
	{
		"rt": 965,
		"stimulus": "<span style=\"font-size:30px; font-family: monospace\">sem</span>",
		"response": " ",
		"trial": "exp-sent",
		"word": "sem",
		"trial_type": "html-keyboard-response",
		"trial_index": 34,
		"time_elapsed": 736837,
		"internal_node_id": "0.0-3.0-1.12"
	},
	{
		"rt": 1189,
		"stimulus": "<span style=\"font-size:30px; font-family: monospace\">ajuda.</span>",
		"response": " ",
		"trial": "exp-sent",
		"word": "ajuda.",
		"trial_type": "html-keyboard-response",
		"trial_index": 35,
		"time_elapsed": 738277,
		"internal_node_id": "0.0-3.0-1.13"
	},
	{
		"rt": null,
		"stimulus": "<span style= \"font-size:30px; font-family: monospace\">+</span>",
		"response": null,
		"trial_part": "fixation",
		"trial_type": "html-keyboard-response",
		"trial_index": 36,
		"time_elapsed": 739529,
		"internal_node_id": "0.0-3.0-0.14-0.14"
	},
	{
		"rt": 449,
		"stimulus": "<span style=\"font-size:30px; font-family: monospace\">As</span>",
		"response": " ",
		"trial": "exp-sent",
		"word": "As",
		"trial_type": "html-keyboard-response",
		"trial_index": 37,
		"time_elapsed": 740229,
		"internal_node_id": "0.0-3.0-1.14"
	},
	{
		"rt": 1605,
		"stimulus": "<span style=\"font-size:30px; font-family: monospace\">meninas</span>",
		"response": " ",
		"trial": "exp-sent",
		"word": "meninas",
		"trial_type": "html-keyboard-response",
		"trial_index": 38,
		"time_elapsed": 742085,
		"internal_node_id": "0.0-3.0-1.15"
	},
	{
		"rt": 3253,
		"stimulus": "<span style=\"font-size:30px; font-family: monospace\">encontraram</span>",
		"response": " ",
		"trial": "exp-sent",
		"word": "encontraram",
		"trial_type": "html-keyboard-response",
		"trial_index": 39,
		"time_elapsed": 745589,
		"internal_node_id": "0.0-3.0-1.16"
	},
	{
		"rt": 628,
		"stimulus": "<span style=\"font-size:30px; font-family: monospace\">um</span>",
		"response": " ",
		"trial": "exp-sent",
		"word": "um",
		"trial_type": "html-keyboard-response",
		"trial_index": 40,
		"time_elapsed": 746469,
		"internal_node_id": "0.0-3.0-1.17"
	},
	{
		"rt": 757,
		"stimulus": "<span style=\"font-size:30px; font-family: monospace\">rato</span>",
		"response": " ",
		"trial": "exp-sent",
		"word": "rato",
		"trial_type": "html-keyboard-response",
		"trial_index": 41,
		"time_elapsed": 747477,
		"internal_node_id": "0.0-3.0-1.18"
	},
	{
		"rt": 5173,
		"stimulus": "<span style=\"font-size:30px; font-family: monospace\">dentro</span>",
		"response": " ",
		"trial": "exp-sent",
		"word": "dentro",
		"trial_type": "html-keyboard-response",
		"trial_index": 42,
		"time_elapsed": 752901,
		"internal_node_id": "0.0-3.0-1.19"
	},
	{
		"rt": 2341,
		"stimulus": "<span style=\"font-size:30px; font-family: monospace\">de</span>",
		"response": " ",
		"trial": "exp-sent",
		"word": "de",
		"trial_type": "html-keyboard-response",
		"trial_index": 43,
		"time_elapsed": 755493,
		"internal_node_id": "0.0-3.0-1.20"
	},
	{
		"rt": 693,
		"stimulus": "<span style=\"font-size:30px; font-family: monospace\">casa.</span>",
		"response": " ",
		"trial": "exp-sent",
		"word": "casa.",
		"trial_type": "html-keyboard-response",
		"trial_index": 44,
		"time_elapsed": 756437,
		"internal_node_id": "0.0-3.0-1.21"
	},
	{
		"rt": null,
		"stimulus": "<span style= \"font-size:30px; font-family: monospace\">+</span>",
		"response": null,
		"trial_part": "fixation",
		"trial_type": "html-keyboard-response",
		"trial_index": 45,
		"time_elapsed": 757689,
		"internal_node_id": "0.0-3.0-0.22-0.22"
	},
	{
		"rt": 369,
		"stimulus": "<span style=\"font-size:30px; font-family: monospace\">O</span>",
		"response": " ",
		"trial": "exp-sent",
		"word": "O",
		"trial_type": "html-keyboard-response",
		"trial_index": 46,
		"time_elapsed": 758309,
		"internal_node_id": "0.0-3.0-1.22"
	},
	{
		"rt": 516,
		"stimulus": "<span style=\"font-size:30px; font-family: monospace\">texto</span>",
		"response": " ",
		"trial": "exp-sent",
		"word": "texto",
		"trial_type": "html-keyboard-response",
		"trial_index": 47,
		"time_elapsed": 759077,
		"internal_node_id": "0.0-3.0-1.23"
	},
	{
		"rt": 517,
		"stimulus": "<span style=\"font-size:30px; font-family: monospace\">tinha</span>",
		"response": " ",
		"trial": "exp-sent",
		"word": "tinha",
		"trial_type": "html-keyboard-response",
		"trial_index": 48,
		"time_elapsed": 759845,
		"internal_node_id": "0.0-3.0-1.24"
	},
	{
		"rt": 565,
		"stimulus": "<span style=\"font-size:30px; font-family: monospace\">ideias</span>",
		"response": " ",
		"trial": "exp-sent",
		"word": "ideias",
		"trial_type": "html-keyboard-response",
		"trial_index": 49,
		"time_elapsed": 760661,
		"internal_node_id": "0.0-3.0-1.25"
	},
	{
		"rt": 1221,
		"stimulus": "<span style=\"font-size:30px; font-family: monospace\">vagas</span>",
		"response": " ",
		"trial": "exp-sent",
		"word": "vagas",
		"trial_type": "html-keyboard-response",
		"trial_index": 50,
		"time_elapsed": 762133,
		"internal_node_id": "0.0-3.0-1.26"
	},
	{
		"rt": 629,
		"stimulus": "<span style=\"font-size:30px; font-family: monospace\">e</span>",
		"response": " ",
		"trial": "exp-sent",
		"word": "e",
		"trial_type": "html-keyboard-response",
		"trial_index": 51,
		"time_elapsed": 763013,
		"internal_node_id": "0.0-3.0-1.27"
	},
	{
		"rt": 2469,
		"stimulus": "<span style=\"font-size:30px; font-family: monospace\">confusas.</span>",
		"response": " ",
		"trial": "exp-sent",
		"word": "confusas.",
		"trial_type": "html-keyboard-response",
		"trial_index": 52,
		"time_elapsed": 765733,
		"internal_node_id": "0.0-3.0-1.28"
	},
	{
		"rt": null,
		"stimulus": "<span style= \"font-size:30px; font-family: monospace\">+</span>",
		"response": null,
		"trial_part": "fixation",
		"trial_type": "html-keyboard-response",
		"trial_index": 53,
		"time_elapsed": 766986,
		"internal_node_id": "0.0-3.0-0.29-0.29"
	},
	{
		"rt": 448,
		"stimulus": "<span style=\"font-size:30px; font-family: monospace\">As</span>",
		"response": " ",
		"trial": "exp-sent",
		"word": "As",
		"trial_type": "html-keyboard-response",
		"trial_index": 54,
		"time_elapsed": 767685,
		"internal_node_id": "0.0-3.0-1.29"
	},
	{
		"rt": 1605,
		"stimulus": "<span style=\"font-size:30px; font-family: monospace\">crianças</span>",
		"response": " ",
		"trial": "exp-sent",
		"word": "crianças",
		"trial_type": "html-keyboard-response",
		"trial_index": 55,
		"time_elapsed": 769541,
		"internal_node_id": "0.0-3.0-1.30"
	},
	{
		"rt": 1493,
		"stimulus": "<span style=\"font-size:30px; font-family: monospace\">viram</span>",
		"response": " ",
		"trial": "exp-sent",
		"word": "viram",
		"trial_type": "html-keyboard-response",
		"trial_index": 56,
		"time_elapsed": 771285,
		"internal_node_id": "0.0-3.0-1.31"
	},
	{
		"rt": 597,
		"stimulus": "<span style=\"font-size:30px; font-family: monospace\">a</span>",
		"response": " ",
		"trial": "exp-sent",
		"word": "a",
		"trial_type": "html-keyboard-response",
		"trial_index": 57,
		"time_elapsed": 772133,
		"internal_node_id": "0.0-3.0-1.32"
	},
	{
		"rt": 1045,
		"stimulus": "<span style=\"font-size:30px; font-family: monospace\">acrobata</span>",
		"response": " ",
		"trial": "exp-sent",
		"word": "acrobata",
		"trial_type": "html-keyboard-response",
		"trial_index": 58,
		"time_elapsed": 773429,
		"internal_node_id": "0.0-3.0-1.33"
	},
	{
		"rt": 517,
		"stimulus": "<span style=\"font-size:30px; font-family: monospace\">talentosa</span>",
		"response": " ",
		"trial": "exp-sent",
		"word": "talentosa",
		"trial_type": "html-keyboard-response",
		"trial_index": 59,
		"time_elapsed": 774197,
		"internal_node_id": "0.0-3.0-1.34"
	},
	{
		"rt": 517,
		"stimulus": "<span style=\"font-size:30px; font-family: monospace\">no</span>",
		"response": " ",
		"trial": "exp-sent",
		"word": "no",
		"trial_type": "html-keyboard-response",
		"trial_index": 60,
		"time_elapsed": 774965,
		"internal_node_id": "0.0-3.0-1.35"
	},
	{
		"rt": 437,
		"stimulus": "<span style=\"font-size:30px; font-family: monospace\">circo.</span>",
		"response": " ",
		"trial": "comp",
		"word": "circo.",
		"trial_type": "html-keyboard-response",
		"trial_index": 61,
		"time_elapsed": 775653,
		"internal_node_id": "0.0-3.0-1.36"
	},
	{
		"rt": 11653,
		"stimulus": "<span style=\"font-size:30px; font-family: monospace\">As crianças viram o palhaço no circo?</span>",
		"response": "s",
		"question": "As crianças viram o palhaço no circo?",
		"answer": "não",
		"trial": "comp",
		"trial_type": "html-keyboard-response",
		"trial_index": 62,
		"time_elapsed": 787557,
		"internal_node_id": "0.0-3.0-2.36-0.36",
		"accuracy": false
	},
	{
		"rt": null,
		"stimulus": "<span style= \"font-size:30px; font-family: monospace\">+</span>",
		"response": null,
		"trial_part": "fixation",
		"trial_type": "html-keyboard-response",
		"trial_index": 63,
		"time_elapsed": 789060,
		"internal_node_id": "0.0-3.0-0.37-0.37"
	},
	{
		"rt": 3350,
		"stimulus": "<span style=\"font-size:30px; font-family: monospace\">A</span>",
		"response": " ",
		"trial": "exp-sent",
		"word": "A",
		"trial_type": "html-keyboard-response",
		"trial_index": 64,
		"time_elapsed": 792661,
		"internal_node_id": "0.0-3.0-1.37"
	},
	{
		"rt": 629,
		"stimulus": "<span style=\"font-size:30px; font-family: monospace\">senhora</span>",
		"response": " ",
		"trial": "exp-sent",
		"word": "senhora",
		"trial_type": "html-keyboard-response",
		"trial_index": 65,
		"time_elapsed": 793541,
		"internal_node_id": "0.0-3.0-1.38"
	},
	{
		"rt": 613,
		"stimulus": "<span style=\"font-size:30px; font-family: monospace\">cumprimentou</span>",
		"response": " ",
		"trial": "exp-sent",
		"word": "cumprimentou",
		"trial_type": "html-keyboard-response",
		"trial_index": 66,
		"time_elapsed": 794405,
		"internal_node_id": "0.0-3.0-1.39"
	},
	{
		"rt": 549,
		"stimulus": "<span style=\"font-size:30px; font-family: monospace\">o</span>",
		"response": " ",
		"trial": "exp-sent",
		"word": "o",
		"trial_type": "html-keyboard-response",
		"trial_index": 67,
		"time_elapsed": 795205,
		"internal_node_id": "0.0-3.0-1.40"
	},
	{
		"rt": 485,
		"stimulus": "<span style=\"font-size:30px; font-family: monospace\">operador</span>",
		"response": " ",
		"trial": "exp-sent",
		"word": "operador",
		"trial_type": "html-keyboard-response",
		"trial_index": 68,
		"time_elapsed": 795941,
		"internal_node_id": "0.0-3.0-1.41"
	},
	{
		"rt": 453,
		"stimulus": "<span style=\"font-size:30px; font-family: monospace\">de</span>",
		"response": " ",
		"trial": "exp-sent",
		"word": "de",
		"trial_type": "html-keyboard-response",
		"trial_index": 69,
		"time_elapsed": 796645,
		"internal_node_id": "0.0-3.0-1.42"
	},
	{
		"rt": 565,
		"stimulus": "<span style=\"font-size:30px; font-family: monospace\">caixa.</span>",
		"response": " ",
		"trial": "exp-sent",
		"word": "caixa.",
		"trial_type": "html-keyboard-response",
		"trial_index": 70,
		"time_elapsed": 797461,
		"internal_node_id": "0.0-3.0-1.43"
	},
	{
		"rt": null,
		"stimulus": "<span style= \"font-size:30px; font-family: monospace\">+</span>",
		"response": null,
		"trial_part": "fixation",
		"trial_type": "html-keyboard-response",
		"trial_index": 71,
		"time_elapsed": 798713,
		"internal_node_id": "0.0-3.0-0.44-0.44"
	},
	{
		"rt": 449,
		"stimulus": "<span style=\"font-size:30px; font-family: monospace\">A</span>",
		"response": " ",
		"trial": "exp-sent",
		"word": "A",
		"trial_type": "html-keyboard-response",
		"trial_index": 72,
		"time_elapsed": 799413,
		"internal_node_id": "0.0-3.0-1.44"
	},
	{
		"rt": 646,
		"stimulus": "<span style=\"font-size:30px; font-family: monospace\">gente</span>",
		"response": " ",
		"trial": "exp-sent",
		"word": "gente",
		"trial_type": "html-keyboard-response",
		"trial_index": 73,
		"time_elapsed": 800309,
		"internal_node_id": "0.0-3.0-1.45"
	},
	{
		"rt": 549,
		"stimulus": "<span style=\"font-size:30px; font-family: monospace\">viu</span>",
		"response": " ",
		"trial": "exp-sent",
		"word": "viu",
		"trial_type": "html-keyboard-response",
		"trial_index": 74,
		"time_elapsed": 801109,
		"internal_node_id": "0.0-3.0-1.46"
	},
	{
		"rt": 596,
		"stimulus": "<span style=\"font-size:30px; font-family: monospace\">o</span>",
		"response": " ",
		"trial": "exp-sent",
		"word": "o",
		"trial_type": "html-keyboard-response",
		"trial_index": 75,
		"time_elapsed": 801957,
		"internal_node_id": "0.0-3.0-1.47"
	},
	{
		"rt": 1365,
		"stimulus": "<span style=\"font-size:30px; font-family: monospace\">eclipse</span>",
		"response": " ",
		"trial": "exp-sent",
		"word": "eclipse",
		"trial_type": "html-keyboard-response",
		"trial_index": 76,
		"time_elapsed": 803573,
		"internal_node_id": "0.0-3.0-1.48"
	},
	{
		"rt": 741,
		"stimulus": "<span style=\"font-size:30px; font-family: monospace\">lunar</span>",
		"response": " ",
		"trial": "exp-sent",
		"word": "lunar",
		"trial_type": "html-keyboard-response",
		"trial_index": 77,
		"time_elapsed": 804565,
		"internal_node_id": "0.0-3.0-1.49"
	},
	{
		"rt": 804,
		"stimulus": "<span style=\"font-size:30px; font-family: monospace\">durante</span>",
		"response": " ",
		"trial": "exp-sent",
		"word": "durante",
		"trial_type": "html-keyboard-response",
		"trial_index": 78,
		"time_elapsed": 805621,
		"internal_node_id": "0.0-3.0-1.50"
	},
	{
		"rt": 677,
		"stimulus": "<span style=\"font-size:30px; font-family: monospace\">o</span>",
		"response": " ",
		"trial": "exp-sent",
		"word": "o",
		"trial_type": "html-keyboard-response",
		"trial_index": 79,
		"time_elapsed": 806549,
		"internal_node_id": "0.0-3.0-1.51"
	},
	{
		"rt": 580,
		"stimulus": "<span style=\"font-size:30px; font-family: monospace\">dia.</span>",
		"response": " ",
		"trial": "exp-sent",
		"word": "dia.",
		"trial_type": "html-keyboard-response",
		"trial_index": 80,
		"time_elapsed": 807381,
		"internal_node_id": "0.0-3.0-1.52"
	},
	{
		"rt": null,
		"stimulus": "<span style= \"font-size:30px; font-family: monospace\">+</span>",
		"response": null,
		"trial_part": "fixation",
		"trial_type": "html-keyboard-response",
		"trial_index": 81,
		"time_elapsed": 808634,
		"internal_node_id": "0.0-3.0-0.53-0.53"
	},
	{
		"rt": 159,
		"stimulus": "<span style=\"font-size:30px; font-family: monospace\">A</span>",
		"response": " ",
		"trial": "exp-sent",
		"word": "A",
		"trial_type": "html-keyboard-response",
		"trial_index": 82,
		"time_elapsed": 809045,
		"internal_node_id": "0.0-3.0-1.53"
	},
	{
		"rt": 932,
		"stimulus": "<span style=\"font-size:30px; font-family: monospace\">mordida</span>",
		"response": " ",
		"trial": "exp-sent",
		"word": "mordida",
		"trial_type": "html-keyboard-response",
		"trial_index": 83,
		"time_elapsed": 810229,
		"internal_node_id": "0.0-3.0-1.54"
	},
	{
		"rt": 629,
		"stimulus": "<span style=\"font-size:30px; font-family: monospace\">do</span>",
		"response": " ",
		"trial": "exp-sent",
		"word": "do",
		"trial_type": "html-keyboard-response",
		"trial_index": 84,
		"time_elapsed": 811109,
		"internal_node_id": "0.0-3.0-1.55"
	},
	{
		"rt": 1093,
		"stimulus": "<span style=\"font-size:30px; font-family: monospace\">cachorro</span>",
		"response": " ",
		"trial": "exp-sent",
		"word": "cachorro",
		"trial_type": "html-keyboard-response",
		"trial_index": 85,
		"time_elapsed": 812453,
		"internal_node_id": "0.0-3.0-1.56"
	},
	{
		"rt": 676,
		"stimulus": "<span style=\"font-size:30px; font-family: monospace\">voraz</span>",
		"response": " ",
		"trial": "exp-sent",
		"word": "voraz",
		"trial_type": "html-keyboard-response",
		"trial_index": 86,
		"time_elapsed": 813381,
		"internal_node_id": "0.0-3.0-1.57"
	},
	{
		"rt": 805,
		"stimulus": "<span style=\"font-size:30px; font-family: monospace\">causou</span>",
		"response": " ",
		"trial": "exp-sent",
		"word": "causou",
		"trial_type": "html-keyboard-response",
		"trial_index": 87,
		"time_elapsed": 814437,
		"internal_node_id": "0.0-3.0-1.58"
	},
	{
		"rt": 757,
		"stimulus": "<span style=\"font-size:30px; font-family: monospace\">uma</span>",
		"response": " ",
		"trial": "exp-sent",
		"word": "uma",
		"trial_type": "html-keyboard-response",
		"trial_index": 88,
		"time_elapsed": 815445,
		"internal_node_id": "0.0-3.0-1.59"
	},
	{
		"rt": 773,
		"stimulus": "<span style=\"font-size:30px; font-family: monospace\">cicatriz.</span>",
		"response": " ",
		"trial": "exp-sent",
		"word": "cicatriz.",
		"trial_type": "html-keyboard-response",
		"trial_index": 89,
		"time_elapsed": 816469,
		"internal_node_id": "0.0-3.0-1.60"
	},
	{
		"rt": null,
		"stimulus": "<span style= \"font-size:30px; font-family: monospace\">+</span>",
		"response": null,
		"trial_part": "fixation",
		"trial_type": "html-keyboard-response",
		"trial_index": 90,
		"time_elapsed": 817723,
		"internal_node_id": "0.0-3.0-0.61-0.61"
	},
	{
		"rt": 367,
		"stimulus": "<span style=\"font-size:30px; font-family: monospace\">Elas</span>",
		"response": " ",
		"trial": "exp-sent",
		"word": "Elas",
		"trial_type": "html-keyboard-response",
		"trial_index": 91,
		"time_elapsed": 818341,
		"internal_node_id": "0.0-3.0-1.61"
	},
	{
		"rt": 469,
		"stimulus": "<span style=\"font-size:30px; font-family: monospace\">não</span>",
		"response": " ",
		"trial": "exp-sent",
		"word": "não",
		"trial_type": "html-keyboard-response",
		"trial_index": 92,
		"time_elapsed": 819061,
		"internal_node_id": "0.0-3.0-1.62"
	},
	{
		"rt": 613,
		"stimulus": "<span style=\"font-size:30px; font-family: monospace\">viram</span>",
		"response": " ",
		"trial": "exp-sent",
		"word": "viram",
		"trial_type": "html-keyboard-response",
		"trial_index": 93,
		"time_elapsed": 819925,
		"internal_node_id": "0.0-3.0-1.63"
	},
	{
		"rt": 693,
		"stimulus": "<span style=\"font-size:30px; font-family: monospace\">nenhuma</span>",
		"response": " ",
		"trial": "exp-sent",
		"word": "nenhuma",
		"trial_type": "html-keyboard-response",
		"trial_index": 94,
		"time_elapsed": 820869,
		"internal_node_id": "0.0-3.0-1.64"
	},
	{
		"rt": 692,
		"stimulus": "<span style=\"font-size:30px; font-family: monospace\">diferença</span>",
		"response": " ",
		"trial": "exp-sent",
		"word": "diferença",
		"trial_type": "html-keyboard-response",
		"trial_index": 95,
		"time_elapsed": 821813,
		"internal_node_id": "0.0-3.0-1.65"
	},
	{
		"rt": 581,
		"stimulus": "<span style=\"font-size:30px; font-family: monospace\">entre</span>",
		"response": " ",
		"trial": "exp-sent",
		"word": "entre",
		"trial_type": "html-keyboard-response",
		"trial_index": 96,
		"time_elapsed": 822645,
		"internal_node_id": "0.0-3.0-1.66"
	},
	{
		"rt": 532,
		"stimulus": "<span style=\"font-size:30px; font-family: monospace\">os</span>",
		"response": " ",
		"trial": "exp-sent",
		"word": "os",
		"trial_type": "html-keyboard-response",
		"trial_index": 97,
		"time_elapsed": 823429,
		"internal_node_id": "0.0-3.0-1.67"
	},
	{
		"rt": 500,
		"stimulus": "<span style=\"font-size:30px; font-family: monospace\">textos.</span>",
		"response": " ",
		"trial": "exp-sent",
		"word": "textos.",
		"trial_type": "html-keyboard-response",
		"trial_index": 98,
		"time_elapsed": 824181,
		"internal_node_id": "0.0-3.0-1.68"
	},
	{
		"rt": null,
		"stimulus": "<span style= \"font-size:30px; font-family: monospace\">+</span>",
		"response": null,
		"trial_part": "fixation",
		"trial_type": "html-keyboard-response",
		"trial_index": 99,
		"time_elapsed": 825432,
		"internal_node_id": "0.0-3.0-0.69-0.69"
	},
	{
		"rt": 385,
		"stimulus": "<span style=\"font-size:30px; font-family: monospace\">Amanhã</span>",
		"response": " ",
		"trial": "exp-sent",
		"word": "Amanhã",
		"trial_type": "html-keyboard-response",
		"trial_index": 100,
		"time_elapsed": 826069,
		"internal_node_id": "0.0-3.0-1.69"
	},
	{
		"rt": 518,
		"stimulus": "<span style=\"font-size:30px; font-family: monospace\">vai</span>",
		"response": " ",
		"trial": "exp-sent",
		"word": "vai",
		"trial_type": "html-keyboard-response",
		"trial_index": 101,
		"time_elapsed": 826837,
		"internal_node_id": "0.0-3.0-1.70"
	},
	{
		"rt": 581,
		"stimulus": "<span style=\"font-size:30px; font-family: monospace\">ter</span>",
		"response": " ",
		"trial": "exp-sent",
		"word": "ter",
		"trial_type": "html-keyboard-response",
		"trial_index": 102,
		"time_elapsed": 827669,
		"internal_node_id": "0.0-3.0-1.71"
	},
	{
		"rt": 485,
		"stimulus": "<span style=\"font-size:30px; font-family: monospace\">um</span>",
		"response": " ",
		"trial": "exp-sent",
		"word": "um",
		"trial_type": "html-keyboard-response",
		"trial_index": 103,
		"time_elapsed": 828405,
		"internal_node_id": "0.0-3.0-1.72"
	},
	{
		"rt": 564,
		"stimulus": "<span style=\"font-size:30px; font-family: monospace\">bazar</span>",
		"response": " ",
		"trial": "exp-sent",
		"word": "bazar",
		"trial_type": "html-keyboard-response",
		"trial_index": 104,
		"time_elapsed": 829221,
		"internal_node_id": "0.0-3.0-1.73"
	},
	{
		"rt": 565,
		"stimulus": "<span style=\"font-size:30px; font-family: monospace\">no</span>",
		"response": " ",
		"trial": "exp-sent",
		"word": "no",
		"trial_type": "html-keyboard-response",
		"trial_index": 105,
		"time_elapsed": 830037,
		"internal_node_id": "0.0-3.0-1.74"
	},
	{
		"rt": 789,
		"stimulus": "<span style=\"font-size:30px; font-family: monospace\">bairro.</span>",
		"response": " ",
		"trial": "comp",
		"word": "bairro.",
		"trial_type": "html-keyboard-response",
		"trial_index": 106,
		"time_elapsed": 831077,
		"internal_node_id": "0.0-3.0-1.75"
	},
	{
		"rt": 29333,
		"stimulus": "<span style=\"font-size:30px; font-family: monospace\">Amanhã vai acontecer um bazar no bairro?</span>",
		"response": "s",
		"question": "Amanhã vai acontecer um bazar no bairro?",
		"answer": "sim",
		"trial": "comp",
		"trial_type": "html-keyboard-response",
		"trial_index": 107,
		"time_elapsed": 860661,
		"internal_node_id": "0.0-3.0-2.75-0.75",
		"accuracy": false
	},
	{
		"rt": null,
		"stimulus": "<span style= \"font-size:30px; font-family: monospace\">+</span>",
		"response": null,
		"trial_part": "fixation",
		"trial_type": "html-keyboard-response",
		"trial_index": 108,
		"time_elapsed": 862162,
		"internal_node_id": "0.0-3.0-0.76-0.76"
	},
	{
		"rt": 2439,
		"stimulus": "<span style=\"font-size:30px; font-family: monospace\">Ursos</span>",
		"response": " ",
		"trial": "exp-sent",
		"word": "Ursos",
		"trial_type": "html-keyboard-response",
		"trial_index": 109,
		"time_elapsed": 864853,
		"internal_node_id": "0.0-3.0-1.76"
	},
	{
		"rt": 677,
		"stimulus": "<span style=\"font-size:30px; font-family: monospace\">têm</span>",
		"response": " ",
		"trial": "exp-sent",
		"word": "têm",
		"trial_type": "html-keyboard-response",
		"trial_index": 110,
		"time_elapsed": 865781,
		"internal_node_id": "0.0-3.0-1.77"
	},
	{
		"rt": 549,
		"stimulus": "<span style=\"font-size:30px; font-family: monospace\">uma</span>",
		"response": " ",
		"trial": "exp-sent",
		"word": "uma",
		"trial_type": "html-keyboard-response",
		"trial_index": 111,
		"time_elapsed": 866581,
		"internal_node_id": "0.0-3.0-1.78"
	},
	{
		"rt": 548,
		"stimulus": "<span style=\"font-size:30px; font-family: monospace\">patada</span>",
		"response": " ",
		"trial": "exp-sent",
		"word": "patada",
		"trial_type": "html-keyboard-response",
		"trial_index": 112,
		"time_elapsed": 867381,
		"internal_node_id": "0.0-3.0-1.79"
	},
	{
		"rt": 517,
		"stimulus": "<span style=\"font-size:30px; font-family: monospace\">brutal</span>",
		"response": " ",
		"trial": "exp-sent",
		"word": "brutal",
		"trial_type": "html-keyboard-response",
		"trial_index": 113,
		"time_elapsed": 868149,
		"internal_node_id": "0.0-3.0-1.80"
	},
	{
		"rt": 549,
		"stimulus": "<span style=\"font-size:30px; font-family: monospace\">e</span>",
		"response": " ",
		"trial": "exp-sent",
		"word": "e",
		"trial_type": "html-keyboard-response",
		"trial_index": 114,
		"time_elapsed": 868949,
		"internal_node_id": "0.0-3.0-1.81"
	},
	{
		"rt": 629,
		"stimulus": "<span style=\"font-size:30px; font-family: monospace\">poderosa.</span>",
		"response": " ",
		"trial": "exp-sent",
		"word": "poderosa.",
		"trial_type": "html-keyboard-response",
		"trial_index": 115,
		"time_elapsed": 869829,
		"internal_node_id": "0.0-3.0-1.82"
	},
	{
		"rt": null,
		"stimulus": "<span style= \"font-size:30px; font-family: monospace\">+</span>",
		"response": null,
		"trial_part": "fixation",
		"trial_type": "html-keyboard-response",
		"trial_index": 116,
		"time_elapsed": 871082,
		"internal_node_id": "0.0-3.0-0.83-0.83"
	},
	{
		"rt": 432,
		"stimulus": "<span style=\"font-size:30px; font-family: monospace\">Eu</span>",
		"response": " ",
		"trial": "exp-sent",
		"word": "Eu",
		"trial_type": "html-keyboard-response",
		"trial_index": 117,
		"time_elapsed": 871765,
		"internal_node_id": "0.0-3.0-1.83"
	},
	{
		"rt": 869,
		"stimulus": "<span style=\"font-size:30px; font-family: monospace\">fiz</span>",
		"response": " ",
		"trial": "exp-sent",
		"word": "fiz",
		"trial_type": "html-keyboard-response",
		"trial_index": 118,
		"time_elapsed": 872885,
		"internal_node_id": "0.0-3.0-1.84"
	},
	{
		"rt": 533,
		"stimulus": "<span style=\"font-size:30px; font-family: monospace\">aulas</span>",
		"response": " ",
		"trial": "exp-sent",
		"word": "aulas",
		"trial_type": "html-keyboard-response",
		"trial_index": 119,
		"time_elapsed": 873669,
		"internal_node_id": "0.0-3.0-1.85"
	},
	{
		"rt": 516,
		"stimulus": "<span style=\"font-size:30px; font-family: monospace\">de</span>",
		"response": " ",
		"trial": "exp-sent",
		"word": "de",
		"trial_type": "html-keyboard-response",
		"trial_index": 120,
		"time_elapsed": 874437,
		"internal_node_id": "0.0-3.0-1.86"
	},
	{
		"rt": 565,
		"stimulus": "<span style=\"font-size:30px; font-family: monospace\">espanhol</span>",
		"response": " ",
		"trial": "exp-sent",
		"word": "espanhol",
		"trial_type": "html-keyboard-response",
		"trial_index": 121,
		"time_elapsed": 875253,
		"internal_node_id": "0.0-3.0-1.87"
	},
	{
		"rt": 500,
		"stimulus": "<span style=\"font-size:30px; font-family: monospace\">nesta</span>",
		"response": " ",
		"trial": "exp-sent",
		"word": "nesta",
		"trial_type": "html-keyboard-response",
		"trial_index": 122,
		"time_elapsed": 876005,
		"internal_node_id": "0.0-3.0-1.88"
	},
	{
		"rt": 533,
		"stimulus": "<span style=\"font-size:30px; font-family: monospace\">cidade.</span>",
		"response": " ",
		"trial": "exp-sent",
		"word": "cidade.",
		"trial_type": "html-keyboard-response",
		"trial_index": 123,
		"time_elapsed": 876789,
		"internal_node_id": "0.0-3.0-1.89"
	},
	{
		"rt": null,
		"stimulus": "<span style= \"font-size:30px; font-family: monospace\">+</span>",
		"response": null,
		"trial_part": "fixation",
		"trial_type": "html-keyboard-response",
		"trial_index": 124,
		"time_elapsed": 878042,
		"internal_node_id": "0.0-3.0-0.90-0.90"
	},
	{
		"rt": 384,
		"stimulus": "<span style=\"font-size:30px; font-family: monospace\">Ele</span>",
		"response": " ",
		"trial": "exp-sent",
		"word": "Ele",
		"trial_type": "html-keyboard-response",
		"trial_index": 125,
		"time_elapsed": 878677,
		"internal_node_id": "0.0-3.0-1.90"
	},
	{
		"rt": 628,
		"stimulus": "<span style=\"font-size:30px; font-family: monospace\">comprou</span>",
		"response": " ",
		"trial": "exp-sent",
		"word": "comprou",
		"trial_type": "html-keyboard-response",
		"trial_index": 126,
		"time_elapsed": 879557,
		"internal_node_id": "0.0-3.0-1.91"
	},
	{
		"rt": 597,
		"stimulus": "<span style=\"font-size:30px; font-family: monospace\">mais</span>",
		"response": " ",
		"trial": "exp-sent",
		"word": "mais",
		"trial_type": "html-keyboard-response",
		"trial_index": 127,
		"time_elapsed": 880405,
		"internal_node_id": "0.0-3.0-1.92"
	},
	{
		"rt": 550,
		"stimulus": "<span style=\"font-size:30px; font-family: monospace\">uma</span>",
		"response": " ",
		"trial": "exp-sent",
		"word": "uma",
		"trial_type": "html-keyboard-response",
		"trial_index": 128,
		"time_elapsed": 881205,
		"internal_node_id": "0.0-3.0-1.93"
	},
	{
		"rt": 565,
		"stimulus": "<span style=\"font-size:30px; font-family: monospace\">esponja</span>",
		"response": " ",
		"trial": "exp-sent",
		"word": "esponja",
		"trial_type": "html-keyboard-response",
		"trial_index": 129,
		"time_elapsed": 882021,
		"internal_node_id": "0.0-3.0-1.94"
	},
	{
		"rt": 533,
		"stimulus": "<span style=\"font-size:30px; font-family: monospace\">para</span>",
		"response": " ",
		"trial": "exp-sent",
		"word": "para",
		"trial_type": "html-keyboard-response",
		"trial_index": 130,
		"time_elapsed": 882805,
		"internal_node_id": "0.0-3.0-1.95"
	},
	{
		"rt": 933,
		"stimulus": "<span style=\"font-size:30px; font-family: monospace\">a</span>",
		"response": " ",
		"trial": "exp-sent",
		"word": "a",
		"trial_type": "html-keyboard-response",
		"trial_index": 131,
		"time_elapsed": 883989,
		"internal_node_id": "0.0-3.0-1.96"
	},
	{
		"rt": 1156,
		"stimulus": "<span style=\"font-size:30px; font-family: monospace\">cozinha.</span>",
		"response": " ",
		"trial": "exp-sent",
		"word": "cozinha.",
		"trial_type": "html-keyboard-response",
		"trial_index": 132,
		"time_elapsed": 885397,
		"internal_node_id": "0.0-3.0-1.97"
	},
	{
		"rt": null,
		"stimulus": "<span style= \"font-size:30px; font-family: monospace\">+</span>",
		"response": null,
		"trial_part": "fixation",
		"trial_type": "html-keyboard-response",
		"trial_index": 133,
		"time_elapsed": 886649,
		"internal_node_id": "0.0-3.0-0.98-0.98"
	},
	{
		"rt": 752,
		"stimulus": "<span style=\"font-size:30px; font-family: monospace\">Ele</span>",
		"response": " ",
		"trial": "exp-sent",
		"word": "Ele",
		"trial_type": "html-keyboard-response",
		"trial_index": 134,
		"time_elapsed": 887653,
		"internal_node_id": "0.0-3.0-1.98"
	},
	{
		"rt": 645,
		"stimulus": "<span style=\"font-size:30px; font-family: monospace\">teve</span>",
		"response": " ",
		"trial": "exp-sent",
		"word": "teve",
		"trial_type": "html-keyboard-response",
		"trial_index": 135,
		"time_elapsed": 888549,
		"internal_node_id": "0.0-3.0-1.99"
	},
	{
		"rt": 548,
		"stimulus": "<span style=\"font-size:30px; font-family: monospace\">um</span>",
		"response": " ",
		"trial": "exp-sent",
		"word": "um",
		"trial_type": "html-keyboard-response",
		"trial_index": 136,
		"time_elapsed": 889349,
		"internal_node_id": "0.0-3.0-1.100"
	},
	{
		"rt": 549,
		"stimulus": "<span style=\"font-size:30px; font-family: monospace\">sono</span>",
		"response": " ",
		"trial": "exp-sent",
		"word": "sono",
		"trial_type": "html-keyboard-response",
		"trial_index": 137,
		"time_elapsed": 890149,
		"internal_node_id": "0.0-3.0-1.101"
	},
	{
		"rt": 933,
		"stimulus": "<span style=\"font-size:30px; font-family: monospace\">bizarro</span>",
		"response": " ",
		"trial": "exp-sent",
		"word": "bizarro",
		"trial_type": "html-keyboard-response",
		"trial_index": 138,
		"time_elapsed": 891333,
		"internal_node_id": "0.0-3.0-1.102"
	},
	{
		"rt": 533,
		"stimulus": "<span style=\"font-size:30px; font-family: monospace\">sem</span>",
		"response": " ",
		"trial": "exp-sent",
		"word": "sem",
		"trial_type": "html-keyboard-response",
		"trial_index": 139,
		"time_elapsed": 892117,
		"internal_node_id": "0.0-3.0-1.103"
	},
	{
		"rt": 692,
		"stimulus": "<span style=\"font-size:30px; font-family: monospace\">nenhum</span>",
		"response": " ",
		"trial": "exp-sent",
		"word": "nenhum",
		"trial_type": "html-keyboard-response",
		"trial_index": 140,
		"time_elapsed": 893060,
		"internal_node_id": "0.0-3.0-1.104"
	},
	{
		"rt": 710,
		"stimulus": "<span style=\"font-size:30px; font-family: monospace\">motivo.</span>",
		"response": " ",
		"trial": "exp-sent",
		"word": "motivo.",
		"trial_type": "html-keyboard-response",
		"trial_index": 141,
		"time_elapsed": 894020,
		"internal_node_id": "0.0-3.0-1.105"
	},
	{
		"rt": null,
		"stimulus": "<span style= \"font-size:30px; font-family: monospace\">+</span>",
		"response": null,
		"trial_part": "fixation",
		"trial_type": "html-keyboard-response",
		"trial_index": 142,
		"time_elapsed": 895272,
		"internal_node_id": "0.0-3.0-0.106-0.106"
	},
	{
		"rt": 401,
		"stimulus": "<span style=\"font-size:30px; font-family: monospace\">A</span>",
		"response": " ",
		"trial": "exp-sent",
		"word": "A",
		"trial_type": "html-keyboard-response",
		"trial_index": 143,
		"time_elapsed": 895924,
		"internal_node_id": "0.0-3.0-1.106"
	},
	{
		"rt": 486,
		"stimulus": "<span style=\"font-size:30px; font-family: monospace\">moça</span>",
		"response": " ",
		"trial": "exp-sent",
		"word": "moça",
		"trial_type": "html-keyboard-response",
		"trial_index": 144,
		"time_elapsed": 896661,
		"internal_node_id": "0.0-3.0-1.107"
	},
	{
		"rt": 485,
		"stimulus": "<span style=\"font-size:30px; font-family: monospace\">comprou</span>",
		"response": " ",
		"trial": "exp-sent",
		"word": "comprou",
		"trial_type": "html-keyboard-response",
		"trial_index": 145,
		"time_elapsed": 897397,
		"internal_node_id": "0.0-3.0-1.108"
	},
	{
		"rt": 581,
		"stimulus": "<span style=\"font-size:30px; font-family: monospace\">um</span>",
		"response": " ",
		"trial": "exp-sent",
		"word": "um",
		"trial_type": "html-keyboard-response",
		"trial_index": 146,
		"time_elapsed": 898229,
		"internal_node_id": "0.0-3.0-1.109"
	},
	{
		"rt": 820,
		"stimulus": "<span style=\"font-size:30px; font-family: monospace\">diamante</span>",
		"response": " ",
		"trial": "exp-sent",
		"word": "diamante",
		"trial_type": "html-keyboard-response",
		"trial_index": 147,
		"time_elapsed": 899301,
		"internal_node_id": "0.0-3.0-1.110"
	},
	{
		"rt": 549,
		"stimulus": "<span style=\"font-size:30px; font-family: monospace\">para</span>",
		"response": " ",
		"trial": "exp-sent",
		"word": "para",
		"trial_type": "html-keyboard-response",
		"trial_index": 148,
		"time_elapsed": 900101,
		"internal_node_id": "0.0-3.0-1.111"
	},
	{
		"rt": 468,
		"stimulus": "<span style=\"font-size:30px; font-family: monospace\">sua</span>",
		"response": " ",
		"trial": "exp-sent",
		"word": "sua",
		"trial_type": "html-keyboard-response",
		"trial_index": 149,
		"time_elapsed": 900821,
		"internal_node_id": "0.0-3.0-1.112"
	},
	{
		"rt": 501,
		"stimulus": "<span style=\"font-size:30px; font-family: monospace\">prima.</span>",
		"response": " ",
		"trial": "comp",
		"word": "prima.",
		"trial_type": "html-keyboard-response",
		"trial_index": 150,
		"time_elapsed": 901573,
		"internal_node_id": "0.0-3.0-1.113"
	},
	{
		"rt": 17525,
		"stimulus": "<span style=\"font-size:30px; font-family: monospace\">A moça comprou um diamante?</span>",
		"response": "s",
		"question": "A moça comprou um diamante?",
		"answer": "sim",
		"trial": "comp",
		"trial_type": "html-keyboard-response",
		"trial_index": 151,
		"time_elapsed": 919349,
		"internal_node_id": "0.0-3.0-2.113-0.113",
		"accuracy": false
	},
	{
		"rt": null,
		"stimulus": "<span style= \"font-size:30px; font-family: monospace\">+</span>",
		"response": null,
		"trial_part": "fixation",
		"trial_type": "html-keyboard-response",
		"trial_index": 152,
		"time_elapsed": 920851,
		"internal_node_id": "0.0-3.0-0.114-0.114"
	},
	{
		"rt": 727,
		"stimulus": "<span style=\"font-size:30px; font-family: monospace\">Barulho</span>",
		"response": " ",
		"trial": "exp-sent",
		"word": "Barulho",
		"trial_type": "html-keyboard-response",
		"trial_index": 153,
		"time_elapsed": 921829,
		"internal_node_id": "0.0-3.0-1.114"
	},
	{
		"rt": 773,
		"stimulus": "<span style=\"font-size:30px; font-family: monospace\">de</span>",
		"response": " ",
		"trial": "exp-sent",
		"word": "de",
		"trial_type": "html-keyboard-response",
		"trial_index": 154,
		"time_elapsed": 922853,
		"internal_node_id": "0.0-3.0-1.115"
	},
	{
		"rt": 661,
		"stimulus": "<span style=\"font-size:30px; font-family: monospace\">carros</span>",
		"response": " ",
		"trial": "exp-sent",
		"word": "carros",
		"trial_type": "html-keyboard-response",
		"trial_index": 155,
		"time_elapsed": 923765,
		"internal_node_id": "0.0-3.0-1.116"
	},
	{
		"rt": 693,
		"stimulus": "<span style=\"font-size:30px; font-family: monospace\">é</span>",
		"response": " ",
		"trial": "exp-sent",
		"word": "é",
		"trial_type": "html-keyboard-response",
		"trial_index": 156,
		"time_elapsed": 924709,
		"internal_node_id": "0.0-3.0-1.117"
	},
	{
		"rt": 581,
		"stimulus": "<span style=\"font-size:30px; font-family: monospace\">irritante</span>",
		"response": " ",
		"trial": "exp-sent",
		"word": "irritante",
		"trial_type": "html-keyboard-response",
		"trial_index": 157,
		"time_elapsed": 925541,
		"internal_node_id": "0.0-3.0-1.118"
	},
	{
		"rt": 517,
		"stimulus": "<span style=\"font-size:30px; font-family: monospace\">para</span>",
		"response": " ",
		"trial": "exp-sent",
		"word": "para",
		"trial_type": "html-keyboard-response",
		"trial_index": 158,
		"time_elapsed": 926309,
		"internal_node_id": "0.0-3.0-1.119"
	},
	{
		"rt": 549,
		"stimulus": "<span style=\"font-size:30px; font-family: monospace\">a</span>",
		"response": " ",
		"trial": "exp-sent",
		"word": "a",
		"trial_type": "html-keyboard-response",
		"trial_index": 159,
		"time_elapsed": 927109,
		"internal_node_id": "0.0-3.0-1.120"
	},
	{
		"rt": 484,
		"stimulus": "<span style=\"font-size:30px; font-family: monospace\">moça.</span>",
		"response": " ",
		"trial": "exp-sent",
		"word": "moça.",
		"trial_type": "html-keyboard-response",
		"trial_index": 160,
		"time_elapsed": 927845,
		"internal_node_id": "0.0-3.0-1.121"
	},
	{
		"rt": null,
		"stimulus": "<span style= \"font-size:30px; font-family: monospace\">+</span>",
		"response": null,
		"trial_part": "fixation",
		"trial_type": "html-keyboard-response",
		"trial_index": 161,
		"time_elapsed": 929098,
		"internal_node_id": "0.0-3.0-0.122-0.122"
	},
	{
		"rt": 295,
		"stimulus": "<span style=\"font-size:30px; font-family: monospace\">A</span>",
		"response": " ",
		"trial": "exp-sent",
		"word": "A",
		"trial_type": "html-keyboard-response",
		"trial_index": 162,
		"time_elapsed": 929653,
		"internal_node_id": "0.0-3.0-1.122"
	},
	{
		"rt": 740,
		"stimulus": "<span style=\"font-size:30px; font-family: monospace\">loja</span>",
		"response": " ",
		"trial": "exp-sent",
		"word": "loja",
		"trial_type": "html-keyboard-response",
		"trial_index": 163,
		"time_elapsed": 930645,
		"internal_node_id": "0.0-3.0-1.123"
	},
	{
		"rt": 709,
		"stimulus": "<span style=\"font-size:30px; font-family: monospace\">também</span>",
		"response": " ",
		"trial": "exp-sent",
		"word": "também",
		"trial_type": "html-keyboard-response",
		"trial_index": 164,
		"time_elapsed": 931605,
		"internal_node_id": "0.0-3.0-1.124"
	},
	{
		"rt": 709,
		"stimulus": "<span style=\"font-size:30px; font-family: monospace\">vende</span>",
		"response": " ",
		"trial": "exp-sent",
		"word": "vende",
		"trial_type": "html-keyboard-response",
		"trial_index": 165,
		"time_elapsed": 932565,
		"internal_node_id": "0.0-3.0-1.125"
	},
	{
		"rt": 773,
		"stimulus": "<span style=\"font-size:30px; font-family: monospace\">taça</span>",
		"response": " ",
		"trial": "exp-sent",
		"word": "taça",
		"trial_type": "html-keyboard-response",
		"trial_index": 166,
		"time_elapsed": 933589,
		"internal_node_id": "0.0-3.0-1.126"
	},
	{
		"rt": 757,
		"stimulus": "<span style=\"font-size:30px; font-family: monospace\">de</span>",
		"response": " ",
		"trial": "exp-sent",
		"word": "de",
		"trial_type": "html-keyboard-response",
		"trial_index": 167,
		"time_elapsed": 934597,
		"internal_node_id": "0.0-3.0-1.127"
	},
	{
		"rt": 740,
		"stimulus": "<span style=\"font-size:30px; font-family: monospace\">vinho</span>",
		"response": " ",
		"trial": "exp-sent",
		"word": "vinho",
		"trial_type": "html-keyboard-response",
		"trial_index": 168,
		"time_elapsed": 935589,
		"internal_node_id": "0.0-3.0-1.128"
	},
	{
		"rt": 933,
		"stimulus": "<span style=\"font-size:30px; font-family: monospace\">e</span>",
		"response": " ",
		"trial": "exp-sent",
		"word": "e",
		"trial_type": "html-keyboard-response",
		"trial_index": 169,
		"time_elapsed": 936773,
		"internal_node_id": "0.0-3.0-1.129"
	},
	{
		"rt": 1205,
		"stimulus": "<span style=\"font-size:30px; font-family: monospace\">espumante.</span>",
		"response": " ",
		"trial": "exp-sent",
		"word": "espumante.",
		"trial_type": "html-keyboard-response",
		"trial_index": 170,
		"time_elapsed": 938229,
		"internal_node_id": "0.0-3.0-1.130"
	},
	{
		"rt": null,
		"stimulus": "<span style= \"font-size:30px; font-family: monospace\">+</span>",
		"response": null,
		"trial_part": "fixation",
		"trial_type": "html-keyboard-response",
		"trial_index": 171,
		"time_elapsed": 939481,
		"internal_node_id": "0.0-3.0-0.131-0.131"
	},
	{
		"rt": 385,
		"stimulus": "<span style=\"font-size:30px; font-family: monospace\">A</span>",
		"response": " ",
		"trial": "exp-sent",
		"word": "A",
		"trial_type": "html-keyboard-response",
		"trial_index": 172,
		"time_elapsed": 940117,
		"internal_node_id": "0.0-3.0-1.131"
	},
	{
		"rt": 597,
		"stimulus": "<span style=\"font-size:30px; font-family: monospace\">bruxa</span>",
		"response": " ",
		"trial": "exp-sent",
		"word": "bruxa",
		"trial_type": "html-keyboard-response",
		"trial_index": 173,
		"time_elapsed": 940965,
		"internal_node_id": "0.0-3.0-1.132"
	},
	{
		"rt": 581,
		"stimulus": "<span style=\"font-size:30px; font-family: monospace\">tinha</span>",
		"response": " ",
		"trial": "exp-sent",
		"word": "tinha",
		"trial_type": "html-keyboard-response",
		"trial_index": 174,
		"time_elapsed": 941797,
		"internal_node_id": "0.0-3.0-1.133"
	},
	{
		"rt": 517,
		"stimulus": "<span style=\"font-size:30px; font-family: monospace\">uma</span>",
		"response": " ",
		"trial": "exp-sent",
		"word": "uma",
		"trial_type": "html-keyboard-response",
		"trial_index": 175,
		"time_elapsed": 942565,
		"internal_node_id": "0.0-3.0-1.134"
	},
	{
		"rt": 885,
		"stimulus": "<span style=\"font-size:30px; font-family: monospace\">vassoura</span>",
		"response": " ",
		"trial": "exp-sent",
		"word": "vassoura",
		"trial_type": "html-keyboard-response",
		"trial_index": 176,
		"time_elapsed": 943701,
		"internal_node_id": "0.0-3.0-1.135"
	},
	{
		"rt": 549,
		"stimulus": "<span style=\"font-size:30px; font-family: monospace\">e</span>",
		"response": " ",
		"trial": "exp-sent",
		"word": "e",
		"trial_type": "html-keyboard-response",
		"trial_index": 177,
		"time_elapsed": 944501,
		"internal_node_id": "0.0-3.0-1.136"
	},
	{
		"rt": 437,
		"stimulus": "<span style=\"font-size:30px; font-family: monospace\">um</span>",
		"response": " ",
		"trial": "exp-sent",
		"word": "um",
		"trial_type": "html-keyboard-response",
		"trial_index": 178,
		"time_elapsed": 945189,
		"internal_node_id": "0.0-3.0-1.137"
	},
	{
		"rt": 453,
		"stimulus": "<span style=\"font-size:30px; font-family: monospace\">gato.</span>",
		"response": " ",
		"trial": "exp-sent",
		"word": "gato.",
		"trial_type": "html-keyboard-response",
		"trial_index": 179,
		"time_elapsed": 945893,
		"internal_node_id": "0.0-3.0-1.138"
	},
	{
		"rt": null,
		"stimulus": "<span style= \"font-size:30px; font-family: monospace\">+</span>",
		"response": null,
		"trial_part": "fixation",
		"trial_type": "html-keyboard-response",
		"trial_index": 180,
		"time_elapsed": 947145,
		"internal_node_id": "0.0-3.0-0.139-0.139"
	},
	{
		"rt": 369,
		"stimulus": "<span style=\"font-size:30px; font-family: monospace\">Eu</span>",
		"response": " ",
		"trial": "exp-sent",
		"word": "Eu",
		"trial_type": "html-keyboard-response",
		"trial_index": 181,
		"time_elapsed": 947765,
		"internal_node_id": "0.0-3.0-1.139"
	},
	{
		"rt": 581,
		"stimulus": "<span style=\"font-size:30px; font-family: monospace\">me</span>",
		"response": " ",
		"trial": "exp-sent",
		"word": "me",
		"trial_type": "html-keyboard-response",
		"trial_index": 182,
		"time_elapsed": 948597,
		"internal_node_id": "0.0-3.0-1.140"
	},
	{
		"rt": 933,
		"stimulus": "<span style=\"font-size:30px; font-family: monospace\">divirto</span>",
		"response": " ",
		"trial": "exp-sent",
		"word": "divirto",
		"trial_type": "html-keyboard-response",
		"trial_index": 183,
		"time_elapsed": 949781,
		"internal_node_id": "0.0-3.0-1.141"
	},
	{
		"rt": 645,
		"stimulus": "<span style=\"font-size:30px; font-family: monospace\">em</span>",
		"response": " ",
		"trial": "exp-sent",
		"word": "em",
		"trial_type": "html-keyboard-response",
		"trial_index": 184,
		"time_elapsed": 950677,
		"internal_node_id": "0.0-3.0-1.142"
	},
	{
		"rt": 885,
		"stimulus": "<span style=\"font-size:30px; font-family: monospace\">festas</span>",
		"response": " ",
		"trial": "exp-sent",
		"word": "festas",
		"trial_type": "html-keyboard-response",
		"trial_index": 185,
		"time_elapsed": 951813,
		"internal_node_id": "0.0-3.0-1.143"
	},
	{
		"rt": 565,
		"stimulus": "<span style=\"font-size:30px; font-family: monospace\">de</span>",
		"response": " ",
		"trial": "exp-sent",
		"word": "de",
		"trial_type": "html-keyboard-response",
		"trial_index": 186,
		"time_elapsed": 952629,
		"internal_node_id": "0.0-3.0-1.144"
	},
	{
		"rt": 1317,
		"stimulus": "<span style=\"font-size:30px; font-family: monospace\">criança.</span>",
		"response": " ",
		"trial": "exp-sent",
		"word": "criança.",
		"trial_type": "html-keyboard-response",
		"trial_index": 187,
		"time_elapsed": 954197,
		"internal_node_id": "0.0-3.0-1.145"
	},
	{
		"rt": null,
		"stimulus": "<span style= \"font-size:30px; font-family: monospace\">+</span>",
		"response": null,
		"trial_part": "fixation",
		"trial_type": "html-keyboard-response",
		"trial_index": 188,
		"time_elapsed": 955458,
		"internal_node_id": "0.0-3.0-0.146-0.146"
	},
	{
		"rt": 489,
		"stimulus": "<span style=\"font-size:30px; font-family: monospace\">A</span>",
		"response": " ",
		"trial": "exp-sent",
		"word": "A",
		"trial_type": "html-keyboard-response",
		"trial_index": 189,
		"time_elapsed": 956197,
		"internal_node_id": "0.0-3.0-1.146"
	},
	{
		"rt": 3061,
		"stimulus": "<span style=\"font-size:30px; font-family: monospace\">janela</span>",
		"response": " ",
		"trial": "exp-sent",
		"word": "janela",
		"trial_type": "html-keyboard-response",
		"trial_index": 190,
		"time_elapsed": 959509,
		"internal_node_id": "0.0-3.0-1.147"
	},
	{
		"rt": 853,
		"stimulus": "<span style=\"font-size:30px; font-family: monospace\">alta</span>",
		"response": " ",
		"trial": "exp-sent",
		"word": "alta",
		"trial_type": "html-keyboard-response",
		"trial_index": 191,
		"time_elapsed": 960613,
		"internal_node_id": "0.0-3.0-1.148"
	},
	{
		"rt": 916,
		"stimulus": "<span style=\"font-size:30px; font-family: monospace\">estava</span>",
		"response": " ",
		"trial": "exp-sent",
		"word": "estava",
		"trial_type": "html-keyboard-response",
		"trial_index": 192,
		"time_elapsed": 961780,
		"internal_node_id": "0.0-3.0-1.149"
	},
	{
		"rt": 1030,
		"stimulus": "<span style=\"font-size:30px; font-family: monospace\">quebrada</span>",
		"response": " ",
		"trial": "exp-sent",
		"word": "quebrada",
		"trial_type": "html-keyboard-response",
		"trial_index": 193,
		"time_elapsed": 963061,
		"internal_node_id": "0.0-3.0-1.150"
	},
	{
		"rt": 645,
		"stimulus": "<span style=\"font-size:30px; font-family: monospace\">desde</span>",
		"response": " ",
		"trial": "exp-sent",
		"word": "desde",
		"trial_type": "html-keyboard-response",
		"trial_index": 194,
		"time_elapsed": 963957,
		"internal_node_id": "0.0-3.0-1.151"
	},
	{
		"rt": 613,
		"stimulus": "<span style=\"font-size:30px; font-family: monospace\">ontem.</span>",
		"response": " ",
		"trial": "comp",
		"word": "ontem.",
		"trial_type": "html-keyboard-response",
		"trial_index": 195,
		"time_elapsed": 964821,
		"internal_node_id": "0.0-3.0-1.152"
	},
	{
		"rt": 24389,
		"stimulus": "<span style=\"font-size:30px; font-family: monospace\">A janela alta estava quebrada?</span>",
		"response": "s",
		"question": "A janela alta estava quebrada?",
		"answer": "sim",
		"trial": "comp",
		"trial_type": "html-keyboard-response",
		"trial_index": 196,
		"time_elapsed": 989461,
		"internal_node_id": "0.0-3.0-2.152-0.152",
		"accuracy": false
	},
	{
		"rt": null,
		"stimulus": "<span style= \"font-size:30px; font-family: monospace\">+</span>",
		"response": null,
		"trial_part": "fixation",
		"trial_type": "html-keyboard-response",
		"trial_index": 197,
		"time_elapsed": 990962,
		"internal_node_id": "0.0-3.0-0.153-0.153"
	},
	{
		"rt": 1719,
		"stimulus": "<span style=\"font-size:30px; font-family: monospace\">Ganhamos</span>",
		"response": " ",
		"trial": "exp-sent",
		"word": "Ganhamos",
		"trial_type": "html-keyboard-response",
		"trial_index": 198,
		"time_elapsed": 992933,
		"internal_node_id": "0.0-3.0-1.153"
	},
	{
		"rt": 1333,
		"stimulus": "<span style=\"font-size:30px; font-family: monospace\">passagem</span>",
		"response": " ",
		"trial": "exp-sent",
		"word": "passagem",
		"trial_type": "html-keyboard-response",
		"trial_index": 199,
		"time_elapsed": 994517,
		"internal_node_id": "0.0-3.0-1.154"
	},
	{
		"rt": 725,
		"stimulus": "<span style=\"font-size:30px; font-family: monospace\">para</span>",
		"response": " ",
		"trial": "exp-sent",
		"word": "para",
		"trial_type": "html-keyboard-response",
		"trial_index": 200,
		"time_elapsed": 995493,
		"internal_node_id": "0.0-3.0-1.155"
	},
	{
		"rt": 885,
		"stimulus": "<span style=\"font-size:30px; font-family: monospace\">uma</span>",
		"response": " ",
		"trial": "exp-sent",
		"word": "uma",
		"trial_type": "html-keyboard-response",
		"trial_index": 201,
		"time_elapsed": 996629,
		"internal_node_id": "0.0-3.0-1.156"
	},
	{
		"rt": 900,
		"stimulus": "<span style=\"font-size:30px; font-family: monospace\">viagem</span>",
		"response": " ",
		"trial": "exp-sent",
		"word": "viagem",
		"trial_type": "html-keyboard-response",
		"trial_index": 202,
		"time_elapsed": 997781,
		"internal_node_id": "0.0-3.0-1.157"
	},
	{
		"rt": 581,
		"stimulus": "<span style=\"font-size:30px; font-family: monospace\">de</span>",
		"response": " ",
		"trial": "exp-sent",
		"word": "de",
		"trial_type": "html-keyboard-response",
		"trial_index": 203,
		"time_elapsed": 998613,
		"internal_node_id": "0.0-3.0-1.158"
	},
	{
		"rt": 646,
		"stimulus": "<span style=\"font-size:30px; font-family: monospace\">férias.</span>",
		"response": " ",
		"trial": "exp-sent",
		"word": "férias.",
		"trial_type": "html-keyboard-response",
		"trial_index": 204,
		"time_elapsed": 999509,
		"internal_node_id": "0.0-3.0-1.159"
	},
	{
		"rt": null,
		"stimulus": "<span style= \"font-size:30px; font-family: monospace\">+</span>",
		"response": null,
		"trial_part": "fixation",
		"trial_type": "html-keyboard-response",
		"trial_index": 205,
		"time_elapsed": 1000761,
		"internal_node_id": "0.0-3.0-0.160-0.160"
	},
	{
		"rt": 433,
		"stimulus": "<span style=\"font-size:30px; font-family: monospace\">Caiu</span>",
		"response": " ",
		"trial": "exp-sent",
		"word": "Caiu",
		"trial_type": "html-keyboard-response",
		"trial_index": 206,
		"time_elapsed": 1001445,
		"internal_node_id": "0.0-3.0-1.160"
	},
	{
		"rt": 597,
		"stimulus": "<span style=\"font-size:30px; font-family: monospace\">algo</span>",
		"response": " ",
		"trial": "exp-sent",
		"word": "algo",
		"trial_type": "html-keyboard-response",
		"trial_index": 207,
		"time_elapsed": 1002293,
		"internal_node_id": "0.0-3.0-1.161"
	},
	{
		"rt": 533,
		"stimulus": "<span style=\"font-size:30px; font-family: monospace\">no</span>",
		"response": " ",
		"trial": "exp-sent",
		"word": "no",
		"trial_type": "html-keyboard-response",
		"trial_index": 208,
		"time_elapsed": 1003077,
		"internal_node_id": "0.0-3.0-1.162"
	},
	{
		"rt": 501,
		"stimulus": "<span style=\"font-size:30px; font-family: monospace\">meu</span>",
		"response": " ",
		"trial": "exp-sent",
		"word": "meu",
		"trial_type": "html-keyboard-response",
		"trial_index": 209,
		"time_elapsed": 1003829,
		"internal_node_id": "0.0-3.0-1.163"
	},
	{
		"rt": 483,
		"stimulus": "<span style=\"font-size:30px; font-family: monospace\">olho</span>",
		"response": " ",
		"trial": "exp-sent",
		"word": "olho",
		"trial_type": "html-keyboard-response",
		"trial_index": 210,
		"time_elapsed": 1004565,
		"internal_node_id": "0.0-3.0-1.164"
	},
	{
		"rt": 581,
		"stimulus": "<span style=\"font-size:30px; font-family: monospace\">ontem</span>",
		"response": " ",
		"trial": "exp-sent",
		"word": "ontem",
		"trial_type": "html-keyboard-response",
		"trial_index": 211,
		"time_elapsed": 1005397,
		"internal_node_id": "0.0-3.0-1.165"
	},
	{
		"rt": 597,
		"stimulus": "<span style=\"font-size:30px; font-family: monospace\">de</span>",
		"response": " ",
		"trial": "exp-sent",
		"word": "de",
		"trial_type": "html-keyboard-response",
		"trial_index": 212,
		"time_elapsed": 1006245,
		"internal_node_id": "0.0-3.0-1.166"
	},
	{
		"rt": 517,
		"stimulus": "<span style=\"font-size:30px; font-family: monospace\">tarde.</span>",
		"response": " ",
		"trial": "exp-sent",
		"word": "tarde.",
		"trial_type": "html-keyboard-response",
		"trial_index": 213,
		"time_elapsed": 1007013,
		"internal_node_id": "0.0-3.0-1.167"
	},
	{
		"rt": null,
		"stimulus": "<span style= \"font-size:30px; font-family: monospace\">+</span>",
		"response": null,
		"trial_part": "fixation",
		"trial_type": "html-keyboard-response",
		"trial_index": 214,
		"time_elapsed": 1008266,
		"internal_node_id": "0.0-3.0-0.168-0.168"
	},
	{
		"rt": 335,
		"stimulus": "<span style=\"font-size:30px; font-family: monospace\">Não</span>",
		"response": " ",
		"trial": "exp-sent",
		"word": "Não",
		"trial_type": "html-keyboard-response",
		"trial_index": 215,
		"time_elapsed": 1008853,
		"internal_node_id": "0.0-3.0-1.168"
	},
	{
		"rt": 613,
		"stimulus": "<span style=\"font-size:30px; font-family: monospace\">havia</span>",
		"response": " ",
		"trial": "exp-sent",
		"word": "havia",
		"trial_type": "html-keyboard-response",
		"trial_index": 216,
		"time_elapsed": 1009717,
		"internal_node_id": "0.0-3.0-1.169"
	},
	{
		"rt": 674,
		"stimulus": "<span style=\"font-size:30px; font-family: monospace\">mais</span>",
		"response": " ",
		"trial": "exp-sent",
		"word": "mais",
		"trial_type": "html-keyboard-response",
		"trial_index": 217,
		"time_elapsed": 1010645,
		"internal_node_id": "0.0-3.0-1.170"
	},
	{
		"rt": 997,
		"stimulus": "<span style=\"font-size:30px; font-family: monospace\">nenhum</span>",
		"response": " ",
		"trial": "exp-sent",
		"word": "nenhum",
		"trial_type": "html-keyboard-response",
		"trial_index": 218,
		"time_elapsed": 1011893,
		"internal_node_id": "0.0-3.0-1.171"
	},
	{
		"rt": 613,
		"stimulus": "<span style=\"font-size:30px; font-family: monospace\">ingresso</span>",
		"response": " ",
		"trial": "exp-sent",
		"word": "ingresso",
		"trial_type": "html-keyboard-response",
		"trial_index": 219,
		"time_elapsed": 1012757,
		"internal_node_id": "0.0-3.0-1.172"
	},
	{
		"rt": 837,
		"stimulus": "<span style=\"font-size:30px; font-family: monospace\">para</span>",
		"response": " ",
		"trial": "exp-sent",
		"word": "para",
		"trial_type": "html-keyboard-response",
		"trial_index": 220,
		"time_elapsed": 1013845,
		"internal_node_id": "0.0-3.0-1.173"
	},
	{
		"rt": 581,
		"stimulus": "<span style=\"font-size:30px; font-family: monospace\">o</span>",
		"response": " ",
		"trial": "exp-sent",
		"word": "o",
		"trial_type": "html-keyboard-response",
		"trial_index": 221,
		"time_elapsed": 1014677,
		"internal_node_id": "0.0-3.0-1.174"
	},
	{
		"rt": 789,
		"stimulus": "<span style=\"font-size:30px; font-family: monospace\">evento.</span>",
		"response": " ",
		"trial": "exp-sent",
		"word": "evento.",
		"trial_type": "html-keyboard-response",
		"trial_index": 222,
		"time_elapsed": 1015717,
		"internal_node_id": "0.0-3.0-1.175"
	},
	{
		"rt": null,
		"stimulus": "<span style= \"font-size:30px; font-family: monospace\">+</span>",
		"response": null,
		"trial_part": "fixation",
		"trial_type": "html-keyboard-response",
		"trial_index": 223,
		"time_elapsed": 1016968,
		"internal_node_id": "0.0-3.0-0.176-0.176"
	},
	{
		"rt": 441,
		"stimulus": "<span style=\"font-size:30px; font-family: monospace\">A</span>",
		"response": " ",
		"trial": "exp-sent",
		"word": "A",
		"trial_type": "html-keyboard-response",
		"trial_index": 224,
		"time_elapsed": 1017669,
		"internal_node_id": "0.0-3.0-1.176"
	},
	{
		"rt": 548,
		"stimulus": "<span style=\"font-size:30px; font-family: monospace\">médica</span>",
		"response": " ",
		"trial": "exp-sent",
		"word": "médica",
		"trial_type": "html-keyboard-response",
		"trial_index": 225,
		"time_elapsed": 1018469,
		"internal_node_id": "0.0-3.0-1.177"
	},
	{
		"rt": 884,
		"stimulus": "<span style=\"font-size:30px; font-family: monospace\">descobriu</span>",
		"response": " ",
		"trial": "exp-sent",
		"word": "descobriu",
		"trial_type": "html-keyboard-response",
		"trial_index": 226,
		"time_elapsed": 1019605,
		"internal_node_id": "0.0-3.0-1.178"
	},
	{
		"rt": 724,
		"stimulus": "<span style=\"font-size:30px; font-family: monospace\">uma</span>",
		"response": " ",
		"trial": "exp-sent",
		"word": "uma",
		"trial_type": "html-keyboard-response",
		"trial_index": 227,
		"time_elapsed": 1020581,
		"internal_node_id": "0.0-3.0-1.179"
	},
	{
		"rt": 821,
		"stimulus": "<span style=\"font-size:30px; font-family: monospace\">cura</span>",
		"response": " ",
		"trial": "exp-sent",
		"word": "cura",
		"trial_type": "html-keyboard-response",
		"trial_index": 228,
		"time_elapsed": 1021653,
		"internal_node_id": "0.0-3.0-1.180"
	},
	{
		"rt": 995,
		"stimulus": "<span style=\"font-size:30px; font-family: monospace\">para</span>",
		"response": " ",
		"trial": "exp-sent",
		"word": "para",
		"trial_type": "html-keyboard-response",
		"trial_index": 229,
		"time_elapsed": 1022900,
		"internal_node_id": "0.0-3.0-1.181"
	},
	{
		"rt": 613,
		"stimulus": "<span style=\"font-size:30px; font-family: monospace\">a</span>",
		"response": " ",
		"trial": "exp-sent",
		"word": "a",
		"trial_type": "html-keyboard-response",
		"trial_index": 230,
		"time_elapsed": 1023765,
		"internal_node_id": "0.0-3.0-1.182"
	},
	{
		"rt": 1157,
		"stimulus": "<span style=\"font-size:30px; font-family: monospace\">doença.</span>",
		"response": " ",
		"trial": "exp-sent",
		"word": "doença.",
		"trial_type": "html-keyboard-response",
		"trial_index": 231,
		"time_elapsed": 1025173,
		"internal_node_id": "0.0-3.0-1.183"
	},
	{
		"rt": null,
		"stimulus": "<span style= \"font-size:30px; font-family: monospace\">+</span>",
		"response": null,
		"trial_part": "fixation",
		"trial_type": "html-keyboard-response",
		"trial_index": 232,
		"time_elapsed": 1026424,
		"internal_node_id": "0.0-3.0-0.184-0.184"
	},
	{
		"rt": 532,
		"stimulus": "<span style=\"font-size:30px; font-family: monospace\">O</span>",
		"response": " ",
		"trial": "exp-sent",
		"word": "O",
		"trial_type": "html-keyboard-response",
		"trial_index": 233,
		"time_elapsed": 1027221,
		"internal_node_id": "0.0-3.0-1.184"
	},
	{
		"rt": 757,
		"stimulus": "<span style=\"font-size:30px; font-family: monospace\">menino</span>",
		"response": " ",
		"trial": "exp-sent",
		"word": "menino",
		"trial_type": "html-keyboard-response",
		"trial_index": 234,
		"time_elapsed": 1028229,
		"internal_node_id": "0.0-3.0-1.185"
	},
	{
		"rt": 853,
		"stimulus": "<span style=\"font-size:30px; font-family: monospace\">riscou</span>",
		"response": " ",
		"trial": "exp-sent",
		"word": "riscou",
		"trial_type": "html-keyboard-response",
		"trial_index": 235,
		"time_elapsed": 1029333,
		"internal_node_id": "0.0-3.0-1.186"
	},
	{
		"rt": 580,
		"stimulus": "<span style=\"font-size:30px; font-family: monospace\">o</span>",
		"response": " ",
		"trial": "exp-sent",
		"word": "o",
		"trial_type": "html-keyboard-response",
		"trial_index": 236,
		"time_elapsed": 1030165,
		"internal_node_id": "0.0-3.0-1.187"
	},
	{
		"rt": 933,
		"stimulus": "<span style=\"font-size:30px; font-family: monospace\">caderno</span>",
		"response": " ",
		"trial": "exp-sent",
		"word": "caderno",
		"trial_type": "html-keyboard-response",
		"trial_index": 237,
		"time_elapsed": 1031349,
		"internal_node_id": "0.0-3.0-1.188"
	},
	{
		"rt": 676,
		"stimulus": "<span style=\"font-size:30px; font-family: monospace\">com</span>",
		"response": " ",
		"trial": "exp-sent",
		"word": "com",
		"trial_type": "html-keyboard-response",
		"trial_index": 238,
		"time_elapsed": 1032277,
		"internal_node_id": "0.0-3.0-1.189"
	},
	{
		"rt": 597,
		"stimulus": "<span style=\"font-size:30px; font-family: monospace\">a</span>",
		"response": " ",
		"trial": "exp-sent",
		"word": "a",
		"trial_type": "html-keyboard-response",
		"trial_index": 239,
		"time_elapsed": 1033125,
		"internal_node_id": "0.0-3.0-1.190"
	},
	{
		"rt": 837,
		"stimulus": "<span style=\"font-size:30px; font-family: monospace\">caneta.</span>",
		"response": " ",
		"trial": "comp",
		"word": "caneta.",
		"trial_type": "html-keyboard-response",
		"trial_index": 240,
		"time_elapsed": 1034213,
		"internal_node_id": "0.0-3.0-1.191"
	},
	{
		"rt": 29829,
		"stimulus": "<span style=\"font-size:30px; font-family: monospace\">O menino riscou a parede com a caneta?</span>",
		"response": "s",
		"question": "O menino riscou a parede com a caneta?",
		"answer": "não",
		"trial": "comp",
		"trial_type": "html-keyboard-response",
		"trial_index": 241,
		"time_elapsed": 1064293,
		"internal_node_id": "0.0-3.0-2.191-0.191",
		"accuracy": false
	},
	{
		"rt": null,
		"stimulus": "<span style= \"font-size:30px; font-family: monospace\">+</span>",
		"response": null,
		"trial_part": "fixation",
		"trial_type": "html-keyboard-response",
		"trial_index": 242,
		"time_elapsed": 1065795,
		"internal_node_id": "0.0-3.0-0.192-0.192"
	},
	{
		"rt": 1095,
		"stimulus": "<span style=\"font-size:30px; font-family: monospace\">O</span>",
		"response": " ",
		"trial": "exp-sent",
		"word": "O",
		"trial_type": "html-keyboard-response",
		"trial_index": 243,
		"time_elapsed": 1067141,
		"internal_node_id": "0.0-3.0-1.192"
	},
	{
		"rt": 1221,
		"stimulus": "<span style=\"font-size:30px; font-family: monospace\">travesseiro</span>",
		"response": " ",
		"trial": "exp-sent",
		"word": "travesseiro",
		"trial_type": "html-keyboard-response",
		"trial_index": 244,
		"time_elapsed": 1068613,
		"internal_node_id": "0.0-3.0-1.193"
	},
	{
		"rt": 660,
		"stimulus": "<span style=\"font-size:30px; font-family: monospace\">era</span>",
		"response": " ",
		"trial": "exp-sent",
		"word": "era",
		"trial_type": "html-keyboard-response",
		"trial_index": 245,
		"time_elapsed": 1069525,
		"internal_node_id": "0.0-3.0-1.194"
	},
	{
		"rt": 981,
		"stimulus": "<span style=\"font-size:30px; font-family: monospace\">muito</span>",
		"response": " ",
		"trial": "exp-sent",
		"word": "muito",
		"trial_type": "html-keyboard-response",
		"trial_index": 246,
		"time_elapsed": 1070757,
		"internal_node_id": "0.0-3.0-1.195"
	},
	{
		"rt": 1013,
		"stimulus": "<span style=\"font-size:30px; font-family: monospace\">macio</span>",
		"response": " ",
		"trial": "exp-sent",
		"word": "macio",
		"trial_type": "html-keyboard-response",
		"trial_index": 247,
		"time_elapsed": 1072020,
		"internal_node_id": "0.0-3.0-1.196"
	},
	{
		"rt": 566,
		"stimulus": "<span style=\"font-size:30px; font-family: monospace\">e</span>",
		"response": " ",
		"trial": "exp-sent",
		"word": "e",
		"trial_type": "html-keyboard-response",
		"trial_index": 248,
		"time_elapsed": 1072837,
		"internal_node_id": "0.0-3.0-1.197"
	},
	{
		"rt": 1861,
		"stimulus": "<span style=\"font-size:30px; font-family: monospace\">confortável.</span>",
		"response": " ",
		"trial": "exp-sent",
		"word": "confortável.",
		"trial_type": "html-keyboard-response",
		"trial_index": 249,
		"time_elapsed": 1074949,
		"internal_node_id": "0.0-3.0-1.198"
	},
	{
		"rt": null,
		"stimulus": "<span style= \"font-size:30px; font-family: monospace\">+</span>",
		"response": null,
		"trial_part": "fixation",
		"trial_type": "html-keyboard-response",
		"trial_index": 250,
		"time_elapsed": 1076210,
		"internal_node_id": "0.0-3.0-0.199-0.199"
	},
	{
		"rt": 584,
		"stimulus": "<span style=\"font-size:30px; font-family: monospace\">Hoje</span>",
		"response": " ",
		"trial": "exp-sent",
		"word": "Hoje",
		"trial_type": "html-keyboard-response",
		"trial_index": 251,
		"time_elapsed": 1077045,
		"internal_node_id": "0.0-3.0-1.199"
	},
	{
		"rt": 581,
		"stimulus": "<span style=\"font-size:30px; font-family: monospace\">a</span>",
		"response": " ",
		"trial": "exp-sent",
		"word": "a",
		"trial_type": "html-keyboard-response",
		"trial_index": 252,
		"time_elapsed": 1077877,
		"internal_node_id": "0.0-3.0-1.200"
	},
	{
		"rt": 1348,
		"stimulus": "<span style=\"font-size:30px; font-family: monospace\">atendente</span>",
		"response": " ",
		"trial": "exp-sent",
		"word": "atendente",
		"trial_type": "html-keyboard-response",
		"trial_index": 253,
		"time_elapsed": 1079477,
		"internal_node_id": "0.0-3.0-1.201"
	},
	{
		"rt": 2132,
		"stimulus": "<span style=\"font-size:30px; font-family: monospace\">estava</span>",
		"response": " ",
		"trial": "exp-sent",
		"word": "estava",
		"trial_type": "html-keyboard-response",
		"trial_index": 254,
		"time_elapsed": 1081861,
		"internal_node_id": "0.0-3.0-1.202"
	},
	{
		"rt": 1029,
		"stimulus": "<span style=\"font-size:30px; font-family: monospace\">furiosa</span>",
		"response": " ",
		"trial": "exp-sent",
		"word": "furiosa",
		"trial_type": "html-keyboard-response",
		"trial_index": 255,
		"time_elapsed": 1083141,
		"internal_node_id": "0.0-3.0-1.203"
	},
	{
		"rt": 661,
		"stimulus": "<span style=\"font-size:30px; font-family: monospace\">com</span>",
		"response": " ",
		"trial": "exp-sent",
		"word": "com",
		"trial_type": "html-keyboard-response",
		"trial_index": 256,
		"time_elapsed": 1084053,
		"internal_node_id": "0.0-3.0-1.204"
	},
	{
		"rt": 613,
		"stimulus": "<span style=\"font-size:30px; font-family: monospace\">o</span>",
		"response": " ",
		"trial": "exp-sent",
		"word": "o",
		"trial_type": "html-keyboard-response",
		"trial_index": 257,
		"time_elapsed": 1084917,
		"internal_node_id": "0.0-3.0-1.205"
	},
	{
		"rt": 1253,
		"stimulus": "<span style=\"font-size:30px; font-family: monospace\">cliente.</span>",
		"response": " ",
		"trial": "exp-sent",
		"word": "cliente.",
		"trial_type": "html-keyboard-response",
		"trial_index": 258,
		"time_elapsed": 1086421,
		"internal_node_id": "0.0-3.0-1.206"
	},
	{
		"rt": null,
		"stimulus": "<span style= \"font-size:30px; font-family: monospace\">+</span>",
		"response": null,
		"trial_part": "fixation",
		"trial_type": "html-keyboard-response",
		"trial_index": 259,
		"time_elapsed": 1087673,
		"internal_node_id": "0.0-3.0-0.207-0.207"
	},
	{
		"rt": 496,
		"stimulus": "<span style=\"font-size:30px; font-family: monospace\">O</span>",
		"response": " ",
		"trial": "exp-sent",
		"word": "O",
		"trial_type": "html-keyboard-response",
		"trial_index": 260,
		"time_elapsed": 1088421,
		"internal_node_id": "0.0-3.0-1.207"
	},
	{
		"rt": 1526,
		"stimulus": "<span style=\"font-size:30px; font-family: monospace\">vizinho</span>",
		"response": " ",
		"trial": "exp-sent",
		"word": "vizinho",
		"trial_type": "html-keyboard-response",
		"trial_index": 261,
		"time_elapsed": 1090197,
		"internal_node_id": "0.0-3.0-1.208"
	},
	{
		"rt": 644,
		"stimulus": "<span style=\"font-size:30px; font-family: monospace\">é</span>",
		"response": " ",
		"trial": "exp-sent",
		"word": "é",
		"trial_type": "html-keyboard-response",
		"trial_index": 262,
		"time_elapsed": 1091093,
		"internal_node_id": "0.0-3.0-1.209"
	},
	{
		"rt": 517,
		"stimulus": "<span style=\"font-size:30px; font-family: monospace\">um</span>",
		"response": " ",
		"trial": "exp-sent",
		"word": "um",
		"trial_type": "html-keyboard-response",
		"trial_index": 263,
		"time_elapsed": 1091861,
		"internal_node_id": "0.0-3.0-1.210"
	},
	{
		"rt": 820,
		"stimulus": "<span style=\"font-size:30px; font-family: monospace\">arquiteto</span>",
		"response": " ",
		"trial": "exp-sent",
		"word": "arquiteto",
		"trial_type": "html-keyboard-response",
		"trial_index": 264,
		"time_elapsed": 1092933,
		"internal_node_id": "0.0-3.0-1.211"
	},
	{
		"rt": 581,
		"stimulus": "<span style=\"font-size:30px; font-family: monospace\">muito</span>",
		"response": " ",
		"trial": "exp-sent",
		"word": "muito",
		"trial_type": "html-keyboard-response",
		"trial_index": 265,
		"time_elapsed": 1093765,
		"internal_node_id": "0.0-3.0-1.212"
	},
	{
		"rt": 1077,
		"stimulus": "<span style=\"font-size:30px; font-family: monospace\">excêntrico.</span>",
		"response": " ",
		"trial": "exp-sent",
		"word": "excêntrico.",
		"trial_type": "html-keyboard-response",
		"trial_index": 266,
		"time_elapsed": 1095093,
		"internal_node_id": "0.0-3.0-1.213"
	},
	{
		"rt": null,
		"stimulus": "<span style= \"font-size:30px; font-family: monospace\">+</span>",
		"response": null,
		"trial_part": "fixation",
		"trial_type": "html-keyboard-response",
		"trial_index": 267,
		"time_elapsed": 1096345,
		"internal_node_id": "0.0-3.0-0.214-0.214"
	},
	{
		"rt": 481,
		"stimulus": "<span style=\"font-size:30px; font-family: monospace\">A</span>",
		"response": " ",
		"trial": "exp-sent",
		"word": "A",
		"trial_type": "html-keyboard-response",
		"trial_index": 268,
		"time_elapsed": 1097077,
		"internal_node_id": "0.0-3.0-1.214"
	},
	{
		"rt": 613,
		"stimulus": "<span style=\"font-size:30px; font-family: monospace\">nossa</span>",
		"response": " ",
		"trial": "exp-sent",
		"word": "nossa",
		"trial_type": "html-keyboard-response",
		"trial_index": 269,
		"time_elapsed": 1097941,
		"internal_node_id": "0.0-3.0-1.215"
	},
	{
		"rt": 645,
		"stimulus": "<span style=\"font-size:30px; font-family: monospace\">colega</span>",
		"response": " ",
		"trial": "exp-sent",
		"word": "colega",
		"trial_type": "html-keyboard-response",
		"trial_index": 270,
		"time_elapsed": 1098837,
		"internal_node_id": "0.0-3.0-1.216"
	},
	{
		"rt": 661,
		"stimulus": "<span style=\"font-size:30px; font-family: monospace\">foi</span>",
		"response": " ",
		"trial": "exp-sent",
		"word": "foi",
		"trial_type": "html-keyboard-response",
		"trial_index": 271,
		"time_elapsed": 1099749,
		"internal_node_id": "0.0-3.0-1.217"
	},
	{
		"rt": 629,
		"stimulus": "<span style=\"font-size:30px; font-family: monospace\">má</span>",
		"response": " ",
		"trial": "exp-sent",
		"word": "má",
		"trial_type": "html-keyboard-response",
		"trial_index": 272,
		"time_elapsed": 1100629,
		"internal_node_id": "0.0-3.0-1.218"
	},
	{
		"rt": 660,
		"stimulus": "<span style=\"font-size:30px; font-family: monospace\">com</span>",
		"response": " ",
		"trial": "exp-sent",
		"word": "com",
		"trial_type": "html-keyboard-response",
		"trial_index": 273,
		"time_elapsed": 1101541,
		"internal_node_id": "0.0-3.0-1.219"
	},
	{
		"rt": 981,
		"stimulus": "<span style=\"font-size:30px; font-family: monospace\">as</span>",
		"response": " ",
		"trial": "exp-sent",
		"word": "as",
		"trial_type": "html-keyboard-response",
		"trial_index": 274,
		"time_elapsed": 1102773,
		"internal_node_id": "0.0-3.0-1.220"
	},
	{
		"rt": 757,
		"stimulus": "<span style=\"font-size:30px; font-family: monospace\">crianças.</span>",
		"response": " ",
		"trial": "exp-sent",
		"word": "crianças.",
		"trial_type": "html-keyboard-response",
		"trial_index": 275,
		"time_elapsed": 1103780,
		"internal_node_id": "0.0-3.0-1.221"
	},
	{
		"rt": null,
		"stimulus": "<span style= \"font-size:30px; font-family: monospace\">+</span>",
		"response": null,
		"trial_part": "fixation",
		"trial_type": "html-keyboard-response",
		"trial_index": 276,
		"time_elapsed": 1105032,
		"internal_node_id": "0.0-3.0-0.222-0.222"
	},
	{
		"rt": 1202,
		"stimulus": "<span style=\"font-size:30px; font-family: monospace\">Virtudes</span>",
		"response": " ",
		"trial": "exp-sent",
		"word": "Virtudes",
		"trial_type": "html-keyboard-response",
		"trial_index": 277,
		"time_elapsed": 1106485,
		"internal_node_id": "0.0-3.0-1.222"
	},
	{
		"rt": 661,
		"stimulus": "<span style=\"font-size:30px; font-family: monospace\">não</span>",
		"response": " ",
		"trial": "exp-sent",
		"word": "não",
		"trial_type": "html-keyboard-response",
		"trial_index": 278,
		"time_elapsed": 1107397,
		"internal_node_id": "0.0-3.0-1.223"
	},
	{
		"rt": 805,
		"stimulus": "<span style=\"font-size:30px; font-family: monospace\">são</span>",
		"response": " ",
		"trial": "exp-sent",
		"word": "são",
		"trial_type": "html-keyboard-response",
		"trial_index": 279,
		"time_elapsed": 1108453,
		"internal_node_id": "0.0-3.0-1.224"
	},
	{
		"rt": 1109,
		"stimulus": "<span style=\"font-size:30px; font-family: monospace\">preguiça,</span>",
		"response": " ",
		"trial": "exp-sent",
		"word": "preguiça,",
		"trial_type": "html-keyboard-response",
		"trial_index": 280,
		"time_elapsed": 1109813,
		"internal_node_id": "0.0-3.0-1.225"
	},
	{
		"rt": 821,
		"stimulus": "<span style=\"font-size:30px; font-family: monospace\">gula</span>",
		"response": " ",
		"trial": "exp-sent",
		"word": "gula",
		"trial_type": "html-keyboard-response",
		"trial_index": 281,
		"time_elapsed": 1110885,
		"internal_node_id": "0.0-3.0-1.226"
	},
	{
		"rt": 581,
		"stimulus": "<span style=\"font-size:30px; font-family: monospace\">nem</span>",
		"response": " ",
		"trial": "exp-sent",
		"word": "nem",
		"trial_type": "html-keyboard-response",
		"trial_index": 282,
		"time_elapsed": 1111717,
		"internal_node_id": "0.0-3.0-1.227"
	},
	{
		"rt": 821,
		"stimulus": "<span style=\"font-size:30px; font-family: monospace\">ganância.</span>",
		"response": " ",
		"trial": "comp",
		"word": "ganância.",
		"trial_type": "html-keyboard-response",
		"trial_index": 283,
		"time_elapsed": 1112789,
		"internal_node_id": "0.0-3.0-1.228"
	},
	{
		"rt": 25829,
		"stimulus": "<span style=\"font-size:30px; font-family: monospace\">Preguiça é uma virtude?</span>",
		"response": "s",
		"question": "Preguiça é uma virtude?",
		"answer": "não",
		"trial": "comp",
		"trial_type": "html-keyboard-response",
		"trial_index": 284,
		"time_elapsed": 1138869,
		"internal_node_id": "0.0-3.0-2.228-0.228",
		"accuracy": false
	},
	{
		"rt": null,
		"stimulus": "<span style= \"font-size:30px; font-family: monospace\">+</span>",
		"response": null,
		"trial_part": "fixation",
		"trial_type": "html-keyboard-response",
		"trial_index": 285,
		"time_elapsed": 1140377,
		"internal_node_id": "0.0-3.0-0.229-0.229"
	},
	{
		"rt": 385,
		"stimulus": "<span style=\"font-size:30px; font-family: monospace\">As</span>",
		"response": " ",
		"trial": "exp-sent",
		"word": "As",
		"trial_type": "html-keyboard-response",
		"trial_index": 286,
		"time_elapsed": 1141013,
		"internal_node_id": "0.0-3.0-1.229"
	},
	{
		"rt": 661,
		"stimulus": "<span style=\"font-size:30px; font-family: monospace\">crianças</span>",
		"response": " ",
		"trial": "exp-sent",
		"word": "crianças",
		"trial_type": "html-keyboard-response",
		"trial_index": 287,
		"time_elapsed": 1141925,
		"internal_node_id": "0.0-3.0-1.230"
	},
	{
		"rt": 548,
		"stimulus": "<span style=\"font-size:30px; font-family: monospace\">viram</span>",
		"response": " ",
		"trial": "exp-sent",
		"word": "viram",
		"trial_type": "html-keyboard-response",
		"trial_index": 288,
		"time_elapsed": 1142725,
		"internal_node_id": "0.0-3.0-1.231"
	},
	{
		"rt": 628,
		"stimulus": "<span style=\"font-size:30px; font-family: monospace\">um</span>",
		"response": " ",
		"trial": "exp-sent",
		"word": "um",
		"trial_type": "html-keyboard-response",
		"trial_index": 289,
		"time_elapsed": 1143605,
		"internal_node_id": "0.0-3.0-1.232"
	},
	{
		"rt": 613,
		"stimulus": "<span style=\"font-size:30px; font-family: monospace\">vaga-lume</span>",
		"response": " ",
		"trial": "exp-sent",
		"word": "vaga-lume",
		"trial_type": "html-keyboard-response",
		"trial_index": 290,
		"time_elapsed": 1144469,
		"internal_node_id": "0.0-3.0-1.233"
	},
	{
		"rt": 597,
		"stimulus": "<span style=\"font-size:30px; font-family: monospace\">nos</span>",
		"response": " ",
		"trial": "exp-sent",
		"word": "nos",
		"trial_type": "html-keyboard-response",
		"trial_index": 291,
		"time_elapsed": 1145317,
		"internal_node_id": "0.0-3.0-1.234"
	},
	{
		"rt": 773,
		"stimulus": "<span style=\"font-size:30px; font-family: monospace\">arbustos.</span>",
		"response": " ",
		"trial": "exp-sent",
		"word": "arbustos.",
		"trial_type": "html-keyboard-response",
		"trial_index": 292,
		"time_elapsed": 1146340,
		"internal_node_id": "0.0-3.0-1.235"
	},
	{
		"rt": null,
		"stimulus": "<span style= \"font-size:30px; font-family: monospace\">+</span>",
		"response": null,
		"trial_part": "fixation",
		"trial_type": "html-keyboard-response",
		"trial_index": 293,
		"time_elapsed": 1147592,
		"internal_node_id": "0.0-3.0-0.236-0.236"
	},
	{
		"rt": 337,
		"stimulus": "<span style=\"font-size:30px; font-family: monospace\">Ontem</span>",
		"response": " ",
		"trial": "exp-sent",
		"word": "Ontem",
		"trial_type": "html-keyboard-response",
		"trial_index": 294,
		"time_elapsed": 1148180,
		"internal_node_id": "0.0-3.0-1.236"
	},
	{
		"rt": 582,
		"stimulus": "<span style=\"font-size:30px; font-family: monospace\">o</span>",
		"response": " ",
		"trial": "exp-sent",
		"word": "o",
		"trial_type": "html-keyboard-response",
		"trial_index": 295,
		"time_elapsed": 1149013,
		"internal_node_id": "0.0-3.0-1.237"
	},
	{
		"rt": 1396,
		"stimulus": "<span style=\"font-size:30px; font-family: monospace\">funcionário</span>",
		"response": " ",
		"trial": "exp-sent",
		"word": "funcionário",
		"trial_type": "html-keyboard-response",
		"trial_index": 296,
		"time_elapsed": 1150660,
		"internal_node_id": "0.0-3.0-1.238"
	},
	{
		"rt": 788,
		"stimulus": "<span style=\"font-size:30px; font-family: monospace\">pediu</span>",
		"response": " ",
		"trial": "exp-sent",
		"word": "pediu",
		"trial_type": "html-keyboard-response",
		"trial_index": 297,
		"time_elapsed": 1151700,
		"internal_node_id": "0.0-3.0-1.239"
	},
	{
		"rt": 756,
		"stimulus": "<span style=\"font-size:30px; font-family: monospace\">autorização</span>",
		"response": " ",
		"trial": "exp-sent",
		"word": "autorização",
		"trial_type": "html-keyboard-response",
		"trial_index": 298,
		"time_elapsed": 1152709,
		"internal_node_id": "0.0-3.0-1.240"
	},
	{
		"rt": 836,
		"stimulus": "<span style=\"font-size:30px; font-family: monospace\">para</span>",
		"response": " ",
		"trial": "exp-sent",
		"word": "para",
		"trial_type": "html-keyboard-response",
		"trial_index": 299,
		"time_elapsed": 1153796,
		"internal_node_id": "0.0-3.0-1.241"
	},
	{
		"rt": 645,
		"stimulus": "<span style=\"font-size:30px; font-family: monospace\">a</span>",
		"response": " ",
		"trial": "exp-sent",
		"word": "a",
		"trial_type": "html-keyboard-response",
		"trial_index": 300,
		"time_elapsed": 1154692,
		"internal_node_id": "0.0-3.0-1.242"
	},
	{
		"rt": 1094,
		"stimulus": "<span style=\"font-size:30px; font-family: monospace\">colega.</span>",
		"response": " ",
		"trial": "exp-sent",
		"word": "colega.",
		"trial_type": "html-keyboard-response",
		"trial_index": 301,
		"time_elapsed": 1156037,
		"internal_node_id": "0.0-3.0-1.243"
	},
	{
		"rt": null,
		"stimulus": "<span style= \"font-size:30px; font-family: monospace\">+</span>",
		"response": null,
		"trial_part": "fixation",
		"trial_type": "html-keyboard-response",
		"trial_index": 302,
		"time_elapsed": 1157288,
		"internal_node_id": "0.0-3.0-0.244-0.244"
	},
	{
		"rt": 641,
		"stimulus": "<span style=\"font-size:30px; font-family: monospace\">Eu</span>",
		"response": " ",
		"trial": "exp-sent",
		"word": "Eu",
		"trial_type": "html-keyboard-response",
		"trial_index": 303,
		"time_elapsed": 1158180,
		"internal_node_id": "0.0-3.0-1.244"
	},
	{
		"rt": 774,
		"stimulus": "<span style=\"font-size:30px; font-family: monospace\">sempre</span>",
		"response": " ",
		"trial": "exp-sent",
		"word": "sempre",
		"trial_type": "html-keyboard-response",
		"trial_index": 304,
		"time_elapsed": 1159204,
		"internal_node_id": "0.0-3.0-1.245"
	},
	{
		"rt": 917,
		"stimulus": "<span style=\"font-size:30px; font-family: monospace\">fujo</span>",
		"response": " ",
		"trial": "exp-sent",
		"word": "fujo",
		"trial_type": "html-keyboard-response",
		"trial_index": 305,
		"time_elapsed": 1160372,
		"internal_node_id": "0.0-3.0-1.246"
	},
	{
		"rt": 1061,
		"stimulus": "<span style=\"font-size:30px; font-family: monospace\">de</span>",
		"response": " ",
		"trial": "exp-sent",
		"word": "de",
		"trial_type": "html-keyboard-response",
		"trial_index": 306,
		"time_elapsed": 1161685,
		"internal_node_id": "0.0-3.0-1.247"
	},
	{
		"rt": 5349,
		"stimulus": "<span style=\"font-size:30px; font-family: monospace\">conflito</span>",
		"response": " ",
		"trial": "exp-sent",
		"word": "conflito",
		"trial_type": "html-keyboard-response",
		"trial_index": 307,
		"time_elapsed": 1167285,
		"internal_node_id": "0.0-3.0-1.248"
	},
	{
		"rt": 1045,
		"stimulus": "<span style=\"font-size:30px; font-family: monospace\">com</span>",
		"response": " ",
		"trial": "exp-sent",
		"word": "com",
		"trial_type": "html-keyboard-response",
		"trial_index": 308,
		"time_elapsed": 1168581,
		"internal_node_id": "0.0-3.0-1.249"
	},
	{
		"rt": 806,
		"stimulus": "<span style=\"font-size:30px; font-family: monospace\">as</span>",
		"response": " ",
		"trial": "exp-sent",
		"word": "as",
		"trial_type": "html-keyboard-response",
		"trial_index": 309,
		"time_elapsed": 1169637,
		"internal_node_id": "0.0-3.0-1.250"
	},
	{
		"rt": 1157,
		"stimulus": "<span style=\"font-size:30px; font-family: monospace\">pessoas.</span>",
		"response": " ",
		"trial": "exp-sent",
		"word": "pessoas.",
		"trial_type": "html-keyboard-response",
		"trial_index": 310,
		"time_elapsed": 1171045,
		"internal_node_id": "0.0-3.0-1.251"
	},
	{
		"rt": null,
		"stimulus": "<span style= \"font-size:30px; font-family: monospace\">+</span>",
		"response": null,
		"trial_part": "fixation",
		"trial_type": "html-keyboard-response",
		"trial_index": 311,
		"time_elapsed": 1172310,
		"internal_node_id": "0.0-3.0-0.252-0.252"
	},
	{
		"rt": 435,
		"stimulus": "<span style=\"font-size:30px; font-family: monospace\">O</span>",
		"response": " ",
		"trial": "exp-sent",
		"word": "O",
		"trial_type": "html-keyboard-response",
		"trial_index": 312,
		"time_elapsed": 1172997,
		"internal_node_id": "0.0-3.0-1.252"
	},
	{
		"rt": 677,
		"stimulus": "<span style=\"font-size:30px; font-family: monospace\">bolo</span>",
		"response": " ",
		"trial": "exp-sent",
		"word": "bolo",
		"trial_type": "html-keyboard-response",
		"trial_index": 313,
		"time_elapsed": 1173925,
		"internal_node_id": "0.0-3.0-1.253"
	},
	{
		"rt": 837,
		"stimulus": "<span style=\"font-size:30px; font-family: monospace\">era</span>",
		"response": " ",
		"trial": "exp-sent",
		"word": "era",
		"trial_type": "html-keyboard-response",
		"trial_index": 314,
		"time_elapsed": 1175012,
		"internal_node_id": "0.0-3.0-1.254"
	},
	{
		"rt": 773,
		"stimulus": "<span style=\"font-size:30px; font-family: monospace\">de</span>",
		"response": " ",
		"trial": "exp-sent",
		"word": "de",
		"trial_type": "html-keyboard-response",
		"trial_index": 315,
		"time_elapsed": 1176037,
		"internal_node_id": "0.0-3.0-1.255"
	},
	{
		"rt": 1605,
		"stimulus": "<span style=\"font-size:30px; font-family: monospace\">abacaxi</span>",
		"response": " ",
		"trial": "exp-sent",
		"word": "abacaxi",
		"trial_type": "html-keyboard-response",
		"trial_index": 316,
		"time_elapsed": 1177893,
		"internal_node_id": "0.0-3.0-1.256"
	},
	{
		"rt": 533,
		"stimulus": "<span style=\"font-size:30px; font-family: monospace\">e</span>",
		"response": " ",
		"trial": "exp-sent",
		"word": "e",
		"trial_type": "html-keyboard-response",
		"trial_index": 317,
		"time_elapsed": 1178676,
		"internal_node_id": "0.0-3.0-1.257"
	},
	{
		"rt": 869,
		"stimulus": "<span style=\"font-size:30px; font-family: monospace\">creme</span>",
		"response": " ",
		"trial": "exp-sent",
		"word": "creme",
		"trial_type": "html-keyboard-response",
		"trial_index": 318,
		"time_elapsed": 1179797,
		"internal_node_id": "0.0-3.0-1.258"
	},
	{
		"rt": 565,
		"stimulus": "<span style=\"font-size:30px; font-family: monospace\">de</span>",
		"response": " ",
		"trial": "exp-sent",
		"word": "de",
		"trial_type": "html-keyboard-response",
		"trial_index": 319,
		"time_elapsed": 1180612,
		"internal_node_id": "0.0-3.0-1.259"
	},
	{
		"rt": 869,
		"stimulus": "<span style=\"font-size:30px; font-family: monospace\">coco.</span>",
		"response": " ",
		"trial": "exp-sent",
		"word": "coco.",
		"trial_type": "html-keyboard-response",
		"trial_index": 320,
		"time_elapsed": 1181732,
		"internal_node_id": "0.0-3.0-1.260"
	},
	{
		"rt": null,
		"stimulus": "<span style= \"font-size:30px; font-family: monospace\">+</span>",
		"response": null,
		"trial_part": "fixation",
		"trial_type": "html-keyboard-response",
		"trial_index": 321,
		"time_elapsed": 1182985,
		"internal_node_id": "0.0-3.0-0.261-0.261"
	},
	{
		"rt": 592,
		"stimulus": "<span style=\"font-size:30px; font-family: monospace\">As</span>",
		"response": " ",
		"trial": "exp-sent",
		"word": "As",
		"trial_type": "html-keyboard-response",
		"trial_index": 322,
		"time_elapsed": 1183828,
		"internal_node_id": "0.0-3.0-1.261"
	},
	{
		"rt": 1717,
		"stimulus": "<span style=\"font-size:30px; font-family: monospace\">crianças</span>",
		"response": " ",
		"trial": "exp-sent",
		"word": "crianças",
		"trial_type": "html-keyboard-response",
		"trial_index": 323,
		"time_elapsed": 1185796,
		"internal_node_id": "0.0-3.0-1.262"
	},
	{
		"rt": 2085,
		"stimulus": "<span style=\"font-size:30px; font-family: monospace\">brincaram</span>",
		"response": " ",
		"trial": "exp-sent",
		"word": "brincaram",
		"trial_type": "html-keyboard-response",
		"trial_index": 324,
		"time_elapsed": 1188132,
		"internal_node_id": "0.0-3.0-1.263"
	},
	{
		"rt": 1989,
		"stimulus": "<span style=\"font-size:30px; font-family: monospace\">com</span>",
		"response": " ",
		"trial": "exp-sent",
		"word": "com",
		"trial_type": "html-keyboard-response",
		"trial_index": 325,
		"time_elapsed": 1190373,
		"internal_node_id": "0.0-3.0-1.264"
	},
	{
		"rt": 2725,
		"stimulus": "<span style=\"font-size:30px; font-family: monospace\">bolhas</span>",
		"response": " ",
		"trial": "exp-sent",
		"word": "bolhas",
		"trial_type": "html-keyboard-response",
		"trial_index": 326,
		"time_elapsed": 1193348,
		"internal_node_id": "0.0-3.0-1.265"
	},
	{
		"rt": 549,
		"stimulus": "<span style=\"font-size:30px; font-family: monospace\">no</span>",
		"response": " ",
		"trial": "exp-sent",
		"word": "no",
		"trial_type": "html-keyboard-response",
		"trial_index": 327,
		"time_elapsed": 1194148,
		"internal_node_id": "0.0-3.0-1.266"
	},
	{
		"rt": 949,
		"stimulus": "<span style=\"font-size:30px; font-family: monospace\">banho.</span>",
		"response": " ",
		"trial": "comp",
		"word": "banho.",
		"trial_type": "html-keyboard-response",
		"trial_index": 328,
		"time_elapsed": 1195348,
		"internal_node_id": "0.0-3.0-1.267"
	},
	{
		"rt": 23773,
		"stimulus": "<span style=\"font-size:30px; font-family: monospace\">As crianças brincaram com bolhas?</span>",
		"response": "n",
		"question": "As crianças brincaram com bolhas?",
		"answer": "sim",
		"trial": "comp",
		"trial_type": "html-keyboard-response",
		"trial_index": 329,
		"time_elapsed": 1219380,
		"internal_node_id": "0.0-3.0-2.267-0.267",
		"accuracy": false
	},
	{
		"rt": null,
		"stimulus": "<span style= \"font-size:30px; font-family: monospace\">+</span>",
		"response": null,
		"trial_part": "fixation",
		"trial_type": "html-keyboard-response",
		"trial_index": 330,
		"time_elapsed": 1220883,
		"internal_node_id": "0.0-3.0-0.268-0.268"
	},
	{
		"rt": 631,
		"stimulus": "<span style=\"font-size:30px; font-family: monospace\">A</span>",
		"response": " ",
		"trial": "exp-sent",
		"word": "A",
		"trial_type": "html-keyboard-response",
		"trial_index": 331,
		"time_elapsed": 1221764,
		"internal_node_id": "0.0-3.0-1.268"
	},
	{
		"rt": 677,
		"stimulus": "<span style=\"font-size:30px; font-family: monospace\">força</span>",
		"response": " ",
		"trial": "exp-sent",
		"word": "força",
		"trial_type": "html-keyboard-response",
		"trial_index": 332,
		"time_elapsed": 1222692,
		"internal_node_id": "0.0-3.0-1.269"
	},
	{
		"rt": 486,
		"stimulus": "<span style=\"font-size:30px; font-family: monospace\">d'água</span>",
		"response": " ",
		"trial": "exp-sent",
		"word": "d'água",
		"trial_type": "html-keyboard-response",
		"trial_index": 333,
		"time_elapsed": 1223428,
		"internal_node_id": "0.0-3.0-1.270"
	},
	{
		"rt": 741,
		"stimulus": "<span style=\"font-size:30px; font-family: monospace\">estava</span>",
		"response": " ",
		"trial": "exp-sent",
		"word": "estava",
		"trial_type": "html-keyboard-response",
		"trial_index": 334,
		"time_elapsed": 1224420,
		"internal_node_id": "0.0-3.0-1.271"
	},
	{
		"rt": 1093,
		"stimulus": "<span style=\"font-size:30px; font-family: monospace\">normal</span>",
		"response": " ",
		"trial": "exp-sent",
		"word": "normal",
		"trial_type": "html-keyboard-response",
		"trial_index": 335,
		"time_elapsed": 1225764,
		"internal_node_id": "0.0-3.0-1.272"
	},
	{
		"rt": 1045,
		"stimulus": "<span style=\"font-size:30px; font-family: monospace\">naquele</span>",
		"response": " ",
		"trial": "exp-sent",
		"word": "naquele",
		"trial_type": "html-keyboard-response",
		"trial_index": 336,
		"time_elapsed": 1227060,
		"internal_node_id": "0.0-3.0-1.273"
	},
	{
		"rt": 853,
		"stimulus": "<span style=\"font-size:30px; font-family: monospace\">dia.</span>",
		"response": " ",
		"trial": "exp-sent",
		"word": "dia.",
		"trial_type": "html-keyboard-response",
		"trial_index": 337,
		"time_elapsed": 1228164,
		"internal_node_id": "0.0-3.0-1.274"
	},
	{
		"rt": null,
		"stimulus": "<span style= \"font-size:30px; font-family: monospace\">+</span>",
		"response": null,
		"trial_part": "fixation",
		"trial_type": "html-keyboard-response",
		"trial_index": 338,
		"time_elapsed": 1229417,
		"internal_node_id": "0.0-3.0-0.275-0.275"
	},
	{
		"rt": 432,
		"stimulus": "<span style=\"font-size:30px; font-family: monospace\">A</span>",
		"response": " ",
		"trial": "exp-sent",
		"word": "A",
		"trial_type": "html-keyboard-response",
		"trial_index": 339,
		"time_elapsed": 1230100,
