"view_history","rt","trial_type","trial_index","time_elapsed","internal_node_id","stimulus","response","portuguese","kreyol"
"[{""page_index"":0,""viewing_time"":4728}]","4728","instructions","0","4729","0.0-0.0","","","",""
"","null","html-keyboard-response","1","5360","0.0-1.0-0.0","+","null","",""
"","4520","audio-keyboard-response","2","9906","0.0-1.0-1.0","../audio/teste-vocab--20.mp3","s","medir","mezire"
"","null","html-keyboard-response","3","10410","0.0-1.0-0.1","+","null","",""
"","13661","audio-keyboard-response","4","24097","0.0-1.0-1.1","../audio/teste-vocab--109.mp3","n","anfíbio","anfibyen"
"","null","html-keyboard-response","5","24604","0.0-1.0-0.2","+","null","",""
"","3232","audio-keyboard-response","6","27857","0.0-1.0-1.2","../audio/teste-vocab--110.mp3","s","prodígio","pwodij"
"","null","html-keyboard-response","7","28368","0.0-1.0-0.3","+","null","",""
"","2541","audio-keyboard-response","8","30929","0.0-1.0-1.3","../audio/teste-vocab--45.mp3","s","dentista","dantis"
"","null","html-keyboard-response","9","31430","0.0-1.0-0.4","+","null","",""
"","3051","audio-keyboard-response","10","34497","0.0-1.0-1.4","../audio/teste-vocab--96.mp3","s","árido","sechrès"
"","null","html-keyboard-response","11","34998","0.0-1.0-0.5","+","null","",""
"","2040","audio-keyboard-response","12","37057","0.0-1.0-1.5","../audio/teste-vocab--18.mp3","s","abelha","myèl"
"","null","html-keyboard-response","13","37558","0.0-1.0-0.6","+","null","",""
"","2539","audio-keyboard-response","14","40113","0.0-1.0-1.6","../audio/teste-vocab--53.mp3","s","orientar","oryante"
"","null","html-keyboard-response","15","40616","0.0-1.0-0.7","+","null","",""
"","2480","audio-keyboard-response","16","43105","0.0-1.0-1.7","../audio/teste-vocab--27.mp3","s","rio","rivyè"
"","null","html-keyboard-response","17","43612","0.0-1.0-0.8","+","null","",""
"","2341","audio-keyboard-response","18","45969","0.0-1.0-1.8","../audio/teste-vocab--47.mp3","s","envelope","anvlope"
"","null","html-keyboard-response","19","46470","0.0-1.0-0.9","+","null","",""
"","3040","audio-keyboard-response","20","49537","0.0-1.0-1.9","../audio/teste-vocab--51.mp3","n","recolher","kolekte"
"","null","html-keyboard-response","21","50039","0.0-1.0-0.10","+","null","",""
"","3120","audio-keyboard-response","22","53169","0.0-1.0-1.10","../audio/teste-vocab--99.mp3","n","arqueólogo","akeyológ"
"","null","html-keyboard-response","23","53672","0.0-1.0-0.11","+","null","",""
"","2080","audio-keyboard-response","24","55776","0.0-1.0-1.11","../audio/teste-vocab--121.mp3","s","atônito","sezi"
"","null","html-keyboard-response","25","56280","0.0-1.0-0.12","+","null","",""
"","2741","audio-keyboard-response","26","59041","0.0-1.0-1.12","../audio/teste-vocab--35.mp3","s","líquido","likid"
"","null","html-keyboard-response","27","59551","0.0-1.0-0.13","+","null","",""
"","2909","audio-keyboard-response","28","62480","0.0-1.0-1.13","../audio/teste-vocab--66.mp3","s","cooperação","koperasyon"
"","null","html-keyboard-response","29","62994","0.0-1.0-0.14","+","null","",""
"","1928","audio-keyboard-response","30","64945","0.0-1.0-1.14","../audio/teste-vocab--39.mp3","s","cobra","koulèv"
"","null","html-keyboard-response","31","65457","0.0-1.0-0.15","+","null","",""
"","5440","audio-keyboard-response","32","70929","0.0-1.0-1.15","../audio/teste-vocab--112.mp3","s","aparição","aparisyon"
"","null","html-keyboard-response","33","71445","0.0-1.0-0.16","+","null","",""
"","1981","audio-keyboard-response","34","73441","0.0-1.0-1.16","../audio/teste-vocab--55.mp3","s","bosque","forè"
"","null","html-keyboard-response","35","73942","0.0-1.0-0.17","+","null","",""
"","2720","audio-keyboard-response","36","76673","0.0-1.0-1.17","../audio/teste-vocab--125.mp3","s","lamaçal","labou"
"","null","html-keyboard-response","37","77176","0.0-1.0-0.18","+","null","",""
"","7829","audio-keyboard-response","38","85025","0.0-1.0-1.18","../audio/teste-vocab--52.mp3","n","construção","konstriksyon"
"","null","html-keyboard-response","39","85531","0.0-1.0-0.19","+","null","",""
"","2501","audio-keyboard-response","40","88049","0.0-1.0-1.19","../audio/teste-vocab--01.mp3","s","boneca","pope"
"","null","html-keyboard-response","41","88557","0.0-1.0-0.20","+","null","",""
"","1709","audio-keyboard-response","42","90289","0.0-1.0-1.20","../audio/teste-vocab--04.mp3","s","roda","wonn"
"","null","html-keyboard-response","43","90791","0.0-1.0-0.21","+","null","",""
"","1739","audio-keyboard-response","44","92545","0.0-1.0-1.21","../audio/teste-vocab--33.mp3","s","uniforme","inifòm"
"","null","html-keyboard-response","45","93056","0.0-1.0-0.22","+","null","",""
"","3920","audio-keyboard-response","46","96993","0.0-1.0-1.22","../audio/teste-vocab--128.mp3","n","incisivo","ensisiv"
"","null","html-keyboard-response","47","97500","0.0-1.0-0.23","+","null","",""
"","43891","audio-keyboard-response","48","141392","0.0-1.0-1.23","../audio/teste-vocab--93.mp3","s","felino","leopa"
"","null","html-keyboard-response","49","141892","0.0-1.0-0.24","+","null","",""
"","1829","audio-keyboard-response","50","143839","0.0-1.0-1.24","../audio/teste-vocab--11.mp3","s","joelho","jenou"
"","null","html-keyboard-response","51","144350","0.0-1.0-0.25","+","null","",""
"","2440","audio-keyboard-response","52","146832","0.0-1.0-1.25","../audio/teste-vocab--101.mp3","n","incandescente","enkandesan"
"","null","html-keyboard-response","53","147341","0.0-1.0-0.26","+","null","",""
"","1771","audio-keyboard-response","54","149135","0.0-1.0-1.26","../audio/teste-vocab--03.mp3","s","balançar","balanse"
"","null","html-keyboard-response","55","149637","0.0-1.0-0.27","+","null","",""
"","1429","audio-keyboard-response","56","151088","0.0-1.0-1.27","../audio/teste-vocab--15.mp3","s","flecha","flèch"
"","null","html-keyboard-response","57","151590","0.0-1.0-0.28","+","null","",""
"","2040","audio-keyboard-response","58","153647","0.0-1.0-1.28","../audio/teste-vocab--67.mp3","s","corrimão","ranp"
"","null","html-keyboard-response","59","154152","0.0-1.0-0.29","+","null","",""
"","2011","audio-keyboard-response","60","156176","0.0-1.0-1.29","../audio/teste-vocab--72.mp3","n","ilha","zile"
"","null","html-keyboard-response","61","156678","0.0-1.0-0.30","+","null","",""
"","3088","audio-keyboard-response","62","159792","0.0-1.0-1.30","../audio/teste-vocab--115.mp3","s","perpendicular","pèpandikilè"
"","null","html-keyboard-response","63","160296","0.0-1.0-0.31","+","null","",""
"","2091","audio-keyboard-response","64","162400","0.0-1.0-1.31","../audio/teste-vocab--13.mp3","s","ambulância","anbilans"
"","null","html-keyboard-response","65","162904","0.0-1.0-0.32","+","null","",""
"","1949","audio-keyboard-response","66","164880","0.0-1.0-1.32","../audio/teste-vocab--62.mp3","s","carretel","bobin"
"","null","html-keyboard-response","67","165387","0.0-1.0-0.33","+","null","",""
"","2349","audio-keyboard-response","68","167760","0.0-1.0-1.33","../audio/teste-vocab--103.mp3","s","utensílio","istansil"
"","null","html-keyboard-response","69","168264","0.0-1.0-0.34","+","null","",""
"","1629","audio-keyboard-response","70","169920","0.0-1.0-1.34","../audio/teste-vocab--08.mp3","s","vaca","vach"
"","null","html-keyboard-response","71","170435","0.0-1.0-0.35","+","null","",""
"","3379","audio-keyboard-response","72","173840","0.0-1.0-1.35","../audio/teste-vocab--60.mp3","s","secretaria","sekretè"
"","null","html-keyboard-response","73","174347","0.0-1.0-0.36","+","null","",""
"","1891","audio-keyboard-response","74","176256","0.0-1.0-1.36","../audio/teste-vocab--120.mp3","s","induzir","pwovoke"
"","null","html-keyboard-response","75","176765","0.0-1.0-0.37","+","null","",""
"","2512","audio-keyboard-response","76","179295","0.0-1.0-1.37","../audio/teste-vocab--104.mp3","s","ira","pwal"
"","null","html-keyboard-response","77","179808","0.0-1.0-0.38","+","null","",""
"","2941","audio-keyboard-response","78","182768","0.0-1.0-1.38","../audio/teste-vocab--90.mp3","s","carniça","kanivò"
"","null","html-keyboard-response","79","183276","0.0-1.0-0.39","+","null","",""
"","1648","audio-keyboard-response","80","184943","0.0-1.0-1.39","../audio/teste-vocab--97.mp3","s","frágil","frajil"
"","null","html-keyboard-response","81","185448","0.0-1.0-0.40","+","null","",""
"","1832","audio-keyboard-response","82","187296","0.0-1.0-1.40","../audio/teste-vocab--71.mp3","s","caule","tij"
"","null","html-keyboard-response","83","187806","0.0-1.0-0.41","+","null","",""
"","3152","audio-keyboard-response","84","190975","0.0-1.0-1.41","../audio/teste-vocab--36.mp3","n","grupo","gwoup"
"","null","html-keyboard-response","85","191491","0.0-1.0-0.42","+","null","",""
"","4069","audio-keyboard-response","86","195583","0.0-1.0-1.42","../audio/teste-vocab--118.mp3","s","paralelogramo","paralelogram"
"","null","html-keyboard-response","87","196085","0.0-1.0-0.43","+","null","",""
"","1861","audio-keyboard-response","88","197968","0.0-1.0-1.43","../audio/teste-vocab--31.mp3","s","vazio","vid"
"","null","html-keyboard-response","89","198477","0.0-1.0-0.44","+","null","",""
"","1819","audio-keyboard-response","90","200320","0.0-1.0-1.44","../audio/teste-vocab--88.mp3","s","portátil","pòtab"
"","null","html-keyboard-response","91","200835","0.0-1.0-0.45","+","null","",""
"","2179","audio-keyboard-response","92","203039","0.0-1.0-1.45","../audio/teste-vocab--65.mp3","s","discussão","diskisyon"
"","null","html-keyboard-response","93","203545","0.0-1.0-0.46","+","null","",""
"","2269","audio-keyboard-response","94","205839","0.0-1.0-1.46","../audio/teste-vocab--130.mp3","s","gentil","dou"
"","null","html-keyboard-response","95","206346","0.0-1.0-0.47","+","null","",""
"","2939","audio-keyboard-response","96","209311","0.0-1.0-1.47","../audio/teste-vocab--28.mp3","s","águia","èg"
"","null","html-keyboard-response","97","209821","0.0-1.0-0.48","+","null","",""
"","3339","audio-keyboard-response","98","213183","0.0-1.0-1.48","../audio/teste-vocab--80.mp3","s","binóculo","longvi"
"","null","html-keyboard-response","99","213690","0.0-1.0-0.49","+","null","",""
"","1832","audio-keyboard-response","100","215535","0.0-1.0-1.49","../audio/teste-vocab--06.mp3","s","barco","bato"
"","null","html-keyboard-response","101","216051","0.0-1.0-0.50","+","null","",""
"","2352","audio-keyboard-response","102","218415","0.0-1.0-1.50","../audio/teste-vocab--89.mp3","s","classificar","klasifika"
"","null","html-keyboard-response","103","218917","0.0-1.0-0.51","+","null","",""
"","2528","audio-keyboard-response","104","221471","0.0-1.0-1.51","../audio/teste-vocab--81.mp3","s","judicial","jidisyè"
"","null","html-keyboard-response","105","221981","0.0-1.0-0.52","+","null","",""
"","1909","audio-keyboard-response","106","223903","0.0-1.0-1.52","../audio/teste-vocab--102.mp3","s","arrogante","arogan"
"","null","html-keyboard-response","107","224407","0.0-1.0-0.53","+","null","",""
"","2008","audio-keyboard-response","108","226431","0.0-1.0-1.53","../audio/teste-vocab--46.mp3","s","ombro","zepòl"
"","null","html-keyboard-response","109","226936","0.0-1.0-0.54","+","null","",""
"","1680","audio-keyboard-response","110","228639","0.0-1.0-1.54","../audio/teste-vocab--92.mp3","s","esférico","won"
"","null","html-keyboard-response","111","229145","0.0-1.0-0.55","+","null","",""
"","1949","audio-keyboard-response","112","231119","0.0-1.0-1.55","../audio/teste-vocab--76.mp3","s","arquivar","achive"
"","null","html-keyboard-response","113","231632","0.0-1.0-0.56","+","null","",""
"","3120","audio-keyboard-response","114","234767","0.0-1.0-1.56","../audio/teste-vocab--78.mp3","n","quarteto","qwatèt"
"","null","html-keyboard-response","115","235275","0.0-1.0-0.57","+","null","",""
"","4029","audio-keyboard-response","116","239327","0.0-1.0-1.57","../audio/teste-vocab--61.mp3","n","iluminação","iliminasyon"
"","null","html-keyboard-response","117","239838","0.0-1.0-0.58","+","null","",""
"","2328","audio-keyboard-response","118","242191","0.0-1.0-1.58","../audio/teste-vocab--69.mp3","s","pingar","degoute"
"","null","html-keyboard-response","119","242694","0.0-1.0-0.59","+","null","",""
"","2021","audio-keyboard-response","120","244735","0.0-1.0-1.59","../audio/teste-vocab--54.mp3","s","arbusto","raje"
"","null","html-keyboard-response","121","245238","0.0-1.0-0.60","+","null","",""
"","1739","audio-keyboard-response","122","246991","0.0-1.0-1.60","../audio/teste-vocab--32.mp3","s","descascar","dekale"
"","null","html-keyboard-response","123","247503","0.0-1.0-0.61","+","null","",""
"","1301","audio-keyboard-response","124","248815","0.0-1.0-1.61","../audio/teste-vocab--22.mp3","s","quebrado","kraze"
"","null","html-keyboard-response","125","249330","0.0-1.0-0.62","+","null","",""
"","5952","audio-keyboard-response","126","255295","0.0-1.0-1.62","../audio/teste-vocab--129.mp3","n","elipse","elips"
"","null","html-keyboard-response","127","255798","0.0-1.0-0.63","+","null","",""
"","1989","audio-keyboard-response","128","257807","0.0-1.0-1.63","../audio/teste-vocab--94.mp3","s","paralelo","paralèl"
"","null","html-keyboard-response","129","258308","0.0-1.0-0.64","+","null","",""
"","2139","audio-keyboard-response","130","260463","0.0-1.0-1.64","../audio/teste-vocab--70.mp3","s","funil","antónwa"
"","null","html-keyboard-response","131","260964","0.0-1.0-0.65","+","null","",""
"","1621","audio-keyboard-response","132","262607","0.0-1.0-1.65","../audio/teste-vocab--21.mp3","s","baleia","balèn"
"","null","html-keyboard-response","133","263114","0.0-1.0-0.66","+","null","",""
"","1531","audio-keyboard-response","134","264655","0.0-1.0-1.66","../audio/teste-vocab--126.mp3","s","ambulante","promennen"
"","null","html-keyboard-response","135","265158","0.0-1.0-0.67","+","null","",""
"","1349","audio-keyboard-response","136","266527","0.0-1.0-1.67","../audio/teste-vocab--64.mp3","s","colher","kiyè"
"","null","html-keyboard-response","137","267028","0.0-1.0-0.68","+","null","",""
"","1419","audio-keyboard-response","138","268463","0.0-1.0-1.68","../audio/teste-vocab--07.mp3","s","abajur","lanp"
"","null","html-keyboard-response","139","268966","0.0-1.0-0.69","+","null","",""
"","1448","audio-keyboard-response","140","270431","0.0-1.0-1.69","../audio/teste-vocab--68.mp3","s","surpreendido","sezi"
"","null","html-keyboard-response","141","270932","0.0-1.0-0.70","+","null","",""
"","1280","audio-keyboard-response","142","272223","0.0-1.0-1.70","../audio/teste-vocab--48.mp3","s","joia","bijou"
"","null","html-keyboard-response","143","272734","0.0-1.0-0.71","+","null","",""
"","1611","audio-keyboard-response","144","274367","0.0-1.0-1.71","../audio/teste-vocab--85.mp3","s","trio","trio"
"","null","html-keyboard-response","145","274870","0.0-1.0-0.72","+","null","",""
"","1560","audio-keyboard-response","146","276447","0.0-1.0-1.72","../audio/teste-vocab--106.mp3","s","lubrificar","grese"
"","null","html-keyboard-response","147","276948","0.0-1.0-0.73","+","null","",""
"","1699","audio-keyboard-response","148","278672","0.0-1.0-1.73","../audio/teste-vocab--113.mp3","s","ascender","limen"
"","null","html-keyboard-response","149","279172","0.0-1.0-0.74","+","null","",""
"","1552","audio-keyboard-response","150","280735","0.0-1.0-1.74","../audio/teste-vocab--57.mp3","s","raiz","rasin"
"","null","html-keyboard-response","151","281249","0.0-1.0-0.75","+","null","",""
"","1680","audio-keyboard-response","152","282943","0.0-1.0-1.75","../audio/teste-vocab--23.mp3","s","acariciar","karese"
"","null","html-keyboard-response","153","283453","0.0-1.0-0.76","+","null","",""
"","1731","audio-keyboard-response","154","285199","0.0-1.0-1.76","../audio/teste-vocab--50.mp3","s","artista","atis"
"","null","html-keyboard-response","155","285703","0.0-1.0-0.77","+","null","",""
"","1560","audio-keyboard-response","156","287279","0.0-1.0-1.77","../audio/teste-vocab--124.mp3","s","obelisco","obelisk"
"","null","html-keyboard-response","157","287795","0.0-1.0-0.78","+","null","",""
"","1869","audio-keyboard-response","158","289680","0.0-1.0-1.78","../audio/teste-vocab--122.mp3","s","transeunte","pasajè"
"","null","html-keyboard-response","159","290181","0.0-1.0-0.79","+","null","",""
"","1600","audio-keyboard-response","160","291807","0.0-1.0-1.79","../audio/teste-vocab--49.mp3","s","humano","moun"
"","null","html-keyboard-response","161","292310","0.0-1.0-0.80","+","null","",""
"","1771","audio-keyboard-response","162","294095","0.0-1.0-1.80","../audio/teste-vocab--119.mp3","s","numeroso","anpil"
"","null","html-keyboard-response","163","294604","0.0-1.0-0.81","+","null","",""
"","1779","audio-keyboard-response","164","296399","0.0-1.0-1.81","../audio/teste-vocab--24.mp3","s","acidente","aksidan"
"","null","html-keyboard-response","165","296911","0.0-1.0-0.82","+","null","",""
"","1800","audio-keyboard-response","166","298735","0.0-1.0-1.82","../audio/teste-vocab--111.mp3","s","jubilosa","rejwisans"
"","null","html-keyboard-response","167","299242","0.0-1.0-0.83","+","null","",""
"","1589","audio-keyboard-response","168","300847","0.0-1.0-1.83","../audio/teste-vocab--17.mp3","s","móvel","mobil"
"","null","html-keyboard-response","169","301355","0.0-1.0-0.84","+","null","",""
"","2080","audio-keyboard-response","170","303455","0.0-1.0-1.84","../audio/teste-vocab--91.mp3","s","bússola","bousòl"
"","null","html-keyboard-response","171","303970","0.0-1.0-0.85","+","null","",""
"","1741","audio-keyboard-response","172","305727","0.0-1.0-1.85","../audio/teste-vocab--98.mp3","s","instruir","enstwi"
"","null","html-keyboard-response","173","306241","0.0-1.0-0.86","+","null","",""
"","1640","audio-keyboard-response","174","307903","0.0-1.0-1.86","../audio/teste-vocab--02.mp3","s","homem","gason"
"","null","html-keyboard-response","175","308413","0.0-1.0-0.87","+","null","",""
"","1912","audio-keyboard-response","176","310335","0.0-1.0-1.87","../audio/teste-vocab--87.mp3","s","ave","zwazo"
"","null","html-keyboard-response","177","310837","0.0-1.0-0.88","+","null","",""
"","1968","audio-keyboard-response","178","312831","0.0-1.0-1.88","../audio/teste-vocab--05.mp3","s","limpar","netwaye"
"","null","html-keyboard-response","179","313334","0.0-1.0-0.89","+","null","",""
"","1381","audio-keyboard-response","180","314735","0.0-1.0-1.89","../audio/teste-vocab--14.mp3","s","ler","li"
"","null","html-keyboard-response","181","315239","0.0-1.0-0.90","+","null","",""
"","1768","audio-keyboard-response","182","317023","0.0-1.0-1.90","../audio/teste-vocab--58.mp3","s","nutritivo","nourisan"
"","null","html-keyboard-response","183","317530","0.0-1.0-0.91","+","null","",""
"","1501","audio-keyboard-response","184","319055","0.0-1.0-1.91","../audio/teste-vocab--16.mp3","s","pescoço","kou"
"","null","html-keyboard-response","185","319562","0.0-1.0-0.92","+","null","",""
"","1611","audio-keyboard-response","186","321199","0.0-1.0-1.92","../audio/teste-vocab--123.mp3","s","emissão","emisyon"
"","null","html-keyboard-response","187","321703","0.0-1.0-0.93","+","null","",""
"","1811","audio-keyboard-response","188","323535","0.0-1.0-1.93","../audio/teste-vocab--42.mp3","s","isolamento","izòlman"
"","null","html-keyboard-response","189","324043","0.0-1.0-0.94","+","null","",""
"","1928","audio-keyboard-response","190","325982","0.0-1.0-1.94","../audio/teste-vocab--127.mp3","s","côncavo","konkav"
"","null","html-keyboard-response","191","326495","0.0-1.0-0.95","+","null","",""
"","1432","audio-keyboard-response","192","327934","0.0-1.0-1.95","../audio/teste-vocab--30.mp3","s","pintor","pent"
"","null","html-keyboard-response","193","328448","0.0-1.0-0.96","+","null","",""
"","1720","audio-keyboard-response","194","330190","0.0-1.0-1.96","../audio/teste-vocab--41.mp3","s","médico","doktè,"
"","null","html-keyboard-response","195","330695","0.0-1.0-0.97","+","null","",""
"","1651","audio-keyboard-response","196","332366","0.0-1.0-1.97","../audio/teste-vocab--77.mp3","s","comércio","komès"
"","null","html-keyboard-response","197","332878","0.0-1.0-0.98","+","null","",""
"","2179","audio-keyboard-response","198","335071","0.0-1.0-1.98","../audio/teste-vocab--25.mp3","s","canguru","kanguwou"
"","null","html-keyboard-response","199","335572","0.0-1.0-0.99","+","null","",""
"","1949","audio-keyboard-response","200","337550","0.0-1.0-1.99","../audio/teste-vocab--84.mp3","s","confiar","konfye"
"","null","html-keyboard-response","201","338055","0.0-1.0-0.100","+","null","",""
"","1920","audio-keyboard-response","202","340014","0.0-1.0-1.100","../audio/teste-vocab--44.mp3","s","premiar","rekonpanse"
"","null","html-keyboard-response","203","340530","0.0-1.0-0.101","+","null","",""
"","2221","audio-keyboard-response","204","342766","0.0-1.0-1.101","../audio/teste-vocab--75.mp3","s","carpinteiro","chapantye"
"","null","html-keyboard-response","205","343276","0.0-1.0-0.102","+","null","",""
"","1760","audio-keyboard-response","206","345054","0.0-1.0-1.102","../audio/teste-vocab--114.mp3","s","fragmentar","dechire"
"","null","html-keyboard-response","207","345560","0.0-1.0-0.103","+","null","",""
"","2520","audio-keyboard-response","208","348094","0.0-1.0-1.103","../audio/teste-vocab--79.mp3","s","moldura"," chanbranl"
"","null","html-keyboard-response","209","348596","0.0-1.0-0.104","+","null","",""
"","1219","audio-keyboard-response","210","349838","0.0-1.0-1.104","../audio/teste-vocab--108.mp3","s","moradia","kay"
"","null","html-keyboard-response","211","350345","0.0-1.0-0.105","+","null","",""
"","1219","audio-keyboard-response","212","351582","0.0-1.0-1.105","../audio/teste-vocab--10.mp3","s","corneta","kòn"
"","null","html-keyboard-response","213","352093","0.0-1.0-0.106","+","null","",""
"","1160","audio-keyboard-response","214","353262","0.0-1.0-1.106","../audio/teste-vocab--95.mp3","s","submergir","plonje"
"","null","html-keyboard-response","215","353771","0.0-1.0-0.107","+","null","",""
"","1341","audio-keyboard-response","216","355134","0.0-1.0-1.107","../audio/teste-vocab--73.mp3","s","ângulo","ang"
"","null","html-keyboard-response","217","355639","0.0-1.0-0.108","+","null","",""
"","2040","audio-keyboard-response","218","357711","0.0-1.0-1.108","../audio/teste-vocab--100.mp3","s","consumir","konsome"
"","null","html-keyboard-response","219","358212","0.0-1.0-0.109","+","null","",""
"","1632","audio-keyboard-response","220","359854","0.0-1.0-1.109","../audio/teste-vocab--40.mp3","s","bebida","bwason"
"","null","html-keyboard-response","221","360359","0.0-1.0-0.110","+","null","",""
"","2088","audio-keyboard-response","222","362462","0.0-1.0-1.110","../audio/teste-vocab--105.mp3","n","cítrico","sitrik"
"","null","html-keyboard-response","223","362968","0.0-1.0-0.111","+","null","",""
"","3440","audio-keyboard-response","224","366430","0.0-1.0-1.111","../audio/teste-vocab--116.mp3","s","vestuário","vestyè"
"","null","html-keyboard-response","225","366935","0.0-1.0-0.112","+","null","",""
"","1771","audio-keyboard-response","226","368926","0.0-1.0-1.112","../audio/teste-vocab--56.mp3","s","agricultura","agrikilti"
"","null","html-keyboard-response","227","369434","0.0-1.0-0.113","+","null","",""
"","1299","audio-keyboard-response","228","370751","0.0-1.0-1.113","../audio/teste-vocab--59.mp3","s","par","pè"
"","null","html-keyboard-response","229","371260","0.0-1.0-0.114","+","null","",""
"","1509","audio-keyboard-response","230","372782","0.0-1.0-1.114","../audio/teste-vocab--107.mp3","s","elo","emay"
"","null","html-keyboard-response","231","373286","0.0-1.0-0.115","+","null","",""
"","1491","audio-keyboard-response","232","374799","0.0-1.0-1.115","../audio/teste-vocab--86.mp3","s","pensar","panse"
"","null","html-keyboard-response","233","375300","0.0-1.0-0.116","+","null","",""
"","1811","audio-keyboard-response","234","377119","0.0-1.0-1.116","../audio/teste-vocab--38.mp3","s","cerimônia","seremoni"
"","null","html-keyboard-response","235","377632","0.0-1.0-0.117","+","null","",""
"","5459","audio-keyboard-response","236","383119","0.0-1.0-1.117","../audio/teste-vocab--74.mp3","n","desilusão","dezilizyon"
"","null","html-keyboard-response","237","383633","0.0-1.0-0.118","+","null","",""
"","1589","audio-keyboard-response","238","385247","0.0-1.0-1.118","../audio/teste-vocab--117.mp3","s","córnea","kòn"
"","null","html-keyboard-response","239","385759","0.0-1.0-0.119","+","null","",""
"","2200","audio-keyboard-response","240","387983","0.0-1.0-1.119","../audio/teste-vocab--63.mp3","s","transparente","transparan"
"","null","html-keyboard-response","241","388491","0.0-1.0-0.120","+","null","",""
"","1731","audio-keyboard-response","242","390239","0.0-1.0-1.120","../audio/teste-vocab--26.mp3","s","cotovelo","koud"
"","null","html-keyboard-response","243","390754","0.0-1.0-0.121","+","null","",""
"","1589","audio-keyboard-response","244","392366","0.0-1.0-1.121","../audio/teste-vocab--82.mp3","s","roer","ronje"
"","null","html-keyboard-response","245","392868","0.0-1.0-0.122","+","null","",""
"","1320","audio-keyboard-response","246","394207","0.0-1.0-1.122","../audio/teste-vocab--34.mp3","s","tronco","twon"
"","null","html-keyboard-response","247","394714","0.0-1.0-0.123","+","null","",""
"","1579","audio-keyboard-response","248","396303","0.0-1.0-1.123","../audio/teste-vocab--19.mp3","s","hora","è"
"","null","html-keyboard-response","249","396809","0.0-1.0-0.124","+","null","",""
"","2160","audio-keyboard-response","250","398991","0.0-1.0-1.124","../audio/teste-vocab--12.mp3","s","jaula","kaj"
"","null","html-keyboard-response","251","399496","0.0-1.0-0.125","+","null","",""
"","2080","audio-keyboard-response","252","401599","0.0-1.0-1.125","../audio/teste-vocab--37.mp3","s","músico","mizisyen"
"","null","html-keyboard-response","253","402107","0.0-1.0-0.126","+","null","",""
"","1811","audio-keyboard-response","254","403935","0.0-1.0-1.126","../audio/teste-vocab--83.mp3","s","morsa","mòs"
"","null","html-keyboard-response","255","404449","0.0-1.0-0.127","+","null","",""
"","1781","audio-keyboard-response","256","406255","0.0-1.0-1.127","../audio/teste-vocab--09.mp3","s","vela","bouji"
"","null","html-keyboard-response","257","406769","0.0-1.0-0.128","+","null","",""
"","1560","audio-keyboard-response","258","408351","0.0-1.0-1.128","../audio/teste-vocab--29.mp3","s","rasgar","chire"
"","null","html-keyboard-response","259","408863","0.0-1.0-0.129","+","null","",""
"","2160","audio-keyboard-response","260","411055","0.0-1.0-1.129","../audio/teste-vocab--43.mp3","s","mecânico","mekanisyen"
