[
	{
		"view_history": [
			{
				"page_index": 0,
				"viewing_time": 7996
			},
			{
				"page_index": 1,
				"viewing_time": 3824
			}
		],
		"rt": 11821,
		"trial_type": "instructions",
		"trial_index": 0,
		"time_elapsed": 11821,
		"internal_node_id": "0.0-0.0"
	},
	{
		"rt": null,
		"stimulus": "<span style= \"font-size:30px; font-family: monospace\">+</span>",
		"response": null,
		"trial_part": "fixation",
		"trial_type": "html-keyboard-response",
		"trial_index": 1,
		"time_elapsed": 12929,
		"internal_node_id": "0.0-1.0-0.0-0.0"
	},
	{
		"rt": 6460,
		"stimulus": "<span style=\"font-size:30px; font-family: monospace\">O</span>",
		"response": " ",
		"trial": "prac-sent",
		"word": "O",
		"trial_type": "html-keyboard-response",
		"trial_index": 2,
		"time_elapsed": 19653,
		"internal_node_id": "0.0-1.0-1.0"
	},
	{
		"rt": 3967,
		"stimulus": "<span style=\"font-size:30px; font-family: monospace\">dia</span>",
		"response": " ",
		"trial": "prac-sent",
		"word": "dia",
		"trial_type": "html-keyboard-response",
		"trial_index": 3,
		"time_elapsed": 23877,
		"internal_node_id": "0.0-1.0-1.1"
	},
	{
		"rt": 5141,
		"stimulus": "<span style=\"font-size:30px; font-family: monospace\">estará</span>",
		"response": " ",
		"trial": "prac-sent",
		"word": "estará",
		"trial_type": "html-keyboard-response",
		"trial_index": 4,
		"time_elapsed": 29269,
		"internal_node_id": "0.0-1.0-1.2"
	},
	{
		"rt": 4179,
		"stimulus": "<span style=\"font-size:30px; font-family: monospace\">cheio</span>",
		"response": " ",
		"trial": "prac-sent",
		"word": "cheio",
		"trial_type": "html-keyboard-response",
		"trial_index": 5,
		"time_elapsed": 33701,
		"internal_node_id": "0.0-1.0-1.3"
	},
	{
		"rt": 5349,
		"stimulus": "<span style=\"font-size:30px; font-family: monospace\">de</span>",
		"response": " ",
		"trial": "prac-sent",
		"word": "de",
		"trial_type": "html-keyboard-response",
		"trial_index": 6,
		"time_elapsed": 39301,
		"internal_node_id": "0.0-1.0-1.4"
	},
	{
		"rt": 3333,
		"stimulus": "<span style=\"font-size:30px; font-family: monospace\">nuvens</span>",
		"response": " ",
		"trial": "prac-sent",
		"word": "nuvens",
		"trial_type": "html-keyboard-response",
		"trial_index": 7,
		"time_elapsed": 42885,
		"internal_node_id": "0.0-1.0-1.5"
	},
	{
		"rt": 2902,
		"stimulus": "<span style=\"font-size:30px; font-family: monospace\">hoje.</span>",
		"response": " ",
		"trial": "prac-sent",
		"word": "hoje.",
		"trial_type": "html-keyboard-response",
		"trial_index": 8,
		"time_elapsed": 46037,
		"internal_node_id": "0.0-1.0-1.6"
	},
	{
		"rt": null,
		"stimulus": "<span style= \"font-size:30px; font-family: monospace\">+</span>",
		"response": null,
		"trial_part": "fixation",
		"trial_type": "html-keyboard-response",
		"trial_index": 9,
		"time_elapsed": 47288,
		"internal_node_id": "0.0-1.0-0.7-0.7"
	},
	{
		"rt": 6962,
		"stimulus": "<span style=\"font-size:30px; font-family: monospace\">A</span>",
		"response": " ",
		"trial": "prac-sent",
		"word": "A",
		"trial_type": "html-keyboard-response",
		"trial_index": 10,
		"time_elapsed": 54501,
		"internal_node_id": "0.0-1.0-1.7"
	},
	{
		"rt": 3092,
		"stimulus": "<span style=\"font-size:30px; font-family: monospace\">caneca</span>",
		"response": " ",
		"trial": "prac-sent",
		"word": "caneca",
		"trial_type": "html-keyboard-response",
		"trial_index": 11,
		"time_elapsed": 57845,
		"internal_node_id": "0.0-1.0-1.8"
	},
	{
		"rt": 7829,
		"stimulus": "<span style=\"font-size:30px; font-family: monospace\">colorida</span>",
		"response": " ",
		"trial": "prac-sent",
		"word": "colorida",
		"trial_type": "html-keyboard-response",
		"trial_index": 12,
		"time_elapsed": 65925,
		"internal_node_id": "0.0-1.0-1.9"
	},
	{
		"rt": 3573,
		"stimulus": "<span style=\"font-size:30px; font-family: monospace\">caiu</span>",
		"response": " ",
		"trial": "prac-sent",
		"word": "caiu",
		"trial_type": "html-keyboard-response",
		"trial_index": 13,
		"time_elapsed": 69749,
		"internal_node_id": "0.0-1.0-1.10"
	},
	{
		"rt": 2340,
		"stimulus": "<span style=\"font-size:30px; font-family: monospace\">da</span>",
		"response": " ",
		"trial": "prac-sent",
		"word": "da",
		"trial_type": "html-keyboard-response",
		"trial_index": 14,
		"time_elapsed": 72341,
		"internal_node_id": "0.0-1.0-1.11"
	},
	{
		"rt": 2420,
		"stimulus": "<span style=\"font-size:30px; font-family: monospace\">mesa</span>",
		"response": " ",
		"trial": "prac-sent",
		"word": "mesa",
		"trial_type": "html-keyboard-response",
		"trial_index": 15,
		"time_elapsed": 75013,
		"internal_node_id": "0.0-1.0-1.12"
	},
	{
		"rt": 2388,
		"stimulus": "<span style=\"font-size:30px; font-family: monospace\">de</span>",
		"response": " ",
		"trial": "prac-sent",
		"word": "de",
		"trial_type": "html-keyboard-response",
		"trial_index": 16,
		"time_elapsed": 77652,
		"internal_node_id": "0.0-1.0-1.13"
	},
	{
		"rt": 3221,
		"stimulus": "<span style=\"font-size:30px; font-family: monospace\">jantar.</span>",
		"response": " ",
		"trial": "prac-comp",
		"word": "jantar.",
		"trial_type": "html-keyboard-response",
		"trial_index": 17,
		"time_elapsed": 81125,
		"internal_node_id": "0.0-1.0-1.14"
	},
	{
		"rt": 32614,
		"stimulus": "<span style=\"font-size:30px; font-family: monospace\">A caneca permaneceu na mesa?</span>",
		"response": "s",
		"question": "A caneca permaneceu na mesa?",
		"answer": "não",
		"trial": "prac-comp",
		"trial_type": "html-keyboard-response",
		"trial_index": 18,
		"time_elapsed": 113988,
		"internal_node_id": "0.0-1.0-2.14-0.14",
		"accuracy": false
	},
	{
		"view_history": [
			{
				"page_index": 0,
				"viewing_time": 37874
			}
		],
		"rt": 37874,
		"trial_type": "instructions",
		"trial_index": 19,
		"time_elapsed": 152364,
		"internal_node_id": "0.0-2.0"
	},
	{
		"rt": null,
		"stimulus": "<span style= \"font-size:30px; font-family: monospace\">+</span>",
		"response": null,
		"trial_part": "fixation",
		"trial_type": "html-keyboard-response",
		"trial_index": 20,
		"time_elapsed": 153474,
		"internal_node_id": "0.0-3.0-0.0-0.0"
	},
	{
		"rt": 7767,
		"stimulus": "<span style=\"font-size:30px; font-family: monospace\">A</span>",
		"response": " ",
		"trial": "exp-sent",
		"word": "A",
		"trial_type": "html-keyboard-response",
		"trial_index": 21,
		"time_elapsed": 161492,
		"internal_node_id": "0.0-3.0-1.0"
	},
	{
		"rt": 52997,
		"stimulus": "<span style=\"font-size:30px; font-family: monospace\">motorista</span>",
		"response": " ",
		"trial": "exp-sent",
		"word": "motorista",
		"trial_type": "html-keyboard-response",
		"trial_index": 22,
		"time_elapsed": 214739,
		"internal_node_id": "0.0-3.0-1.1"
	},
	{
		"rt": 7445,
		"stimulus": "<span style=\"font-size:30px; font-family: monospace\">fez</span>",
		"response": " ",
		"trial": "exp-sent",
		"word": "fez",
		"trial_type": "html-keyboard-response",
		"trial_index": 23,
		"time_elapsed": 222435,
		"internal_node_id": "0.0-3.0-1.2"
	},
	{
		"rt": 4709,
		"stimulus": "<span style=\"font-size:30px; font-family: monospace\">o</span>",
		"response": " ",
		"trial": "exp-sent",
		"word": "o",
		"trial_type": "html-keyboard-response",
		"trial_index": 24,
		"time_elapsed": 227395,
		"internal_node_id": "0.0-3.0-1.3"
	},
	{
		"rt": 16117,
		"stimulus": "<span style=\"font-size:30px; font-family: monospace\">retorno</span>",
		"response": " ",
		"trial": "exp-sent",
		"word": "retorno",
		"trial_type": "html-keyboard-response",
		"trial_index": 25,
		"time_elapsed": 243763,
		"internal_node_id": "0.0-3.0-1.4"
	},
	{
		"rt": 7108,
		"stimulus": "<span style=\"font-size:30px; font-family: monospace\">com</span>",
		"response": " ",
		"trial": "exp-sent",
		"word": "com",
		"trial_type": "html-keyboard-response",
		"trial_index": 26,
		"time_elapsed": 251123,
		"internal_node_id": "0.0-3.0-1.5"
	},
	{
		"rt": 15972,
		"stimulus": "<span style=\"font-size:30px; font-family: monospace\">cuidado.</span>",
		"response": " ",
		"trial": "exp-sent",
		"word": "cuidado.",
		"trial_type": "html-keyboard-response",
		"trial_index": 27,
		"time_elapsed": 267347,
		"internal_node_id": "0.0-3.0-1.6"
	},
	{
		"rt": null,
		"stimulus": "<span style= \"font-size:30px; font-family: monospace\">+</span>",
		"response": null,
		"trial_part": "fixation",
		"trial_type": "html-keyboard-response",
		"trial_index": 28,
		"time_elapsed": 268599,
		"internal_node_id": "0.0-3.0-0.7-0.7"
	},
	{
		"rt": 10241,
		"stimulus": "<span style=\"font-size:30px; font-family: monospace\">Contos</span>",
		"response": " ",
		"trial": "exp-sent",
		"word": "Contos",
		"trial_type": "html-keyboard-response",
		"trial_index": 29,
		"time_elapsed": 279091,
		"internal_node_id": "0.0-3.0-1.7"
	},
	{
		"rt": 4773,
		"stimulus": "<span style=\"font-size:30px; font-family: monospace\">de</span>",
		"response": " ",
		"trial": "exp-sent",
		"word": "de",
		"trial_type": "html-keyboard-response",
		"trial_index": 30,
		"time_elapsed": 284114,
		"internal_node_id": "0.0-3.0-1.8"
	},
	{
		"rt": 10598,
		"stimulus": "<span style=\"font-size:30px; font-family: monospace\">ação</span>",
		"response": " ",
		"trial": "exp-sent",
		"word": "ação",
		"trial_type": "html-keyboard-response",
		"trial_index": 31,
		"time_elapsed": 294962,
		"internal_node_id": "0.0-3.0-1.9"
	},
	{
		"rt": 8005,
		"stimulus": "<span style=\"font-size:30px; font-family: monospace\">têm</span>",
		"response": " ",
		"trial": "exp-sent",
		"word": "têm",
		"trial_type": "html-keyboard-response",
		"trial_index": 32,
		"time_elapsed": 303218,
		"internal_node_id": "0.0-3.0-1.10"
	},
	{
		"rt": 12261,
		"stimulus": "<span style=\"font-size:30px; font-family: monospace\">chantagem</span>",
		"response": " ",
		"trial": "exp-sent",
		"word": "chantagem",
		"trial_type": "html-keyboard-response",
		"trial_index": 33,
		"time_elapsed": 315731,
		"internal_node_id": "0.0-3.0-1.11"
	},
	{
		"rt": 4484,
		"stimulus": "<span style=\"font-size:30px; font-family: monospace\">e</span>",
		"response": " ",
		"trial": "exp-sent",
		"word": "e",
		"trial_type": "html-keyboard-response",
		"trial_index": 34,
		"time_elapsed": 320466,
		"internal_node_id": "0.0-3.0-1.12"
	},
	{
		"rt": 10022,
		"stimulus": "<span style=\"font-size:30px; font-family: monospace\">muita</span>",
		"response": " ",
		"trial": "exp-sent",
		"word": "muita",
		"trial_type": "html-keyboard-response",
		"trial_index": 35,
		"time_elapsed": 330738,
		"internal_node_id": "0.0-3.0-1.13"
	},
	{
		"rt": 9557,
		"stimulus": "<span style=\"font-size:30px; font-family: monospace\">luta.</span>",
		"response": " ",
		"trial": "exp-sent",
		"word": "luta.",
		"trial_type": "html-keyboard-response",
		"trial_index": 36,
		"time_elapsed": 340546,
		"internal_node_id": "0.0-3.0-1.14"
	},
	{
		"rt": null,
		"stimulus": "<span style= \"font-size:30px; font-family: monospace\">+</span>",
		"response": null,
		"trial_part": "fixation",
		"trial_type": "html-keyboard-response",
		"trial_index": 37,
		"time_elapsed": 341798,
		"internal_node_id": "0.0-3.0-0.15-0.15"
	},
	{
		"rt": 5218,
		"stimulus": "<span style=\"font-size:30px; font-family: monospace\">A</span>",
		"response": " ",
		"trial": "exp-sent",
		"word": "A",
		"trial_type": "html-keyboard-response",
		"trial_index": 38,
		"time_elapsed": 347266,
		"internal_node_id": "0.0-3.0-1.15"
	},
	{
		"rt": 14837,
		"stimulus": "<span style=\"font-size:30px; font-family: monospace\">bisavó</span>",
		"response": " ",
		"trial": "exp-sent",
		"word": "bisavó",
		"trial_type": "html-keyboard-response",
		"trial_index": 39,
		"time_elapsed": 362354,
		"internal_node_id": "0.0-3.0-1.16"
	},
	{
		"rt": 4360,
		"stimulus": "<span style=\"font-size:30px; font-family: monospace\">recebeu</span>",
		"response": " ",
		"trial": "exp-sent",
		"word": "recebeu",
		"trial_type": "html-keyboard-response",
		"trial_index": 40,
		"time_elapsed": 366978,
		"internal_node_id": "0.0-3.0-1.17"
	},
	{
		"rt": 2869,
		"stimulus": "<span style=\"font-size:30px; font-family: monospace\">um</span>",
		"response": " ",
		"trial": "exp-sent",
		"word": "um",
		"trial_type": "html-keyboard-response",
		"trial_index": 41,
		"time_elapsed": 370098,
		"internal_node_id": "0.0-3.0-1.18"
	},
	{
		"rt": 2311,
		"stimulus": "<span style=\"font-size:30px; font-family: monospace\">benefício</span>",
		"response": " ",
		"trial": "exp-sent",
		"word": "benefício",
		"trial_type": "html-keyboard-response",
		"trial_index": 42,
		"time_elapsed": 372674,
		"internal_node_id": "0.0-3.0-1.19"
	},
	{
		"rt": 2308,
		"stimulus": "<span style=\"font-size:30px; font-family: monospace\">temporário</span>",
		"response": " ",
		"trial": "exp-sent",
		"word": "temporário",
		"trial_type": "html-keyboard-response",
		"trial_index": 43,
		"time_elapsed": 375234,
		"internal_node_id": "0.0-3.0-1.20"
	},
	{
		"rt": 2245,
		"stimulus": "<span style=\"font-size:30px; font-family: monospace\">do</span>",
		"response": " ",
		"trial": "exp-sent",
		"word": "do",
		"trial_type": "html-keyboard-response",
		"trial_index": 44,
		"time_elapsed": 377730,
		"internal_node_id": "0.0-3.0-1.21"
	},
	{
		"rt": 2160,
		"stimulus": "<span style=\"font-size:30px; font-family: monospace\">governo.</span>",
		"response": " ",
		"trial": "exp-sent",
		"word": "governo.",
		"trial_type": "html-keyboard-response",
		"trial_index": 45,
		"time_elapsed": 380146,
		"internal_node_id": "0.0-3.0-1.22"
	},
	{
		"rt": null,
		"stimulus": "<span style= \"font-size:30px; font-family: monospace\">+</span>",
		"response": null,
		"trial_part": "fixation",
		"trial_type": "html-keyboard-response",
		"trial_index": 46,
		"time_elapsed": 381397,
		"internal_node_id": "0.0-3.0-0.23-0.23"
	},
	{
		"rt": 995,
		"stimulus": "<span style=\"font-size:30px; font-family: monospace\">As</span>",
		"response": " ",
		"trial": "exp-sent",
		"word": "As",
		"trial_type": "html-keyboard-response",
		"trial_index": 47,
		"time_elapsed": 382642,
		"internal_node_id": "0.0-3.0-1.23"
	},
	{
		"rt": 709,
		"stimulus": "<span style=\"font-size:30px; font-family: monospace\">crianças</span>",
		"response": " ",
		"trial": "exp-sent",
		"word": "crianças",
		"trial_type": "html-keyboard-response",
		"trial_index": 48,
		"time_elapsed": 383602,
		"internal_node_id": "0.0-3.0-1.24"
	},
	{
		"rt": 1717,
		"stimulus": "<span style=\"font-size:30px; font-family: monospace\">brincaram</span>",
		"response": " ",
		"trial": "exp-sent",
		"word": "brincaram",
		"trial_type": "html-keyboard-response",
		"trial_index": 49,
		"time_elapsed": 385570,
		"internal_node_id": "0.0-3.0-1.25"
	},
	{
		"rt": 1445,
		"stimulus": "<span style=\"font-size:30px; font-family: monospace\">no</span>",
		"response": " ",
		"trial": "exp-sent",
		"word": "no",
		"trial_type": "html-keyboard-response",
		"trial_index": 50,
		"time_elapsed": 387266,
		"internal_node_id": "0.0-3.0-1.26"
	},
	{
		"rt": 1717,
		"stimulus": "<span style=\"font-size:30px; font-family: monospace\">balanço</span>",
		"response": " ",
		"trial": "exp-sent",
		"word": "balanço",
		"trial_type": "html-keyboard-response",
		"trial_index": 51,
		"time_elapsed": 389234,
		"internal_node_id": "0.0-3.0-1.27"
	},
	{
		"rt": 2421,
		"stimulus": "<span style=\"font-size:30px; font-family: monospace\">a</span>",
		"response": " ",
		"trial": "exp-sent",
		"word": "a",
		"trial_type": "html-keyboard-response",
		"trial_index": 52,
		"time_elapsed": 391906,
		"internal_node_id": "0.0-3.0-1.28"
	},
	{
		"rt": 2310,
		"stimulus": "<span style=\"font-size:30px; font-family: monospace\">tarde</span>",
		"response": " ",
		"trial": "exp-sent",
		"word": "tarde",
		"trial_type": "html-keyboard-response",
		"trial_index": 53,
		"time_elapsed": 394466,
		"internal_node_id": "0.0-3.0-1.29"
	},
	{
		"rt": 2213,
		"stimulus": "<span style=\"font-size:30px; font-family: monospace\">toda.</span>",
		"response": " ",
		"trial": "exp-sent",
		"word": "toda.",
		"trial_type": "html-keyboard-response",
		"trial_index": 54,
		"time_elapsed": 396930,
		"internal_node_id": "0.0-3.0-1.30"
	},
	{
		"rt": null,
		"stimulus": "<span style= \"font-size:30px; font-family: monospace\">+</span>",
		"response": null,
		"trial_part": "fixation",
		"trial_type": "html-keyboard-response",
		"trial_index": 55,
		"time_elapsed": 398182,
		"internal_node_id": "0.0-3.0-0.31-0.31"
	},
	{
		"rt": 593,
		"stimulus": "<span style=\"font-size:30px; font-family: monospace\">Ela</span>",
		"response": " ",
		"trial": "exp-sent",
		"word": "Ela",
		"trial_type": "html-keyboard-response",
		"trial_index": 56,
		"time_elapsed": 399026,
		"internal_node_id": "0.0-3.0-1.31"
	},
	{
		"rt": 1413,
		"stimulus": "<span style=\"font-size:30px; font-family: monospace\">gosta</span>",
		"response": " ",
		"trial": "exp-sent",
		"word": "gosta",
		"trial_type": "html-keyboard-response",
		"trial_index": 57,
		"time_elapsed": 400690,
		"internal_node_id": "0.0-3.0-1.32"
	},
	{
		"rt": 1445,
		"stimulus": "<span style=\"font-size:30px; font-family: monospace\">de</span>",
		"response": " ",
		"trial": "exp-sent",
		"word": "de",
		"trial_type": "html-keyboard-response",
		"trial_index": 58,
		"time_elapsed": 402386,
		"internal_node_id": "0.0-3.0-1.33"
	},
	{
		"rt": 165,
		"stimulus": "<span style=\"font-size:30px; font-family: monospace\">comida</span>",
		"response": " ",
		"trial": "exp-sent",
		"word": "comida",
		"trial_type": "html-keyboard-response",
		"trial_index": 59,
		"time_elapsed": 402802,
		"internal_node_id": "0.0-3.0-1.34"
	},
	{
		"rt": 2422,
		"stimulus": "<span style=\"font-size:30px; font-family: monospace\">natural</span>",
		"response": " ",
		"trial": "exp-sent",
		"word": "natural",
		"trial_type": "html-keyboard-response",
		"trial_index": 60,
		"time_elapsed": 405474,
		"internal_node_id": "0.0-3.0-1.35"
	},
	{
		"rt": 9237,
		"stimulus": "<span style=\"font-size:30px; font-family: monospace\">no</span>",
		"response": " ",
		"trial": "exp-sent",
		"word": "no",
		"trial_type": "html-keyboard-response",
		"trial_index": 61,
		"time_elapsed": 414961,
		"internal_node_id": "0.0-3.0-1.36"
	},
	{
		"rt": 2293,
		"stimulus": "<span style=\"font-size:30px; font-family: monospace\">almoço.</span>",
		"response": " ",
		"trial": "comp",
		"word": "almoço.",
		"trial_type": "html-keyboard-response",
		"trial_index": 62,
		"time_elapsed": 417506,
		"internal_node_id": "0.0-3.0-1.37"
	},
	{
		"rt": 10533,
		"stimulus": "<span style=\"font-size:30px; font-family: monospace\">Ela gosta de comida natural no almoço?</span>",
		"response": "s",
		"question": "Ela gosta de comida natural no almoço?",
		"answer": "sim",
		"trial": "comp",
		"trial_type": "html-keyboard-response",
		"trial_index": 63,
		"time_elapsed": 428290,
		"internal_node_id": "0.0-3.0-2.37-0.37",
		"accuracy": false
	},
	{
		"rt": null,
		"stimulus": "<span style= \"font-size:30px; font-family: monospace\">+</span>",
		"response": null,
		"trial_part": "fixation",
		"trial_type": "html-keyboard-response",
		"trial_index": 64,
		"time_elapsed": 429791,
		"internal_node_id": "0.0-3.0-0.38-0.38"
	},
	{
		"rt": 41160,
		"stimulus": "<span style=\"font-size:30px; font-family: monospace\">No</span>",
		"response": " ",
		"trial": "exp-sent",
		"word": "No",
		"trial_type": "html-keyboard-response",
		"trial_index": 65,
		"time_elapsed": 471201,
		"internal_node_id": "0.0-3.0-1.38"
	},
	{
		"rt": 2404,
		"stimulus": "<span style=\"font-size:30px; font-family: monospace\">passado</span>",
		"response": " ",
		"trial": "exp-sent",
		"word": "passado",
		"trial_type": "html-keyboard-response",
		"trial_index": 66,
		"time_elapsed": 473857,
		"internal_node_id": "0.0-3.0-1.39"
	},
	{
		"rt": 2837,
		"stimulus": "<span style=\"font-size:30px; font-family: monospace\">houve</span>",
		"response": " ",
		"trial": "exp-sent",
		"word": "houve",
		"trial_type": "html-keyboard-response",
		"trial_index": 67,
		"time_elapsed": 476945,
		"internal_node_id": "0.0-3.0-1.40"
	},
	{
		"rt": 2885,
		"stimulus": "<span style=\"font-size:30px; font-family: monospace\">uma</span>",
		"response": " ",
		"trial": "exp-sent",
		"word": "uma",
		"trial_type": "html-keyboard-response",
		"trial_index": 68,
		"time_elapsed": 480081,
		"internal_node_id": "0.0-3.0-1.41"
	},
	{
		"rt": 4325,
		"stimulus": "<span style=\"font-size:30px; font-family: monospace\">rebelião</span>",
		"response": " ",
		"trial": "exp-sent",
		"word": "rebelião",
		"trial_type": "html-keyboard-response",
		"trial_index": 69,
		"time_elapsed": 484657,
		"internal_node_id": "0.0-3.0-1.42"
	},
	{
		"rt": 2613,
		"stimulus": "<span style=\"font-size:30px; font-family: monospace\">nesta</span>",
		"response": " ",
		"trial": "exp-sent",
		"word": "nesta",
		"trial_type": "html-keyboard-response",
		"trial_index": 70,
		"time_elapsed": 487522,
		"internal_node_id": "0.0-3.0-1.43"
	},
	{
		"rt": 2612,
		"stimulus": "<span style=\"font-size:30px; font-family: monospace\">cidade.</span>",
		"response": " ",
		"trial": "exp-sent",
		"word": "cidade.",
		"trial_type": "html-keyboard-response",
		"trial_index": 71,
		"time_elapsed": 490385,
		"internal_node_id": "0.0-3.0-1.44"
	},
	{
		"rt": null,
		"stimulus": "<span style= \"font-size:30px; font-family: monospace\">+</span>",
		"response": null,
		"trial_part": "fixation",
		"trial_type": "html-keyboard-response",
		"trial_index": 72,
		"time_elapsed": 491637,
		"internal_node_id": "0.0-3.0-0.45-0.45"
	},
	{
		"rt": 1474,
		"stimulus": "<span style=\"font-size:30px; font-family: monospace\">Ele</span>",
		"response": " ",
		"trial": "exp-sent",
		"word": "Ele",
		"trial_type": "html-keyboard-response",
		"trial_index": 73,
		"time_elapsed": 493361,
		"internal_node_id": "0.0-3.0-1.45"
	},
	{
		"rt": 1317,
		"stimulus": "<span style=\"font-size:30px; font-family: monospace\">fundou</span>",
		"response": " ",
		"trial": "exp-sent",
		"word": "fundou",
		"trial_type": "html-keyboard-response",
		"trial_index": 74,
		"time_elapsed": 494929,
		"internal_node_id": "0.0-3.0-1.46"
	},
	{
		"rt": 3205,
		"stimulus": "<span style=\"font-size:30px; font-family: monospace\">uma</span>",
		"response": " ",
		"trial": "exp-sent",
		"word": "uma",
		"trial_type": "html-keyboard-response",
		"trial_index": 75,
		"time_elapsed": 498385,
		"internal_node_id": "0.0-3.0-1.47"
	},
	{
		"rt": 2517,
		"stimulus": "<span style=\"font-size:30px; font-family: monospace\">empresa</span>",
		"response": " ",
		"trial": "exp-sent",
		"word": "empresa",
		"trial_type": "html-keyboard-response",
		"trial_index": 76,
		"time_elapsed": 501153,
		"internal_node_id": "0.0-3.0-1.48"
	},
	{
		"rt": 3330,
		"stimulus": "<span style=\"font-size:30px; font-family: monospace\">privada</span>",
		"response": " ",
		"trial": "exp-sent",
		"word": "privada",
		"trial_type": "html-keyboard-response",
		"trial_index": 77,
		"time_elapsed": 504737,
		"internal_node_id": "0.0-3.0-1.49"
	},
	{
		"rt": 2229,
		"stimulus": "<span style=\"font-size:30px; font-family: monospace\">sem</span>",
		"response": " ",
		"trial": "exp-sent",
		"word": "sem",
		"trial_type": "html-keyboard-response",
		"trial_index": 78,
		"time_elapsed": 507217,
		"internal_node_id": "0.0-3.0-1.50"
	},
	{
		"rt": 2432,
		"stimulus": "<span style=\"font-size:30px; font-family: monospace\">ajuda.</span>",
		"response": " ",
		"trial": "exp-sent",
		"word": "ajuda.",
		"trial_type": "html-keyboard-response",
		"trial_index": 79,
		"time_elapsed": 509905,
		"internal_node_id": "0.0-3.0-1.51"
	},
	{
		"rt": null,
		"stimulus": "<span style= \"font-size:30px; font-family: monospace\">+</span>",
		"response": null,
		"trial_part": "fixation",
		"trial_type": "html-keyboard-response",
		"trial_index": 80,
		"time_elapsed": 511157,
		"internal_node_id": "0.0-3.0-0.52-0.52"
	},
	{
		"rt": 1186,
		"stimulus": "<span style=\"font-size:30px; font-family: monospace\">As</span>",
		"response": " ",
		"trial": "exp-sent",
		"word": "As",
		"trial_type": "html-keyboard-response",
		"trial_index": 81,
		"time_elapsed": 512593,
		"internal_node_id": "0.0-3.0-1.52"
	},
	{
		"rt": 2069,
		"stimulus": "<span style=\"font-size:30px; font-family: monospace\">meninas</span>",
		"response": " ",
		"trial": "exp-sent",
		"word": "meninas",
		"trial_type": "html-keyboard-response",
		"trial_index": 82,
		"time_elapsed": 514913,
		"internal_node_id": "0.0-3.0-1.53"
	},
	{
		"rt": 4133,
		"stimulus": "<span style=\"font-size:30px; font-family: monospace\">encontraram</span>",
		"response": " ",
		"trial": "exp-sent",
		"word": "encontraram",
		"trial_type": "html-keyboard-response",
		"trial_index": 83,
		"time_elapsed": 519297,
		"internal_node_id": "0.0-3.0-1.54"
	},
	{
		"rt": 2789,
		"stimulus": "<span style=\"font-size:30px; font-family: monospace\">um</span>",
		"response": " ",
		"trial": "exp-sent",
		"word": "um",
		"trial_type": "html-keyboard-response",
		"trial_index": 84,
		"time_elapsed": 522337,
		"internal_node_id": "0.0-3.0-1.55"
	},
	{
		"rt": 3653,
		"stimulus": "<span style=\"font-size:30px; font-family: monospace\">rato</span>",
		"response": " ",
		"trial": "exp-sent",
		"word": "rato",
		"trial_type": "html-keyboard-response",
		"trial_index": 85,
		"time_elapsed": 526241,
		"internal_node_id": "0.0-3.0-1.56"
	},
	{
		"rt": 2917,
		"stimulus": "<span style=\"font-size:30px; font-family: monospace\">dentro</span>",
		"response": " ",
		"trial": "exp-sent",
		"word": "dentro",
		"trial_type": "html-keyboard-response",
		"trial_index": 86,
		"time_elapsed": 529409,
		"internal_node_id": "0.0-3.0-1.57"
	},
	{
		"rt": 2277,
		"stimulus": "<span style=\"font-size:30px; font-family: monospace\">de</span>",
		"response": " ",
		"trial": "exp-sent",
		"word": "de",
		"trial_type": "html-keyboard-response",
		"trial_index": 87,
		"time_elapsed": 531938,
		"internal_node_id": "0.0-3.0-1.58"
	},
	{
		"rt": 2518,
		"stimulus": "<span style=\"font-size:30px; font-family: monospace\">casa.</span>",
		"response": " ",
		"trial": "exp-sent",
		"word": "casa.",
		"trial_type": "html-keyboard-response",
		"trial_index": 88,
		"time_elapsed": 534706,
		"internal_node_id": "0.0-3.0-1.59"
	},
	{
		"rt": null,
		"stimulus": "<span style= \"font-size:30px; font-family: monospace\">+</span>",
		"response": null,
		"trial_part": "fixation",
		"trial_type": "html-keyboard-response",
		"trial_index": 89,
		"time_elapsed": 535957,
		"internal_node_id": "0.0-3.0-0.60-0.60"
	},
	{
		"rt": 1026,
		"stimulus": "<span style=\"font-size:30px; font-family: monospace\">O</span>",
		"response": " ",
		"trial": "exp-sent",
		"word": "O",
		"trial_type": "html-keyboard-response",
		"trial_index": 90,
		"time_elapsed": 537234,
		"internal_node_id": "0.0-3.0-1.60"
	},
	{
		"rt": 1989,
		"stimulus": "<span style=\"font-size:30px; font-family: monospace\">texto</span>",
		"response": " ",
		"trial": "exp-sent",
		"word": "texto",
		"trial_type": "html-keyboard-response",
		"trial_index": 91,
		"time_elapsed": 539473,
		"internal_node_id": "0.0-3.0-1.61"
	},
	{
		"rt": 1156,
		"stimulus": "<span style=\"font-size:30px; font-family: monospace\">tinha</span>",
		"response": " ",
		"trial": "exp-sent",
		"word": "tinha",
		"trial_type": "html-keyboard-response",
		"trial_index": 92,
		"time_elapsed": 540882,
		"internal_node_id": "0.0-3.0-1.62"
	},
	{
		"rt": 1653,
		"stimulus": "<span style=\"font-size:30px; font-family: monospace\">ideias</span>",
		"response": " ",
		"trial": "exp-sent",
		"word": "ideias",
		"trial_type": "html-keyboard-response",
		"trial_index": 93,
		"time_elapsed": 542785,
		"internal_node_id": "0.0-3.0-1.63"
	},
	{
		"rt": 12214,
		"stimulus": "<span style=\"font-size:30px; font-family: monospace\">vagas</span>",
		"response": " ",
		"trial": "exp-sent",
		"word": "vagas",
		"trial_type": "html-keyboard-response",
		"trial_index": 94,
		"time_elapsed": 555250,
		"internal_node_id": "0.0-3.0-1.64"
	},
	{
		"rt": 2885,
		"stimulus": "<span style=\"font-size:30px; font-family: monospace\">e</span>",
		"response": " ",
		"trial": "exp-sent",
		"word": "e",
		"trial_type": "html-keyboard-response",
		"trial_index": 95,
		"time_elapsed": 558385,
		"internal_node_id": "0.0-3.0-1.65"
	},
	{
		"rt": 8341,
		"stimulus": "<span style=\"font-size:30px; font-family: monospace\">confusas.</span>",
		"response": " ",
		"trial": "exp-sent",
		"word": "confusas.",
		"trial_type": "html-keyboard-response",
		"trial_index": 96,
		"time_elapsed": 566978,
		"internal_node_id": "0.0-3.0-1.66"
	},
	{
		"rt": null,
		"stimulus": "<span style= \"font-size:30px; font-family: monospace\">+</span>",
		"response": null,
		"trial_part": "fixation",
		"trial_type": "html-keyboard-response",
		"trial_index": 97,
		"time_elapsed": 568229,
		"internal_node_id": "0.0-3.0-0.67-0.67"
	},
	{
		"rt": 1233,
		"stimulus": "<span style=\"font-size:30px; font-family: monospace\">As</span>",
		"response": " ",
		"trial": "exp-sent",
		"word": "As",
		"trial_type": "html-keyboard-response",
		"trial_index": 98,
		"time_elapsed": 569713,
		"internal_node_id": "0.0-3.0-1.67"
	},
	{
		"rt": 3972,
		"stimulus": "<span style=\"font-size:30px; font-family: monospace\">crianças</span>",
		"response": " ",
		"trial": "exp-sent",
		"word": "crianças",
		"trial_type": "html-keyboard-response",
		"trial_index": 99,
		"time_elapsed": 573938,
		"internal_node_id": "0.0-3.0-1.68"
	},
	{
		"rt": 14229,
		"stimulus": "<span style=\"font-size:30px; font-family: monospace\">viram</span>",
		"response": " ",
		"trial": "exp-sent",
		"word": "viram",
		"trial_type": "html-keyboard-response",
		"trial_index": 100,
		"time_elapsed": 588418,
		"internal_node_id": "0.0-3.0-1.69"
	},
	{
		"rt": 2261,
		"stimulus": "<span style=\"font-size:30px; font-family: monospace\">a</span>",
		"response": " ",
		"trial": "exp-sent",
		"word": "a",
		"trial_type": "html-keyboard-response",
		"trial_index": 101,
		"time_elapsed": 590930,
		"internal_node_id": "0.0-3.0-1.70"
	},
	{
		"rt": 4037,
		"stimulus": "<span style=\"font-size:30px; font-family: monospace\">acrobata</span>",
		"response": " ",
		"trial": "exp-sent",
		"word": "acrobata",
		"trial_type": "html-keyboard-response",
		"trial_index": 102,
		"time_elapsed": 595217,
		"internal_node_id": "0.0-3.0-1.71"
	},
	{
		"rt": 3973,
		"stimulus": "<span style=\"font-size:30px; font-family: monospace\">talentosa</span>",
		"response": " ",
		"trial": "exp-sent",
		"word": "talentosa",
		"trial_type": "html-keyboard-response",
		"trial_index": 103,
		"time_elapsed": 599441,
		"internal_node_id": "0.0-3.0-1.72"
	},
	{
		"rt": 2468,
		"stimulus": "<span style=\"font-size:30px; font-family: monospace\">no</span>",
		"response": " ",
		"trial": "exp-sent",
		"word": "no",
		"trial_type": "html-keyboard-response",
		"trial_index": 104,
		"time_elapsed": 602160,
		"internal_node_id": "0.0-3.0-1.73"
	},
	{
		"rt": 4758,
		"stimulus": "<span style=\"font-size:30px; font-family: monospace\">circo.</span>",
		"response": " ",
		"trial": "comp",
		"word": "circo.",
		"trial_type": "html-keyboard-response",
		"trial_index": 105,
		"time_elapsed": 607169,
		"internal_node_id": "0.0-3.0-1.74"
	},
	{
		"rt": 120054,
		"stimulus": "<span style=\"font-size:30px; font-family: monospace\">As crianças viram o palhaço no circo?</span>",
		"response": "s",
		"question": "As crianças viram o palhaço no circo?",
		"answer": "não",
		"trial": "comp",
		"trial_type": "html-keyboard-response",
		"trial_index": 106,
		"time_elapsed": 727472,
		"internal_node_id": "0.0-3.0-2.74-0.74",
		"accuracy": false
	},
	{
		"rt": null,
		"stimulus": "<span style= \"font-size:30px; font-family: monospace\">+</span>",
		"response": null,
		"trial_part": "fixation",
		"trial_type": "html-keyboard-response",
		"trial_index": 107,
		"time_elapsed": 728973,
		"internal_node_id": "0.0-3.0-0.75-0.75"
	},
	{
		"rt": 4823,
		"stimulus": "<span style=\"font-size:30px; font-family: monospace\">Este</span>",
		"response": " ",
		"trial": "exp-sent",
		"word": "Este",
		"trial_type": "html-keyboard-response",
		"trial_index": 108,
		"time_elapsed": 734047,
		"internal_node_id": "0.0-3.0-1.75"
	},
	{
		"rt": 2389,
		"stimulus": "<span style=\"font-size:30px; font-family: monospace\">conto</span>",
		"response": " ",
		"trial": "exp-sent",
		"word": "conto",
		"trial_type": "html-keyboard-response",
		"trial_index": 109,
		"time_elapsed": 736687,
		"internal_node_id": "0.0-3.0-1.76"
	},
	{
		"rt": 26501,
		"stimulus": "<span style=\"font-size:30px; font-family: monospace\">tem</span>",
		"response": " ",
		"trial": "exp-sent",
		"word": "tem",
		"trial_type": "html-keyboard-response",
		"trial_index": 110,
		"time_elapsed": 763440,
		"internal_node_id": "0.0-3.0-1.77"
	},
	{
		"rt": 4709,
		"stimulus": "<span style=\"font-size:30px; font-family: monospace\">um</span>",
		"response": " ",
		"trial": "exp-sent",
		"word": "um",
		"trial_type": "html-keyboard-response",
		"trial_index": 111,
		"time_elapsed": 768400,
		"internal_node_id": "0.0-3.0-1.78"
	},
	{
		"rt": 3396,
		"stimulus": "<span style=\"font-size:30px; font-family: monospace\">final</span>",
		"response": " ",
		"trial": "exp-sent",
		"word": "final",
		"trial_type": "html-keyboard-response",
		"trial_index": 112,
		"time_elapsed": 772048,
		"internal_node_id": "0.0-3.0-1.79"
	},
	{
		"rt": 773,
		"stimulus": "<span style=\"font-size:30px; font-family: monospace\">perfeito.</span>",
		"response": " ",
		"trial": "exp-sent",
		"word": "perfeito.",
		"trial_type": "html-keyboard-response",
		"trial_index": 113,
		"time_elapsed": 773072,
		"internal_node_id": "0.0-3.0-1.80"
	},
	{
		"rt": null,
		"stimulus": "<span style= \"font-size:30px; font-family: monospace\">+</span>",
		"response": null,
		"trial_part": "fixation",
		"trial_type": "html-keyboard-response",
		"trial_index": 114,
		"time_elapsed": 774325,
		"internal_node_id": "0.0-3.0-0.81-0.81"
	},
	{
		"rt": 2352,
		"stimulus": "<span style=\"font-size:30px; font-family: monospace\">Ele</span>",
		"response": " ",
		"trial": "exp-sent",
		"word": "Ele",
		"trial_type": "html-keyboard-response",
		"trial_index": 115,
		"time_elapsed": 776928,
		"internal_node_id": "0.0-3.0-1.81"
	},
	{
		"rt": 3589,
		"stimulus": "<span style=\"font-size:30px; font-family: monospace\">precisa</span>",
		"response": " ",
		"trial": "exp-sent",
		"word": "precisa",
		"trial_type": "html-keyboard-response",
		"trial_index": 116,
		"time_elapsed": 780768,
		"internal_node_id": "0.0-3.0-1.82"
	},
	{
		"rt": 3701,
		"stimulus": "<span style=\"font-size:30px; font-family: monospace\">de</span>",
		"response": " ",
		"trial": "exp-sent",
		"word": "de",
		"trial_type": "html-keyboard-response",
		"trial_index": 117,
		"time_elapsed": 784720,
		"internal_node_id": "0.0-3.0-1.83"
	},
	{
		"rt": 2901,
		"stimulus": "<span style=\"font-size:30px; font-family: monospace\">um</span>",
		"response": " ",
		"trial": "exp-sent",
		"word": "um",
		"trial_type": "html-keyboard-response",
		"trial_index": 118,
		"time_elapsed": 787871,
		"internal_node_id": "0.0-3.0-1.84"
	},
	{
		"rt": 3989,
		"stimulus": "<span style=\"font-size:30px; font-family: monospace\">protetor</span>",
		"response": " ",
		"trial": "exp-sent",
		"word": "protetor",
		"trial_type": "html-keyboard-response",
		"trial_index": 119,
		"time_elapsed": 792111,
		"internal_node_id": "0.0-3.0-1.85"
	},
	{
		"rt": 6182,
		"stimulus": "<span style=\"font-size:30px; font-family: monospace\">de</span>",
		"response": " ",
		"trial": "exp-sent",
		"word": "de",
		"trial_type": "html-keyboard-response",
		"trial_index": 120,
		"time_elapsed": 798543,
		"internal_node_id": "0.0-3.0-1.86"
	},
	{
		"rt": 12629,
		"stimulus": "<span style=\"font-size:30px; font-family: monospace\">ouvido.</span>",
		"response": " ",
		"trial": "exp-sent",
		"word": "ouvido.",
		"trial_type": "html-keyboard-response",
		"trial_index": 121,
		"time_elapsed": 811423,
		"internal_node_id": "0.0-3.0-1.87"
	},
	{
		"rt": null,
		"stimulus": "<span style= \"font-size:30px; font-family: monospace\">+</span>",
		"response": null,
		"trial_part": "fixation",
		"trial_type": "html-keyboard-response",
		"trial_index": 122,
		"time_elapsed": 812675,
		"internal_node_id": "0.0-3.0-0.88-0.88"
	},
	{
		"rt": 15890,
		"stimulus": "<span style=\"font-size:30px; font-family: monospace\">Os</span>",
		"response": " ",
		"trial": "exp-sent",
		"word": "Os",
		"trial_type": "html-keyboard-response",
		"trial_index": 123,
		"time_elapsed": 828815,
		"internal_node_id": "0.0-3.0-1.88"
	},
	{
		"rt": 14469,
		"stimulus": "<span style=\"font-size:30px; font-family: monospace\">hábitos</span>",
		"response": " ",
		"trial": "exp-sent",
		"word": "hábitos",
		"trial_type": "html-keyboard-response",
		"trial_index": 124,
		"time_elapsed": 843535,
		"internal_node_id": "0.0-3.0-1.89"
	},
	{
		"rt": 2549,
		"stimulus": "<span style=\"font-size:30px; font-family: monospace\">de</span>",
		"response": " ",
		"trial": "exp-sent",
		"word": "de",
		"trial_type": "html-keyboard-response",
		"trial_index": 125,
		"time_elapsed": 846335,
		"internal_node_id": "0.0-3.0-1.90"
	},
	{
		"rt": 3749,
		"stimulus": "<span style=\"font-size:30px; font-family: monospace\">lugares</span>",
		"response": " ",
		"trial": "exp-sent",
		"word": "lugares",
		"trial_type": "html-keyboard-response",
		"trial_index": 126,
		"time_elapsed": 850334,
		"internal_node_id": "0.0-3.0-1.91"
	},
	{
		"rt": 2644,
		"stimulus": "<span style=\"font-size:30px; font-family: monospace\">diferentes</span>",
		"response": " ",
		"trial": "exp-sent",
		"word": "diferentes",
		"trial_type": "html-keyboard-response",
		"trial_index": 127,
		"time_elapsed": 853231,
		"internal_node_id": "0.0-3.0-1.92"
	},
	{
		"rt": 2324,
		"stimulus": "<span style=\"font-size:30px; font-family: monospace\">são</span>",
		"response": " ",
		"trial": "exp-sent",
		"word": "são",
		"trial_type": "html-keyboard-response",
		"trial_index": 128,
		"time_elapsed": 855807,
		"internal_node_id": "0.0-3.0-1.93"
	},
	{
		"rt": 2485,
		"stimulus": "<span style=\"font-size:30px; font-family: monospace\">muito</span>",
		"response": " ",
		"trial": "exp-sent",
		"word": "muito",
		"trial_type": "html-keyboard-response",
		"trial_index": 129,
		"time_elapsed": 858543,
		"internal_node_id": "0.0-3.0-1.94"
	},
	{
		"rt": 2453,
		"stimulus": "<span style=\"font-size:30px; font-family: monospace\">lindos.</span>",
		"response": " ",
		"trial": "exp-sent",
		"word": "lindos.",
		"trial_type": "html-keyboard-response",
		"trial_index": 130,
		"time_elapsed": 861247,
		"internal_node_id": "0.0-3.0-1.95"
	},
	{
		"rt": null,
		"stimulus": "<span style= \"font-size:30px; font-family: monospace\">+</span>",
		"response": null,
		"trial_part": "fixation",
		"trial_type": "html-keyboard-response",
		"trial_index": 131,
		"time_elapsed": 862498,
		"internal_node_id": "0.0-3.0-0.96-0.96"
	},
	{
		"rt": 1090,
		"stimulus": "<span style=\"font-size:30px; font-family: monospace\">O</span>",
		"response": " ",
		"trial": "exp-sent",
		"word": "O",
		"trial_type": "html-keyboard-response",
		"trial_index": 132,
		"time_elapsed": 863839,
		"internal_node_id": "0.0-3.0-1.96"
	},
	{
		"rt": 1636,
		"stimulus": "<span style=\"font-size:30px; font-family: monospace\">médico</span>",
		"response": " ",
		"trial": "exp-sent",
		"word": "médico",
		"trial_type": "html-keyboard-response",
		"trial_index": 133,
		"time_elapsed": 865727,
		"internal_node_id": "0.0-3.0-1.97"
	},
	{
		"rt": 1188,
		"stimulus": "<span style=\"font-size:30px; font-family: monospace\">corrigiu</span>",
		"response": " ",
		"trial": "exp-sent",
		"word": "corrigiu",
		"trial_type": "html-keyboard-response",
		"trial_index": 134,
		"time_elapsed": 867167,
		"internal_node_id": "0.0-3.0-1.98"
	},
	{
		"rt": 1541,
		"stimulus": "<span style=\"font-size:30px; font-family: monospace\">a</span>",
		"response": " ",
		"trial": "exp-sent",
		"word": "a",
		"trial_type": "html-keyboard-response",
		"trial_index": 135,
		"time_elapsed": 868959,
		"internal_node_id": "0.0-3.0-1.99"
	},
	{
		"rt": 1941,
		"stimulus": "<span style=\"font-size:30px; font-family: monospace\">postura</span>",
		"response": " ",
		"trial": "exp-sent",
		"word": "postura",
		"trial_type": "html-keyboard-response",
		"trial_index": 136,
		"time_elapsed": 871151,
		"internal_node_id": "0.0-3.0-1.100"
	},
	{
		"rt": 2517,
		"stimulus": "<span style=\"font-size:30px; font-family: monospace\">das</span>",
		"response": " ",
		"trial": "exp-sent",
		"word": "das",
		"trial_type": "html-keyboard-response",
		"trial_index": 137,
		"time_elapsed": 873919,
		"internal_node_id": "0.0-3.0-1.101"
	},
	{
		"rt": 2213,
		"stimulus": "<span style=\"font-size:30px; font-family: monospace\">costas</span>",
		"response": " ",
		"trial": "exp-sent",
		"word": "costas",
		"trial_type": "html-keyboard-response",
		"trial_index": 138,
		"time_elapsed": 876383,
		"internal_node_id": "0.0-3.0-1.102"
	},
	{
		"rt": 7765,
		"stimulus": "<span style=\"font-size:30px; font-family: monospace\">da</span>",
		"response": " ",
		"trial": "exp-sent",
		"word": "da",
		"trial_type": "html-keyboard-response",
		"trial_index": 139,
		"time_elapsed": 884399,
		"internal_node_id": "0.0-3.0-1.103"
	},
	{
		"rt": 2564,
		"stimulus": "<span style=\"font-size:30px; font-family: monospace\">pessoa.</span>",
		"response": " ",
		"trial": "exp-sent",
		"word": "pessoa.",
		"trial_type": "html-keyboard-response",
		"trial_index": 140,
		"time_elapsed": 887215,
		"internal_node_id": "0.0-3.0-1.104"
	},
	{
		"rt": null,
		"stimulus": "<span style= \"font-size:30px; font-family: monospace\">+</span>",
		"response": null,
		"trial_part": "fixation",
		"trial_type": "html-keyboard-response",
		"trial_index": 141,
		"time_elapsed": 888467,
		"internal_node_id": "0.0-3.0-0.105-0.105"
	},
	{
		"rt": 865,
		"stimulus": "<span style=\"font-size:30px; font-family: monospace\">Aquele</span>",
		"response": " ",
		"trial": "exp-sent",
		"word": "Aquele",
		"trial_type": "html-keyboard-response",
		"trial_index": 142,
		"time_elapsed": 889583,
		"internal_node_id": "0.0-3.0-1.105"
	},
	{
		"rt": 1749,
		"stimulus": "<span style=\"font-size:30px; font-family: monospace\">era</span>",
		"response": " ",
		"trial": "exp-sent",
		"word": "era",
		"trial_type": "html-keyboard-response",
		"trial_index": 143,
		"time_elapsed": 891583,
		"internal_node_id": "0.0-3.0-1.106"
	},
	{
		"rt": 1029,
		"stimulus": "<span style=\"font-size:30px; font-family: monospace\">um</span>",
		"response": " ",
		"trial": "exp-sent",
		"word": "um",
		"trial_type": "html-keyboard-response",
		"trial_index": 144,
		"time_elapsed": 892863,
		"internal_node_id": "0.0-3.0-1.107"
	},
	{
		"rt": 1348,
		"stimulus": "<span style=\"font-size:30px; font-family: monospace\">caso</span>",
		"response": " ",
		"trial": "exp-sent",
		"word": "caso",
		"trial_type": "html-keyboard-response",
		"trial_index": 145,
		"time_elapsed": 894463,
		"internal_node_id": "0.0-3.0-1.108"
	},
	{
		"rt": 1477,
		"stimulus": "<span style=\"font-size:30px; font-family: monospace\">real</span>",
		"response": " ",
		"trial": "exp-sent",
		"word": "real",
		"trial_type": "html-keyboard-response",
		"trial_index": 146,
		"time_elapsed": 896191,
		"internal_node_id": "0.0-3.0-1.109"
	},
	{
		"rt": 933,
		"stimulus": "<span style=\"font-size:30px; font-family: monospace\">de</span>",
		"response": " ",
		"trial": "exp-sent",
		"word": "de",
		"trial_type": "html-keyboard-response",
		"trial_index": 147,
		"time_elapsed": 897375,
		"internal_node_id": "0.0-3.0-1.110"
	},
	{
		"rt": 1973,
		"stimulus": "<span style=\"font-size:30px; font-family: monospace\">sequestro</span>",
		"response": " ",
		"trial": "exp-sent",
		"word": "sequestro",
		"trial_type": "html-keyboard-response",
		"trial_index": 148,
		"time_elapsed": 899599,
		"internal_node_id": "0.0-3.0-1.111"
	},
	{
		"rt": 18294,
		"stimulus": "<span style=\"font-size:30px; font-family: monospace\">premeditado.</span>",
		"response": " ",
		"trial": "comp",
		"word": "premeditado.",
		"trial_type": "html-keyboard-response",
		"trial_index": 149,
		"time_elapsed": 918143,
		"internal_node_id": "0.0-3.0-1.112"
	},
	{
		"rt": 12933,
		"stimulus": "<span style=\"font-size:30px; font-family: monospace\">Aquele era um caso real de roubo?</span>",
		"response": "n",
		"question": "Aquele era um caso real de roubo?",
		"answer": "não",
		"trial": "comp",
		"trial_type": "html-keyboard-response",
		"trial_index": 150,
		"time_elapsed": 931326,
		"internal_node_id": "0.0-3.0-2.112-0.112",
		"accuracy": false
	},
	{
		"rt": null,
		"stimulus": "<span style= \"font-size:30px; font-family: monospace\">+</span>",
		"response": null,
		"trial_part": "fixation",
		"trial_type": "html-keyboard-response",
		"trial_index": 151,
		"time_elapsed": 932829,
		"internal_node_id": "0.0-3.0-0.113-0.113"
	},
	{
		"rt": 3062,
		"stimulus": "<span style=\"font-size:30px; font-family: monospace\">A</span>",
		"response": " ",
		"trial": "exp-sent",
		"word": "A",
		"trial_type": "html-keyboard-response",
		"trial_index": 152,
		"time_elapsed": 936142,
		"internal_node_id": "0.0-3.0-1.113"
	},
	{
		"rt": 1141,
		"stimulus": "<span style=\"font-size:30px; font-family: monospace\">senhora</span>",
		"response": " ",
		"trial": "exp-sent",
		"word": "senhora",
		"trial_type": "html-keyboard-response",
		"trial_index": 153,
		"time_elapsed": 937535,
		"internal_node_id": "0.0-3.0-1.114"
	},
	{
		"rt": 4117,
		"stimulus": "<span style=\"font-size:30px; font-family: monospace\">cumprimentou</span>",
		"response": " ",
		"trial": "exp-sent",
		"word": "cumprimentou",
		"trial_type": "html-keyboard-response",
		"trial_index": 154,
		"time_elapsed": 941903,
		"internal_node_id": "0.0-3.0-1.115"
	},
	{
		"rt": 2261,
		"stimulus": "<span style=\"font-size:30px; font-family: monospace\">o</span>",
		"response": " ",
		"trial": "exp-sent",
		"word": "o",
		"trial_type": "html-keyboard-response",
		"trial_index": 155,
		"time_elapsed": 944414,
		"internal_node_id": "0.0-3.0-1.116"
	},
	{
		"rt": 3045,
		"stimulus": "<span style=\"font-size:30px; font-family: monospace\">operador</span>",
		"response": " ",
		"trial": "exp-sent",
		"word": "operador",
		"trial_type": "html-keyboard-response",
		"trial_index": 156,
		"time_elapsed": 947710,
		"internal_node_id": "0.0-3.0-1.117"
	},
	{
		"rt": 2294,
		"stimulus": "<span style=\"font-size:30px; font-family: monospace\">de</span>",
		"response": " ",
		"trial": "exp-sent",
		"word": "de",
		"trial_type": "html-keyboard-response",
		"trial_index": 157,
		"time_elapsed": 950254,
		"internal_node_id": "0.0-3.0-1.118"
	},
	{
		"rt": 2260,
		"stimulus": "<span style=\"font-size:30px; font-family: monospace\">caixa.</span>",
		"response": " ",
		"trial": "exp-sent",
		"word": "caixa.",
		"trial_type": "html-keyboard-response",
		"trial_index": 158,
		"time_elapsed": 952767,
		"internal_node_id": "0.0-3.0-1.119"
	},
	{
		"rt": null,
		"stimulus": "<span style= \"font-size:30px; font-family: monospace\">+</span>",
		"response": null,
		"trial_part": "fixation",
		"trial_type": "html-keyboard-response",
		"trial_index": 159,
		"time_elapsed": 954020,
		"internal_node_id": "0.0-3.0-0.120-0.120"
	},
	{
		"rt": 512,
		"stimulus": "<span style=\"font-size:30px; font-family: monospace\">A</span>",
		"response": " ",
		"trial": "exp-sent",
		"word": "A",
		"trial_type": "html-keyboard-response",
		"trial_index": 160,
		"time_elapsed": 954782,
		"internal_node_id": "0.0-3.0-1.120"
	},
	{
		"rt": 2213,
		"stimulus": "<span style=\"font-size:30px; font-family: monospace\">gente</span>",
		"response": " ",
		"trial": "exp-sent",
		"word": "gente",
		"trial_type": "html-keyboard-response",
		"trial_index": 161,
		"time_elapsed": 957246,
		"internal_node_id": "0.0-3.0-1.121"
	},
	{
		"rt": 1318,
		"stimulus": "<span style=\"font-size:30px; font-family: monospace\">viu</span>",
		"response": " ",
		"trial": "exp-sent",
		"word": "viu",
		"trial_type": "html-keyboard-response",
		"trial_index": 162,
		"time_elapsed": 958814,
		"internal_node_id": "0.0-3.0-1.122"
	},
	{
		"rt": 1733,
		"stimulus": "<span style=\"font-size:30px; font-family: monospace\">o</span>",
		"response": " ",
		"trial": "exp-sent",
		"word": "o",
		"trial_type": "html-keyboard-response",
		"trial_index": 163,
		"time_elapsed": 960799,
		"internal_node_id": "0.0-3.0-1.123"
	},
	{
		"rt": 1477,
		"stimulus": "<span style=\"font-size:30px; font-family: monospace\">eclipse</span>",
		"response": " ",
		"trial": "exp-sent",
		"word": "eclipse",
		"trial_type": "html-keyboard-response",
		"trial_index": 164,
		"time_elapsed": 962527,
		"internal_node_id": "0.0-3.0-1.124"
	},
	{
		"rt": 3780,
		"stimulus": "<span style=\"font-size:30px; font-family: monospace\">lunar</span>",
		"response": " ",
		"trial": "exp-sent",
		"word": "lunar",
		"trial_type": "html-keyboard-response",
		"trial_index": 165,
		"time_elapsed": 966558,
		"internal_node_id": "0.0-3.0-1.125"
	},
	{
		"rt": 6086,
		"stimulus": "<span style=\"font-size:30px; font-family: monospace\">durante</span>",
		"response": " ",
		"trial": "exp-sent",
		"word": "durante",
		"trial_type": "html-keyboard-response",
		"trial_index": 166,
		"time_elapsed": 972894,
		"internal_node_id": "0.0-3.0-1.126"
	},
	{
		"rt": 2325,
		"stimulus": "<span style=\"font-size:30px; font-family: monospace\">o</span>",
		"response": " ",
		"trial": "exp-sent",
		"word": "o",
		"trial_type": "html-keyboard-response",
		"trial_index": 167,
		"time_elapsed": 975470,
		"internal_node_id": "0.0-3.0-1.127"
	},
	{
		"rt": 14453,
		"stimulus": "<span style=\"font-size:30px; font-family: monospace\">dia.</span>",
		"response": " ",
		"trial": "exp-sent",
		"word": "dia.",
		"trial_type": "html-keyboard-response",
		"trial_index": 168,
		"time_elapsed": 990174,
		"internal_node_id": "0.0-3.0-1.128"
	},
	{
		"rt": null,
		"stimulus": "<span style= \"font-size:30px; font-family: monospace\">+</span>",
		"response": null,
		"trial_part": "fixation",
		"trial_type": "html-keyboard-response",
		"trial_index": 169,
		"time_elapsed": 991427,
		"internal_node_id": "0.0-3.0-0.129-0.129"
	},
	{
		"rt": 1711,
		"stimulus": "<span style=\"font-size:30px; font-family: monospace\">A</span>",
		"response": " ",
		"trial": "exp-sent",
		"word": "A",
		"trial_type": "html-keyboard-response",
		"trial_index": 170,
		"time_elapsed": 993390,
		"internal_node_id": "0.0-3.0-1.129"
	},
	{
		"rt": 2532,
		"stimulus": "<span style=\"font-size:30px; font-family: monospace\">mordida</span>",
		"response": " ",
		"trial": "exp-sent",
		"word": "mordida",
		"trial_type": "html-keyboard-response",
		"trial_index": 171,
		"time_elapsed": 996174,
		"internal_node_id": "0.0-3.0-1.130"
	},
	{
		"rt": 2373,
		"stimulus": "<span style=\"font-size:30px; font-family: monospace\">do</span>",
		"response": " ",
		"trial": "exp-sent",
		"word": "do",
		"trial_type": "html-keyboard-response",
		"trial_index": 172,
		"time_elapsed": 998798,
		"internal_node_id": "0.0-3.0-1.131"
	},
	{
		"rt": 5398,
		"stimulus": "<span style=\"font-size:30px; font-family: monospace\">cachorro</span>",
		"response": " ",
		"trial": "exp-sent",
		"word": "cachorro",
		"trial_type": "html-keyboard-response",
		"trial_index": 173,
		"time_elapsed": 1004446,
		"internal_node_id": "0.0-3.0-1.132"
	},
	{
		"rt": 3189,
		"stimulus": "<span style=\"font-size:30px; font-family: monospace\">voraz</span>",
		"response": " ",
		"trial": "exp-sent",
		"word": "voraz",
		"trial_type": "html-keyboard-response",
		"trial_index": 174,
		"time_elapsed": 1007886,
		"internal_node_id": "0.0-3.0-1.133"
	},
	{
		"rt": 4885,
		"stimulus": "<span style=\"font-size:30px; font-family: monospace\">causou</span>",
		"response": " ",
		"trial": "exp-sent",
		"word": "causou",
		"trial_type": "html-keyboard-response",
		"trial_index": 175,
		"time_elapsed": 1013022,
		"internal_node_id": "0.0-3.0-1.134"
	},
	{
		"rt": 2437,
		"stimulus": "<span style=\"font-size:30px; font-family: monospace\">uma</span>",
		"response": " ",
		"trial": "exp-sent",
		"word": "uma",
		"trial_type": "html-keyboard-response",
		"trial_index": 176,
		"time_elapsed": 1015710,
		"internal_node_id": "0.0-3.0-1.135"
	},
	{
		"rt": 4421,
		"stimulus": "<span style=\"font-size:30px; font-family: monospace\">cicatriz.</span>",
		"response": " ",
		"trial": "exp-sent",
		"word": "cicatriz.",
		"trial_type": "html-keyboard-response",
		"trial_index": 177,
		"time_elapsed": 1020382,
		"internal_node_id": "0.0-3.0-1.136"
	},
	{
		"rt": null,
		"stimulus": "<span style= \"font-size:30px; font-family: monospace\">+</span>",
		"response": null,
		"trial_part": "fixation",
		"trial_type": "html-keyboard-response",
		"trial_index": 178,
		"time_elapsed": 1021634,
		"internal_node_id": "0.0-3.0-0.137-0.137"
	},
	{
		"rt": 1025,
		"stimulus": "<span style=\"font-size:30px; font-family: monospace\">Elas</span>",
		"response": " ",
		"trial": "exp-sent",
		"word": "Elas",
		"trial_type": "html-keyboard-response",
		"trial_index": 179,
		"time_elapsed": 1022910,
		"internal_node_id": "0.0-3.0-1.137"
	},
	{
		"rt": 1732,
		"stimulus": "<span style=\"font-size:30px; font-family: monospace\">não</span>",
		"response": " ",
		"trial": "exp-sent",
		"word": "não",
		"trial_type": "html-keyboard-response",
		"trial_index": 180,
		"time_elapsed": 1024894,
		"internal_node_id": "0.0-3.0-1.138"
	},
	{
		"rt": 1157,
		"stimulus": "<span style=\"font-size:30px; font-family: monospace\">viram</span>",
		"response": " ",
		"trial": "exp-sent",
		"word": "viram",
		"trial_type": "html-keyboard-response",
		"trial_index": 181,
		"time_elapsed": 1026302,
		"internal_node_id": "0.0-3.0-1.139"
	},
	{
		"rt": 1813,
		"stimulus": "<span style=\"font-size:30px; font-family: monospace\">nenhuma</span>",
		"response": " ",
		"trial": "exp-sent",
		"word": "nenhuma",
		"trial_type": "html-keyboard-response",
		"trial_index": 182,
		"time_elapsed": 1028366,
		"internal_node_id": "0.0-3.0-1.140"
	},
	{
		"rt": 3797,
		"stimulus": "<span style=\"font-size:30px; font-family: monospace\">diferença</span>",
		"response": " ",
		"trial": "exp-sent",
		"word": "diferença",
		"trial_type": "html-keyboard-response",
		"trial_index": 183,
		"time_elapsed": 1032414,
		"internal_node_id": "0.0-3.0-1.141"
	},
	{
		"rt": 2501,
		"stimulus": "<span style=\"font-size:30px; font-family: monospace\">entre</span>",
		"response": " ",
		"trial": "exp-sent",
		"word": "entre",
		"trial_type": "html-keyboard-response",
		"trial_index": 184,
		"time_elapsed": 1035166,
		"internal_node_id": "0.0-3.0-1.142"
	},
	{
		"rt": 2469,
		"stimulus": "<span style=\"font-size:30px; font-family: monospace\">os</span>",
		"response": " ",
		"trial": "exp-sent",
		"word": "os",
		"trial_type": "html-keyboard-response",
		"trial_index": 185,
		"time_elapsed": 1037886,
		"internal_node_id": "0.0-3.0-1.143"
	},
	{
		"rt": 2389,
		"stimulus": "<span style=\"font-size:30px; font-family: monospace\">textos.</span>",
		"response": " ",
		"trial": "exp-sent",
		"word": "textos.",
		"trial_type": "html-keyboard-response",
		"trial_index": 186,
		"time_elapsed": 1040526,
		"internal_node_id": "0.0-3.0-1.144"
	},
	{
		"rt": null,
		"stimulus": "<span style= \"font-size:30px; font-family: monospace\">+</span>",
		"response": null,
		"trial_part": "fixation",
		"trial_type": "html-keyboard-response",
		"trial_index": 187,
		"time_elapsed": 1041778,
		"internal_node_id": "0.0-3.0-0.145-0.145"
	},
	{
		"rt": 1104,
		"stimulus": "<span style=\"font-size:30px; font-family: monospace\">Amanhã</span>",
		"response": " ",
		"trial": "exp-sent",
		"word": "Amanhã",
		"trial_type": "html-keyboard-response",
		"trial_index": 188,
		"time_elapsed": 1043134,
		"internal_node_id": "0.0-3.0-1.145"
	},
	{
		"rt": 2373,
		"stimulus": "<span style=\"font-size:30px; font-family: monospace\">vai</span>",
		"response": " ",
		"trial": "exp-sent",
		"word": "vai",
		"trial_type": "html-keyboard-response",
		"trial_index": 189,
		"time_elapsed": 1045758,
		"internal_node_id": "0.0-3.0-1.146"
	},
	{
		"rt": 901,
		"stimulus": "<span style=\"font-size:30px; font-family: monospace\">ter</span>",
		"response": " ",
		"trial": "exp-sent",
		"word": "ter",
		"trial_type": "html-keyboard-response",
		"trial_index": 190,
		"time_elapsed": 1046910,
		"internal_node_id": "0.0-3.0-1.147"
	},
	{
		"rt": 1189,
		"stimulus": "<span style=\"font-size:30px; font-family: monospace\">um</span>",
		"response": " ",
		"trial": "exp-sent",
		"word": "um",
		"trial_type": "html-keyboard-response",
		"trial_index": 191,
		"time_elapsed": 1048350,
		"internal_node_id": "0.0-3.0-1.148"
	},
	{
		"rt": 1637,
		"stimulus": "<span style=\"font-size:30px; font-family: monospace\">bazar</span>",
		"response": " ",
		"trial": "exp-sent",
		"word": "bazar",
		"trial_type": "html-keyboard-response",
		"trial_index": 192,
		"time_elapsed": 1050238,
		"internal_node_id": "0.0-3.0-1.149"
	},
	{
		"rt": 853,
		"stimulus": "<span style=\"font-size:30px; font-family: monospace\">no</span>",
		"response": " ",
		"trial": "exp-sent",
		"word": "no",
		"trial_type": "html-keyboard-response",
		"trial_index": 193,
		"time_elapsed": 1051342,
		"internal_node_id": "0.0-3.0-1.150"
	},
	{
		"rt": 1701,
		"stimulus": "<span style=\"font-size:30px; font-family: monospace\">bairro.</span>",
		"response": " ",
		"trial": "comp",
		"word": "bairro.",
		"trial_type": "html-keyboard-response",
		"trial_index": 194,
		"time_elapsed": 1053294,
		"internal_node_id": "0.0-3.0-1.151"
	},
	{
		"rt": 12901,
		"stimulus": "<span style=\"font-size:30px; font-family: monospace\">Amanhã vai acontecer um bazar no bairro?</span>",
		"response": "s",
		"question": "Amanhã vai acontecer um bazar no bairro?",
		"answer": "sim",
		"trial": "comp",
		"trial_type": "html-keyboard-response",
		"trial_index": 195,
		"time_elapsed": 1066446,
		"internal_node_id": "0.0-3.0-2.151-0.151",
		"accuracy": false
	},
	{
		"rt": null,
		"stimulus": "<span style= \"font-size:30px; font-family: monospace\">+</span>",
		"response": null,
		"trial_part": "fixation",
		"trial_type": "html-keyboard-response",
		"trial_index": 196,
		"time_elapsed": 1067947,
		"internal_node_id": "0.0-3.0-0.152-0.152"
	},
	{
		"rt": 2440,
		"stimulus": "<span style=\"font-size:30px; font-family: monospace\">A</span>",
		"response": " ",
		"trial": "exp-sent",
		"word": "A",
		"trial_type": "html-keyboard-response",
		"trial_index": 197,
		"time_elapsed": 1070638,
		"internal_node_id": "0.0-3.0-1.152"
	},
	{
		"rt": 949,
		"stimulus": "<span style=\"font-size:30px; font-family: monospace\">força</span>",
		"response": " ",
		"trial": "exp-sent",
		"word": "força",
		"trial_type": "html-keyboard-response",
		"trial_index": 198,
		"time_elapsed": 1071838,
		"internal_node_id": "0.0-3.0-1.153"
	},
	{
		"rt": 1093,
		"stimulus": "<span style=\"font-size:30px; font-family: monospace\">d'água</span>",
		"response": " ",
		"trial": "exp-sent",
		"word": "d'água",
		"trial_type": "html-keyboard-response",
		"trial_index": 199,
		"time_elapsed": 1073182,
		"internal_node_id": "0.0-3.0-1.154"
	},
	{
		"rt": 1733,
		"stimulus": "<span style=\"font-size:30px; font-family: monospace\">estava</span>",
		"response": " ",
		"trial": "exp-sent",
		"word": "estava",
		"trial_type": "html-keyboard-response",
		"trial_index": 200,
		"time_elapsed": 1075166,
		"internal_node_id": "0.0-3.0-1.155"
	},
	{
		"rt": 1349,
		"stimulus": "<span style=\"font-size:30px; font-family: monospace\">normal</span>",
		"response": " ",
		"trial": "exp-sent",
		"word": "normal",
		"trial_type": "html-keyboard-response",
		"trial_index": 201,
		"time_elapsed": 1076766,
		"internal_node_id": "0.0-3.0-1.156"
	},
	{
		"rt": 1525,
		"stimulus": "<span style=\"font-size:30px; font-family: monospace\">naquele</span>",
		"response": " ",
		"trial": "exp-sent",
		"word": "naquele",
		"trial_type": "html-keyboard-response",
		"trial_index": 202,
		"time_elapsed": 1078542,
		"internal_node_id": "0.0-3.0-1.157"
	},
	{
		"rt": 2148,
		"stimulus": "<span style=\"font-size:30px; font-family: monospace\">dia.</span>",
		"response": " ",
		"trial": "exp-sent",
		"word": "dia.",
		"trial_type": "html-keyboard-response",
		"trial_index": 203,
		"time_elapsed": 1080942,
		"internal_node_id": "0.0-3.0-1.158"
	},
	{
		"rt": null,
		"stimulus": "<span style= \"font-size:30px; font-family: monospace\">+</span>",
		"response": null,
		"trial_part": "fixation",
		"trial_type": "html-keyboard-response",
		"trial_index": 204,
		"time_elapsed": 1082204,
		"internal_node_id": "0.0-3.0-0.159-0.159"
	},
	{
		"rt": 3959,
		"stimulus": "<span style=\"font-size:30px; font-family: monospace\">A</span>",
		"response": " ",
		"trial": "exp-sent",
		"word": "A",
		"trial_type": "html-keyboard-response",
		"trial_index": 205,
		"time_elapsed": 1086414,
		"internal_node_id": "0.0-3.0-1.159"
	},
	{
		"rt": 4197,
		"stimulus": "<span style=\"font-size:30px; font-family: monospace\">médica</span>",
		"response": " ",
		"trial": "exp-sent",
		"word": "médica",
		"trial_type": "html-keyboard-response",
		"trial_index": 206,
		"time_elapsed": 1090862,
		"internal_node_id": "0.0-3.0-1.160"
	},
	{
		"rt": 3573,
		"stimulus": "<span style=\"font-size:30px; font-family: monospace\">ofereceu</span>",
		"response": " ",
		"trial": "exp-sent",
		"word": "ofereceu",
		"trial_type": "html-keyboard-response",
		"trial_index": 207,
		"time_elapsed": 1094686,
		"internal_node_id": "0.0-3.0-1.161"
	},
	{
		"rt": 2293,
		"stimulus": "<span style=\"font-size:30px; font-family: monospace\">a</span>",
		"response": " ",
		"trial": "exp-sent",
		"word": "a",
		"trial_type": "html-keyboard-response",
		"trial_index": 208,
		"time_elapsed": 1097230,
		"internal_node_id": "0.0-3.0-1.162"
	},
	{
		"rt": 53957,
		"stimulus": "<span style=\"font-size:30px; font-family: monospace\">pomada</span>",
		"response": " ",
		"trial": "exp-sent",
		"word": "pomada",
		"trial_type": "html-keyboard-response",
		"trial_index": 209,
		"time_elapsed": 1151437,
		"internal_node_id": "0.0-3.0-1.163"
	},
	{
		"rt": 2532,
		"stimulus": "<span style=\"font-size:30px; font-family: monospace\">para</span>",
		"response": " ",
		"trial": "exp-sent",
		"word": "para",
		"trial_type": "html-keyboard-response",
		"trial_index": 210,
		"time_elapsed": 1154221,
		"internal_node_id": "0.0-3.0-1.164"
	},
	{
		"rt": 2293,
		"stimulus": "<span style=\"font-size:30px; font-family: monospace\">o</span>",
		"response": " ",
		"trial": "exp-sent",
		"word": "o",
		"trial_type": "html-keyboard-response",
		"trial_index": 211,
		"time_elapsed": 1156765,
		"internal_node_id": "0.0-3.0-1.165"
	},
	{
		"rt": 21269,
		"stimulus": "<span style=\"font-size:30px; font-family: monospace\">avô.</span>",
		"response": " ",
		"trial": "exp-sent",
		"word": "avô.",
		"trial_type": "html-keyboard-response",
		"trial_index": 212,
		"time_elapsed": 1178285,
		"internal_node_id": "0.0-3.0-1.166"
	},
	{
		"rt": null,
		"stimulus": "<span style= \"font-size:30px; font-family: monospace\">+</span>",
		"response": null,
		"trial_part": "fixation",
		"trial_type": "html-keyboard-response",
		"trial_index": 213,
		"time_elapsed": 1179537,
		"internal_node_id": "0.0-3.0-0.167-0.167"
	},
	{
		"rt": 1265,
		"stimulus": "<span style=\"font-size:30px; font-family: monospace\">Ele</span>",
		"response": " ",
		"trial": "exp-sent",
		"word": "Ele",
		"trial_type": "html-keyboard-response",
		"trial_index": 214,
		"time_elapsed": 1181053,
		"internal_node_id": "0.0-3.0-1.167"
	},
	{
		"rt": 1573,
		"stimulus": "<span style=\"font-size:30px; font-family: monospace\">conversou</span>",
		"response": " ",
		"trial": "exp-sent",
		"word": "conversou",
		"trial_type": "html-keyboard-response",
		"trial_index": 215,
		"time_elapsed": 1182877,
		"internal_node_id": "0.0-3.0-1.168"
	},
	{
		"rt": 645,
		"stimulus": "<span style=\"font-size:30px; font-family: monospace\">com</span>",
		"response": " ",
		"trial": "exp-sent",
		"word": "com",
		"trial_type": "html-keyboard-response",
		"trial_index": 216,
		"time_elapsed": 1183773,
		"internal_node_id": "0.0-3.0-1.169"
	},
	{
		"rt": 629,
		"stimulus": "<span style=\"font-size:30px; font-family: monospace\">o</span>",
		"response": " ",
		"trial": "exp-sent",
		"word": "o",
		"trial_type": "html-keyboard-response",
		"trial_index": 217,
		"time_elapsed": 1184653,
		"internal_node_id": "0.0-3.0-1.170"
	},
	{
		"rt": 1061,
		"stimulus": "<span style=\"font-size:30px; font-family: monospace\">patrão</span>",
		"response": " ",
		"trial": "exp-sent",
		"word": "patrão",
		"trial_type": "html-keyboard-response",
		"trial_index": 218,
		"time_elapsed": 1185965,
		"internal_node_id": "0.0-3.0-1.171"
	},
	{
		"rt": 1220,
		"stimulus": "<span style=\"font-size:30px; font-family: monospace\">durante</span>",
		"response": " ",
		"trial": "exp-sent",
		"word": "durante",
		"trial_type": "html-keyboard-response",
		"trial_index": 219,
		"time_elapsed": 1187437,
		"internal_node_id": "0.0-3.0-1.172"
	},
	{
		"rt": 1268,
		"stimulus": "<span style=\"font-size:30px; font-family: monospace\">a</span>",
		"response": " ",
		"trial": "exp-sent",
		"word": "a",
		"trial_type": "html-keyboard-response",
		"trial_index": 220,
		"time_elapsed": 1188956,
		"internal_node_id": "0.0-3.0-1.173"
	},
	{
		"rt": 1652,
		"stimulus": "<span style=\"font-size:30px; font-family: monospace\">tarde.</span>",
		"response": " ",
		"trial": "exp-sent",
		"word": "tarde.",
		"trial_type": "html-keyboard-response",
		"trial_index": 221,
		"time_elapsed": 1190861,
		"internal_node_id": "0.0-3.0-1.174"
	},
	{
		"rt": null,
		"stimulus": "<span style= \"font-size:30px; font-family: monospace\">+</span>",
		"response": null,
		"trial_part": "fixation",
		"trial_type": "html-keyboard-response",
		"trial_index": 222,
		"time_elapsed": 1192113,
		"internal_node_id": "0.0-3.0-0.175-0.175"
	},
	{
		"rt": 1568,
		"stimulus": "<span style=\"font-size:30px; font-family: monospace\">Algumas</span>",
		"response": " ",
		"trial": "exp-sent",
		"word": "Algumas",
		"trial_type": "html-keyboard-response",
		"trial_index": 223,
		"time_elapsed": 1193933,
		"internal_node_id": "0.0-3.0-1.175"
	},
	{
		"rt": 853,
		"stimulus": "<span style=\"font-size:30px; font-family: monospace\">pessoas</span>",
		"response": " ",
		"trial": "exp-sent",
		"word": "pessoas",
		"trial_type": "html-keyboard-response",
		"trial_index": 224,
		"time_elapsed": 1195037,
		"internal_node_id": "0.0-3.0-1.176"
	},
	{
		"rt": 2997,
		"stimulus": "<span style=\"font-size:30px; font-family: monospace\">acreditam</span>",
		"response": " ",
		"trial": "exp-sent",
		"word": "acreditam",
		"trial_type": "html-keyboard-response",
		"trial_index": 225,
		"time_elapsed": 1198285,
		"internal_node_id": "0.0-3.0-1.177"
	},
	{
		"rt": 2437,
		"stimulus": "<span style=\"font-size:30px; font-family: monospace\">em</span>",
		"response": " ",
		"trial": "exp-sent",
		"word": "em",
		"trial_type": "html-keyboard-response",
		"trial_index": 226,
		"time_elapsed": 1200973,
		"internal_node_id": "0.0-3.0-1.178"
	},
	{
		"rt": 2740,
		"stimulus": "<span style=\"font-size:30px; font-family: monospace\">espíritos</span>",
		"response": " ",
		"trial": "exp-sent",
		"word": "espíritos",
		"trial_type": "html-keyboard-response",
		"trial_index": 227,
		"time_elapsed": 1203965,
		"internal_node_id": "0.0-3.0-1.179"
	},
	{
		"rt": 5604,
		"stimulus": "<span style=\"font-size:30px; font-family: monospace\">e</span>",
		"response": " ",
		"trial": "exp-sent",
		"word": "e",
		"trial_type": "html-keyboard-response",
		"trial_index": 228,
		"time_elapsed": 1209821,
		"internal_node_id": "0.0-3.0-1.180"
	},
	{
		"rt": 2917,
		"stimulus": "<span style=\"font-size:30px; font-family: monospace\">em</span>",
		"response": " ",
		"trial": "exp-sent",
		"word": "em",
		"trial_type": "html-keyboard-response",
		"trial_index": 229,
		"time_elapsed": 1212989,
		"internal_node_id": "0.0-3.0-1.181"
	},
	{
		"rt": 1892,
		"stimulus": "<span style=\"font-size:30px; font-family: monospace\">outras</span>",
		"response": " ",
		"trial": "exp-sent",
		"word": "outras",
		"trial_type": "html-keyboard-response",
		"trial_index": 230,
		"time_elapsed": 1215133,
		"internal_node_id": "0.0-3.0-1.182"
	},
	{
		"rt": 2997,
		"stimulus": "<span style=\"font-size:30px; font-family: monospace\">vidas.</span>",
		"response": " ",
		"trial": "exp-sent",
		"word": "vidas.",
		"trial_type": "html-keyboard-response",
		"trial_index": 231,
		"time_elapsed": 1218381,
		"internal_node_id": "0.0-3.0-1.183"
	},
	{
		"rt": null,
		"stimulus": "<span style= \"font-size:30px; font-family: monospace\">+</span>",
		"response": null,
		"trial_part": "fixation",
		"trial_type": "html-keyboard-response",
		"trial_index": 232,
		"time_elapsed": 1219633,
		"internal_node_id": "0.0-3.0-0.184-0.184"
	},
	{
		"rt": 1094,
		"stimulus": "<span style=\"font-size:30px; font-family: monospace\">Ela</span>",
		"response": " ",
		"trial": "exp-sent",
		"word": "Ela",
		"trial_type": "html-keyboard-response",
		"trial_index": 233,
		"time_elapsed": 1220989,
		"internal_node_id": "0.0-3.0-1.184"
	},
	{
		"rt": 1669,
		"stimulus": "<span style=\"font-size:30px; font-family: monospace\">gosta</span>",
		"response": " ",
		"trial": "exp-sent",
		"word": "gosta",
		"trial_type": "html-keyboard-response",
		"trial_index": 234,
		"time_elapsed": 1222909,
		"internal_node_id": "0.0-3.0-1.185"
	},
	{
		"rt": 853,
		"stimulus": "<span style=\"font-size:30px; font-family: monospace\">de</span>",
		"response": " ",
		"trial": "exp-sent",
		"word": "de",
		"trial_type": "html-keyboard-response",
		"trial_index": 235,
		"time_elapsed": 1224013,
		"internal_node_id": "0.0-3.0-1.186"
	},
	{
		"rt": 1493,
		"stimulus": "<span style=\"font-size:30px; font-family: monospace\">estudar</span>",
		"response": " ",
		"trial": "exp-sent",
		"word": "estudar",
		"trial_type": "html-keyboard-response",
		"trial_index": 236,
		"time_elapsed": 1225757,
		"internal_node_id": "0.0-3.0-1.187"
	},
	{
		"rt": 1045,
		"stimulus": "<span style=\"font-size:30px; font-family: monospace\">matemática</span>",
		"response": " ",
		"trial": "exp-sent",
		"word": "matemática",
		"trial_type": "html-keyboard-response",
		"trial_index": 237,
		"time_elapsed": 1227053,
		"internal_node_id": "0.0-3.0-1.188"
	},
	{
		"rt": 1749,
		"stimulus": "<span style=\"font-size:30px; font-family: monospace\">com</span>",
		"response": " ",
		"trial": "exp-sent",
		"word": "com",
		"trial_type": "html-keyboard-response",
		"trial_index": 238,
		"time_elapsed": 1229052,
		"internal_node_id": "0.0-3.0-1.189"
	},
	{
		"rt": 898,
		"stimulus": "<span style=\"font-size:30px; font-family: monospace\">colegas.</span>",
		"response": " ",
		"trial": "comp",
		"word": "colegas.",
		"trial_type": "html-keyboard-response",
		"trial_index": 239,
		"time_elapsed": 1230205,
		"internal_node_id": "0.0-3.0-1.190"
	},
	{
		"rt": 20133,
		"stimulus": "<span style=\"font-size:30px; font-family: monospace\">Ela gosta de estudar física?</span>",
		"response": "s",
		"question": "Ela gosta de estudar física?",
		"answer": "não",
		"trial": "comp",
		"trial_type": "html-keyboard-response",
		"trial_index": 240,
		"time_elapsed": 1250589,
		"internal_node_id": "0.0-3.0-2.190-0.190",
		"accuracy": false
	},
	{
		"rt": null,
		"stimulus": "<span style= \"font-size:30px; font-family: monospace\">+</span>",
		"response": null,
		"trial_part": "fixation",
		"trial_type": "html-keyboard-response",
		"trial_index": 241,
		"time_elapsed": 1252091,
		"internal_node_id": "0.0-3.0-0.191-0.191"
	},
	{
		"rt": 8695,
		"stimulus": "<span style=\"font-size:30px; font-family: monospace\">O</span>",
		"response": " ",
		"trial": "exp-sent",
		"word": "O",
		"trial_type": "html-keyboard-response",
		"trial_index": 242,
		"time_elapsed": 1261037,
		"internal_node_id": "0.0-3.0-1.191"
	},
	{
		"rt": 2309,
		"stimulus": "<span style=\"font-size:30px; font-family: monospace\">texto</span>",
		"response": " ",
		"trial": "exp-sent",
		"word": "texto",
		"trial_type": "html-keyboard-response",
		"trial_index": 243,
		"time_elapsed": 1263596,
		"internal_node_id": "0.0-3.0-1.192"
	},
	{
		"rt": 3781,
		"stimulus": "<span style=\"font-size:30px; font-family: monospace\">trazia</span>",
		"response": " ",
		"trial": "exp-sent",
		"word": "trazia",
		"trial_type": "html-keyboard-response",
		"trial_index": 244,
		"time_elapsed": 1267629,
		"internal_node_id": "0.0-3.0-1.193"
	},
	{
		"rt": 24245,
		"stimulus": "<span style=\"font-size:30px; font-family: monospace\">um</span>",
		"response": " ",
		"trial": "exp-sent",
		"word": "um",
		"trial_type": "html-keyboard-response",
		"trial_index": 245,
		"time_elapsed": 1292124,
		"internal_node_id": "0.0-3.0-1.194"
	},
	{
		"rt": 4549,
		"stimulus": "<span style=\"font-size:30px; font-family: monospace\">argumento</span>",
		"response": " ",
		"trial": "exp-sent",
		"word": "argumento",
		"trial_type": "html-keyboard-response",
		"trial_index": 246,
		"time_elapsed": 1296924,
		"internal_node_id": "0.0-3.0-1.195"
	},
	{
		"rt": 4068,
		"stimulus": "<span style=\"font-size:30px; font-family: monospace\">central</span>",
		"response": " ",
		"trial": "exp-sent",
		"word": "central",
		"trial_type": "html-keyboard-response",
		"trial_index": 247,
		"time_elapsed": 1301244,
		"internal_node_id": "0.0-3.0-1.196"
	},
	{
		"rt": 2630,
		"stimulus": "<span style=\"font-size:30px; font-family: monospace\">para</span>",
		"response": " ",
		"trial": "exp-sent",
		"word": "para",
		"trial_type": "html-keyboard-response",
		"trial_index": 248,
		"time_elapsed": 1304124,
		"internal_node_id": "0.0-3.0-1.197"
	},
	{
		"rt": 2357,
		"stimulus": "<span style=\"font-size:30px; font-family: monospace\">a</span>",
		"response": " ",
		"trial": "exp-sent",
		"word": "a",
		"trial_type": "html-keyboard-response",
		"trial_index": 249,
		"time_elapsed": 1306732,
		"internal_node_id": "0.0-3.0-1.198"
	},
	{
		"rt": 3253,
		"stimulus": "<span style=\"font-size:30px; font-family: monospace\">conversa.</span>",
		"response": " ",
		"trial": "exp-sent",
		"word": "conversa.",
		"trial_type": "html-keyboard-response",
		"trial_index": 250,
		"time_elapsed": 1310236,
		"internal_node_id": "0.0-3.0-1.199"
	},
	{
		"rt": null,
		"stimulus": "<span style= \"font-size:30px; font-family: monospace\">+</span>",
		"response": null,
		"trial_part": "fixation",
		"trial_type": "html-keyboard-response",
		"trial_index": 251,
		"time_elapsed": 1311489,
		"internal_node_id": "0.0-3.0-0.200-0.200"
	},
	{
		"rt": 1168,
		"stimulus": "<span style=\"font-size:30px; font-family: monospace\">Ontem</span>",
		"response": " ",
		"trial": "exp-sent",
		"word": "Ontem",
		"trial_type": "html-keyboard-response",
		"trial_index": 252,
		"time_elapsed": 1312908,
		"internal_node_id": "0.0-3.0-1.200"
	},
	{
		"rt": 2053,
		"stimulus": "<span style=\"font-size:30px; font-family: monospace\">a</span>",
		"response": " ",
		"trial": "exp-sent",
		"word": "a",
		"trial_type": "html-keyboard-response",
		"trial_index": 253,
		"time_elapsed": 1315212,
		"internal_node_id": "0.0-3.0-1.201"
	},
	{
		"rt": 821,
		"stimulus": "<span style=\"font-size:30px; font-family: monospace\">temperatura</span>",
		"response": " ",
		"trial": "exp-sent",
		"word": "temperatura",
		"trial_type": "html-keyboard-response",
		"trial_index": 254,
		"time_elapsed": 1316284,
		"internal_node_id": "0.0-3.0-1.202"
	},
	{
		"rt": 2213,
		"stimulus": "<span style=\"font-size:30px; font-family: monospace\">estava</span>",
		"response": " ",
		"trial": "exp-sent",
		"word": "estava",
		"trial_type": "html-keyboard-response",
		"trial_index": 255,
		"time_elapsed": 1318748,
		"internal_node_id": "0.0-3.0-1.203"
	},
	{
		"rt": 3285,
		"stimulus": "<span style=\"font-size:30px; font-family: monospace\">amena</span>",
		"response": " ",
		"trial": "exp-sent",
		"word": "amena",
		"trial_type": "html-keyboard-response",
		"trial_index": 256,
		"time_elapsed": 1322284,
		"internal_node_id": "0.0-3.0-1.204"
	},
	{
		"rt": 2453,
		"stimulus": "<span style=\"font-size:30px; font-family: monospace\">durante</span>",
		"response": " ",
		"trial": "exp-sent",
		"word": "durante",
		"trial_type": "html-keyboard-response",
		"trial_index": 257,
		"time_elapsed": 1324988,
		"internal_node_id": "0.0-3.0-1.205"
	},
	{
		"rt": 1221,
		"stimulus": "<span style=\"font-size:30px; font-family: monospace\">o</span>",
		"response": " ",
		"trial": "exp-sent",
		"word": "o",
		"trial_type": "html-keyboard-response",
		"trial_index": 258,
		"time_elapsed": 1326460,
		"internal_node_id": "0.0-3.0-1.206"
	},
	{
		"rt": 3364,
		"stimulus": "<span style=\"font-size:30px; font-family: monospace\">dia.</span>",
		"response": " ",
		"trial": "exp-sent",
		"word": "dia.",
		"trial_type": "html-keyboard-response",
		"trial_index": 259,
		"time_elapsed": 1330076,
		"internal_node_id": "0.0-3.0-1.207"
	},
	{
		"rt": null,
		"stimulus": "<span style= \"font-size:30px; font-family: monospace\">+</span>",
		"response": null,
		"trial_part": "fixation",
		"trial_type": "html-keyboard-response",
		"trial_index": 260,
		"time_elapsed": 1331328,
		"internal_node_id": "0.0-3.0-0.208-0.208"
	},
	{
		"rt": 4305,
		"stimulus": "<span style=\"font-size:30px; font-family: monospace\">Havia</span>",
		"response": " ",
		"trial": "exp-sent",
		"word": "Havia",
		"trial_type": "html-keyboard-response",
		"trial_index": 261,
		"time_elapsed": 1335884,
		"internal_node_id": "0.0-3.0-1.208"
	},
	{
		"rt": 165,
		"stimulus": "<span style=\"font-size:30px; font-family: monospace\">um</span>",
		"response": " ",
		"trial": "exp-sent",
		"word": "um",
		"trial_type": "html-keyboard-response",
		"trial_index": 262,
		"time_elapsed": 1336300,
		"internal_node_id": "0.0-3.0-1.209"
	},
	{
		"rt": 6885,
		"stimulus": "<span style=\"font-size:30px; font-family: monospace\">machucado</span>",
		"response": " ",
		"trial": "exp-sent",
		"word": "machucado",
		"trial_type": "html-keyboard-response",
		"trial_index": 263,
		"time_elapsed": 1343436,
		"internal_node_id": "0.0-3.0-1.210"
	},
	{
		"rt": 6437,
		"stimulus": "<span style=\"font-size:30px; font-family: monospace\">no</span>",
		"response": " ",
		"trial": "exp-sent",
		"word": "no",
		"trial_type": "html-keyboard-response",
		"trial_index": 264,
		"time_elapsed": 1350124,
		"internal_node_id": "0.0-3.0-1.211"
	},
	{
		"rt": 3605,
		"stimulus": "<span style=\"font-size:30px; font-family: monospace\">dedo</span>",
		"response": " ",
		"trial": "exp-sent",
		"word": "dedo",
		"trial_type": "html-keyboard-response",
		"trial_index": 265,
		"time_elapsed": 1353980,
		"internal_node_id": "0.0-3.0-1.212"
	},
	{
		"rt": 3621,
		"stimulus": "<span style=\"font-size:30px; font-family: monospace\">da</span>",
		"response": " ",
		"trial": "exp-sent",
		"word": "da",
		"trial_type": "html-keyboard-response",
		"trial_index": 266,
		"time_elapsed": 1357852,
		"internal_node_id": "0.0-3.0-1.213"
	},
	{
		"rt": 3684,
		"stimulus": "<span style=\"font-size:30px; font-family: monospace\">criança.</span>",
		"response": " ",
		"trial": "exp-sent",
		"word": "criança.",
		"trial_type": "html-keyboard-response",
		"trial_index": 267,
		"time_elapsed": 1361788,
		"internal_node_id": "0.0-3.0-1.214"
	},
	{
		"rt": null,
		"stimulus": "<span style= \"font-size:30px; font-family: monospace\">+</span>",
		"response": null,
		"trial_part": "fixation",
		"trial_type": "html-keyboard-response",
		"trial_index": 268,
		"time_elapsed": 1363039,
		"internal_node_id": "0.0-3.0-0.215-0.215"
	},
	{
		"rt": 1378,
		"stimulus": "<span style=\"font-size:30px; font-family: monospace\">A</span>",
		"response": " ",
		"trial": "exp-sent",
		"word": "A",
		"trial_type": "html-keyboard-response",
		"trial_index": 269,
		"time_elapsed": 1364668,
		"internal_node_id": "0.0-3.0-1.215"
	},
	{
		"rt": 789,
		"stimulus": "<span style=\"font-size:30px; font-family: monospace\">borboleta</span>",
		"response": " ",
		"trial": "exp-sent",
		"word": "borboleta",
		"trial_type": "html-keyboard-response",
		"trial_index": 270,
		"time_elapsed": 1365708,
		"internal_node_id": "0.0-3.0-1.216"
	},
	{
		"rt": 4405,
		"stimulus": "<span style=\"font-size:30px; font-family: monospace\">pousou</span>",
		"response": " ",
		"trial": "exp-sent",
		"word": "pousou",
		"trial_type": "html-keyboard-response",
		"trial_index": 271,
		"time_elapsed": 1370363,
		"internal_node_id": "0.0-3.0-1.217"
	},
	{
		"rt": 2549,
		"stimulus": "<span style=\"font-size:30px; font-family: monospace\">no</span>",
		"response": " ",
		"trial": "exp-sent",
		"word": "no",
		"trial_type": "html-keyboard-response",
		"trial_index": 272,
		"time_elapsed": 1373164,
		"internal_node_id": "0.0-3.0-1.218"
	},
	{
		"rt": 2677,
		"stimulus": "<span style=\"font-size:30px; font-family: monospace\">ombro</span>",
		"response": " ",
		"trial": "exp-sent",
		"word": "ombro",
		"trial_type": "html-keyboard-response",
		"trial_index": 273,
		"time_elapsed": 1376092,
		"internal_node_id": "0.0-3.0-1.219"
	},
	{
		"rt": 6513,
		"stimulus": "<span style=\"font-size:30px; font-family: monospace\">daquela</span>",
		"response": " ",
		"trial": "exp-sent",
		"word": "daquela",
		"trial_type": "html-keyboard-response",
		"trial_index": 274,
		"time_elapsed": 1382860,
		"internal_node_id": "0.0-3.0-1.220"
	},
	{
		"rt": 3285,
		"stimulus": "<span style=\"font-size:30px; font-family: monospace\">moça.</span>",
		"response": " ",
		"trial": "exp-sent",
		"word": "moça.",
		"trial_type": "html-keyboard-response",
		"trial_index": 275,
		"time_elapsed": 1386396,
		"internal_node_id": "0.0-3.0-1.221"
	},
	{
		"rt": null,
		"stimulus": "<span style= \"font-size:30px; font-family: monospace\">+</span>",
		"response": null,
		"trial_part": "fixation",
		"trial_type": "html-keyboard-response",
		"trial_index": 276,
		"time_elapsed": 1387648,
		"internal_node_id": "0.0-3.0-0.222-0.222"
	},
	{
		"rt": 1089,
		"stimulus": "<span style=\"font-size:30px; font-family: monospace\">Eu</span>",
		"response": " ",
		"trial": "exp-sent",
		"word": "Eu",
		"trial_type": "html-keyboard-response",
		"trial_index": 277,
		"time_elapsed": 1388988,
		"internal_node_id": "0.0-3.0-1.222"
	},
	{
		"rt": 1830,
		"stimulus": "<span style=\"font-size:30px; font-family: monospace\">quero</span>",
		"response": " ",
		"trial": "exp-sent",
		"word": "quero",
		"trial_type": "html-keyboard-response",
		"trial_index": 278,
		"time_elapsed": 1391068,
		"internal_node_id": "0.0-3.0-1.223"
	},
	{
		"rt": 1205,
		"stimulus": "<span style=\"font-size:30px; font-family: monospace\">um</span>",
		"response": " ",
		"trial": "exp-sent",
		"word": "um",
		"trial_type": "html-keyboard-response",
		"trial_index": 279,
		"time_elapsed": 1392524,
		"internal_node_id": "0.0-3.0-1.224"
	},
	{
		"rt": 1333,
		"stimulus": "<span style=\"font-size:30px; font-family: monospace\">namorado</span>",
		"response": " ",
		"trial": "exp-sent",
		"word": "namorado",
		"trial_type": "html-keyboard-response",
		"trial_index": 280,
		"time_elapsed": 1394108,
		"internal_node_id": "0.0-3.0-1.225"
	},
	{
		"rt": 4822,
		"stimulus": "<span style=\"font-size:30px; font-family: monospace\">honesto</span>",
		"response": " ",
		"trial": "exp-sent",
		"word": "honesto",
		"trial_type": "html-keyboard-response",
		"trial_index": 281,
		"time_elapsed": 1399180,
		"internal_node_id": "0.0-3.0-1.226"
	},
	{
		"rt": 2676,
		"stimulus": "<span style=\"font-size:30px; font-family: monospace\">e</span>",
		"response": " ",
		"trial": "exp-sent",
		"word": "e",
		"trial_type": "html-keyboard-response",
		"trial_index": 282,
		"time_elapsed": 1402108,
		"internal_node_id": "0.0-3.0-1.227"
	},
	{
		"rt": 4966,
		"stimulus": "<span style=\"font-size:30px; font-family: monospace\">compreensivo.</span>",
		"response": " ",
		"trial": "comp",
		"word": "compreensivo.",
		"trial_type": "html-keyboard-response",
		"trial_index": 283,
		"time_elapsed": 1407324,
		"internal_node_id": "0.0-3.0-1.228"
	},
	{
		"rt": 25188,
		"stimulus": "<span style=\"font-size:30px; font-family: monospace\">Eu quero um namorado honesto?</span>",
		"response": "s",
		"question": "Eu quero um namorado honesto?",
		"answer": "sim",
		"trial": "comp",
		"trial_type": "html-keyboard-response",
		"trial_index": 284,
		"time_elapsed": 1432763,
		"internal_node_id": "0.0-3.0-2.228-0.228",
		"accuracy": false
	},
	{
		"rt": null,
		"stimulus": "<span style= \"font-size:30px; font-family: monospace\">+</span>",
		"response": null,
		"trial_part": "fixation",
		"trial_type": "html-keyboard-response",
		"trial_index": 285,
		"time_elapsed": 1434265,
		"internal_node_id": "0.0-3.0-0.229-0.229"
	},
	{
		"rt": 1046,
		"stimulus": "<span style=\"font-size:30px; font-family: monospace\">O</span>",
		"response": " ",
		"trial": "exp-sent",
		"word": "O",
		"trial_type": "html-keyboard-response",
		"trial_index": 286,
		"time_elapsed": 1435563,
		"internal_node_id": "0.0-3.0-1.229"
	},
	{
		"rt": 2325,
		"stimulus": "<span style=\"font-size:30px; font-family: monospace\">travesseiro</span>",
		"response": " ",
		"trial": "exp-sent",
		"word": "travesseiro",
		"trial_type": "html-keyboard-response",
		"trial_index": 287,
		"time_elapsed": 1438139,
		"internal_node_id": "0.0-3.0-1.230"
	},
	{
		"rt": 3013,
		"stimulus": "<span style=\"font-size:30px; font-family: monospace\">era</span>",
		"response": " ",
		"trial": "exp-sent",
		"word": "era",
		"trial_type": "html-keyboard-response",
		"trial_index": 288,
		"time_elapsed": 1441403,
		"internal_node_id": "0.0-3.0-1.231"
	},
	{
		"rt": 2741,
		"stimulus": "<span style=\"font-size:30px; font-family: monospace\">muito</span>",
		"response": " ",
		"trial": "exp-sent",
		"word": "muito",
		"trial_type": "html-keyboard-response",
		"trial_index": 289,
		"time_elapsed": 1444395,
		"internal_node_id": "0.0-3.0-1.232"
	},
	{
		"rt": 3604,
		"stimulus": "<span style=\"font-size:30px; font-family: monospace\">macio</span>",
		"response": " ",
		"trial": "exp-sent",
		"word": "macio",
		"trial_type": "html-keyboard-response",
		"trial_index": 290,
		"time_elapsed": 1448251,
		"internal_node_id": "0.0-3.0-1.233"
	},
	{
		"rt": 2805,
		"stimulus": "<span style=\"font-size:30px; font-family: monospace\">e</span>",
		"response": " ",
		"trial": "exp-sent",
		"word": "e",
		"trial_type": "html-keyboard-response",
		"trial_index": 291,
		"time_elapsed": 1451307,
		"internal_node_id": "0.0-3.0-1.234"
	},
	{
		"rt": 10165,
		"stimulus": "<span style=\"font-size:30px; font-family: monospace\">confortável.</span>",
		"response": " ",
		"trial": "exp-sent",
		"word": "confortável.",
		"trial_type": "html-keyboard-response",
		"trial_index": 292,
		"time_elapsed": 1461723,
		"internal_node_id": "0.0-3.0-1.235"
	},
	{
		"rt": null,
		"stimulus": "<span style= \"font-size:30px; font-family: monospace\">+</span>",
		"response": null,
		"trial_part": "fixation",
		"trial_type": "html-keyboard-response",
		"trial_index": 293,
		"time_elapsed": 1462976,
		"internal_node_id": "0.0-3.0-0.236-0.236"
	},
	{
		"rt": 1185,
		"stimulus": "<span style=\"font-size:30px; font-family: monospace\">Hoje</span>",
		"response": " ",
		"trial": "exp-sent",
		"word": "Hoje",
		"trial_type": "html-keyboard-response",
		"trial_index": 294,
		"time_elapsed": 1464411,
		"internal_node_id": "0.0-3.0-1.236"
	},
	{
		"rt": 8341,
		"stimulus": "<span style=\"font-size:30px; font-family: monospace\">a</span>",
		"response": " ",
		"trial": "exp-sent",
		"word": "a",
		"trial_type": "html-keyboard-response",
		"trial_index": 295,
		"time_elapsed": 1473003,
		"internal_node_id": "0.0-3.0-1.237"
	},
	{
		"rt": 4,
		"stimulus": "<span style=\"font-size:30px; font-family: monospace\">atendente</span>",
		"response": " ",
		"trial": "exp-sent",
		"word": "atendente",
		"trial_type": "html-keyboard-response",
		"trial_index": 296,
		"time_elapsed": 1473259,
		"internal_node_id": "0.0-3.0-1.238"
	},
	{
		"rt": 3860,
		"stimulus": "<span style=\"font-size:30px; font-family: monospace\">estava</span>",
		"response": " ",
		"trial": "exp-sent",
		"word": "estava",
		"trial_type": "html-keyboard-response",
		"trial_index": 297,
		"time_elapsed": 1477371,
		"internal_node_id": "0.0-3.0-1.239"
	},
	{
		"rt": 23092,
		"stimulus": "<span style=\"font-size:30px; font-family: monospace\">furiosa</span>",
		"response": " ",
		"trial": "exp-sent",
		"word": "furiosa",
		"trial_type": "html-keyboard-response",
		"trial_index": 298,
		"time_elapsed": 1500715,
		"internal_node_id": "0.0-3.0-1.240"
	},
	{
		"rt": 5110,
		"stimulus": "<span style=\"font-size:30px; font-family: monospace\">com</span>",
		"response": " ",
		"trial": "exp-sent",
		"word": "com",
		"trial_type": "html-keyboard-response",
		"trial_index": 299,
		"time_elapsed": 1506075,
		"internal_node_id": "0.0-3.0-1.241"
	},
	{
		"rt": 10420,
		"stimulus": "<span style=\"font-size:30px; font-family: monospace\">o</span>",
		"response": " ",
		"trial": "exp-sent",
		"word": "o",
		"trial_type": "html-keyboard-response",
		"trial_index": 300,
		"time_elapsed": 1516747,
		"internal_node_id": "0.0-3.0-1.242"
	},
	{
		"rt": 3317,
		"stimulus": "<span style=\"font-size:30px; font-family: monospace\">cliente.</span>",
		"response": " ",
		"trial": "exp-sent",
		"word": "cliente.",
		"trial_type": "html-keyboard-response",
		"trial_index": 301,
		"time_elapsed": 1520315,
		"internal_node_id": "0.0-3.0-1.243"
	},
	{
		"rt": null,
		"stimulus": "<span style= \"font-size:30px; font-family: monospace\">+</span>",
		"response": null,
		"trial_part": "fixation",
		"trial_type": "html-keyboard-response",
		"trial_index": 302,
		"time_elapsed": 1521568,
		"internal_node_id": "0.0-3.0-0.244-0.244"
	},
	{
		"rt": 1424,
		"stimulus": "<span style=\"font-size:30px; font-family: monospace\">O</span>",
		"response": " ",
		"trial": "exp-sent",
		"word": "O",
		"trial_type": "html-keyboard-response",
		"trial_index": 303,
		"time_elapsed": 1523244,
		"internal_node_id": "0.0-3.0-1.244"
	},
	{
		"rt": 1765,
		"stimulus": "<span style=\"font-size:30px; font-family: monospace\">vizinho</span>",
		"response": " ",
		"trial": "exp-sent",
		"word": "vizinho",
		"trial_type": "html-keyboard-response",
		"trial_index": 304,
		"time_elapsed": 1525260,
		"internal_node_id": "0.0-3.0-1.245"
	},
	{
		"rt": 3622,
		"stimulus": "<span style=\"font-size:30px; font-family: monospace\">é</span>",
		"response": " ",
		"trial": "exp-sent",
		"word": "é",
		"trial_type": "html-keyboard-response",
		"trial_index": 305,
		"time_elapsed": 1529132,
		"internal_node_id": "0.0-3.0-1.246"
	},
	{
		"rt": 3156,
		"stimulus": "<span style=\"font-size:30px; font-family: monospace\">um</span>",
		"response": " ",
		"trial": "exp-sent",
		"word": "um",
		"trial_type": "html-keyboard-response",
		"trial_index": 306,
		"time_elapsed": 1532540,
		"internal_node_id": "0.0-3.0-1.247"
	},
	{
		"rt": 5909,
		"stimulus": "<span style=\"font-size:30px; font-family: monospace\">arquiteto</span>",
		"response": " ",
		"trial": "exp-sent",
		"word": "arquiteto",
		"trial_type": "html-keyboard-response",
		"trial_index": 307,
		"time_elapsed": 1538700,
		"internal_node_id": "0.0-3.0-1.248"
	},
	{
		"rt": 4116,
		"stimulus": "<span style=\"font-size:30px; font-family: monospace\">muito</span>",
		"response": " ",
		"trial": "exp-sent",
		"word": "muito",
		"trial_type": "html-keyboard-response",
		"trial_index": 308,
		"time_elapsed": 1543068,
		"internal_node_id": "0.0-3.0-1.249"
	},
	{
		"rt": 4741,
		"stimulus": "<span style=\"font-size:30px; font-family: monospace\">excêntrico.</span>",
		"response": " ",
		"trial": "exp-sent",
		"word": "excêntrico.",
		"trial_type": "html-keyboard-response",
		"trial_index": 309,
		"time_elapsed": 1548059,
		"internal_node_id": "0.0-3.0-1.250"
	},
	{
		"rt": null,
		"stimulus": "<span style= \"font-size:30px; font-family: monospace\">+</span>",
		"response": null,
		"trial_part": "fixation",
		"trial_type": "html-keyboard-response",
		"trial_index": 310,
		"time_elapsed": 1549310,
		"internal_node_id": "0.0-3.0-0.251-0.251"
	},
	{
		"rt": 1394,
		"stimulus": "<span style=\"font-size:30px; font-family: monospace\">A</span>",
		"response": " ",
		"trial": "exp-sent",
		"word": "A",
		"trial_type": "html-keyboard-response",
		"trial_index": 311,
		"time_elapsed": 1550955,
		"internal_node_id": "0.0-3.0-1.251"
	},
	{
		"rt": 1717,
		"stimulus": "<span style=\"font-size:30px; font-family: monospace\">nossa</span>",
		"response": " ",
		"trial": "exp-sent",
		"word": "nossa",
		"trial_type": "html-keyboard-response",
		"trial_index": 312,
		"time_elapsed": 1552924,
		"internal_node_id": "0.0-3.0-1.252"
	},
	{
		"rt": 8165,
		"stimulus": "<span style=\"font-size:30px; font-family: monospace\">colega</span>",
		"response": " ",
		"trial": "exp-sent",
		"word": "colega",
		"trial_type": "html-keyboard-response",
		"trial_index": 313,
		"time_elapsed": 1561338,
		"internal_node_id": "0.0-3.0-1.253"
	},
	{
		"rt": 7509,
		"stimulus": "<span style=\"font-size:30px; font-family: monospace\">foi</span>",
		"response": " ",
		"trial": "exp-sent",
		"word": "foi",
		"trial_type": "html-keyboard-response",
		"trial_index": 314,
		"time_elapsed": 1569098,
		"internal_node_id": "0.0-3.0-1.254"
	},
	{
		"rt": 2694,
		"stimulus": "<span style=\"font-size:30px; font-family: monospace\">má</span>",
		"response": " ",
		"trial": "exp-sent",
		"word": "má",
		"trial_type": "html-keyboard-response",
		"trial_index": 315,
		"time_elapsed": 1572043,
		"internal_node_id": "0.0-3.0-1.255"
	},
	{
		"rt": 2517,
		"stimulus": "<span style=\"font-size:30px; font-family: monospace\">com</span>",
		"response": " ",
		"trial": "exp-sent",
		"word": "com",
		"trial_type": "html-keyboard-response",
		"trial_index": 316,
		"time_elapsed": 1574810,
		"internal_node_id": "0.0-3.0-1.256"
	},
	{
		"rt": 4523,
		"stimulus": "<span style=\"font-size:30px; font-family: monospace\">as</span>",
		"response": " ",
		"trial": "exp-sent",
		"word": "as",
		"trial_type": "html-keyboard-response",
		"trial_index": 317,
		"time_elapsed": 1579594,
		"internal_node_id": "0.0-3.0-1.257"
	},
	{
		"rt": 4101,
		"stimulus": "<span style=\"font-size:30px; font-family: monospace\">crianças.</span>",
		"response": " ",
		"trial": "exp-sent",
		"word": "crianças.",
		"trial_type": "html-keyboard-response",
		"trial_index": 318,
		"time_elapsed": 1583946,
		"internal_node_id": "0.0-3.0-1.258"
	},
	{
		"rt": null,
		"stimulus": "<span style= \"font-size:30px; font-family: monospace\">+</span>",
		"response": null,
		"trial_part": "fixation",
		"trial_type": "html-keyboard-response",
		"trial_index": 319,
		"time_elapsed": 1585198,
		"internal_node_id": "0.0-3.0-0.259-0.259"
	},
	{
		"rt": 1682,
		"stimulus": "<span style=\"font-size:30px; font-family: monospace\">Virtudes</span>",
		"response": " ",
		"trial": "exp-sent",
		"word": "Virtudes",
		"trial_type": "html-keyboard-response",
		"trial_index": 320,
		"time_elapsed": 1587130,
		"internal_node_id": "0.0-3.0-1.259"
	},
	{
		"rt": 4773,
		"stimulus": "<span style=\"font-size:30px; font-family: monospace\">não</span>",
		"response": " ",
		"trial": "exp-sent",
		"word": "não",
		"trial_type": "html-keyboard-response",
		"trial_index": 321,
		"time_elapsed": 1592154,
		"internal_node_id": "0.0-3.0-1.260"
	},
	{
		"rt": 3094,
		"stimulus": "<span style=\"font-size:30px; font-family: monospace\">são</span>",
		"response": " ",
		"trial": "exp-sent",
		"word": "são",
		"trial_type": "html-keyboard-response",
		"trial_index": 322,
		"time_elapsed": 1595499,
		"internal_node_id": "0.0-3.0-1.261"
	},
	{
		"rt": 7764,
		"stimulus": "<span style=\"font-size:30px; font-family: monospace\">preguiça,</span>",
		"response": " ",
		"trial": "exp-sent",
		"word": "preguiça,",
		"trial_type": "html-keyboard-response",
		"trial_index": 323,
		"time_elapsed": 1603514,
		"internal_node_id": "0.0-3.0-1.262"
	},
	{
		"rt": 5494,
		"stimulus": "<span style=\"font-size:30px; font-family: monospace\">gula</span>",
		"response": " ",
		"trial": "exp-sent",
		"word": "gula",
		"trial_type": "html-keyboard-response",
		"trial_index": 324,
		"time_elapsed": 1609259,
		"internal_node_id": "0.0-3.0-1.263"
	},
	{
		"rt": 6804,
		"stimulus": "<span style=\"font-size:30px; font-family: monospace\">nem</span>",
		"response": " ",
		"trial": "exp-sent",
		"word": "nem",
		"trial_type": "html-keyboard-response",
		"trial_index": 325,
		"time_elapsed": 1616314,
		"internal_node_id": "0.0-3.0-1.264"
	},
	{
		"rt": 4950,
		"stimulus": "<span style=\"font-size:30px; font-family: monospace\">ganância.</span>",
		"response": " ",
		"trial": "comp",
		"word": "ganância.",
		"trial_type": "html-keyboard-response",
		"trial_index": 326,
		"time_elapsed": 1621515,
		"internal_node_id": "0.0-3.0-1.265"
	},
	{
		"rt": 24581,
		"stimulus": "<span style=\"font-size:30px; font-family: monospace\">Preguiça é uma virtude?</span>",
		"response": "n",
		"question": "Preguiça é uma virtude?",
		"answer": "não",
		"trial": "comp",
		"trial_type": "html-keyboard-response",
		"trial_index": 327,
		"time_elapsed": 1646347,
		"internal_node_id": "0.0-3.0-2.265-0.265",
		"accuracy": false
	},
	{
		"rt": null,
		"stimulus": "<span style= \"font-size:30px; font-family: monospace\">+</span>",
		"response": null,
		"trial_part": "fixation",
		"trial_type": "html-keyboard-response",
		"trial_index": 328,
		"time_elapsed": 1647849,
		"internal_node_id": "0.0-3.0-0.266-0.266"
	},
	{
		"rt": 2248,
		"stimulus": "<span style=\"font-size:30px; font-family: monospace\">Eu</span>",
		"response": " ",
		"trial": "exp-sent",
		"word": "Eu",
		"trial_type": "html-keyboard-response",
		"trial_index": 329,
		"time_elapsed": 1650347,
		"internal_node_id": "0.0-3.0-1.266"
	},
	{
		"rt": 2052,
		"stimulus": "<span style=\"font-size:30px; font-family: monospace\">gosto</span>",
		"response": " ",
		"trial": "exp-sent",
		"word": "gosto",
		"trial_type": "html-keyboard-response",
		"trial_index": 330,
		"time_elapsed": 1652651,
		"internal_node_id": "0.0-3.0-1.267"
	},
	{
		"rt": 2213,
		"stimulus": "<span style=\"font-size:30px; font-family: monospace\">de</span>",
		"response": " ",
		"trial": "exp-sent",
		"word": "de",
		"trial_type": "html-keyboard-response",
		"trial_index": 331,
		"time_elapsed": 1655115,
		"internal_node_id": "0.0-3.0-1.268"
	},
	{
		"rt": 2596,
		"stimulus": "<span style=\"font-size:30px; font-family: monospace\">molho</span>",
		"response": " ",
		"trial": "exp-sent",
		"word": "molho",
		"trial_type": "html-keyboard-response",
		"trial_index": 332,
		"time_elapsed": 1657963,
		"internal_node_id": "0.0-3.0-1.269"
	},
	{
		"rt": 3317,
		"stimulus": "<span style=\"font-size:30px; font-family: monospace\">picante</span>",
		"response": " ",
		"trial": "exp-sent",
		"word": "picante",
		"trial_type": "html-keyboard-response",
		"trial_index": 333,
		"time_elapsed": 1661531,
		"internal_node_id": "0.0-3.0-1.270"
	},
	{
		"rt": 2901,
		"stimulus": "<span style=\"font-size:30px; font-family: monospace\">nas</span>",
		"response": " ",
		"trial": "exp-sent",
		"word": "nas",
		"trial_type": "html-keyboard-response",
		"trial_index": 334,
		"time_elapsed": 1664682,
		"internal_node_id": "0.0-3.0-1.271"
	},
	{
		"rt": 3269,
		"stimulus": "<span style=\"font-size:30px; font-family: monospace\">batatas.</span>",
		"response": " ",
		"trial": "exp-sent",
		"word": "batatas.",
		"trial_type": "html-keyboard-response",
		"trial_index": 335,
		"time_elapsed": 1668203,
		"internal_node_id": "0.0-3.0-1.272"
	},
	{
		"rt": null,
		"stimulus": "<span style= \"font-size:30px; font-family: monospace\">+</span>",
		"response": null,
		"trial_part": "fixation",
		"trial_type": "html-keyboard-response",
		"trial_index": 336,
		"time_elapsed": 1669457,
		"internal_node_id": "0.0-3.0-0.273-0.273"
	},
	{
		"rt": 1567,
		"stimulus": "<span style=\"font-size:30px; font-family: monospace\">As</span>",
		"response": " ",
		"trial": "exp-sent",
		"word": "As",
		"trial_type": "html-keyboard-response",
		"trial_index": 337,
		"time_elapsed": 1671275,
		"internal_node_id": "0.0-3.0-1.273"
	},
	{
		"rt": 4662,
		"stimulus": "<span style=\"font-size:30px; font-family: monospace\">pessoas</span>",
		"response": " ",
		"trial": "exp-sent",
		"word": "pessoas",
		"trial_type": "html-keyboard-response",
