"view_history","rt","trial_type","trial_index","time_elapsed","internal_node_id","stimulus","response","trial_part","word","question","answer","trial","accuracy"
"[{""page_index"":0,""viewing_time"":17662},{""page_index"":1,""viewing_time"":31808}]","49470","instructions","0","49471","0.0-0.0","","","","","","","",""
"","null","html-keyboard-response","1","50573","0.0-1.0-0.0-0.0","<span style= ""font-size:30px; font-family: monospace"">+</span>","null","fixation","","","","",""
"","6240","audio-keyboard-response","2","57119","0.0-1.0-1.0","../audio/prac-question-1-1.mp3"," ","","O","","","",""
"","2299","audio-keyboard-response","3","59695","0.0-1.0-1.1","../audio/prac-question-1-2.mp3"," ","","dia","","","",""
"","1912","audio-keyboard-response","4","61870","0.0-1.0-1.2","../audio/prac-question-1-3.mp3"," ","","estará","","","",""
"","1739","audio-keyboard-response","5","63886","0.0-1.0-1.3","../audio/prac-question-1-4.mp3"," ","","cheio","","","",""
"","1320","audio-keyboard-response","6","65470","0.0-1.0-1.4","../audio/prac-question-1-5.mp3"," ","","de","","","",""
"","1648","audio-keyboard-response","7","67406","0.0-1.0-1.5","../audio/prac-question-1-6.mp3"," ","","nuvens","","","",""
"","1400","audio-keyboard-response","8","69070","0.0-1.0-1.6","../audio/prac-question-1-7.mp3"," ","","hoje.","","","",""
"","null","html-keyboard-response","9","70323","0.0-1.0-0.7-0.7","<span style= ""font-size:30px; font-family: monospace"">+</span>","null","fixation","","","","",""
"","1019","audio-keyboard-response","10","71614","0.0-1.0-1.7","../audio/prac-question-2-1.mp3"," ","","A","","","",""
"","1392","audio-keyboard-response","11","73279","0.0-1.0-1.8","../audio/prac-question-2-2.mp3"," ","","caneca","","","",""
"","5309","audio-keyboard-response","12","78862","0.0-1.0-1.9","../audio/prac-question-2-3.mp3"," ","","colorida","","","",""
"","10309","audio-keyboard-response","13","89454","0.0-1.0-1.10","../audio/prac-question-2-4.mp3"," ","","caiu","","","",""
"","1051","audio-keyboard-response","14","90782","0.0-1.0-1.11","../audio/prac-question-2-5.mp3"," ","","da","","","",""
"","1459","audio-keyboard-response","15","92526","0.0-1.0-1.12","../audio/prac-question-2-6.mp3"," ","","mesa","","","",""
"","1120","audio-keyboard-response","16","93918","0.0-1.0-1.13","../audio/prac-question-2-7.mp3"," ","","de","","","",""
"","1368","audio-keyboard-response","17","95566","0.0-1.0-1.14","../audio/prac-question-2-8.mp3"," ","","jantar.","","","",""
"","12859","html-keyboard-response","18","108685","0.0-1.0-2.14-0.14","<span style=""font-size:25px; font-family: monospace"">A caneca era colorida?</span>","s","","","A caneca era colorida?","null","prac-sent","false"
"[{""page_index"":0,""viewing_time"":38414}]","38415","instructions","19","147614","0.0-2.0","","","","","","","",""
"","null","html-keyboard-response","20","148716","0.0-3.0-0.0-0.0","<span style= ""font-size:30px; font-family: monospace"">+</span>","null","fixation","","","","",""
"","3840","audio-keyboard-response","21","152893","0.0-3.0-1.0","../audio/71-1-masc.mp3"," ","","Minhas","","","",""
"","2440","audio-keyboard-response","22","155597","0.0-3.0-1.1","../audio/71-2-masc.mp3"," ","","comidas","","","",""
"","2120","audio-keyboard-response","23","157981","0.0-3.0-1.2","../audio/71-3-masc.mp3"," ","","favoritas","","","",""
"","2421","audio-keyboard-response","24","160669","0.0-3.0-1.3","../audio/71-4-masc.mp3"," ","","são","","","",""
"","2189","audio-keyboard-response","25","163133","0.0-3.0-1.4","../audio/71-5-masc.mp3"," ","","morango","","","",""
"","1360","audio-keyboard-response","26","164765","0.0-3.0-1.5","../audio/71-6-masc.mp3"," ","","e","","","",""
"","2061","audio-keyboard-response","27","167101","0.0-3.0-1.6","../audio/71-7-masc.mp3"," ","","uva.","","","",""
"","null","html-keyboard-response","28","168357","0.0-3.0-0.7-0.7","<span style= ""font-size:30px; font-family: monospace"">+</span>","null","fixation","","","","",""
"","1669","audio-keyboard-response","29","170301","0.0-3.0-1.7","../audio/74-1-fem.mp3"," ","","Este","","","",""
"","3059","audio-keyboard-response","30","173646","0.0-3.0-1.8","../audio/74-2-fem.mp3"," ","","emprego","","","",""
"","1688","audio-keyboard-response","31","175597","0.0-3.0-1.9","../audio/74-3-fem.mp3"," ","","é","","","",""
"","1808","audio-keyboard-response","32","177681","0.0-3.0-1.10","../audio/74-4-fem.mp3"," ","","muito","","","",""
"","1920","audio-keyboard-response","33","179885","0.0-3.0-1.11","../audio/74-5-fem.mp3"," ","","cansativo","","","",""
"","1400","audio-keyboard-response","34","181565","0.0-3.0-1.12","../audio/74-6-fem.mp3"," ","","a","","","",""
"","1360","audio-keyboard-response","35","183197","0.0-3.0-1.13","../audio/74-7-fem.mp3"," ","","longo","","","",""
"","1328","audio-keyboard-response","36","184797","0.0-3.0-1.14","../audio/74-8-fem.mp3"," ","","prazo.","","","",""
"","null","html-keyboard-response","37","186065","0.0-3.0-0.15-0.15","<span style= ""font-size:30px; font-family: monospace"">+</span>","null","fixation","","","","",""
"","1128","audio-keyboard-response","38","187485","0.0-3.0-1.15","../audio/72-1-fem.mp3"," ","","A","","","",""
"","2381","audio-keyboard-response","39","190141","0.0-3.0-1.16","../audio/72-2-fem.mp3"," ","","vencedora","","","",""
"","1381","audio-keyboard-response","40","191789","0.0-3.0-1.17","../audio/72-3-fem.mp3"," ","","recebeu","","","",""
"","1139","audio-keyboard-response","41","193197","0.0-3.0-1.18","../audio/72-4-fem.mp3"," ","","um","","","",""
"","971","audio-keyboard-response","42","194429","0.0-3.0-1.19","../audio/72-5-fem.mp3"," ","","prêmio","","","",""
"","808","audio-keyboard-response","43","195517","0.0-3.0-1.20","../audio/72-6-fem.mp3"," ","","em","","","",""
"","1080","audio-keyboard-response","44","196861","0.0-3.0-1.21","../audio/72-7-fem.mp3"," ","","dinheiro.","","","",""
"","null","html-keyboard-response","45","198129","0.0-3.0-0.22-0.22","<span style= ""font-size:30px; font-family: monospace"">+</span>","null","fixation","","","","",""
"","1011","audio-keyboard-response","46","199421","0.0-3.0-1.22","../audio/73-1-masc.mp3"," ","","O","","","",""
"","1149","audio-keyboard-response","47","200845","0.0-3.0-1.23","../audio/73-2-masc.mp3"," ","","cliente","","","",""
"","941","audio-keyboard-response","48","202061","0.0-3.0-1.24","../audio/73-3-masc.mp3"," ","","era","","","",""
"","869","audio-keyboard-response","49","203213","0.0-3.0-1.25","../audio/73-4-masc.mp3"," ","","um","","","",""
"","971","audio-keyboard-response","50","204461","0.0-3.0-1.26","../audio/73-5-masc.mp3"," ","","homem","","","",""
"","1280","audio-keyboard-response","51","206013","0.0-3.0-1.27","../audio/73-6-masc.mp3"," ","","muito","","","",""
"","1429","audio-keyboard-response","52","207725","0.0-3.0-1.28","../audio/73-7-masc.mp3"," ","","educado.","","","",""
"","null","html-keyboard-response","53","208984","0.0-3.0-0.29-0.29","<span style= ""font-size:30px; font-family: monospace"">+</span>","null","fixation","","","","",""
"","720","audio-keyboard-response","54","209981","0.0-3.0-1.29","../audio/75-1-masc.mp3"," ","","Só","","","",""
"","760","audio-keyboard-response","55","211021","0.0-3.0-1.30","../audio/75-2-masc.mp3"," ","","existe","","","",""
"","811","audio-keyboard-response","56","212109","0.0-3.0-1.31","../audio/75-3-masc.mp3"," ","","uma","","","",""
"","968","audio-keyboard-response","57","213357","0.0-3.0-1.32","../audio/75-4-masc.mp3"," ","","pessoa","","","",""
"","1229","audio-keyboard-response","58","214861","0.0-3.0-1.33","../audio/75-5-masc.mp3"," ","","canhota","","","",""
"","1040","audio-keyboard-response","59","216173","0.0-3.0-1.34","../audio/75-6-masc.mp3"," ","","nesta","","","",""
"","1240","audio-keyboard-response","60","217677","0.0-3.0-1.35","../audio/75-7-masc.mp3"," ","","cidade.","","","",""
"","17271","html-keyboard-response","61","235213","0.0-3.0-2.35-0.35","<span style=""font-size:25px; font-family: monospace"">Só existe uma pessoa canhota na cidade?</span>","s","","","Só existe uma pessoa canhota na cidade?","null","exp-sent","false"
"","null","html-keyboard-response","62","236729","0.0-3.0-0.36-0.36","<span style= ""font-size:30px; font-family: monospace"">+</span>","null","fixation","","","","",""
"","2152","audio-keyboard-response","63","239149","0.0-3.0-1.36","../audio/68-1-masc.mp3"," ","","Meu","","","",""
"","1309","audio-keyboard-response","64","240733","0.0-3.0-1.37","../audio/68-2-masc.mp3"," ","","irmão","","","",""
"","3611","audio-keyboard-response","65","244621","0.0-3.0-1.38","../audio/68-3-masc.mp3"," ","","teve","","","",""
"","6299","audio-keyboard-response","66","251197","0.0-3.0-1.39","../audio/68-4-masc.mp3"," ","","um","","","",""
"","1819","audio-keyboard-response","67","253293","0.0-3.0-1.40","../audio/68-5-masc.mp3"," ","","noivado","","","",""
"","1560","audio-keyboard-response","68","255117","0.0-3.0-1.41","../audio/68-6-masc.mp3"," ","","longo","","","",""
"","1259","audio-keyboard-response","69","256653","0.0-3.0-1.42","../audio/68-7-masc.mp3"," ","","e","","","",""
"","3272","audio-keyboard-response","70","260189","0.0-3.0-1.43","../audio/68-8-masc.mp3"," ","","maravilhoso.","","","",""
"","null","html-keyboard-response","71","261465","0.0-3.0-0.44-0.44","<span style= ""font-size:30px; font-family: monospace"">+</span>","null","fixation","","","","",""
"","6968","audio-keyboard-response","72","268717","0.0-3.0-1.44","../audio/67-1-fem.mp3"," ","","Minha","","","",""
"","1912","audio-keyboard-response","73","270909","0.0-3.0-1.45","../audio/67-2-fem.mp3"," ","","tia","","","",""
"","1928","audio-keyboard-response","74","273117","0.0-3.0-1.46","../audio/67-3-fem.mp3"," ","","comprou","","","",""
"","808","audio-keyboard-response","75","274205","0.0-3.0-1.47","../audio/67-4-fem.mp3"," ","","um","","","",""
"","1400","audio-keyboard-response","76","275885","0.0-3.0-1.48","../audio/67-5-fem.mp3"," ","","cordão","","","",""
"","2691","audio-keyboard-response","77","278861","0.0-3.0-1.49","../audio/67-6-fem.mp3"," ","","para","","","",""
"","1309","audio-keyboard-response","78","280445","0.0-3.0-1.50","../audio/67-7-fem.mp3"," ","","o","","","",""
"","1221","audio-keyboard-response","79","281949","0.0-3.0-1.51","../audio/67-8-fem.mp3"," ","","varal.","","","",""
"","null","html-keyboard-response","80","283206","0.0-3.0-0.52-0.52","<span style= ""font-size:30px; font-family: monospace"">+</span>","null","fixation","","","","",""
"","160","audio-keyboard-response","81","283645","0.0-3.0-1.52","../audio/69-1-fem.mp3"," ","","A","","","",""
"","1371","audio-keyboard-response","82","285293","0.0-3.0-1.53","../audio/69-2-fem.mp3"," ","","loja","","","",""
"","1069","audio-keyboard-response","83","286637","0.0-3.0-1.54","../audio/69-3-fem.mp3"," ","","recebeu","","","",""
"","979","audio-keyboard-response","84","287885","0.0-3.0-1.55","../audio/69-4-fem.mp3"," ","","uma","","","",""
"","1368","audio-keyboard-response","85","289517","0.0-3.0-1.56","../audio/69-5-fem.mp3"," ","","poltrona","","","",""
"","989","audio-keyboard-response","86","290780","0.0-3.0-1.57","../audio/69-6-fem.mp3"," ","","de","","","",""
"","979","audio-keyboard-response","87","292044","0.0-3.0-1.58","../audio/69-7-fem.mp3"," ","","couro","","","",""
"","1040","audio-keyboard-response","88","293356","0.0-3.0-1.59","../audio/69-8-fem.mp3"," ","","preto.","","","",""
"","null","html-keyboard-response","89","294620","0.0-3.0-0.60-0.60","<span style= ""font-size:30px; font-family: monospace"">+</span>","null","fixation","","","","",""
"","811","audio-keyboard-response","90","295708","0.0-3.0-1.60","../audio/66-1-fem.mp3"," ","","Não","","","",""
"","1019","audio-keyboard-response","91","297004","0.0-3.0-1.61","../audio/66-2-fem.mp3"," ","","gosto","","","",""
"","760","audio-keyboard-response","92","298044","0.0-3.0-1.62","../audio/66-3-fem.mp3"," ","","de","","","",""
"","1211","audio-keyboard-response","93","299532","0.0-3.0-1.63","../audio/66-4-fem.mp3"," ","","gente","","","",""
"","2709","audio-keyboard-response","94","302524","0.0-3.0-1.64","../audio/66-5-fem.mp3"," ","","egoísta","","","",""
"","1629","audio-keyboard-response","95","304444","0.0-3.0-1.65","../audio/66-6-fem.mp3"," ","","nem","","","",""
"","3851","audio-keyboard-response","96","308572","0.0-3.0-1.66","../audio/66-7-fem.mp3"," ","","chata.","","","",""
"","null","html-keyboard-response","97","309845","0.0-3.0-0.67-0.67","<span style= ""font-size:30px; font-family: monospace"">+</span>","null","fixation","","","","",""
"","1600","audio-keyboard-response","98","311708","0.0-3.0-1.67","../audio/70-1-masc.mp3"," ","","O","","","",""
"","1208","audio-keyboard-response","99","313196","0.0-3.0-1.68","../audio/70-2-masc.mp3"," ","","meu","","","",""
"","1579","audio-keyboard-response","100","315052","0.0-3.0-1.69","../audio/70-3-masc.mp3"," ","","filho","","","",""
"","1112","audio-keyboard-response","101","316428","0.0-3.0-1.70","../audio/70-4-masc.mp3"," ","","tem","","","",""
"","1589","audio-keyboard-response","102","318284","0.0-3.0-1.71","../audio/70-5-masc.mp3"," ","","medo","","","",""
"","1021","audio-keyboard-response","103","319580","0.0-3.0-1.72","../audio/70-6-masc.mp3"," ","","de","","","",""
"","1541","audio-keyboard-response","104","321388","0.0-3.0-1.73","../audio/70-7-masc.mp3"," ","","enguia","","","",""
"","1171","audio-keyboard-response","105","322828","0.0-3.0-1.74","../audio/70-8-masc.mp3"," ","","e","","","",""
"","1709","audio-keyboard-response","106","324812","0.0-3.0-1.75","../audio/70-9-masc.mp3"," ","","beija-flor.","","","",""
"","9741","html-keyboard-response","107","334812","0.0-3.0-2.75-0.75","<span style=""font-size:25px; font-family: monospace"">O filho tem medo de tigre?</span>","s","","","O filho tem medo de tigre?","null","exp-sent","false"
"","null","html-keyboard-response","108","336327","0.0-3.0-0.76-0.76","<span style= ""font-size:30px; font-family: monospace"">+</span>","null","fixation","","","","",""
"","1112","audio-keyboard-response","109","337708","0.0-3.0-1.76","../audio/37-1-masc.mp3"," ","","Eu","","","",""
"","1720","audio-keyboard-response","110","339692","0.0-3.0-1.77","../audio/37-2-masc.mp3"," ","","adoro","","","",""
"","1400","audio-keyboard-response","111","341356","0.0-3.0-1.78","../audio/37-3-masc.mp3"," ","","suco","","","",""
"","1840","audio-keyboard-response","112","343468","0.0-3.0-1.79","../audio/37-4-masc.mp3"," ","","de","","","",""
"","1320","audio-keyboard-response","113","345068","0.0-3.0-1.80","../audio/37-5-masc.mp3"," ","","manga","","","",""
"","880","audio-keyboard-response","114","346220","0.0-3.0-1.81","../audio/37-6-masc.mp3"," ","","com","","","",""
"","1109","audio-keyboard-response","115","347612","0.0-3.0-1.82","../audio/37-7-masc.mp3"," ","","hortelã.","","","",""
"","null","html-keyboard-response","116","348873","0.0-3.0-0.83-0.83","<span style= ""font-size:30px; font-family: monospace"">+</span>","null","fixation","","","","",""
"","920","audio-keyboard-response","117","350076","0.0-3.0-1.83","../audio/36-1-masc.mp3"," ","","Meu","","","",""
"","971","audio-keyboard-response","118","351308","0.0-3.0-1.84","../audio/36-2-masc.mp3"," ","","tio","","","",""
"","909","audio-keyboard-response","119","352476","0.0-3.0-1.85","../audio/36-3-masc.mp3"," ","","comprou","","","",""
"","728","audio-keyboard-response","120","353484","0.0-3.0-1.86","../audio/36-4-masc.mp3"," ","","um","","","",""
"","1021","audio-keyboard-response","121","354780","0.0-3.0-1.87","../audio/36-5-masc.mp3"," ","","filtro","","","",""
"","741","audio-keyboard-response","122","355788","0.0-3.0-1.88","../audio/36-6-masc.mp3"," ","","de","","","",""
"","979","audio-keyboard-response","123","357036","0.0-3.0-1.89","../audio/36-7-masc.mp3"," ","","água","","","",""
"","808","audio-keyboard-response","124","358124","0.0-3.0-1.90","../audio/36-8-masc.mp3"," ","","hoje","","","",""
"","768","audio-keyboard-response","125","359164","0.0-3.0-1.91","../audio/36-9-masc.mp3"," ","","cedo.","","","",""
"","null","html-keyboard-response","126","360424","0.0-3.0-0.92-0.92","<span style= ""font-size:30px; font-family: monospace"">+</span>","null","fixation","","","","",""
"","648","audio-keyboard-response","127","361356","0.0-3.0-1.92","../audio/38-1-fem.mp3"," ","","A","","","",""
"","1019","audio-keyboard-response","128","362652","0.0-3.0-1.93","../audio/38-2-fem.mp3"," ","","empresa","","","",""
"","680","audio-keyboard-response","129","363612","0.0-3.0-1.94","../audio/38-3-fem.mp3"," ","","criou","","","",""
"","720","audio-keyboard-response","130","364604","0.0-3.0-1.95","../audio/38-4-fem.mp3"," ","","a","","","",""
"","1000","audio-keyboard-response","131","365884","0.0-3.0-1.96","../audio/38-5-fem.mp3"," ","","patente","","","",""
"","680","audio-keyboard-response","132","366844","0.0-3.0-1.97","../audio/38-6-fem.mp3"," ","","da","","","",""
"","739","audio-keyboard-response","133","367852","0.0-3.0-1.98","../audio/38-7-fem.mp3"," ","","frigideira.","","","",""
"","null","html-keyboard-response","134","369117","0.0-3.0-0.99-0.99","<span style= ""font-size:30px; font-family: monospace"">+</span>","null","fixation","","","","",""
"","1280","audio-keyboard-response","135","370684","0.0-3.0-1.99","../audio/39-1-fem.mp3"," ","","O","","","",""
"","1261","audio-keyboard-response","136","372220","0.0-3.0-1.100","../audio/39-2-fem.mp3"," ","","conselho","","","",""
"","869","audio-keyboard-response","137","373372","0.0-3.0-1.101","../audio/39-3-fem.mp3"," ","","foi","","","",""
"","1080","audio-keyboard-response","138","374716","0.0-3.0-1.102","../audio/39-4-fem.mp3"," ","","muito","","","",""
"","888","audio-keyboard-response","139","375884","0.0-3.0-1.103","../audio/39-5-fem.mp3"," ","","útil","","","",""
"","861","audio-keyboard-response","140","377020","0.0-3.0-1.104","../audio/39-6-fem.mp3"," ","","para","","","",""
"","1059","audio-keyboard-response","141","378364","0.0-3.0-1.105","../audio/39-7-fem.mp3"," ","","minha","","","",""
"","891","audio-keyboard-response","142","379532","0.0-3.0-1.106","../audio/39-8-fem.mp3"," ","","tia.","","","",""
"","null","html-keyboard-response","143","380791","0.0-3.0-0.107-0.107","<span style= ""font-size:30px; font-family: monospace"">+</span>","null","fixation","","","","",""
"","680","audio-keyboard-response","144","381756","0.0-3.0-1.107","../audio/40-1-masc.mp3"," ","","O","","","",""
"","808","audio-keyboard-response","145","382844","0.0-3.0-1.108","../audio/40-2-masc.mp3"," ","","jogo","","","",""
"","800","audio-keyboard-response","146","383932","0.0-3.0-1.109","../audio/40-3-masc.mp3"," ","","falava","","","",""
"","869","audio-keyboard-response","147","385084","0.0-3.0-1.110","../audio/40-4-masc.mp3"," ","","de","","","",""
"","1152","audio-keyboard-response","148","386508","0.0-3.0-1.111","../audio/40-5-masc.mp3"," ","","fantasia","","","",""
"","869","audio-keyboard-response","149","387660","0.0-3.0-1.112","../audio/40-6-masc.mp3"," ","","e","","","",""
"","851","audio-keyboard-response","150","388780","0.0-3.0-1.113","../audio/40-7-masc.mp3"," ","","de","","","",""
"","1221","audio-keyboard-response","151","390268","0.0-3.0-1.114","../audio/40-8-masc.mp3"," ","","aventura.","","","",""
"","6630","html-keyboard-response","152","397164","0.0-3.0-2.114-0.114","<span style=""font-size:25px; font-family: monospace"">O jogo tinha fantasia e aventura?</span>","s","","","O jogo tinha fantasia e aventura?","null","exp-sent","false"
"","null","html-keyboard-response","153","398677","0.0-3.0-0.115-0.115","<span style= ""font-size:30px; font-family: monospace"">+</span>","null","fixation","","","","",""
"","1480","audio-keyboard-response","154","400428","0.0-3.0-1.115","../audio/77-1-fem.mp3"," ","","A","","","",""
"","1259","audio-keyboard-response","155","401964","0.0-3.0-1.116","../audio/77-2-fem.mp3"," ","","criança","","","",""
"","891","audio-keyboard-response","156","403132","0.0-3.0-1.117","../audio/77-3-fem.mp3"," ","","ficou","","","",""
"","981","audio-keyboard-response","157","404380","0.0-3.0-1.118","../audio/77-4-fem.mp3"," ","","muito","","","",""
"","800","audio-keyboard-response","158","405436","0.0-3.0-1.119","../audio/77-5-fem.mp3"," ","","feliz","","","",""
"","771","audio-keyboard-response","159","406492","0.0-3.0-1.120","../audio/77-6-fem.mp3"," ","","com","","","",""
"","661","audio-keyboard-response","160","407420","0.0-3.0-1.121","../audio/77-7-fem.mp3"," ","","o","","","",""
"","869","audio-keyboard-response","161","408556","0.0-3.0-1.122","../audio/77-8-fem.mp3"," ","","brinquedo.","","","",""
"","null","html-keyboard-response","162","409819","0.0-3.0-0.123-0.123","<span style= ""font-size:30px; font-family: monospace"">+</span>","null","fixation","","","","",""
"","741","audio-keyboard-response","163","410828","0.0-3.0-1.123","../audio/79-1-fem.mp3"," ","","A","","","",""
"","920","audio-keyboard-response","164","412028","0.0-3.0-1.124","../audio/79-2-fem.mp3"," ","","médica","","","",""
"","1240","audio-keyboard-response","165","413531","0.0-3.0-1.125","../audio/79-3-fem.mp3"," ","","verificou","","","",""
"","949","audio-keyboard-response","166","414764","0.0-3.0-1.126","../audio/79-4-fem.mp3"," ","","a","","","",""
"","1509","audio-keyboard-response","167","416540","0.0-3.0-1.127","../audio/79-5-fem.mp3"," ","","gengiva","","","",""
"","811","audio-keyboard-response","168","417611","0.0-3.0-1.128","../audio/79-6-fem.mp3"," ","","por","","","",""
"","1411","audio-keyboard-response","169","419292","0.0-3.0-1.129","../audio/79-7-fem.mp3"," ","","último.","","","",""
"","null","html-keyboard-response","170","420550","0.0-3.0-0.130-0.130","<span style= ""font-size:30px; font-family: monospace"">+</span>","null","fixation","","","","",""
"","829","audio-keyboard-response","171","421660","0.0-3.0-1.130","../audio/76-1-masc.mp3"," ","","O","","","",""
"","1269","audio-keyboard-response","172","423212","0.0-3.0-1.131","../audio/76-2-masc.mp3"," ","","bisavô","","","",""
"","1080","audio-keyboard-response","173","424556","0.0-3.0-1.132","../audio/76-3-masc.mp3"," ","","comprou","","","",""
"","859","audio-keyboard-response","174","425676","0.0-3.0-1.133","../audio/76-4-masc.mp3"," ","","um","","","",""
"","1200","audio-keyboard-response","175","427163","0.0-3.0-1.134","../audio/76-5-masc.mp3"," ","","ralador","","","",""
"","811","audio-keyboard-response","176","428252","0.0-3.0-1.135","../audio/76-6-masc.mp3"," ","","de","","","",""
"","960","audio-keyboard-response","177","429484","0.0-3.0-1.136","../audio/76-7-masc.mp3"," ","","queijo.","","","",""
"","null","html-keyboard-response","178","430748","0.0-3.0-0.137-0.137","<span style= ""font-size:30px; font-family: monospace"">+</span>","null","fixation","","","","",""
"","1029","audio-keyboard-response","179","432059","0.0-3.0-1.137","../audio/78-1-masc.mp3"," ","","Eles","","","",""
"","1131","audio-keyboard-response","180","433468","0.0-3.0-1.138","../audio/78-2-masc.mp3"," ","","trazem","","","",""
"","760","audio-keyboard-response","181","434508","0.0-3.0-1.139","../audio/78-3-masc.mp3"," ","","um","","","",""
"","931","audio-keyboard-response","182","435708","0.0-3.0-1.140","../audio/78-4-masc.mp3"," ","","fato","","","",""
"","1128","audio-keyboard-response","183","437116","0.0-3.0-1.141","../audio/78-5-masc.mp3"," ","","urgente","","","",""
"","1099","audio-keyboard-response","184","438492","0.0-3.0-1.142","../audio/78-6-masc.mp3"," ","","todos","","","",""
"","851","audio-keyboard-response","185","439612","0.0-3.0-1.143","../audio/78-7-masc.mp3"," ","","os","","","",""
"","949","audio-keyboard-response","186","440843","0.0-3.0-1.144","../audio/78-8-masc.mp3"," ","","dias.","","","",""
"","null","html-keyboard-response","187","442095","0.0-3.0-0.145-0.145","<span style= ""font-size:30px; font-family: monospace"">+</span>","null","fixation","","","","",""
"","899","audio-keyboard-response","188","443275","0.0-3.0-1.145","../audio/80-1-masc.mp3"," ","","Meu","","","",""
"","928","audio-keyboard-response","189","444476","0.0-3.0-1.146","../audio/80-2-masc.mp3"," ","","primo","","","",""
"","1088","audio-keyboard-response","190","445836","0.0-3.0-1.147","../audio/80-3-masc.mp3"," ","","conheceu","","","",""
"","808","audio-keyboard-response","191","446923","0.0-3.0-1.148","../audio/80-4-masc.mp3"," ","","um","","","",""
"","1029","audio-keyboard-response","192","448219","0.0-3.0-1.149","../audio/80-5-masc.mp3"," ","","jovem","","","",""
"","1099","audio-keyboard-response","193","449596","0.0-3.0-1.150","../audio/80-6-masc.mp3"," ","","amável","","","",""
"","1400","audio-keyboard-response","194","451276","0.0-3.0-1.151","../audio/80-7-masc.mp3"," ","","e","","","",""
"","1179","audio-keyboard-response","195","452732","0.0-3.0-1.152","../audio/80-8-masc.mp3"," ","","confiante.","","","",""
"","13079","html-keyboard-response","196","466076","0.0-3.0-2.152-0.152","<span style=""font-size:25px; font-family: monospace"">O primo conheceu um jovem irritante?</span>","n","","","O primo conheceu um jovem irritante?","null","exp-sent","false"
"","null","html-keyboard-response","197","467584","0.0-3.0-0.153-0.153","<span style= ""font-size:30px; font-family: monospace"">+</span>","null","fixation","","","","",""
"","819","audio-keyboard-response","198","468683","0.0-3.0-1.153","../audio/56-1-masc.mp3"," ","","A","","","",""
"","920","audio-keyboard-response","199","469883","0.0-3.0-1.154","../audio/56-2-masc.mp3"," ","","moça","","","",""
"","869","audio-keyboard-response","200","471019","0.0-3.0-1.155","../audio/56-3-masc.mp3"," ","","foi","","","",""
"","739","audio-keyboard-response","201","472044","0.0-3.0-1.156","../audio/56-4-masc.mp3"," ","","à","","","",""
"","760","audio-keyboard-response","202","473084","0.0-3.0-1.157","../audio/56-5-masc.mp3"," ","","agência","","","",""
"","1061","audio-keyboard-response","203","474428","0.0-3.0-1.158","../audio/56-6-masc.mp3"," ","","bancária","","","",""
"","979","audio-keyboard-response","204","475676","0.0-3.0-1.159","../audio/56-7-masc.mp3"," ","","ontem","","","",""
"","760","audio-keyboard-response","205","476700","0.0-3.0-1.160","../audio/56-8-masc.mp3"," ","","de","","","",""
"","811","audio-keyboard-response","206","477788","0.0-3.0-1.161","../audio/56-9-masc.mp3"," ","","tarde.","","","",""
"","null","html-keyboard-response","207","479047","0.0-3.0-0.162-0.162","<span style= ""font-size:30px; font-family: monospace"">+</span>","null","fixation","","","","",""
"","848","audio-keyboard-response","208","480156","0.0-3.0-1.162","../audio/59-1-fem.mp3"," ","","O","","","",""
"","1179","audio-keyboard-response","209","481596","0.0-3.0-1.163","../audio/59-2-fem.mp3"," ","","carteiro","","","",""
"","1059","audio-keyboard-response","210","482924","0.0-3.0-1.164","../audio/59-3-fem.mp3"," ","","fez","","","",""
"","899","audio-keyboard-response","211","484092","0.0-3.0-1.165","../audio/59-4-fem.mp3"," ","","uma","","","",""
"","840","audio-keyboard-response","212","485212","0.0-3.0-1.166","../audio/59-5-fem.mp3"," ","","tentativa","","","",""
"","960","audio-keyboard-response","213","486444","0.0-3.0-1.167","../audio/59-6-fem.mp3"," ","","de","","","",""
"","1240","audio-keyboard-response","214","487964","0.0-3.0-1.168","../audio/59-7-fem.mp3"," ","","entrega.","","","",""
"","null","html-keyboard-response","215","489222","0.0-3.0-0.169-0.169","<span style= ""font-size:30px; font-family: monospace"">+</span>","null","fixation","","","","",""
"","1309","audio-keyboard-response","216","490796","0.0-3.0-1.169","../audio/58-1-fem.mp3"," ","","Havia","","","",""
"","1229","audio-keyboard-response","217","492300","0.0-3.0-1.170","../audio/58-2-fem.mp3"," ","","apenas","","","",""
"","811","audio-keyboard-response","218","493387","0.0-3.0-1.171","../audio/58-3-fem.mp3"," ","","um","","","",""
"","851","audio-keyboard-response","219","494508","0.0-3.0-1.172","../audio/58-4-fem.mp3"," ","","último","","","",""
"","1229","audio-keyboard-response","220","496012","0.0-3.0-1.173","../audio/58-5-fem.mp3"," ","","herdeiro","","","",""
"","851","audio-keyboard-response","221","497132","0.0-3.0-1.174","../audio/58-6-fem.mp3"," ","","do","","","",""
"","1400","audio-keyboard-response","222","498812","0.0-3.0-1.175","../audio/58-7-fem.mp3"," ","","dinheiro.","","","",""
"","null","html-keyboard-response","223","500070","0.0-3.0-0.176-0.176","<span style= ""font-size:30px; font-family: monospace"">+</span>","null","fixation","","","","",""
"","600","audio-keyboard-response","224","500940","0.0-3.0-1.176","../audio/57-1-masc.mp3"," ","","O","","","",""
"","939","audio-keyboard-response","225","502156","0.0-3.0-1.177","../audio/57-2-masc.mp3"," ","","capitão","","","",""
"","880","audio-keyboard-response","226","503308","0.0-3.0-1.178","../audio/57-3-masc.mp3"," ","","deu","","","",""
"","899","audio-keyboard-response","227","504476","0.0-3.0-1.179","../audio/57-4-masc.mp3"," ","","uma","","","",""
"","821","audio-keyboard-response","228","505580","0.0-3.0-1.180","../audio/57-5-masc.mp3"," ","","instrução","","","",""
"","1040","audio-keyboard-response","229","506892","0.0-3.0-1.181","../audio/57-6-masc.mp3"," ","","para","","","",""
"","1021","audio-keyboard-response","230","508188","0.0-3.0-1.182","../audio/57-7-masc.mp3"," ","","as","","","",""
"","1109","audio-keyboard-response","231","509580","0.0-3.0-1.183","../audio/57-8-masc.mp3"," ","","pessoas.","","","",""
"","null","html-keyboard-response","232","510835","0.0-3.0-0.184-0.184","<span style= ""font-size:30px; font-family: monospace"">+</span>","null","fixation","","","","",""
"","1000","audio-keyboard-response","233","512124","0.0-3.0-1.184","../audio/60-1-masc.mp3"," ","","Ondas","","","",""
"","1240","audio-keyboard-response","234","513644","0.0-3.0-1.185","../audio/60-2-masc.mp3"," ","","têm","","","",""
"","928","audio-keyboard-response","235","514844","0.0-3.0-1.186","../audio/60-3-masc.mp3"," ","","um","","","",""
"","1501","audio-keyboard-response","236","516620","0.0-3.0-1.187","../audio/60-4-masc.mp3"," ","","impacto","","","",""
"","1819","audio-keyboard-response","237","518716","0.0-3.0-1.188","../audio/60-5-masc.mp3"," ","","destrutivo","","","",""
"","1019","audio-keyboard-response","238","520012","0.0-3.0-1.189","../audio/60-6-masc.mp3"," ","","no","","","",""
"","1880","audio-keyboard-response","239","522172","0.0-3.0-1.190","../audio/60-7-masc.mp3"," ","","litoral.","","","",""
"","8600","html-keyboard-response","240","531036","0.0-3.0-2.190-0.190","<span style=""font-size:25px; font-family: monospace"">Ondas têm um impacto destrutivo?</span>","s","","","Ondas têm um impacto destrutivo?","null","exp-sent","false"
"","null","html-keyboard-response","241","532547","0.0-3.0-0.191-0.191","<span style= ""font-size:30px; font-family: monospace"">+</span>","null","fixation","","","","",""
"","1000","audio-keyboard-response","242","533819","0.0-3.0-1.191","../audio/33-1-masc.mp3"," ","","Eles","","","",""
"","1141","audio-keyboard-response","243","535227","0.0-3.0-1.192","../audio/33-2-masc.mp3"," ","","sabem","","","",""
"","909","audio-keyboard-response","244","536411","0.0-3.0-1.193","../audio/33-3-masc.mp3"," ","","do","","","",""
"","941","audio-keyboard-response","245","537627","0.0-3.0-1.194","../audio/33-4-masc.mp3"," ","","seu","","","",""
"","1488","audio-keyboard-response","246","539404","0.0-3.0-1.195","../audio/33-5-masc.mp3"," ","","privilégio","","","",""
"","1400","audio-keyboard-response","247","541084","0.0-3.0-1.196","../audio/33-6-masc.mp3"," ","","nessa","","","",""
"","1291","audio-keyboard-response","248","542651","0.0-3.0-1.197","../audio/33-7-masc.mp3"," ","","confusão.","","","",""
"","null","html-keyboard-response","249","543917","0.0-3.0-0.198-0.198","<span style= ""font-size:30px; font-family: monospace"">+</span>","null","fixation","","","","",""
"","819","audio-keyboard-response","250","545003","0.0-3.0-1.198","../audio/31-1-fem.mp3"," ","","O","","","",""
"","1341","audio-keyboard-response","251","546619","0.0-3.0-1.199","../audio/31-2-fem.mp3"," ","","padeiro","","","",""
"","979","audio-keyboard-response","252","547883","0.0-3.0-1.200","../audio/31-3-fem.mp3"," ","","usou","","","",""
"","701","audio-keyboard-response","253","548859","0.0-3.0-1.201","../audio/31-4-fem.mp3"," ","","a","","","",""
"","1349","audio-keyboard-response","254","550491","0.0-3.0-1.202","../audio/31-5-fem.mp3"," ","","balança","","","",""
"","792","audio-keyboard-response","255","551547","0.0-3.0-1.203","../audio/31-6-fem.mp3"," ","","o","","","",""
"","960","audio-keyboard-response","256","552779","0.0-3.0-1.204","../audio/31-7-fem.mp3"," ","","dia","","","",""
"","800","audio-keyboard-response","257","553851","0.0-3.0-1.205","../audio/31-8-fem.mp3"," ","","inteiro.","","","",""
"","null","html-keyboard-response","258","555116","0.0-3.0-0.206-0.206","<span style= ""font-size:30px; font-family: monospace"">+</span>","null","fixation","","","","",""
"","691","audio-keyboard-response","259","556091","0.0-3.0-1.206","../audio/32-1-fem.mp3"," ","","A","","","",""
"","861","audio-keyboard-response","260","557227","0.0-3.0-1.207","../audio/32-2-fem.mp3"," ","","tia","","","",""
"","1008","audio-keyboard-response","261","558523","0.0-3.0-1.208","../audio/32-3-fem.mp3"," ","","comprou","","","",""
"","840","audio-keyboard-response","262","559643","0.0-3.0-1.209","../audio/32-4-fem.mp3"," ","","um","","","",""
"","1029","audio-keyboard-response","263","560939","0.0-3.0-1.210","../audio/32-5-fem.mp3"," ","","pilão","","","",""
"","1069","audio-keyboard-response","264","562283","0.0-3.0-1.211","../audio/32-6-fem.mp3"," ","","para","","","",""
"","800","audio-keyboard-response","265","563355","0.0-3.0-1.212","../audio/32-7-fem.mp3"," ","","a","","","",""
"","960","audio-keyboard-response","266","564587","0.0-3.0-1.213","../audio/32-8-fem.mp3"," ","","cozinha.","","","",""
"","null","html-keyboard-response","267","565847","0.0-3.0-0.214-0.214","<span style= ""font-size:30px; font-family: monospace"">+</span>","null","fixation","","","","",""
"","1120","audio-keyboard-response","268","567243","0.0-3.0-1.214","../audio/34-1-masc.mp3"," ","","Cobrança","","","",""
"","1261","audio-keyboard-response","269","568779","0.0-3.0-1.215","../audio/34-2-masc.mp3"," ","","excessiva","","","",""
"","909","audio-keyboard-response","270","569963","0.0-3.0-1.216","../audio/34-3-masc.mp3"," ","","é","","","",""
"","832","audio-keyboard-response","271","571067","0.0-3.0-1.217","../audio/34-4-masc.mp3"," ","","um","","","",""
"","819","audio-keyboard-response","272","572155","0.0-3.0-1.218","../audio/34-5-masc.mp3"," ","","fardo","","","",""
"","819","audio-keyboard-response","273","573244","0.0-3.0-1.219","../audio/34-6-masc.mp3"," ","","para","","","",""
"","659","audio-keyboard-response","274","574171","0.0-3.0-1.220","../audio/34-7-masc.mp3"," ","","a","","","",""
"","960","audio-keyboard-response","275","575403","0.0-3.0-1.221","../audio/34-8-masc.mp3"," ","","cabeça.","","","",""
"","null","html-keyboard-response","276","576660","0.0-3.0-0.222-0.222","<span style= ""font-size:30px; font-family: monospace"">+</span>","null","fixation","","","","",""
"","509","audio-keyboard-response","277","577451","0.0-3.0-1.222","../audio/35-1-masc.mp3"," ","","A","","","",""
"","829","audio-keyboard-response","278","578555","0.0-3.0-1.223","../audio/35-2-masc.mp3"," ","","receita","","","",""
"","811","audio-keyboard-response","279","579627","0.0-3.0-1.224","../audio/35-3-masc.mp3"," ","","para","","","",""
"","789","audio-keyboard-response","280","580699","0.0-3.0-1.225","../audio/35-4-masc.mp3"," ","","a","","","",""
"","1291","audio-keyboard-response","281","582267","0.0-3.0-1.226","../audio/35-5-masc.mp3"," ","","preparação","","","",""
"","760","audio-keyboard-response","282","583292","0.0-3.0-1.227","../audio/35-6-masc.mp3"," ","","do","","","",""
"","1061","audio-keyboard-response","283","584619","0.0-3.0-1.228","../audio/35-7-masc.mp3"," ","","bolo","","","",""
"","1019","audio-keyboard-response","284","585915","0.0-3.0-1.229","../audio/35-8-masc.mp3"," ","","é","","","",""
"","1069","audio-keyboard-response","285","587260","0.0-3.0-1.230","../audio/35-9-masc.mp3"," ","","leve.","","","",""
"","7687","html-keyboard-response","286","595211","0.0-3.0-2.230-0.230","<span style=""font-size:25px; font-family: monospace"">A receita do bolo é pesada?</span>","n","","","A receita do bolo é pesada?","null","exp-sent","false"
"","null","html-keyboard-response","287","596719","0.0-3.0-0.231-0.231","<span style= ""font-size:30px; font-family: monospace"">+</span>","null","fixation","","","","",""
"","2320","audio-keyboard-response","288","599307","0.0-3.0-1.231","../audio/24-1-fem.mp3"," ","","As","","","",""
"","1088","audio-keyboard-response","289","600682","0.0-3.0-1.232","../audio/24-2-fem.mp3"," ","","crianças","","","",""
"","800","audio-keyboard-response","290","601771","0.0-3.0-1.233","../audio/24-3-fem.mp3"," ","","vão","","","",""
"","760","audio-keyboard-response","291","602794","0.0-3.0-1.234","../audio/24-4-fem.mp3"," ","","ao","","","",""
"","1381","audio-keyboard-response","292","604459","0.0-3.0-1.235","../audio/24-5-fem.mp3"," ","","cinema","","","",""
"","821","audio-keyboard-response","293","605547","0.0-3.0-1.236","../audio/24-6-fem.mp3"," ","","mais","","","",""
"","960","audio-keyboard-response","294","606779","0.0-3.0-1.237","../audio/24-7-fem.mp3"," ","","tarde.","","","",""
"","null","html-keyboard-response","295","608033","0.0-3.0-0.238-0.238","<span style= ""font-size:30px; font-family: monospace"">+</span>","null","fixation","","","","",""
"","1232","audio-keyboard-response","296","609547","0.0-3.0-1.238","../audio/23-1-masc.mp3"," ","","Português","","","",""
"","771","audio-keyboard-response","297","610587","0.0-3.0-1.239","../audio/23-2-masc.mp3"," ","","é","","","",""
"","720","audio-keyboard-response","298","611579","0.0-3.0-1.240","../audio/23-3-masc.mp3"," ","","um","","","",""
"","1291","audio-keyboard-response","299","613131","0.0-3.0-1.241","../audio/23-4-masc.mp3"," ","","assunto","","","",""
"","1432","audio-keyboard-response","300","614827","0.0-3.0-1.242","../audio/23-5-masc.mp3"," ","","elementar","","","",""
"","1008","audio-keyboard-response","301","616123","0.0-3.0-1.243","../audio/23-6-masc.mp3"," ","","para","","","",""
"","920","audio-keyboard-response","302","617307","0.0-3.0-1.244","../audio/23-7-masc.mp3"," ","","os","","","",""
"","859","audio-keyboard-response","303","618443","0.0-3.0-1.245","../audio/23-8-masc.mp3"," ","","alunos.","","","",""
"","null","html-keyboard-response","304","619721","0.0-3.0-0.246-0.246","<span style= ""font-size:30px; font-family: monospace"">+</span>","null","fixation","","","","",""
"","709","audio-keyboard-response","305","620715","0.0-3.0-1.246","../audio/22-1-masc.mp3"," ","","Eu","","","",""
"","848","audio-keyboard-response","306","621835","0.0-3.0-1.247","../audio/22-2-masc.mp3"," ","","detesto","","","",""
"","771","audio-keyboard-response","307","622891","0.0-3.0-1.248","../audio/22-3-masc.mp3"," ","","fumaça","","","",""
"","771","audio-keyboard-response","308","623931","0.0-3.0-1.249","../audio/22-4-masc.mp3"," ","","de","","","",""
"","1211","audio-keyboard-response","309","625418","0.0-3.0-1.250","../audio/22-5-masc.mp3"," ","","cachimbo","","","",""
"","789","audio-keyboard-response","310","626475","0.0-3.0-1.251","../audio/22-6-masc.mp3"," ","","e","","","",""
"","789","audio-keyboard-response","311","627530","0.0-3.0-1.252","../audio/22-7-masc.mp3"," ","","de","","","",""
"","1000","audio-keyboard-response","312","628811","0.0-3.0-1.253","../audio/22-8-masc.mp3"," ","","cigarro.","","","",""
"","null","html-keyboard-response","313","630075","0.0-3.0-0.254-0.254","<span style= ""font-size:30px; font-family: monospace"">+</span>","null","fixation","","","","",""
"","1781","audio-keyboard-response","314","632139","0.0-3.0-1.254","../audio/21-1-fem.mp3"," ","","Precisamos","","","",""
"","851","audio-keyboard-response","315","633259","0.0-3.0-1.255","../audio/21-2-fem.mp3"," ","","de","","","",""
"","1579","audio-keyboard-response","316","635115","0.0-3.0-1.256","../audio/21-3-fem.mp3"," ","","paciência","","","",""
"","1048","audio-keyboard-response","317","636442","0.0-3.0-1.257","../audio/21-4-fem.mp3"," ","","e","","","",""
"","1200","audio-keyboard-response","318","637915","0.0-3.0-1.258","../audio/21-5-fem.mp3"," ","","bondade","","","",""
"","960","audio-keyboard-response","319","639162","0.0-3.0-1.259","../audio/21-6-fem.mp3"," ","","para","","","",""
"","819","audio-keyboard-response","320","640251","0.0-3.0-1.260","../audio/21-7-fem.mp3"," ","","um","","","",""
"","1109","audio-keyboard-response","321","641643","0.0-3.0-1.261","../audio/21-8-fem.mp3"," ","","mundo","","","",""
"","1240","audio-keyboard-response","322","643163","0.0-3.0-1.262","../audio/21-9-fem.mp3"," ","","melhor.","","","",""
"","null","html-keyboard-response","323","644425","0.0-3.0-0.263-0.263","<span style= ""font-size:30px; font-family: monospace"">+</span>","null","fixation","","","","",""
"","888","audio-keyboard-response","324","645595","0.0-3.0-1.263","../audio/25-1-masc.mp3"," ","","Ela","","","",""
"","899","audio-keyboard-response","325","646762","0.0-3.0-1.264","../audio/25-2-masc.mp3"," ","","faz","","","",""
"","968","audio-keyboard-response","326","647995","0.0-3.0-1.265","../audio/25-3-masc.mp3"," ","","tanto","","","",""
"","1219","audio-keyboard-response","327","649482","0.0-3.0-1.266","../audio/25-4-masc.mp3"," ","","cabelo","","","",""
"","1008","audio-keyboard-response","328","650762","0.0-3.0-1.267","../audio/25-5-masc.mp3"," ","","liso","","","",""
"","979","audio-keyboard-response","329","652011","0.0-3.0-1.268","../audio/25-6-masc.mp3"," ","","quanto","","","",""
"","931","audio-keyboard-response","330","653211","0.0-3.0-1.269","../audio/25-7-masc.mp3"," ","","cacheado.","","","",""
"","8169","html-keyboard-response","331","661642","0.0-3.0-2.269-0.269","<span style=""font-size:25px; font-family: monospace"">Ela só faz cabelo cacheado?</span>","s","","","Ela só faz cabelo cacheado?","null","exp-sent","false"
"","null","html-keyboard-response","332","663151","0.0-3.0-0.270-0.270","<span style= ""font-size:30px; font-family: monospace"">+</span>","null","fixation","","","","",""
"","571","audio-keyboard-response","333","664010","0.0-3.0-1.270","../audio/64-1-fem.mp3"," ","","O","","","",""
"","811","audio-keyboard-response","334","665098","0.0-3.0-1.271","../audio/64-2-fem.mp3"," ","","dia","","","",""
"","960","audio-keyboard-response","335","666330","0.0-3.0-1.272","../audio/64-3-fem.mp3"," ","","começou","","","",""
"","800","audio-keyboard-response","336","667402","0.0-3.0-1.273","../audio/64-4-fem.mp3"," ","","com","","","",""
"","701","audio-keyboard-response","337","668378","0.0-3.0-1.274","../audio/64-5-fem.mp3"," ","","garoa","","","",""
"","1331","audio-keyboard-response","338","669978","0.0-3.0-1.275","../audio/64-6-fem.mp3"," ","","gelada","","","",""
"","680","audio-keyboard-response","339","670938","0.0-3.0-1.276","../audio/64-7-fem.mp3"," ","","e","","","",""
"","901","audio-keyboard-response","340","672106","0.0-3.0-1.277","../audio/64-8-fem.mp3"," ","","leve.","","","",""
"","null","html-keyboard-response","341","673369","0.0-3.0-0.278-0.278","<span style= ""font-size:30px; font-family: monospace"">+</span>","null","fixation","","","","",""
"","731","audio-keyboard-response","342","674378","0.0-3.0-1.278","../audio/63-1-fem.mp3"," ","","A","","","",""
"","1309","audio-keyboard-response","343","675962","0.0-3.0-1.279","../audio/63-2-fem.mp3"," ","","chuva","","","",""
"","1040","audio-keyboard-response","344","677290","0.0-3.0-1.280","../audio/63-3-fem.mp3"," ","","entrou","","","",""
"","920","audio-keyboard-response","345","678490","0.0-3.0-1.281","../audio/63-4-fem.mp3"," ","","pela","","","",""
"","1560","audio-keyboard-response","346","680330","0.0-3.0-1.282","../audio/63-5-fem.mp3"," ","","abertura","","","",""
"","869","audio-keyboard-response","347","681482","0.0-3.0-1.283","../audio/63-6-fem.mp3"," ","","na","","","",""
"","1840","audio-keyboard-response","348","683594","0.0-3.0-1.284","../audio/63-7-fem.mp3"," ","","janela.","","","",""
"","null","html-keyboard-response","349","684847","0.0-3.0-0.285-0.285","<span style= ""font-size:30px; font-family: monospace"">+</span>","null","fixation","","","","",""
"","1011","audio-keyboard-response","350","686138","0.0-3.0-1.285","../audio/61-1-fem.mp3"," ","","Aquele","","","",""
"","1059","audio-keyboard-response","351","687482","0.0-3.0-1.286","../audio/61-2-fem.mp3"," ","","senhor","","","",""
"","739","audio-keyboard-response","352","688490","0.0-3.0-1.287","../audio/61-3-fem.mp3"," ","","é","","","",""
"","880","audio-keyboard-response","353","689642","0.0-3.0-1.288","../audio/61-4-fem.mp3"," ","","muito","","","",""
"","1200","audio-keyboard-response","354","691114","0.0-3.0-1.289","../audio/61-5-fem.mp3"," ","","sovina","","","",""
"","808","audio-keyboard-response","355","692202","0.0-3.0-1.290","../audio/61-6-fem.mp3"," ","","e","","","",""
"","1800","audio-keyboard-response","356","694266","0.0-3.0-1.291","../audio/61-7-fem.mp3"," ","","inflexível.","","","",""
"","null","html-keyboard-response","357","695529","0.0-3.0-0.292-0.292","<span style= ""font-size:30px; font-family: monospace"">+</span>","null","fixation","","","","",""
"","8139","audio-keyboard-response","358","703962","0.0-3.0-1.292","../audio/62-1-fem.mp3"," ","","As","","","",""
"","1520","audio-keyboard-response","359","705754","0.0-3.0-1.293","../audio/62-2-fem.mp3"," ","","artesãs","","","",""
"","1379","audio-keyboard-response","360","707402","0.0-3.0-1.294","../audio/62-3-fem.mp3"," ","","gostam","","","",""
"","1661","audio-keyboard-response","361","709338","0.0-3.0-1.295","../audio/62-4-fem.mp3"," ","","de","","","",""
"","4501","audio-keyboard-response","362","714106","0.0-3.0-1.296","../audio/62-5-fem.mp3"," ","","maquiagem","","","",""
"","4669","audio-keyboard-response","363","719050","0.0-3.0-1.297","../audio/62-6-fem.mp3"," ","","e","","","",""
"","1240","audio-keyboard-response","364","720570","0.0-3.0-1.298","../audio/62-7-fem.mp3"," ","","de","","","",""
"","1461","audio-keyboard-response","365","722298","0.0-3.0-1.299","../audio/62-8-fem.mp3"," ","","crochê.","","","",""
"","null","html-keyboard-response","366","723552","0.0-3.0-0.300-0.300","<span style= ""font-size:30px; font-family: monospace"">+</span>","null","fixation","","","","",""
"","731","audio-keyboard-response","367","724570","0.0-3.0-1.300","../audio/65-1-fem.mp3"," ","","O","","","",""
"","1451","audio-keyboard-response","368","726298","0.0-3.0-1.301","../audio/65-2-fem.mp3"," ","","fantasma","","","",""
"","1120","audio-keyboard-response","369","727690","0.0-3.0-1.302","../audio/65-3-fem.mp3"," ","","veio","","","",""
"","1032","audio-keyboard-response","370","728986","0.0-3.0-1.303","../audio/65-4-fem.mp3"," ","","da","","","",""
"","1731","audio-keyboard-response","371","730986","0.0-3.0-1.304","../audio/65-5-fem.mp3"," ","","escuridão","","","",""
"","739","audio-keyboard-response","372","731994","0.0-3.0-1.305","../audio/65-6-fem.mp3"," ","","do","","","",""
"","1269","audio-keyboard-response","373","733530","0.0-3.0-1.306","../audio/65-7-fem.mp3"," ","","armário.","","","",""
"","21707","html-keyboard-response","374","755498","0.0-3.0-2.306-0.306","<span style=""font-size:25px; font-family: monospace"">O fantasma veio da escuridão do armário?</span>","s","","","O fantasma veio da escuridão do armário?","null","exp-sent","false"
"","null","html-keyboard-response","375","757005","0.0-3.0-0.307-0.307","<span style= ""font-size:30px; font-family: monospace"">+</span>","null","fixation","","","","",""
"","709","audio-keyboard-response","376","757994","0.0-3.0-1.307","../audio/41-1-fem.mp3"," ","","A","","","",""
"","1120","audio-keyboard-response","377","759386","0.0-3.0-1.308","../audio/41-2-fem.mp3"," ","","novela","","","",""
"","1429","audio-keyboard-response","378","761098","0.0-3.0-1.309","../audio/41-3-fem.mp3"," ","","falava","","","",""
"","1061","audio-keyboard-response","379","762426","0.0-3.0-1.310","../audio/41-4-fem.mp3"," ","","de","","","",""
"","1109","audio-keyboard-response","380","763818","0.0-3.0-1.311","../audio/41-5-fem.mp3"," ","","paixão","","","",""
"","661","audio-keyboard-response","381","764746","0.0-3.0-1.312","../audio/41-6-fem.mp3"," ","","e","","","",""
"","960","audio-keyboard-response","382","765978","0.0-3.0-1.313","../audio/41-7-fem.mp3"," ","","comédia.","","","",""
"","null","html-keyboard-response","383","767243","0.0-3.0-0.314-0.314","<span style= ""font-size:30px; font-family: monospace"">+</span>","null","fixation","","","","",""
"","589","audio-keyboard-response","384","768122","0.0-3.0-1.314","../audio/43-1-masc.mp3"," ","","Eu","","","",""
"","992","audio-keyboard-response","385","769386","0.0-3.0-1.315","../audio/43-2-masc.mp3"," ","","achei","","","",""
"","819","audio-keyboard-response","386","770490","0.0-3.0-1.316","../audio/43-3-masc.mp3"," ","","um","","","",""
"","1032","audio-keyboard-response","387","771786","0.0-3.0-1.317","../audio/43-4-masc.mp3"," ","","colchão","","","",""
"","1040","audio-keyboard-response","388","773098","0.0-3.0-1.318","../audio/43-5-masc.mp3"," ","","velho","","","",""
"","920","audio-keyboard-response","389","774298","0.0-3.0-1.319","../audio/43-6-masc.mp3"," ","","e","","","",""
"","1320","audio-keyboard-response","390","775898","0.0-3.0-1.320","../audio/43-7-masc.mp3"," ","","imundo","","","",""
"","1139","audio-keyboard-response","391","777322","0.0-3.0-1.321","../audio/43-8-masc.mp3"," ","","na","","","",""
"","840","audio-keyboard-response","392","778426","0.0-3.0-1.322","../audio/43-9-masc.mp3"," ","","casa.","","","",""
"","null","html-keyboard-response","393","779680","0.0-3.0-0.323-0.323","<span style= ""font-size:30px; font-family: monospace"">+</span>","null","fixation","","","","",""
"","1829","audio-keyboard-response","394","781802","0.0-3.0-1.323","../audio/44-1-masc.mp3"," ","","Meus","","","",""
"","1421","audio-keyboard-response","395","783497","0.0-3.0-1.324","../audio/44-2-masc.mp3"," ","","irmãos","","","",""
"","1139","audio-keyboard-response","396","784921","0.0-3.0-1.325","../audio/44-3-masc.mp3"," ","","brigam","","","",""
"","1312","audio-keyboard-response","397","786505","0.0-3.0-1.326","../audio/44-4-masc.mp3"," ","","por","","","",""
"","1059","audio-keyboard-response","398","787849","0.0-3.0-1.327","../audio/44-5-masc.mp3"," ","","bobagem","","","",""
"","749","audio-keyboard-response","399","788873","0.0-3.0-1.328","../audio/44-6-masc.mp3"," ","","todos","","","",""
"","24000","audio-keyboard-response","400","813146","0.0-3.0-1.329","../audio/44-7-masc.mp3"," ","","os","","","",""
"","3059","audio-keyboard-response","401","816490","0.0-3.0-1.330","../audio/44-8-masc.mp3"," ","","dias.","","","",""
"","null","html-keyboard-response","402","817756","0.0-3.0-0.331-0.331","<span style= ""font-size:30px; font-family: monospace"">+</span>","null","fixation","","","","",""
"","2760","audio-keyboard-response","403","820793","0.0-3.0-1.331","../audio/42-1-fem.mp3"," ","","Eu","","","",""
"","1680","audio-keyboard-response","404","822761","0.0-3.0-1.332","../audio/42-2-fem.mp3"," ","","fui","","","",""
"","1581","audio-keyboard-response","405","824617","0.0-3.0-1.333","../audio/42-3-fem.mp3"," ","","a","","","",""
"","1309","audio-keyboard-response","406","826201","0.0-3.0-1.334","../audio/42-4-fem.mp3"," ","","uma","","","",""
"","1459","audio-keyboard-response","407","827929","0.0-3.0-1.335","../audio/42-5-fem.mp3"," ","","loja","","","",""
"","701","audio-keyboard-response","408","828905","0.0-3.0-1.336","../audio/42-6-fem.mp3"," ","","de","","","",""
"","1379","audio-keyboard-response","409","830569","0.0-3.0-1.337","../audio/42-7-fem.mp3"," ","","móveis","","","",""
"","880","audio-keyboard-response","410","831721","0.0-3.0-1.338","../audio/42-8-fem.mp3"," ","","no","","","",""
"","1299","audio-keyboard-response","411","833289","0.0-3.0-1.339","../audio/42-9-fem.mp3"," ","","bairro.","","","",""
"","null","html-keyboard-response","412","834542","0.0-3.0-0.340-0.340","<span style= ""font-size:30px; font-family: monospace"">+</span>","null","fixation","","","","",""
"","709","audio-keyboard-response","413","835529","0.0-3.0-1.340","../audio/45-1-masc.mp3"," ","","O","","","",""
"","920","audio-keyboard-response","414","836729","0.0-3.0-1.341","../audio/45-2-masc.mp3"," ","","homem","","","",""
"","1141","audio-keyboard-response","415","838137","0.0-3.0-1.342","../audio/45-3-masc.mp3"," ","","pagou","","","",""
"","800","audio-keyboard-response","416","839193","0.0-3.0-1.343","../audio/45-4-masc.mp3"," ","","o","","","",""
"","1128","audio-keyboard-response","417","840602","0.0-3.0-1.344","../audio/45-5-masc.mp3"," ","","aluguel","","","",""
"","880","audio-keyboard-response","418","841753","0.0-3.0-1.345","../audio/45-6-masc.mp3"," ","","com","","","",""
"","1579","audio-keyboard-response","419","843609","0.0-3.0-1.346","../audio/45-7-masc.mp3"," ","","atraso.","","","",""
"","8612","html-keyboard-response","420","852473","0.0-3.0-2.346-0.346","<span style=""font-size:25px; font-family: monospace"">O homem pagou o aluguel em dia?</span>","n","","","O homem pagou o aluguel em dia?","null","exp-sent","false"
"","null","html-keyboard-response","421","854000","0.0-3.0-0.347-0.347","<span style= ""font-size:30px; font-family: monospace"">+</span>","null","fixation","","","","",""
"","760","audio-keyboard-response","422","855049","0.0-3.0-1.347","../audio/13-1-fem.mp3"," ","","Para","","","",""
"","811","audio-keyboard-response","423","856137","0.0-3.0-1.348","../audio/13-2-fem.mp3"," ","","mim","","","",""
"","789","audio-keyboard-response","424","857193","0.0-3.0-1.349","../audio/13-3-fem.mp3"," ","","é","","","",""
"","1109","audio-keyboard-response","425","858569","0.0-3.0-1.350","../audio/13-4-fem.mp3"," ","","muito","","","",""
"","981","audio-keyboard-response","426","859817","0.0-3.0-1.351","../audio/13-5-fem.mp3"," ","","difícil","","","",""
"","1200","audio-keyboard-response","427","861289","0.0-3.0-1.352","../audio/13-6-fem.mp3"," ","","acordar","","","",""
"","851","audio-keyboard-response","428","862409","0.0-3.0-1.353","../audio/13-7-fem.mp3"," ","","cedo.","","","",""
"","null","html-keyboard-response","429","863680","0.0-3.0-0.354-0.354","<span style= ""font-size:30px; font-family: monospace"">+</span>","null","fixation","","","","",""
"","1520","audio-keyboard-response","430","865465","0.0-3.0-1.354","../audio/11-1-fem.mp3"," ","","Elas","","","",""
"","1069","audio-keyboard-response","431","866809","0.0-3.0-1.355","../audio/11-2-fem.mp3"," ","","gostam","","","",""
"","971","audio-keyboard-response","432","868057","0.0-3.0-1.356","../audio/11-3-fem.mp3"," ","","muito","","","",""
"","640","audio-keyboard-response","433","868969","0.0-3.0-1.357","../audio/11-4-fem.mp3"," ","","de","","","",""
"","1560","audio-keyboard-response","434","870809","0.0-3.0-1.358","../audio/11-5-fem.mp3"," ","","aritmética","","","",""
"","880","audio-keyboard-response","435","871961","0.0-3.0-1.359","../audio/11-6-fem.mp3"," ","","e","","","",""
"","688","audio-keyboard-response","436","872921","0.0-3.0-1.360","../audio/11-7-fem.mp3"," ","","de","","","",""
"","1219","audio-keyboard-response","437","874409","0.0-3.0-1.361","../audio/11-8-fem.mp3"," ","","leitura.","","","",""
"","null","html-keyboard-response","438","875673","0.0-3.0-0.362-0.362","<span style= ""font-size:30px; font-family: monospace"">+</span>","null","fixation","","","","",""
"","792","audio-keyboard-response","439","876745","0.0-3.0-1.362","../audio/12-1-masc.mp3"," ","","O","","","",""
"","680","audio-keyboard-response","440","877689","0.0-3.0-1.363","../audio/12-2-masc.mp3"," ","","dia","","","",""
"","800","audio-keyboard-response","441","878761","0.0-3.0-1.364","../audio/12-3-masc.mp3"," ","","estava","","","",""
"","869","audio-keyboard-response","442","879897","0.0-3.0-1.365","../audio/12-4-masc.mp3"," ","","quente,","","","",""
"","891","audio-keyboard-response","443","881065","0.0-3.0-1.366","../audio/12-5-masc.mp3"," ","","tranquilo","","","",""
"","760","audio-keyboard-response","444","882105","0.0-3.0-1.367","../audio/12-6-masc.mp3"," ","","e","","","",""
"","819","audio-keyboard-response","445","883209","0.0-3.0-1.368","../audio/12-7-masc.mp3"," ","","ensolarado.","","","",""
"","null","html-keyboard-response","446","884478","0.0-3.0-0.369-0.369","<span style= ""font-size:30px; font-family: monospace"">+</span>","null","fixation","","","","",""
"","581","audio-keyboard-response","447","885337","0.0-3.0-1.369","../audio/14-1-masc.mp3"," ","","O","","","",""
"","912","audio-keyboard-response","448","886505","0.0-3.0-1.370","../audio/14-2-masc.mp3"," ","","cachorro","","","",""
"","720","audio-keyboard-response","449","887497","0.0-3.0-1.371","../audio/14-3-masc.mp3"," ","","é","","","",""
"","819","audio-keyboard-response","450","888601","0.0-3.0-1.372","../audio/14-4-masc.mp3"," ","","muito","","","",""
"","749","audio-keyboard-response","451","889641","0.0-3.0-1.373","../audio/14-5-masc.mp3"," ","","fiel","","","",""
"","672","audio-keyboard-response","452","890585","0.0-3.0-1.374","../audio/14-6-masc.mp3"," ","","a","","","",""
"","1008","audio-keyboard-response","453","891881","0.0-3.0-1.375","../audio/14-7-masc.mp3"," ","","seus","","","",""
"","1128","audio-keyboard-response","454","893273","0.0-3.0-1.376","../audio/14-8-masc.mp3"," ","","donos.","","","",""
"","null","html-keyboard-response","455","894526","0.0-3.0-0.377-0.377","<span style= ""font-size:30px; font-family: monospace"">+</span>","null","fixation","","","","",""
"","611","audio-keyboard-response","456","895417","0.0-3.0-1.377","../audio/15-1-fem.mp3"," ","","Meu","","","",""
"","669","audio-keyboard-response","457","896361","0.0-3.0-1.378","../audio/15-2-fem.mp3"," ","","primo","","","",""
"","560","audio-keyboard-response","458","897193","0.0-3.0-1.379","../audio/15-3-fem.mp3"," ","","é","","","",""
"","749","audio-keyboard-response","459","898217","0.0-3.0-1.380","../audio/15-4-fem.mp3"," ","","um","","","",""
"","909","audio-keyboard-response","460","899401","0.0-3.0-1.381","../audio/15-5-fem.mp3"," ","","grande","","","",""
"","659","audio-keyboard-response","461","900329","0.0-3.0-1.382","../audio/15-6-fem.mp3"," ","","vendedor","","","",""
"","712","audio-keyboard-response","462","901305","0.0-3.0-1.383","../audio/15-7-fem.mp3"," ","","de","","","",""
"","648","audio-keyboard-response","463","902233","0.0-3.0-1.384","../audio/15-8-fem.mp3"," ","","carros.","","","",""
"","9170","html-keyboard-response","464","911657","0.0-3.0-2.384-0.384","<span style=""font-size:25px; font-family: monospace"">O primo é um vendedor de carros?</span>","s","","","O primo é um vendedor de carros?","null","exp-sent","false"
"","null","html-keyboard-response","465","913158","0.0-3.0-0.385-0.385","<span style= ""font-size:30px; font-family: monospace"">+</span>","null","fixation","","","","",""
"","1741","audio-keyboard-response","466","915177","0.0-3.0-1.385","../audio/09-1-masc.mp3"," ","","O","","","",""
"","1211","audio-keyboard-response","467","916665","0.0-3.0-1.386","../audio/09-2-masc.mp3"," ","","rapaz","","","",""
"","869","audio-keyboard-response","468","917817","0.0-3.0-1.387","../audio/09-3-masc.mp3"," ","","limpou","","","",""
"","752","audio-keyboard-response","469","918825","0.0-3.0-1.388","../audio/09-4-masc.mp3"," ","","o","","","",""
"","699","audio-keyboard-response","470","919801","0.0-3.0-1.389","../audio/09-5-masc.mp3"," ","","terreno","","","",""
"","549","audio-keyboard-response","471","920617","0.0-3.0-1.390","../audio/09-6-masc.mp3"," ","","com","","","",""
"","549","audio-keyboard-response","472","921433","0.0-3.0-1.391","../audio/09-7-masc.mp3"," ","","uma","","","",""
"","539","audio-keyboard-response","473","922233","0.0-3.0-1.392","../audio/09-8-masc.mp3"," ","","pá.","","","",""
"","null","html-keyboard-response","474","923501","0.0-3.0-0.393-0.393","<span style= ""font-size:30px; font-family: monospace"">+</span>","null","fixation","","","","",""
"","611","audio-keyboard-response","475","924377","0.0-3.0-1.393","../audio/08-1-fem.mp3"," ","","A","","","",""
"","989","audio-keyboard-response","476","925642","0.0-3.0-1.394","../audio/08-2-fem.mp3"," ","","receita","","","",""
"","920","audio-keyboard-response","477","926825","0.0-3.0-1.395","../audio/08-3-fem.mp3"," ","","pede","","","",""
"","571","audio-keyboard-response","478","927657","0.0-3.0-1.396","../audio/08-4-fem.mp3"," ","","um","","","",""
"","709","audio-keyboard-response","479","928633","0.0-3.0-1.397","../audio/08-5-fem.mp3"," ","","litro","","","",""
"","699","audio-keyboard-response","480","929609","0.0-3.0-1.398","../audio/08-6-fem.mp3"," ","","de","","","",""
"","709","audio-keyboard-response","481","930601","0.0-3.0-1.399","../audio/08-7-fem.mp3"," ","","leite","","","",""
"","1109","audio-keyboard-response","482","931977","0.0-3.0-1.400","../audio/08-8-fem.mp3"," ","","integral.","","","",""
"","null","html-keyboard-response","483","933245","0.0-3.0-0.401-0.401","<span style= ""font-size:30px; font-family: monospace"">+</span>","null","fixation","","","","",""
"","800","audio-keyboard-response","484","934329","0.0-3.0-1.401","../audio/07-1-fem.mp3"," ","","Meu","","","",""
"","669","audio-keyboard-response","485","935273","0.0-3.0-1.402","../audio/07-2-fem.mp3"," ","","filho","","","",""
"","648","audio-keyboard-response","486","936201","0.0-3.0-1.403","../audio/07-3-fem.mp3"," ","","é","","","",""
"","939","audio-keyboard-response","487","937402","0.0-3.0-1.404","../audio/07-4-fem.mp3"," ","","muito","","","",""
"","960","audio-keyboard-response","488","938649","0.0-3.0-1.405","../audio/07-5-fem.mp3"," ","","responsável","","","",""
"","952","audio-keyboard-response","489","939865","0.0-3.0-1.406","../audio/07-6-fem.mp3"," ","","nos","","","",""
"","1059","audio-keyboard-response","490","941209","0.0-3.0-1.407","../audio/07-7-fem.mp3"," ","","estudos.","","","",""
"","null","html-keyboard-response","491","942463","0.0-3.0-0.408-0.408","<span style= ""font-size:30px; font-family: monospace"">+</span>","null","fixation","","","","",""
"","488","audio-keyboard-response","492","943241","0.0-3.0-1.408","../audio/06-1-masc.mp3"," ","","Ouvimos","","","",""
"","739","audio-keyboard-response","493","944249","0.0-3.0-1.409","../audio/06-2-masc.mp3"," ","","a","","","",""
"","1021","audio-keyboard-response","494","945545","0.0-3.0-1.410","../audio/06-3-masc.mp3"," ","","fala","","","",""
"","739","audio-keyboard-response","495","946569","0.0-3.0-1.411","../audio/06-4-masc.mp3"," ","","do","","","",""
"","781","audio-keyboard-response","496","947625","0.0-3.0-1.412","../audio/06-5-masc.mp3"," ","","profeta","","","",""
"","800","audio-keyboard-response","497","948697","0.0-3.0-1.413","../audio/06-6-masc.mp3"," ","","no","","","",""
"","771","audio-keyboard-response","498","949737","0.0-3.0-1.414","../audio/06-7-masc.mp3"," ","","púlpito","","","",""
"","731","audio-keyboard-response","499","950745","0.0-3.0-1.415","../audio/06-8-masc.mp3"," ","","da","","","",""
"","739","audio-keyboard-response","500","951769","0.0-3.0-1.416","../audio/06-9-masc.mp3"," ","","igreja.","","","",""
"","null","html-keyboard-response","501","953048","0.0-3.0-0.417-0.417","<span style= ""font-size:30px; font-family: monospace"">+</span>","null","fixation","","","","",""
"","560","audio-keyboard-response","502","953881","0.0-3.0-1.417","../audio/10-1-fem.mp3"," ","","O","","","",""
"","920","audio-keyboard-response","503","955065","0.0-3.0-1.418","../audio/10-2-fem.mp3"," ","","pássaro","","","",""
"","869","audio-keyboard-response","504","956217","0.0-3.0-1.419","../audio/10-3-fem.mp3"," ","","azul","","","",""
"","891","audio-keyboard-response","505","957385","0.0-3.0-1.420","../audio/10-4-fem.mp3"," ","","estava","","","",""
"","861","audio-keyboard-response","506","958505","0.0-3.0-1.421","../audio/10-5-fem.mp3"," ","","vivo","","","",""
"","699","audio-keyboard-response","507","959481","0.0-3.0-1.422","../audio/10-6-fem.mp3"," ","","e","","","",""
"","651","audio-keyboard-response","508","960409","0.0-3.0-1.423","../audio/10-7-fem.mp3"," ","","em","","","",""
"","800","audio-keyboard-response","509","961481","0.0-3.0-1.424","../audio/10-8-fem.mp3"," ","","segurança.","","","",""
"","17819","html-keyboard-response","510","979561","0.0-3.0-2.424-0.424","<span style=""font-size:25px; font-family: monospace"">O pássaro vermelho estava em segurança?</span>","s","","","O pássaro vermelho estava em segurança?","null","exp-sent","false"
"","null","html-keyboard-response","511","981071","0.0-3.0-0.425-0.425","<span style= ""font-size:30px; font-family: monospace"">+</span>","null","fixation","","","","",""
"","592","audio-keyboard-response","512","981944","0.0-3.0-1.425","../audio/03-1-masc.mp3"," ","","O","","","",""
"","1139","audio-keyboard-response","513","983368","0.0-3.0-1.426","../audio/03-2-masc.mp3"," ","","coelho","","","",""
"","760","audio-keyboard-response","514","984392","0.0-3.0-1.427","../audio/03-3-masc.mp3"," ","","foi","","","",""
"","960","audio-keyboard-response","515","985625","0.0-3.0-1.428","../audio/03-4-masc.mp3"," ","","bastante","","","",""
"","949","audio-keyboard-response","516","986856","0.0-3.0-1.429","../audio/03-5-masc.mp3"," ","","dócil","","","",""
"","819","audio-keyboard-response","517","987960","0.0-3.0-1.430","../audio/03-6-masc.mp3"," ","","com","","","",""
"","848","audio-keyboard-response","518","989080","0.0-3.0-1.431","../audio/03-7-masc.mp3"," ","","as","","","",""
"","1080","audio-keyboard-response","519","990440","0.0-3.0-1.432","../audio/03-8-masc.mp3"," ","","crianças.","","","",""
"","null","html-keyboard-response","520","991701","0.0-3.0-0.433-0.433","<span style= ""font-size:30px; font-family: monospace"">+</span>","null","fixation","","","","",""
"","1131","audio-keyboard-response","521","993096","0.0-3.0-1.433","../audio/04-1-fem.mp3"," ","","Duzentos","","","",""
"","821","audio-keyboard-response","522","994184","0.0-3.0-1.434","../audio/04-2-fem.mp3"," ","","carros","","","",""
"","1069","audio-keyboard-response","523","995528","0.0-3.0-1.435","../audio/04-3-fem.mp3"," ","","passaram","","","",""
"","840","audio-keyboard-response","524","996632","0.0-3.0-1.436","../audio/04-4-fem.mp3"," ","","pela","","","",""
"","928","audio-keyboard-response","525","997832","0.0-3.0-1.437","../audio/04-5-fem.mp3"," ","","ponte","","","",""
"","1040","audio-keyboard-response","526","999144","0.0-3.0-1.438","../audio/04-6-fem.mp3"," ","","hoje","","","",""
"","699","audio-keyboard-response","527","1000120","0.0-3.0-1.439","../audio/04-7-fem.mp3"," ","","de","","","",""
"","731","audio-keyboard-response","528","1001128","0.0-3.0-1.440","../audio/04-8-fem.mp3"," ","","tarde.","","","",""
"","null","html-keyboard-response","529","1002393","0.0-3.0-0.441-0.441","<span style= ""font-size:30px; font-family: monospace"">+</span>","null","fixation","","","","",""
"","741","audio-keyboard-response","530","1003416","0.0-3.0-1.441","../audio/01-1-masc.mp3"," ","","O","","","",""
"","1000","audio-keyboard-response","531","1004696","0.0-3.0-1.442","../audio/01-2-masc.mp3"," ","","menino","","","",""
"","1280","audio-keyboard-response","532","1006248","0.0-3.0-1.443","../audio/01-3-masc.mp3"," ","","derrubou","","","",""
"","920","audio-keyboard-response","533","1007448","0.0-3.0-1.444","../audio/01-4-masc.mp3"," ","","a","","","",""
"","1400","audio-keyboard-response","534","1009112","0.0-3.0-1.445","../audio/01-5-masc.mp3"," ","","guitarra","","","",""
"","848","audio-keyboard-response","535","1010232","0.0-3.0-1.446","../audio/01-6-masc.mp3"," ","","no","","","",""
"","1291","audio-keyboard-response","536","1011785","0.0-3.0-1.447","../audio/01-7-masc.mp3"," ","","chão.","","","",""
"","null","html-keyboard-response","537","1013048","0.0-3.0-0.448-0.448","<span style= ""font-size:30px; font-family: monospace"">+</span>","null","fixation","","","","",""
"","771","audio-keyboard-response","538","1014088","0.0-3.0-1.448","../audio/02-2-masc.mp3"," ","","Havia","","","",""
"","1128","audio-keyboard-response","539","1015480","0.0-3.0-1.449","../audio/02-2-masc.mp3"," ","","um","","","",""
"","912","audio-keyboard-response","540","1016664","0.0-3.0-1.450","../audio/02-3-masc.mp3"," ","","cheiro","","","",""
"","920","audio-keyboard-response","541","1017864","0.0-3.0-1.451","../audio/02-4-masc.mp3"," ","","de","","","",""
"","1120","audio-keyboard-response","542","1019256","0.0-3.0-1.452","../audio/02-5-masc.mp3"," ","","gasolina","","","",""
"","981","audio-keyboard-response","543","1020504","0.0-3.0-1.453","../audio/02-6-masc.mp3"," ","","na","","","",""
"","1099","audio-keyboard-response","544","1021880","0.0-3.0-1.454","../audio/02-7-masc.mp3"," ","","garagem.","","","",""
"","null","html-keyboard-response","545","1023141","0.0-3.0-0.455-0.455","<span style= ""font-size:30px; font-family: monospace"">+</span>","null","fixation","","","","",""
"","701","audio-keyboard-response","546","1024104","0.0-3.0-1.455","../audio/05-1-fem.mp3"," ","","A","","","",""
"","1368","audio-keyboard-response","547","1025752","0.0-3.0-1.456","../audio/05-2-fem.mp3"," ","","vendedora","","","",""
"","1019","audio-keyboard-response","548","1027048","0.0-3.0-1.457","../audio/05-3-fem.mp3"," ","","ajudou","","","",""
"","632","audio-keyboard-response","549","1027944","0.0-3.0-1.458","../audio/05-4-fem.mp3"," ","","um","","","",""
"","928","audio-keyboard-response","550","1029160","0.0-3.0-1.459","../audio/05-5-fem.mp3"," ","","turista","","","",""
"","840","audio-keyboard-response","551","1030264","0.0-3.0-1.460","../audio/05-6-fem.mp3"," ","","na","","","",""
"","829","audio-keyboard-response","552","1031368","0.0-3.0-1.461","../audio/05-7-fem.mp3"," ","","loja.","","","",""
"","19892","html-keyboard-response","553","1051512","0.0-3.0-2.461-0.461","<span style=""font-size:25px; font-family: monospace"">A vendedora ajudou um turista?</span>","s","","","A vendedora ajudou um turista?","null","exp-sent","false"
"","null","html-keyboard-response","554","1053027","0.0-3.0-0.462-0.462","<span style= ""font-size:30px; font-family: monospace"">+</span>","null","fixation","","","","",""
"","808","audio-keyboard-response","555","1054120","0.0-3.0-1.462","../audio/27-1-fem.mp3"," ","","O","","","",""
"","1291","audio-keyboard-response","556","1055688","0.0-3.0-1.463","../audio/27-2-fem.mp3"," ","","dinheiro","","","",""
"","1200","audio-keyboard-response","557","1057160","0.0-3.0-1.464","../audio/27-3-fem.mp3"," ","","chegou","","","",""
"","1109","audio-keyboard-response","558","1058536","0.0-3.0-1.465","../audio/27-4-fem.mp3"," ","","à","","","",""
"","1171","audio-keyboard-response","559","1059976","0.0-3.0-1.466","../audio/27-5-fem.mp3"," ","","elite","","","",""
"","1101","audio-keyboard-response","560","1061336","0.0-3.0-1.467","../audio/27-6-fem.mp3"," ","","deste","","","",""
"","1091","audio-keyboard-response","561","1062696","0.0-3.0-1.468","../audio/27-7-fem.mp3"," ","","país.","","","",""
"","null","html-keyboard-response","562","1063959","0.0-3.0-0.469-0.469","<span style= ""font-size:30px; font-family: monospace"">+</span>","null","fixation","","","","",""
"","629","audio-keyboard-response","563","1064856","0.0-3.0-1.469","../audio/28-1-fem.mp3"," ","","O","","","",""
"","981","audio-keyboard-response","564","1066104","0.0-3.0-1.470","../audio/28-2-fem.mp3"," ","","time","","","",""
"","691","audio-keyboard-response","565","1067064","0.0-3.0-1.471","../audio/28-3-fem.mp3"," ","","quer","","","",""
"","579","audio-keyboard-response","566","1067928","0.0-3.0-1.472","../audio/28-4-fem.mp3"," ","","a","","","",""
"","589","audio-keyboard-response","567","1068792","0.0-3.0-1.473","../audio/28-5-fem.mp3"," ","","vitória","","","",""
"","829","audio-keyboard-response","568","1069896","0.0-3.0-1.474","../audio/28-6-fem.mp3"," ","","no","","","",""
"","779","audio-keyboard-response","569","1070952","0.0-3.0-1.475","../audio/28-7-fem.mp3"," ","","jogo","","","",""
"","808","audio-keyboard-response","570","1072040","0.0-3.0-1.476","../audio/28-8-fem.mp3"," ","","de","","","",""
"","992","audio-keyboard-response","571","1073304","0.0-3.0-1.477","../audio/28-9-fem.mp3"," ","","vôlei.","","","",""
"","null","html-keyboard-response","572","1074563","0.0-3.0-0.478-0.478","<span style= ""font-size:30px; font-family: monospace"">+</span>","null","fixation","","","","",""
"","981","audio-keyboard-response","573","1075816","0.0-3.0-1.478","../audio/26-1-masc.mp3"," ","","Amanhã","","","",""
"","829","audio-keyboard-response","574","1076920","0.0-3.0-1.479","../audio/26-2-masc.mp3"," ","","temos","","","",""
"","1029","audio-keyboard-response","575","1078216","0.0-3.0-1.480","../audio/26-3-masc.mp3"," ","","festa","","","",""
"","939","audio-keyboard-response","576","1079432","0.0-3.0-1.481","../audio/26-4-masc.mp3"," ","","na","","","",""
"","1040","audio-keyboard-response","577","1080744","0.0-3.0-1.482","../audio/26-5-masc.mp3"," ","","piscina","","","",""
"","720","audio-keyboard-response","578","1081737","0.0-3.0-1.483","../audio/26-6-masc.mp3"," ","","o","","","",""
"","939","audio-keyboard-response","579","1082952","0.0-3.0-1.484","../audio/26-7-masc.mp3"," ","","dia","","","",""
"","819","audio-keyboard-response","580","1084040","0.0-3.0-1.485","../audio/26-8-masc.mp3"," ","","todo.","","","",""
"","null","html-keyboard-response","581","1085297","0.0-3.0-0.486-0.486","<span style= ""font-size:30px; font-family: monospace"">+</span>","null","fixation","","","","",""
"","619","audio-keyboard-response","582","1086200","0.0-3.0-1.486","../audio/29-1-fem.mp3"," ","","Hoje","","","",""
"","1021","audio-keyboard-response","583","1087496","0.0-3.0-1.487","../audio/29-2-fem.mp3"," ","","vamos","","","",""
"","840","audio-keyboard-response","584","1088616","0.0-3.0-1.488","../audio/29-3-fem.mp3"," ","","fazer","","","",""
"","840","audio-keyboard-response","585","1089736","0.0-3.0-1.489","../audio/29-4-fem.mp3"," ","","uma","","","",""
"","949","audio-keyboard-response","586","1090952","0.0-3.0-1.490","../audio/29-5-fem.mp3"," ","","atividade","","","",""
"","1229","audio-keyboard-response","587","1092456","0.0-3.0-1.491","../audio/29-6-fem.mp3"," ","","sobre","","","",""
"","960","audio-keyboard-response","588","1093688","0.0-3.0-1.492","../audio/29-7-fem.mp3"," ","","fauna","","","",""
"","960","audio-keyboard-response","589","1094920","0.0-3.0-1.493","../audio/29-8-fem.mp3"," ","","marinha.","","","",""
"","null","html-keyboard-response","590","1096182","0.0-3.0-0.494-0.494","<span style= ""font-size:30px; font-family: monospace"">+</span>","null","fixation","","","","",""
"","608","audio-keyboard-response","591","1097080","0.0-3.0-1.494","../audio/30-1-fem.mp3"," ","","O","","","",""
"","1000","audio-keyboard-response","592","1098360","0.0-3.0-1.495","../audio/30-2-fem.mp3"," ","","funcionário","","","",""
"","1051","audio-keyboard-response","593","1099688","0.0-3.0-1.496","../audio/30-3-fem.mp3"," ","","entregou","","","",""
"","749","audio-keyboard-response","594","1100712","0.0-3.0-1.497","../audio/30-4-fem.mp3"," ","","o","","","",""
"","1048","audio-keyboard-response","595","1102040","0.0-3.0-1.498","../audio/30-5-fem.mp3"," ","","restante","","","",""
"","680","audio-keyboard-response","596","1103000","0.0-3.0-1.499","../audio/30-6-fem.mp3"," ","","do","","","",""
"","949","audio-keyboard-response","597","1104216","0.0-3.0-1.500","../audio/30-7-fem.mp3"," ","","dinheiro.","","","",""
"","10140","html-keyboard-response","598","1114615","0.0-3.0-2.500-0.500","<span style=""font-size:25px; font-family: monospace"">O funcionário entregou o contrato?</span>","n","","","O funcionário entregou o contrato?","null","exp-sent","false"
"","null","html-keyboard-response","599","1116143","0.0-3.0-0.501-0.501","<span style= ""font-size:30px; font-family: monospace"">+</span>","null","fixation","","","","",""
"","808","audio-keyboard-response","600","1117239","0.0-3.0-1.501","../audio/49-1-fem.mp3"," ","","Eu","","","",""
"","869","audio-keyboard-response","601","1118375","0.0-3.0-1.502","../audio/49-2-fem.mp3"," ","","quero","","","",""
"","709","audio-keyboard-response","602","1119367","0.0-3.0-1.503","../audio/49-3-fem.mp3"," ","","um","","","",""
"","960","audio-keyboard-response","603","1120599","0.0-3.0-1.504","../audio/49-4-fem.mp3"," ","","lanche","","","",""
"","731","audio-keyboard-response","604","1121607","0.0-3.0-1.505","../audio/49-5-fem.mp3"," ","","duplo","","","",""
"","821","audio-keyboard-response","605","1122695","0.0-3.0-1.506","../audio/49-6-fem.mp3"," ","","e","","","",""
"","739","audio-keyboard-response","606","1123719","0.0-3.0-1.507","../audio/49-7-fem.mp3"," ","","um","","","",""
"","1219","audio-keyboard-response","607","1125207","0.0-3.0-1.508","../audio/49-8-fem.mp3"," ","","suco.","","","",""
"","null","html-keyboard-response","608","1126465","0.0-3.0-0.509-0.509","<span style= ""font-size:30px; font-family: monospace"">+</span>","null","fixation","","","","",""
"","829","audio-keyboard-response","609","1127575","0.0-3.0-1.509","../audio/46-1-fem.mp3"," ","","Meu","","","",""
"","869","audio-keyboard-response","610","1128727","0.0-3.0-1.510","../audio/46-2-fem.mp3"," ","","primo","","","",""
"","941","audio-keyboard-response","611","1129943","0.0-3.0-1.511","../audio/46-3-fem.mp3"," ","","estava","","","",""
"","1080","audio-keyboard-response","612","1131303","0.0-3.0-1.512","../audio/46-4-fem.mp3"," ","","muito","","","",""
"","1320","audio-keyboard-response","613","1132903","0.0-3.0-1.513","../audio/46-5-fem.mp3"," ","","deprimido","","","",""
"","789","audio-keyboard-response","614","1133975","0.0-3.0-1.514","../audio/46-6-fem.mp3"," ","","no","","","",""
"","909","audio-keyboard-response","615","1135159","0.0-3.0-1.515","../audio/46-7-fem.mp3"," ","","inverno.","","","",""
"","null","html-keyboard-response","616","1136422","0.0-3.0-0.516-0.516","<span style= ""font-size:30px; font-family: monospace"">+</span>","null","fixation","","","","",""
"","608","audio-keyboard-response","617","1137319","0.0-3.0-1.516","../audio/47-1-masc.mp3"," ","","O","","","",""
"","749","audio-keyboard-response","618","1138359","0.0-3.0-1.517","../audio/47-2-masc.mp3"," ","","tio","","","",""
"","1200","audio-keyboard-response","619","1139831","0.0-3.0-1.518","../audio/47-3-masc.mp3"," ","","recusou","","","",""
"","779","audio-keyboard-response","620","1140871","0.0-3.0-1.519","../audio/47-4-masc.mp3"," ","","a","","","",""
"","1339","audio-keyboard-response","621","1142487","0.0-3.0-1.520","../audio/47-5-masc.mp3"," ","","sobremesa","","","",""
"","760","audio-keyboard-response","622","1143527","0.0-3.0-1.521","../audio/47-6-masc.mp3"," ","","no","","","",""
"","1171","audio-keyboard-response","623","1144967","0.0-3.0-1.522","../audio/47-7-masc.mp3"," ","","almoço.","","","",""
"","null","html-keyboard-response","624","1146223","0.0-3.0-0.523-0.523","<span style= ""font-size:30px; font-family: monospace"">+</span>","null","fixation","","","","",""
"","629","audio-keyboard-response","625","1147127","0.0-3.0-1.523","../audio/48-1-masc.mp3"," ","","Ela","","","",""
"","800","audio-keyboard-response","626","1148199","0.0-3.0-1.524","../audio/48-2-masc.mp3"," ","","come","","","",""
"","912","audio-keyboard-response","627","1149383","0.0-3.0-1.525","../audio/48-3-masc.mp3"," ","","feijão","","","",""
"","808","audio-keyboard-response","628","1150471","0.0-3.0-1.526","../audio/48-4-masc.mp3"," ","","com","","","",""
"","960","audio-keyboard-response","629","1151703","0.0-3.0-1.527","../audio/48-5-masc.mp3"," ","","arroz","","","",""
"","779","audio-keyboard-response","630","1152759","0.0-3.0-1.528","../audio/48-6-masc.mp3"," ","","todos","","","",""
"","840","audio-keyboard-response","631","1153879","0.0-3.0-1.529","../audio/48-7-masc.mp3"," ","","os","","","",""
"","1429","audio-keyboard-response","632","1155575","0.0-3.0-1.530","../audio/48-8-masc.mp3"," ","","dias.","","","",""
"","null","html-keyboard-response","633","1156840","0.0-3.0-0.531-0.531","<span style= ""font-size:30px; font-family: monospace"">+</span>","null","fixation","","","","",""
"","621","audio-keyboard-response","634","1157735","0.0-3.0-1.531","../audio/50-1-fem.mp3"," ","","O","","","",""
"","1171","audio-keyboard-response","635","1159175","0.0-3.0-1.532","../audio/50-2-fem.mp3"," ","","pássaro","","","",""
"","1080","audio-keyboard-response","636","1160535","0.0-3.0-1.533","../audio/50-3-fem.mp3"," ","","fugiu","","","",""
"","840","audio-keyboard-response","637","1161655","0.0-3.0-1.534","../audio/50-4-fem.mp3"," ","","da","","","",""
"","1349","audio-keyboard-response","638","1163271","0.0-3.0-1.535","../audio/50-5-fem.mp3"," ","","gaiola","","","",""
"","1019","audio-keyboard-response","639","1164567","0.0-3.0-1.536","../audio/50-6-fem.mp3"," ","","pela","","","",""
"","1480","audio-keyboard-response","640","1166327","0.0-3.0-1.537","../audio/50-7-fem.mp3"," ","","portinhola.","","","",""
"","9291","html-keyboard-response","641","1175879","0.0-3.0-2.537-0.537","<span style=""font-size:25px; font-family: monospace"">O pássaro fugiu da gaiola?</span>","n","","","O pássaro fugiu da gaiola?","null","exp-sent","false"
"","null","html-keyboard-response","642","1177404","0.0-3.0-0.538-0.538","<span style= ""font-size:30px; font-family: monospace"">+</span>","null","fixation","","","","",""
"","101","audio-keyboard-response","643","1177782","0.0-3.0-1.538","../audio/17-1-fem.mp3"," ","","Falaram","","","",""
"","779","audio-keyboard-response","644","1178838","0.0-3.0-1.539","../audio/17-2-fem.mp3"," ","","da","","","",""
"","811","audio-keyboard-response","645","1179926","0.0-3.0-1.540","../audio/17-3-fem.mp3"," ","","lei","","","",""
"","840","audio-keyboard-response","646","1181031","0.0-3.0-1.541","../audio/17-4-fem.mp3"," ","","no","","","",""
"","1099","audio-keyboard-response","647","1182407","0.0-3.0-1.542","../audio/17-5-fem.mp3"," ","","ministério","","","",""
"","1189","audio-keyboard-response","648","1183878","0.0-3.0-1.543","../audio/17-6-fem.mp3"," ","","diversas","","","",""
"","880","audio-keyboard-response","649","1185031","0.0-3.0-1.544","../audio/17-7-fem.mp3"," ","","vezes.","","","",""
"","null","html-keyboard-response","650","1186297","0.0-3.0-0.545-0.545","<span style= ""font-size:30px; font-family: monospace"">+</span>","null","fixation","","","","",""
"","789","audio-keyboard-response","651","1187351","0.0-3.0-1.545","../audio/19-1-masc.mp3"," ","","O","","","",""
"","880","audio-keyboard-response","652","1188519","0.0-3.0-1.546","../audio/19-2-masc.mp3"," ","","menino","","","",""
"","800","audio-keyboard-response","653","1189591","0.0-3.0-1.547","../audio/19-3-masc.mp3"," ","","ganhou","","","",""
"","888","audio-keyboard-response","654","1190758","0.0-3.0-1.548","../audio/19-4-masc.mp3"," ","","uma","","","",""
"","992","audio-keyboard-response","655","1192023","0.0-3.0-1.549","../audio/19-5-masc.mp3"," ","","bala","","","",""
"","949","audio-keyboard-response","656","1193238","0.0-3.0-1.550","../audio/19-6-masc.mp3"," ","","depois","","","",""
"","840","audio-keyboard-response","657","1194359","0.0-3.0-1.551","../audio/19-7-masc.mp3"," ","","do","","","",""
"","1131","audio-keyboard-response","658","1195767","0.0-3.0-1.552","../audio/19-8-masc.mp3"," ","","almoço.","","","",""
"","null","html-keyboard-response","659","1197031","0.0-3.0-0.553-0.553","<span style= ""font-size:30px; font-family: monospace"">+</span>","null","fixation","","","","",""
"","539","audio-keyboard-response","660","1197847","0.0-3.0-1.553","../audio/18-1-fem.mp3"," ","","O","","","",""
"","931","audio-keyboard-response","661","1199047","0.0-3.0-1.554","../audio/18-2-fem.mp3"," ","","enredo","","","",""
"","800","audio-keyboard-response","662","1200119","0.0-3.0-1.555","../audio/18-3-fem.mp3"," ","","traz","","","",""
"","720","audio-keyboard-response","663","1201110","0.0-3.0-1.556","../audio/18-4-fem.mp3"," ","","um","","","",""
"","1048","audio-keyboard-response","664","1202438","0.0-3.0-1.557","../audio/18-5-fem.mp3"," ","","dragão","","","",""
"","629","audio-keyboard-response","665","1203335","0.0-3.0-1.558","../audio/18-6-fem.mp3"," ","","forte","","","",""
"","731","audio-keyboard-response","666","1204342","0.0-3.0-1.559","../audio/18-7-fem.mp3"," ","","e","","","",""
"","1259","audio-keyboard-response","667","1205878","0.0-3.0-1.560","../audio/18-8-fem.mp3"," ","","solitário.","","","",""
"","null","html-keyboard-response","668","1207147","0.0-3.0-0.561-0.561","<span style= ""font-size:30px; font-family: monospace"">+</span>","null","fixation","","","","",""
"","560","audio-keyboard-response","669","1207975","0.0-3.0-1.561","../audio/16-1-masc.mp3"," ","","Eu","","","",""
"","829","audio-keyboard-response","670","1209078","0.0-3.0-1.562","../audio/16-2-masc.mp3"," ","","nunca","","","",""
"","880","audio-keyboard-response","671","1210231","0.0-3.0-1.563","../audio/16-3-masc.mp3"," ","","conheci","","","",""
"","699","audio-keyboard-response","672","1211191","0.0-3.0-1.564","../audio/16-4-masc.mp3"," ","","um","","","",""
"","891","audio-keyboard-response","673","1212343","0.0-3.0-1.565","../audio/16-5-masc.mp3"," ","","general","","","",""
"","768","audio-keyboard-response","674","1213398","0.0-3.0-1.566","../audio/16-6-masc.mp3"," ","","do","","","",""
"","1120","audio-keyboard-response","675","1214791","0.0-3.0-1.567","../audio/16-7-masc.mp3"," ","","exército.","","","",""
"","null","html-keyboard-response","676","1216060","0.0-3.0-0.568-0.568","<span style= ""font-size:30px; font-family: monospace"">+</span>","null","fixation","","","","",""
"","539","audio-keyboard-response","677","1216871","0.0-3.0-1.568","../audio/20-1-masc.mp3"," ","","O","","","",""
"","600","audio-keyboard-response","678","1217735","0.0-3.0-1.569","../audio/20-2-masc.mp3"," ","","colega","","","",""
"","1069","audio-keyboard-response","679","1219078","0.0-3.0-1.570","../audio/20-3-masc.mp3"," ","","parecia","","","",""
"","1131","audio-keyboard-response","680","1220487","0.0-3.0-1.571","../audio/20-4-masc.mp3"," ","","muito","","","",""
"","1320","audio-keyboard-response","681","1222087","0.0-3.0-1.572","../audio/20-5-masc.mp3"," ","","gripado","","","",""
"","891","audio-keyboard-response","682","1223255","0.0-3.0-1.573","../audio/20-6-masc.mp3"," ","","no","","","",""
"","891","audio-keyboard-response","683","1224423","0.0-3.0-1.574","../audio/20-7-masc.mp3"," ","","dia","","","",""
"","2400","audio-keyboard-response","684","1227095","0.0-3.0-1.575","../audio/20-8-masc.mp3"," ","","anterior.","","","",""
"","13972","html-keyboard-response","685","1241318","0.0-3.0-2.575-0.575","<span style=""font-size:25px; font-family: monospace"">O colega parecia muito gripado?</span>","n","","","O colega parecia muito gripado?","null","exp-sent","false"
"","null","html-keyboard-response","686","1242825","0.0-3.0-0.576-0.576","<span style= ""font-size:30px; font-family: monospace"">+</span>","null","fixation","","","","",""
"","1048","audio-keyboard-response","687","1244150","0.0-3.0-1.576","../audio/53-1-masc.mp3"," ","","O","","","",""
"","968","audio-keyboard-response","688","1245398","0.0-3.0-1.577","../audio/53-2-masc.mp3"," ","","médico","","","",""
"","651","audio-keyboard-response","689","1246326","0.0-3.0-1.578","../audio/53-3-masc.mp3"," ","","foi","","","",""
"","901","audio-keyboard-response","690","1247494","0.0-3.0-1.579","../audio/53-4-masc.mp3"," ","","bastante","","","",""
"","1189","audio-keyboard-response","691","1248966","0.0-3.0-1.580","../audio/53-5-masc.mp3"," ","","preciso","","","",""
"","1200","audio-keyboard-response","692","1250438","0.0-3.0-1.581","../audio/53-6-masc.mp3"," ","","durante","","","",""
"","651","audio-keyboard-response","693","1251366","0.0-3.0-1.582","../audio/53-7-masc.mp3"," ","","a","","","",""
"","1061","audio-keyboard-response","694","1252694","0.0-3.0-1.583","../audio/53-8-masc.mp3"," ","","cirurgia.","","","",""
"","null","html-keyboard-response","695","1253953","0.0-3.0-0.584-0.584","<span style= ""font-size:30px; font-family: monospace"">+</span>","null","fixation","","","","",""
"","920","audio-keyboard-response","696","1255142","0.0-3.0-1.584","../audio/51-1-fem.mp3"," ","","Suco","","","",""
"","768","audio-keyboard-response","697","1256198","0.0-3.0-1.585","../audio/51-2-fem.mp3"," ","","de","","","",""
"","1080","audio-keyboard-response","698","1257558","0.0-3.0-1.586","../audio/51-3-fem.mp3"," ","","acerola","","","",""
"","680","audio-keyboard-response","699","1258518","0.0-3.0-1.587","../audio/51-4-fem.mp3"," ","","é","","","",""
"","1072","audio-keyboard-response","700","1259862","0.0-3.0-1.588","../audio/51-5-fem.mp3"," ","","azedo","","","",""
"","699","audio-keyboard-response","701","1260838","0.0-3.0-1.589","../audio/51-6-fem.mp3"," ","","e","","","",""
"","981","audio-keyboard-response","702","1262102","0.0-3.0-1.590","../audio/51-7-fem.mp3"," ","","até","","","",""
"","1149","audio-keyboard-response","703","1263526","0.0-3.0-1.591","../audio/51-8-fem.mp3"," ","","barato.","","","",""
"","null","html-keyboard-response","704","1264790","0.0-3.0-0.592-0.592","<span style= ""font-size:30px; font-family: monospace"">+</span>","null","fixation","","","","",""
"","1120","audio-keyboard-response","705","1266198","0.0-3.0-1.592","../audio/54-1-masc.mp3"," ","","Estou","","","",""
"","832","audio-keyboard-response","706","1267302","0.0-3.0-1.593","../audio/54-2-masc.mp3"," ","","com","","","",""
"","1189","audio-keyboard-response","707","1268774","0.0-3.0-1.594","../audio/54-3-masc.mp3"," ","","medo","","","",""
"","1251","audio-keyboard-response","708","1270294","0.0-3.0-1.595","../audio/54-4-masc.mp3"," ","","da","","","",""
"","1229","audio-keyboard-response","709","1271798","0.0-3.0-1.596","../audio/54-5-masc.mp3"," ","","atual","","","",""
"","1280","audio-keyboard-response","710","1273350","0.0-3.0-1.597","../audio/54-6-masc.mp3"," ","","organização","","","",""
"","960","audio-keyboard-response","711","1274582","0.0-3.0-1.598","../audio/54-7-masc.mp3"," ","","do","","","",""
"","899","audio-keyboard-response","712","1275766","0.0-3.0-1.599","../audio/54-8-masc.mp3"," ","","país.","","","",""
"","null","html-keyboard-response","713","1277021","0.0-3.0-0.600-0.600","<span style= ""font-size:30px; font-family: monospace"">+</span>","null","fixation","","","","",""
"","1120","audio-keyboard-response","714","1278422","0.0-3.0-1.600","../audio/52-1-fem.mp3"," ","","Às","","","",""
"","1139","audio-keyboard-response","715","1279830","0.0-3.0-1.601","../audio/52-2-fem.mp3"," ","","vezes","","","",""
"","968","audio-keyboard-response","716","1281078","0.0-3.0-1.602","../audio/52-3-fem.mp3"," ","","eu","","","",""
"","1000","audio-keyboard-response","717","1282342","0.0-3.0-1.603","../audio/52-4-fem.mp3"," ","","tenho","","","",""
"","1168","audio-keyboard-response","718","1283798","0.0-3.0-1.604","../audio/52-5-fem.mp3"," ","","azia","","","",""
"","1189","audio-keyboard-response","719","1285270","0.0-3.0-1.605","../audio/52-6-fem.mp3"," ","","depois","","","",""
"","840","audio-keyboard-response","720","1286374","0.0-3.0-1.606","../audio/52-7-fem.mp3"," ","","da","","","",""
"","1189","audio-keyboard-response","721","1287846","0.0-3.0-1.607","../audio/52-8-fem.mp3"," ","","janta.","","","",""
"","null","html-keyboard-response","722","1289109","0.0-3.0-0.608-0.608","<span style= ""font-size:30px; font-family: monospace"">+</span>","null","fixation","","","","",""
"","619","audio-keyboard-response","723","1290006","0.0-3.0-1.608","../audio/55-1-fem.mp3"," ","","O","","","",""
"","1069","audio-keyboard-response","724","1291350","0.0-3.0-1.609","../audio/55-2-fem.mp3"," ","","insulto","","","",""
"","939","audio-keyboard-response","725","1292566","0.0-3.0-1.610","../audio/55-3-fem.mp3"," ","","recente","","","",""
"","1320","audio-keyboard-response","726","1294166","0.0-3.0-1.611","../audio/55-4-fem.mp3"," ","","causou","","","",""
"","1971","audio-keyboard-response","727","1296406","0.0-3.0-1.612","../audio/55-5-fem.mp3"," ","","indignação","","","",""
"","1040","audio-keyboard-response","728","1297718","0.0-3.0-1.613","../audio/55-6-fem.mp3"," ","","em","","","",""
"","1181","audio-keyboard-response","729","1299174","0.0-3.0-1.614","../audio/55-7-fem.mp3"," ","","todos.","","","",""
"","12152","html-keyboard-response","730","1311591","0.0-3.0-2.614-0.614","<span style=""font-size:25px; font-family: monospace"">O insulto causou calmaria?</span>","s","","","O insulto causou calmaria?","null","exp-sent","false"
"[{""page_index"":0,""viewing_time"":5556}]","5556","instructions","731","1317656","0.0-4.0","","","","","","","",""
