"view_history","rt","trial_type","trial_index","time_elapsed","internal_node_id","stimulus","response","trial_part","trial","word","question","answer","accuracy"
"[{""page_index"":0,""viewing_time"":7996},{""page_index"":1,""viewing_time"":3824}]","11821","instructions","0","11821","0.0-0.0","","","","","","","",""
"","null","html-keyboard-response","1","12929","0.0-1.0-0.0-0.0","<span style= ""font-size:30px; font-family: monospace"">+</span>","null","fixation","","","","",""
"","6460","html-keyboard-response","2","19653","0.0-1.0-1.0","<span style=""font-size:30px; font-family: monospace"">O</span>"," ","","prac-sent","O","","",""
"","3967","html-keyboard-response","3","23877","0.0-1.0-1.1","<span style=""font-size:30px; font-family: monospace"">dia</span>"," ","","prac-sent","dia","","",""
"","5141","html-keyboard-response","4","29269","0.0-1.0-1.2","<span style=""font-size:30px; font-family: monospace"">estará</span>"," ","","prac-sent","estará","","",""
"","4179","html-keyboard-response","5","33701","0.0-1.0-1.3","<span style=""font-size:30px; font-family: monospace"">cheio</span>"," ","","prac-sent","cheio","","",""
"","5349","html-keyboard-response","6","39301","0.0-1.0-1.4","<span style=""font-size:30px; font-family: monospace"">de</span>"," ","","prac-sent","de","","",""
"","3333","html-keyboard-response","7","42885","0.0-1.0-1.5","<span style=""font-size:30px; font-family: monospace"">nuvens</span>"," ","","prac-sent","nuvens","","",""
"","2902","html-keyboard-response","8","46037","0.0-1.0-1.6","<span style=""font-size:30px; font-family: monospace"">hoje.</span>"," ","","prac-sent","hoje.","","",""
"","null","html-keyboard-response","9","47288","0.0-1.0-0.7-0.7","<span style= ""font-size:30px; font-family: monospace"">+</span>","null","fixation","","","","",""
"","6962","html-keyboard-response","10","54501","0.0-1.0-1.7","<span style=""font-size:30px; font-family: monospace"">A</span>"," ","","prac-sent","A","","",""
"","3092","html-keyboard-response","11","57845","0.0-1.0-1.8","<span style=""font-size:30px; font-family: monospace"">caneca</span>"," ","","prac-sent","caneca","","",""
"","7829","html-keyboard-response","12","65925","0.0-1.0-1.9","<span style=""font-size:30px; font-family: monospace"">colorida</span>"," ","","prac-sent","colorida","","",""
"","3573","html-keyboard-response","13","69749","0.0-1.0-1.10","<span style=""font-size:30px; font-family: monospace"">caiu</span>"," ","","prac-sent","caiu","","",""
"","2340","html-keyboard-response","14","72341","0.0-1.0-1.11","<span style=""font-size:30px; font-family: monospace"">da</span>"," ","","prac-sent","da","","",""
"","2420","html-keyboard-response","15","75013","0.0-1.0-1.12","<span style=""font-size:30px; font-family: monospace"">mesa</span>"," ","","prac-sent","mesa","","",""
"","2388","html-keyboard-response","16","77652","0.0-1.0-1.13","<span style=""font-size:30px; font-family: monospace"">de</span>"," ","","prac-sent","de","","",""
"","3221","html-keyboard-response","17","81125","0.0-1.0-1.14","<span style=""font-size:30px; font-family: monospace"">jantar.</span>"," ","","prac-comp","jantar.","","",""
"","32614","html-keyboard-response","18","113988","0.0-1.0-2.14-0.14","<span style=""font-size:30px; font-family: monospace"">A caneca permaneceu na mesa?</span>","s","","prac-comp","","A caneca permaneceu na mesa?","não","false"
"[{""page_index"":0,""viewing_time"":37874}]","37874","instructions","19","152364","0.0-2.0","","","","","","","",""
"","null","html-keyboard-response","20","153474","0.0-3.0-0.0-0.0","<span style= ""font-size:30px; font-family: monospace"">+</span>","null","fixation","","","","",""
"","7767","html-keyboard-response","21","161492","0.0-3.0-1.0","<span style=""font-size:30px; font-family: monospace"">A</span>"," ","","exp-sent","A","","",""
"","52997","html-keyboard-response","22","214739","0.0-3.0-1.1","<span style=""font-size:30px; font-family: monospace"">motorista</span>"," ","","exp-sent","motorista","","",""
"","7445","html-keyboard-response","23","222435","0.0-3.0-1.2","<span style=""font-size:30px; font-family: monospace"">fez</span>"," ","","exp-sent","fez","","",""
"","4709","html-keyboard-response","24","227395","0.0-3.0-1.3","<span style=""font-size:30px; font-family: monospace"">o</span>"," ","","exp-sent","o","","",""
"","16117","html-keyboard-response","25","243763","0.0-3.0-1.4","<span style=""font-size:30px; font-family: monospace"">retorno</span>"," ","","exp-sent","retorno","","",""
"","7108","html-keyboard-response","26","251123","0.0-3.0-1.5","<span style=""font-size:30px; font-family: monospace"">com</span>"," ","","exp-sent","com","","",""
"","15972","html-keyboard-response","27","267347","0.0-3.0-1.6","<span style=""font-size:30px; font-family: monospace"">cuidado.</span>"," ","","exp-sent","cuidado.","","",""
"","null","html-keyboard-response","28","268599","0.0-3.0-0.7-0.7","<span style= ""font-size:30px; font-family: monospace"">+</span>","null","fixation","","","","",""
"","10241","html-keyboard-response","29","279091","0.0-3.0-1.7","<span style=""font-size:30px; font-family: monospace"">Contos</span>"," ","","exp-sent","Contos","","",""
"","4773","html-keyboard-response","30","284114","0.0-3.0-1.8","<span style=""font-size:30px; font-family: monospace"">de</span>"," ","","exp-sent","de","","",""
"","10598","html-keyboard-response","31","294962","0.0-3.0-1.9","<span style=""font-size:30px; font-family: monospace"">ação</span>"," ","","exp-sent","ação","","",""
"","8005","html-keyboard-response","32","303218","0.0-3.0-1.10","<span style=""font-size:30px; font-family: monospace"">têm</span>"," ","","exp-sent","têm","","",""
"","12261","html-keyboard-response","33","315731","0.0-3.0-1.11","<span style=""font-size:30px; font-family: monospace"">chantagem</span>"," ","","exp-sent","chantagem","","",""
"","4484","html-keyboard-response","34","320466","0.0-3.0-1.12","<span style=""font-size:30px; font-family: monospace"">e</span>"," ","","exp-sent","e","","",""
"","10022","html-keyboard-response","35","330738","0.0-3.0-1.13","<span style=""font-size:30px; font-family: monospace"">muita</span>"," ","","exp-sent","muita","","",""
"","9557","html-keyboard-response","36","340546","0.0-3.0-1.14","<span style=""font-size:30px; font-family: monospace"">luta.</span>"," ","","exp-sent","luta.","","",""
"","null","html-keyboard-response","37","341798","0.0-3.0-0.15-0.15","<span style= ""font-size:30px; font-family: monospace"">+</span>","null","fixation","","","","",""
"","5218","html-keyboard-response","38","347266","0.0-3.0-1.15","<span style=""font-size:30px; font-family: monospace"">A</span>"," ","","exp-sent","A","","",""
"","14837","html-keyboard-response","39","362354","0.0-3.0-1.16","<span style=""font-size:30px; font-family: monospace"">bisavó</span>"," ","","exp-sent","bisavó","","",""
"","4360","html-keyboard-response","40","366978","0.0-3.0-1.17","<span style=""font-size:30px; font-family: monospace"">recebeu</span>"," ","","exp-sent","recebeu","","",""
"","2869","html-keyboard-response","41","370098","0.0-3.0-1.18","<span style=""font-size:30px; font-family: monospace"">um</span>"," ","","exp-sent","um","","",""
"","2311","html-keyboard-response","42","372674","0.0-3.0-1.19","<span style=""font-size:30px; font-family: monospace"">benefício</span>"," ","","exp-sent","benefício","","",""
"","2308","html-keyboard-response","43","375234","0.0-3.0-1.20","<span style=""font-size:30px; font-family: monospace"">temporário</span>"," ","","exp-sent","temporário","","",""
"","2245","html-keyboard-response","44","377730","0.0-3.0-1.21","<span style=""font-size:30px; font-family: monospace"">do</span>"," ","","exp-sent","do","","",""
"","2160","html-keyboard-response","45","380146","0.0-3.0-1.22","<span style=""font-size:30px; font-family: monospace"">governo.</span>"," ","","exp-sent","governo.","","",""
"","null","html-keyboard-response","46","381397","0.0-3.0-0.23-0.23","<span style= ""font-size:30px; font-family: monospace"">+</span>","null","fixation","","","","",""
"","995","html-keyboard-response","47","382642","0.0-3.0-1.23","<span style=""font-size:30px; font-family: monospace"">As</span>"," ","","exp-sent","As","","",""
"","709","html-keyboard-response","48","383602","0.0-3.0-1.24","<span style=""font-size:30px; font-family: monospace"">crianças</span>"," ","","exp-sent","crianças","","",""
"","1717","html-keyboard-response","49","385570","0.0-3.0-1.25","<span style=""font-size:30px; font-family: monospace"">brincaram</span>"," ","","exp-sent","brincaram","","",""
"","1445","html-keyboard-response","50","387266","0.0-3.0-1.26","<span style=""font-size:30px; font-family: monospace"">no</span>"," ","","exp-sent","no","","",""
"","1717","html-keyboard-response","51","389234","0.0-3.0-1.27","<span style=""font-size:30px; font-family: monospace"">balanço</span>"," ","","exp-sent","balanço","","",""
"","2421","html-keyboard-response","52","391906","0.0-3.0-1.28","<span style=""font-size:30px; font-family: monospace"">a</span>"," ","","exp-sent","a","","",""
"","2310","html-keyboard-response","53","394466","0.0-3.0-1.29","<span style=""font-size:30px; font-family: monospace"">tarde</span>"," ","","exp-sent","tarde","","",""
"","2213","html-keyboard-response","54","396930","0.0-3.0-1.30","<span style=""font-size:30px; font-family: monospace"">toda.</span>"," ","","exp-sent","toda.","","",""
"","null","html-keyboard-response","55","398182","0.0-3.0-0.31-0.31","<span style= ""font-size:30px; font-family: monospace"">+</span>","null","fixation","","","","",""
"","593","html-keyboard-response","56","399026","0.0-3.0-1.31","<span style=""font-size:30px; font-family: monospace"">Ela</span>"," ","","exp-sent","Ela","","",""
"","1413","html-keyboard-response","57","400690","0.0-3.0-1.32","<span style=""font-size:30px; font-family: monospace"">gosta</span>"," ","","exp-sent","gosta","","",""
"","1445","html-keyboard-response","58","402386","0.0-3.0-1.33","<span style=""font-size:30px; font-family: monospace"">de</span>"," ","","exp-sent","de","","",""
"","165","html-keyboard-response","59","402802","0.0-3.0-1.34","<span style=""font-size:30px; font-family: monospace"">comida</span>"," ","","exp-sent","comida","","",""
"","2422","html-keyboard-response","60","405474","0.0-3.0-1.35","<span style=""font-size:30px; font-family: monospace"">natural</span>"," ","","exp-sent","natural","","",""
"","9237","html-keyboard-response","61","414961","0.0-3.0-1.36","<span style=""font-size:30px; font-family: monospace"">no</span>"," ","","exp-sent","no","","",""
"","2293","html-keyboard-response","62","417506","0.0-3.0-1.37","<span style=""font-size:30px; font-family: monospace"">almoço.</span>"," ","","comp","almoço.","","",""
"","10533","html-keyboard-response","63","428290","0.0-3.0-2.37-0.37","<span style=""font-size:30px; font-family: monospace"">Ela gosta de comida natural no almoço?</span>","s","","comp","","Ela gosta de comida natural no almoço?","sim","false"
"","null","html-keyboard-response","64","429791","0.0-3.0-0.38-0.38","<span style= ""font-size:30px; font-family: monospace"">+</span>","null","fixation","","","","",""
"","41160","html-keyboard-response","65","471201","0.0-3.0-1.38","<span style=""font-size:30px; font-family: monospace"">No</span>"," ","","exp-sent","No","","",""
"","2404","html-keyboard-response","66","473857","0.0-3.0-1.39","<span style=""font-size:30px; font-family: monospace"">passado</span>"," ","","exp-sent","passado","","",""
"","2837","html-keyboard-response","67","476945","0.0-3.0-1.40","<span style=""font-size:30px; font-family: monospace"">houve</span>"," ","","exp-sent","houve","","",""
"","2885","html-keyboard-response","68","480081","0.0-3.0-1.41","<span style=""font-size:30px; font-family: monospace"">uma</span>"," ","","exp-sent","uma","","",""
"","4325","html-keyboard-response","69","484657","0.0-3.0-1.42","<span style=""font-size:30px; font-family: monospace"">rebelião</span>"," ","","exp-sent","rebelião","","",""
"","2613","html-keyboard-response","70","487522","0.0-3.0-1.43","<span style=""font-size:30px; font-family: monospace"">nesta</span>"," ","","exp-sent","nesta","","",""
"","2612","html-keyboard-response","71","490385","0.0-3.0-1.44","<span style=""font-size:30px; font-family: monospace"">cidade.</span>"," ","","exp-sent","cidade.","","",""
"","null","html-keyboard-response","72","491637","0.0-3.0-0.45-0.45","<span style= ""font-size:30px; font-family: monospace"">+</span>","null","fixation","","","","",""
"","1474","html-keyboard-response","73","493361","0.0-3.0-1.45","<span style=""font-size:30px; font-family: monospace"">Ele</span>"," ","","exp-sent","Ele","","",""
"","1317","html-keyboard-response","74","494929","0.0-3.0-1.46","<span style=""font-size:30px; font-family: monospace"">fundou</span>"," ","","exp-sent","fundou","","",""
"","3205","html-keyboard-response","75","498385","0.0-3.0-1.47","<span style=""font-size:30px; font-family: monospace"">uma</span>"," ","","exp-sent","uma","","",""
"","2517","html-keyboard-response","76","501153","0.0-3.0-1.48","<span style=""font-size:30px; font-family: monospace"">empresa</span>"," ","","exp-sent","empresa","","",""
"","3330","html-keyboard-response","77","504737","0.0-3.0-1.49","<span style=""font-size:30px; font-family: monospace"">privada</span>"," ","","exp-sent","privada","","",""
"","2229","html-keyboard-response","78","507217","0.0-3.0-1.50","<span style=""font-size:30px; font-family: monospace"">sem</span>"," ","","exp-sent","sem","","",""
"","2432","html-keyboard-response","79","509905","0.0-3.0-1.51","<span style=""font-size:30px; font-family: monospace"">ajuda.</span>"," ","","exp-sent","ajuda.","","",""
"","null","html-keyboard-response","80","511157","0.0-3.0-0.52-0.52","<span style= ""font-size:30px; font-family: monospace"">+</span>","null","fixation","","","","",""
"","1186","html-keyboard-response","81","512593","0.0-3.0-1.52","<span style=""font-size:30px; font-family: monospace"">As</span>"," ","","exp-sent","As","","",""
"","2069","html-keyboard-response","82","514913","0.0-3.0-1.53","<span style=""font-size:30px; font-family: monospace"">meninas</span>"," ","","exp-sent","meninas","","",""
"","4133","html-keyboard-response","83","519297","0.0-3.0-1.54","<span style=""font-size:30px; font-family: monospace"">encontraram</span>"," ","","exp-sent","encontraram","","",""
"","2789","html-keyboard-response","84","522337","0.0-3.0-1.55","<span style=""font-size:30px; font-family: monospace"">um</span>"," ","","exp-sent","um","","",""
"","3653","html-keyboard-response","85","526241","0.0-3.0-1.56","<span style=""font-size:30px; font-family: monospace"">rato</span>"," ","","exp-sent","rato","","",""
"","2917","html-keyboard-response","86","529409","0.0-3.0-1.57","<span style=""font-size:30px; font-family: monospace"">dentro</span>"," ","","exp-sent","dentro","","",""
"","2277","html-keyboard-response","87","531938","0.0-3.0-1.58","<span style=""font-size:30px; font-family: monospace"">de</span>"," ","","exp-sent","de","","",""
"","2518","html-keyboard-response","88","534706","0.0-3.0-1.59","<span style=""font-size:30px; font-family: monospace"">casa.</span>"," ","","exp-sent","casa.","","",""
"","null","html-keyboard-response","89","535957","0.0-3.0-0.60-0.60","<span style= ""font-size:30px; font-family: monospace"">+</span>","null","fixation","","","","",""
"","1026","html-keyboard-response","90","537234","0.0-3.0-1.60","<span style=""font-size:30px; font-family: monospace"">O</span>"," ","","exp-sent","O","","",""
"","1989","html-keyboard-response","91","539473","0.0-3.0-1.61","<span style=""font-size:30px; font-family: monospace"">texto</span>"," ","","exp-sent","texto","","",""
"","1156","html-keyboard-response","92","540882","0.0-3.0-1.62","<span style=""font-size:30px; font-family: monospace"">tinha</span>"," ","","exp-sent","tinha","","",""
"","1653","html-keyboard-response","93","542785","0.0-3.0-1.63","<span style=""font-size:30px; font-family: monospace"">ideias</span>"," ","","exp-sent","ideias","","",""
"","12214","html-keyboard-response","94","555250","0.0-3.0-1.64","<span style=""font-size:30px; font-family: monospace"">vagas</span>"," ","","exp-sent","vagas","","",""
"","2885","html-keyboard-response","95","558385","0.0-3.0-1.65","<span style=""font-size:30px; font-family: monospace"">e</span>"," ","","exp-sent","e","","",""
"","8341","html-keyboard-response","96","566978","0.0-3.0-1.66","<span style=""font-size:30px; font-family: monospace"">confusas.</span>"," ","","exp-sent","confusas.","","",""
"","null","html-keyboard-response","97","568229","0.0-3.0-0.67-0.67","<span style= ""font-size:30px; font-family: monospace"">+</span>","null","fixation","","","","",""
"","1233","html-keyboard-response","98","569713","0.0-3.0-1.67","<span style=""font-size:30px; font-family: monospace"">As</span>"," ","","exp-sent","As","","",""
"","3972","html-keyboard-response","99","573938","0.0-3.0-1.68","<span style=""font-size:30px; font-family: monospace"">crianças</span>"," ","","exp-sent","crianças","","",""
"","14229","html-keyboard-response","100","588418","0.0-3.0-1.69","<span style=""font-size:30px; font-family: monospace"">viram</span>"," ","","exp-sent","viram","","",""
"","2261","html-keyboard-response","101","590930","0.0-3.0-1.70","<span style=""font-size:30px; font-family: monospace"">a</span>"," ","","exp-sent","a","","",""
"","4037","html-keyboard-response","102","595217","0.0-3.0-1.71","<span style=""font-size:30px; font-family: monospace"">acrobata</span>"," ","","exp-sent","acrobata","","",""
"","3973","html-keyboard-response","103","599441","0.0-3.0-1.72","<span style=""font-size:30px; font-family: monospace"">talentosa</span>"," ","","exp-sent","talentosa","","",""
"","2468","html-keyboard-response","104","602160","0.0-3.0-1.73","<span style=""font-size:30px; font-family: monospace"">no</span>"," ","","exp-sent","no","","",""
"","4758","html-keyboard-response","105","607169","0.0-3.0-1.74","<span style=""font-size:30px; font-family: monospace"">circo.</span>"," ","","comp","circo.","","",""
"","120054","html-keyboard-response","106","727472","0.0-3.0-2.74-0.74","<span style=""font-size:30px; font-family: monospace"">As crianças viram o palhaço no circo?</span>","s","","comp","","As crianças viram o palhaço no circo?","não","false"
"","null","html-keyboard-response","107","728973","0.0-3.0-0.75-0.75","<span style= ""font-size:30px; font-family: monospace"">+</span>","null","fixation","","","","",""
"","4823","html-keyboard-response","108","734047","0.0-3.0-1.75","<span style=""font-size:30px; font-family: monospace"">Este</span>"," ","","exp-sent","Este","","",""
"","2389","html-keyboard-response","109","736687","0.0-3.0-1.76","<span style=""font-size:30px; font-family: monospace"">conto</span>"," ","","exp-sent","conto","","",""
"","26501","html-keyboard-response","110","763440","0.0-3.0-1.77","<span style=""font-size:30px; font-family: monospace"">tem</span>"," ","","exp-sent","tem","","",""
"","4709","html-keyboard-response","111","768400","0.0-3.0-1.78","<span style=""font-size:30px; font-family: monospace"">um</span>"," ","","exp-sent","um","","",""
"","3396","html-keyboard-response","112","772048","0.0-3.0-1.79","<span style=""font-size:30px; font-family: monospace"">final</span>"," ","","exp-sent","final","","",""
"","773","html-keyboard-response","113","773072","0.0-3.0-1.80","<span style=""font-size:30px; font-family: monospace"">perfeito.</span>"," ","","exp-sent","perfeito.","","",""
"","null","html-keyboard-response","114","774325","0.0-3.0-0.81-0.81","<span style= ""font-size:30px; font-family: monospace"">+</span>","null","fixation","","","","",""
"","2352","html-keyboard-response","115","776928","0.0-3.0-1.81","<span style=""font-size:30px; font-family: monospace"">Ele</span>"," ","","exp-sent","Ele","","",""
"","3589","html-keyboard-response","116","780768","0.0-3.0-1.82","<span style=""font-size:30px; font-family: monospace"">precisa</span>"," ","","exp-sent","precisa","","",""
"","3701","html-keyboard-response","117","784720","0.0-3.0-1.83","<span style=""font-size:30px; font-family: monospace"">de</span>"," ","","exp-sent","de","","",""
"","2901","html-keyboard-response","118","787871","0.0-3.0-1.84","<span style=""font-size:30px; font-family: monospace"">um</span>"," ","","exp-sent","um","","",""
"","3989","html-keyboard-response","119","792111","0.0-3.0-1.85","<span style=""font-size:30px; font-family: monospace"">protetor</span>"," ","","exp-sent","protetor","","",""
"","6182","html-keyboard-response","120","798543","0.0-3.0-1.86","<span style=""font-size:30px; font-family: monospace"">de</span>"," ","","exp-sent","de","","",""
"","12629","html-keyboard-response","121","811423","0.0-3.0-1.87","<span style=""font-size:30px; font-family: monospace"">ouvido.</span>"," ","","exp-sent","ouvido.","","",""
"","null","html-keyboard-response","122","812675","0.0-3.0-0.88-0.88","<span style= ""font-size:30px; font-family: monospace"">+</span>","null","fixation","","","","",""
"","15890","html-keyboard-response","123","828815","0.0-3.0-1.88","<span style=""font-size:30px; font-family: monospace"">Os</span>"," ","","exp-sent","Os","","",""
"","14469","html-keyboard-response","124","843535","0.0-3.0-1.89","<span style=""font-size:30px; font-family: monospace"">hábitos</span>"," ","","exp-sent","hábitos","","",""
"","2549","html-keyboard-response","125","846335","0.0-3.0-1.90","<span style=""font-size:30px; font-family: monospace"">de</span>"," ","","exp-sent","de","","",""
"","3749","html-keyboard-response","126","850334","0.0-3.0-1.91","<span style=""font-size:30px; font-family: monospace"">lugares</span>"," ","","exp-sent","lugares","","",""
"","2644","html-keyboard-response","127","853231","0.0-3.0-1.92","<span style=""font-size:30px; font-family: monospace"">diferentes</span>"," ","","exp-sent","diferentes","","",""
"","2324","html-keyboard-response","128","855807","0.0-3.0-1.93","<span style=""font-size:30px; font-family: monospace"">são</span>"," ","","exp-sent","são","","",""
"","2485","html-keyboard-response","129","858543","0.0-3.0-1.94","<span style=""font-size:30px; font-family: monospace"">muito</span>"," ","","exp-sent","muito","","",""
"","2453","html-keyboard-response","130","861247","0.0-3.0-1.95","<span style=""font-size:30px; font-family: monospace"">lindos.</span>"," ","","exp-sent","lindos.","","",""
"","null","html-keyboard-response","131","862498","0.0-3.0-0.96-0.96","<span style= ""font-size:30px; font-family: monospace"">+</span>","null","fixation","","","","",""
"","1090","html-keyboard-response","132","863839","0.0-3.0-1.96","<span style=""font-size:30px; font-family: monospace"">O</span>"," ","","exp-sent","O","","",""
"","1636","html-keyboard-response","133","865727","0.0-3.0-1.97","<span style=""font-size:30px; font-family: monospace"">médico</span>"," ","","exp-sent","médico","","",""
"","1188","html-keyboard-response","134","867167","0.0-3.0-1.98","<span style=""font-size:30px; font-family: monospace"">corrigiu</span>"," ","","exp-sent","corrigiu","","",""
"","1541","html-keyboard-response","135","868959","0.0-3.0-1.99","<span style=""font-size:30px; font-family: monospace"">a</span>"," ","","exp-sent","a","","",""
"","1941","html-keyboard-response","136","871151","0.0-3.0-1.100","<span style=""font-size:30px; font-family: monospace"">postura</span>"," ","","exp-sent","postura","","",""
"","2517","html-keyboard-response","137","873919","0.0-3.0-1.101","<span style=""font-size:30px; font-family: monospace"">das</span>"," ","","exp-sent","das","","",""
"","2213","html-keyboard-response","138","876383","0.0-3.0-1.102","<span style=""font-size:30px; font-family: monospace"">costas</span>"," ","","exp-sent","costas","","",""
"","7765","html-keyboard-response","139","884399","0.0-3.0-1.103","<span style=""font-size:30px; font-family: monospace"">da</span>"," ","","exp-sent","da","","",""
"","2564","html-keyboard-response","140","887215","0.0-3.0-1.104","<span style=""font-size:30px; font-family: monospace"">pessoa.</span>"," ","","exp-sent","pessoa.","","",""
"","null","html-keyboard-response","141","888467","0.0-3.0-0.105-0.105","<span style= ""font-size:30px; font-family: monospace"">+</span>","null","fixation","","","","",""
"","865","html-keyboard-response","142","889583","0.0-3.0-1.105","<span style=""font-size:30px; font-family: monospace"">Aquele</span>"," ","","exp-sent","Aquele","","",""
"","1749","html-keyboard-response","143","891583","0.0-3.0-1.106","<span style=""font-size:30px; font-family: monospace"">era</span>"," ","","exp-sent","era","","",""
"","1029","html-keyboard-response","144","892863","0.0-3.0-1.107","<span style=""font-size:30px; font-family: monospace"">um</span>"," ","","exp-sent","um","","",""
"","1348","html-keyboard-response","145","894463","0.0-3.0-1.108","<span style=""font-size:30px; font-family: monospace"">caso</span>"," ","","exp-sent","caso","","",""
"","1477","html-keyboard-response","146","896191","0.0-3.0-1.109","<span style=""font-size:30px; font-family: monospace"">real</span>"," ","","exp-sent","real","","",""
"","933","html-keyboard-response","147","897375","0.0-3.0-1.110","<span style=""font-size:30px; font-family: monospace"">de</span>"," ","","exp-sent","de","","",""
"","1973","html-keyboard-response","148","899599","0.0-3.0-1.111","<span style=""font-size:30px; font-family: monospace"">sequestro</span>"," ","","exp-sent","sequestro","","",""
"","18294","html-keyboard-response","149","918143","0.0-3.0-1.112","<span style=""font-size:30px; font-family: monospace"">premeditado.</span>"," ","","comp","premeditado.","","",""
"","12933","html-keyboard-response","150","931326","0.0-3.0-2.112-0.112","<span style=""font-size:30px; font-family: monospace"">Aquele era um caso real de roubo?</span>","n","","comp","","Aquele era um caso real de roubo?","não","false"
"","null","html-keyboard-response","151","932829","0.0-3.0-0.113-0.113","<span style= ""font-size:30px; font-family: monospace"">+</span>","null","fixation","","","","",""
"","3062","html-keyboard-response","152","936142","0.0-3.0-1.113","<span style=""font-size:30px; font-family: monospace"">A</span>"," ","","exp-sent","A","","",""
"","1141","html-keyboard-response","153","937535","0.0-3.0-1.114","<span style=""font-size:30px; font-family: monospace"">senhora</span>"," ","","exp-sent","senhora","","",""
"","4117","html-keyboard-response","154","941903","0.0-3.0-1.115","<span style=""font-size:30px; font-family: monospace"">cumprimentou</span>"," ","","exp-sent","cumprimentou","","",""
"","2261","html-keyboard-response","155","944414","0.0-3.0-1.116","<span style=""font-size:30px; font-family: monospace"">o</span>"," ","","exp-sent","o","","",""
"","3045","html-keyboard-response","156","947710","0.0-3.0-1.117","<span style=""font-size:30px; font-family: monospace"">operador</span>"," ","","exp-sent","operador","","",""
"","2294","html-keyboard-response","157","950254","0.0-3.0-1.118","<span style=""font-size:30px; font-family: monospace"">de</span>"," ","","exp-sent","de","","",""
"","2260","html-keyboard-response","158","952767","0.0-3.0-1.119","<span style=""font-size:30px; font-family: monospace"">caixa.</span>"," ","","exp-sent","caixa.","","",""
"","null","html-keyboard-response","159","954020","0.0-3.0-0.120-0.120","<span style= ""font-size:30px; font-family: monospace"">+</span>","null","fixation","","","","",""
"","512","html-keyboard-response","160","954782","0.0-3.0-1.120","<span style=""font-size:30px; font-family: monospace"">A</span>"," ","","exp-sent","A","","",""
"","2213","html-keyboard-response","161","957246","0.0-3.0-1.121","<span style=""font-size:30px; font-family: monospace"">gente</span>"," ","","exp-sent","gente","","",""
"","1318","html-keyboard-response","162","958814","0.0-3.0-1.122","<span style=""font-size:30px; font-family: monospace"">viu</span>"," ","","exp-sent","viu","","",""
"","1733","html-keyboard-response","163","960799","0.0-3.0-1.123","<span style=""font-size:30px; font-family: monospace"">o</span>"," ","","exp-sent","o","","",""
"","1477","html-keyboard-response","164","962527","0.0-3.0-1.124","<span style=""font-size:30px; font-family: monospace"">eclipse</span>"," ","","exp-sent","eclipse","","",""
"","3780","html-keyboard-response","165","966558","0.0-3.0-1.125","<span style=""font-size:30px; font-family: monospace"">lunar</span>"," ","","exp-sent","lunar","","",""
"","6086","html-keyboard-response","166","972894","0.0-3.0-1.126","<span style=""font-size:30px; font-family: monospace"">durante</span>"," ","","exp-sent","durante","","",""
"","2325","html-keyboard-response","167","975470","0.0-3.0-1.127","<span style=""font-size:30px; font-family: monospace"">o</span>"," ","","exp-sent","o","","",""
"","14453","html-keyboard-response","168","990174","0.0-3.0-1.128","<span style=""font-size:30px; font-family: monospace"">dia.</span>"," ","","exp-sent","dia.","","",""
"","null","html-keyboard-response","169","991427","0.0-3.0-0.129-0.129","<span style= ""font-size:30px; font-family: monospace"">+</span>","null","fixation","","","","",""
"","1711","html-keyboard-response","170","993390","0.0-3.0-1.129","<span style=""font-size:30px; font-family: monospace"">A</span>"," ","","exp-sent","A","","",""
"","2532","html-keyboard-response","171","996174","0.0-3.0-1.130","<span style=""font-size:30px; font-family: monospace"">mordida</span>"," ","","exp-sent","mordida","","",""
"","2373","html-keyboard-response","172","998798","0.0-3.0-1.131","<span style=""font-size:30px; font-family: monospace"">do</span>"," ","","exp-sent","do","","",""
"","5398","html-keyboard-response","173","1004446","0.0-3.0-1.132","<span style=""font-size:30px; font-family: monospace"">cachorro</span>"," ","","exp-sent","cachorro","","",""
"","3189","html-keyboard-response","174","1007886","0.0-3.0-1.133","<span style=""font-size:30px; font-family: monospace"">voraz</span>"," ","","exp-sent","voraz","","",""
"","4885","html-keyboard-response","175","1013022","0.0-3.0-1.134","<span style=""font-size:30px; font-family: monospace"">causou</span>"," ","","exp-sent","causou","","",""
"","2437","html-keyboard-response","176","1015710","0.0-3.0-1.135","<span style=""font-size:30px; font-family: monospace"">uma</span>"," ","","exp-sent","uma","","",""
"","4421","html-keyboard-response","177","1020382","0.0-3.0-1.136","<span style=""font-size:30px; font-family: monospace"">cicatriz.</span>"," ","","exp-sent","cicatriz.","","",""
"","null","html-keyboard-response","178","1021634","0.0-3.0-0.137-0.137","<span style= ""font-size:30px; font-family: monospace"">+</span>","null","fixation","","","","",""
"","1025","html-keyboard-response","179","1022910","0.0-3.0-1.137","<span style=""font-size:30px; font-family: monospace"">Elas</span>"," ","","exp-sent","Elas","","",""
"","1732","html-keyboard-response","180","1024894","0.0-3.0-1.138","<span style=""font-size:30px; font-family: monospace"">não</span>"," ","","exp-sent","não","","",""
"","1157","html-keyboard-response","181","1026302","0.0-3.0-1.139","<span style=""font-size:30px; font-family: monospace"">viram</span>"," ","","exp-sent","viram","","",""
"","1813","html-keyboard-response","182","1028366","0.0-3.0-1.140","<span style=""font-size:30px; font-family: monospace"">nenhuma</span>"," ","","exp-sent","nenhuma","","",""
"","3797","html-keyboard-response","183","1032414","0.0-3.0-1.141","<span style=""font-size:30px; font-family: monospace"">diferença</span>"," ","","exp-sent","diferença","","",""
"","2501","html-keyboard-response","184","1035166","0.0-3.0-1.142","<span style=""font-size:30px; font-family: monospace"">entre</span>"," ","","exp-sent","entre","","",""
"","2469","html-keyboard-response","185","1037886","0.0-3.0-1.143","<span style=""font-size:30px; font-family: monospace"">os</span>"," ","","exp-sent","os","","",""
"","2389","html-keyboard-response","186","1040526","0.0-3.0-1.144","<span style=""font-size:30px; font-family: monospace"">textos.</span>"," ","","exp-sent","textos.","","",""
"","null","html-keyboard-response","187","1041778","0.0-3.0-0.145-0.145","<span style= ""font-size:30px; font-family: monospace"">+</span>","null","fixation","","","","",""
"","1104","html-keyboard-response","188","1043134","0.0-3.0-1.145","<span style=""font-size:30px; font-family: monospace"">Amanhã</span>"," ","","exp-sent","Amanhã","","",""
"","2373","html-keyboard-response","189","1045758","0.0-3.0-1.146","<span style=""font-size:30px; font-family: monospace"">vai</span>"," ","","exp-sent","vai","","",""
"","901","html-keyboard-response","190","1046910","0.0-3.0-1.147","<span style=""font-size:30px; font-family: monospace"">ter</span>"," ","","exp-sent","ter","","",""
"","1189","html-keyboard-response","191","1048350","0.0-3.0-1.148","<span style=""font-size:30px; font-family: monospace"">um</span>"," ","","exp-sent","um","","",""
"","1637","html-keyboard-response","192","1050238","0.0-3.0-1.149","<span style=""font-size:30px; font-family: monospace"">bazar</span>"," ","","exp-sent","bazar","","",""
"","853","html-keyboard-response","193","1051342","0.0-3.0-1.150","<span style=""font-size:30px; font-family: monospace"">no</span>"," ","","exp-sent","no","","",""
"","1701","html-keyboard-response","194","1053294","0.0-3.0-1.151","<span style=""font-size:30px; font-family: monospace"">bairro.</span>"," ","","comp","bairro.","","",""
"","12901","html-keyboard-response","195","1066446","0.0-3.0-2.151-0.151","<span style=""font-size:30px; font-family: monospace"">Amanhã vai acontecer um bazar no bairro?</span>","s","","comp","","Amanhã vai acontecer um bazar no bairro?","sim","false"
"","null","html-keyboard-response","196","1067947","0.0-3.0-0.152-0.152","<span style= ""font-size:30px; font-family: monospace"">+</span>","null","fixation","","","","",""
"","2440","html-keyboard-response","197","1070638","0.0-3.0-1.152","<span style=""font-size:30px; font-family: monospace"">A</span>"," ","","exp-sent","A","","",""
"","949","html-keyboard-response","198","1071838","0.0-3.0-1.153","<span style=""font-size:30px; font-family: monospace"">força</span>"," ","","exp-sent","força","","",""
"","1093","html-keyboard-response","199","1073182","0.0-3.0-1.154","<span style=""font-size:30px; font-family: monospace"">d'água</span>"," ","","exp-sent","d'água","","",""
"","1733","html-keyboard-response","200","1075166","0.0-3.0-1.155","<span style=""font-size:30px; font-family: monospace"">estava</span>"," ","","exp-sent","estava","","",""
"","1349","html-keyboard-response","201","1076766","0.0-3.0-1.156","<span style=""font-size:30px; font-family: monospace"">normal</span>"," ","","exp-sent","normal","","",""
"","1525","html-keyboard-response","202","1078542","0.0-3.0-1.157","<span style=""font-size:30px; font-family: monospace"">naquele</span>"," ","","exp-sent","naquele","","",""
"","2148","html-keyboard-response","203","1080942","0.0-3.0-1.158","<span style=""font-size:30px; font-family: monospace"">dia.</span>"," ","","exp-sent","dia.","","",""
"","null","html-keyboard-response","204","1082204","0.0-3.0-0.159-0.159","<span style= ""font-size:30px; font-family: monospace"">+</span>","null","fixation","","","","",""
"","3959","html-keyboard-response","205","1086414","0.0-3.0-1.159","<span style=""font-size:30px; font-family: monospace"">A</span>"," ","","exp-sent","A","","",""
"","4197","html-keyboard-response","206","1090862","0.0-3.0-1.160","<span style=""font-size:30px; font-family: monospace"">médica</span>"," ","","exp-sent","médica","","",""
"","3573","html-keyboard-response","207","1094686","0.0-3.0-1.161","<span style=""font-size:30px; font-family: monospace"">ofereceu</span>"," ","","exp-sent","ofereceu","","",""
"","2293","html-keyboard-response","208","1097230","0.0-3.0-1.162","<span style=""font-size:30px; font-family: monospace"">a</span>"," ","","exp-sent","a","","",""
"","53957","html-keyboard-response","209","1151437","0.0-3.0-1.163","<span style=""font-size:30px; font-family: monospace"">pomada</span>"," ","","exp-sent","pomada","","",""
"","2532","html-keyboard-response","210","1154221","0.0-3.0-1.164","<span style=""font-size:30px; font-family: monospace"">para</span>"," ","","exp-sent","para","","",""
"","2293","html-keyboard-response","211","1156765","0.0-3.0-1.165","<span style=""font-size:30px; font-family: monospace"">o</span>"," ","","exp-sent","o","","",""
"","21269","html-keyboard-response","212","1178285","0.0-3.0-1.166","<span style=""font-size:30px; font-family: monospace"">avô.</span>"," ","","exp-sent","avô.","","",""
"","null","html-keyboard-response","213","1179537","0.0-3.0-0.167-0.167","<span style= ""font-size:30px; font-family: monospace"">+</span>","null","fixation","","","","",""
"","1265","html-keyboard-response","214","1181053","0.0-3.0-1.167","<span style=""font-size:30px; font-family: monospace"">Ele</span>"," ","","exp-sent","Ele","","",""
"","1573","html-keyboard-response","215","1182877","0.0-3.0-1.168","<span style=""font-size:30px; font-family: monospace"">conversou</span>"," ","","exp-sent","conversou","","",""
"","645","html-keyboard-response","216","1183773","0.0-3.0-1.169","<span style=""font-size:30px; font-family: monospace"">com</span>"," ","","exp-sent","com","","",""
"","629","html-keyboard-response","217","1184653","0.0-3.0-1.170","<span style=""font-size:30px; font-family: monospace"">o</span>"," ","","exp-sent","o","","",""
"","1061","html-keyboard-response","218","1185965","0.0-3.0-1.171","<span style=""font-size:30px; font-family: monospace"">patrão</span>"," ","","exp-sent","patrão","","",""
"","1220","html-keyboard-response","219","1187437","0.0-3.0-1.172","<span style=""font-size:30px; font-family: monospace"">durante</span>"," ","","exp-sent","durante","","",""
"","1268","html-keyboard-response","220","1188956","0.0-3.0-1.173","<span style=""font-size:30px; font-family: monospace"">a</span>"," ","","exp-sent","a","","",""
"","1652","html-keyboard-response","221","1190861","0.0-3.0-1.174","<span style=""font-size:30px; font-family: monospace"">tarde.</span>"," ","","exp-sent","tarde.","","",""
"","null","html-keyboard-response","222","1192113","0.0-3.0-0.175-0.175","<span style= ""font-size:30px; font-family: monospace"">+</span>","null","fixation","","","","",""
"","1568","html-keyboard-response","223","1193933","0.0-3.0-1.175","<span style=""font-size:30px; font-family: monospace"">Algumas</span>"," ","","exp-sent","Algumas","","",""
"","853","html-keyboard-response","224","1195037","0.0-3.0-1.176","<span style=""font-size:30px; font-family: monospace"">pessoas</span>"," ","","exp-sent","pessoas","","",""
"","2997","html-keyboard-response","225","1198285","0.0-3.0-1.177","<span style=""font-size:30px; font-family: monospace"">acreditam</span>"," ","","exp-sent","acreditam","","",""
"","2437","html-keyboard-response","226","1200973","0.0-3.0-1.178","<span style=""font-size:30px; font-family: monospace"">em</span>"," ","","exp-sent","em","","",""
"","2740","html-keyboard-response","227","1203965","0.0-3.0-1.179","<span style=""font-size:30px; font-family: monospace"">espíritos</span>"," ","","exp-sent","espíritos","","",""
"","5604","html-keyboard-response","228","1209821","0.0-3.0-1.180","<span style=""font-size:30px; font-family: monospace"">e</span>"," ","","exp-sent","e","","",""
"","2917","html-keyboard-response","229","1212989","0.0-3.0-1.181","<span style=""font-size:30px; font-family: monospace"">em</span>"," ","","exp-sent","em","","",""
"","1892","html-keyboard-response","230","1215133","0.0-3.0-1.182","<span style=""font-size:30px; font-family: monospace"">outras</span>"," ","","exp-sent","outras","","",""
"","2997","html-keyboard-response","231","1218381","0.0-3.0-1.183","<span style=""font-size:30px; font-family: monospace"">vidas.</span>"," ","","exp-sent","vidas.","","",""
"","null","html-keyboard-response","232","1219633","0.0-3.0-0.184-0.184","<span style= ""font-size:30px; font-family: monospace"">+</span>","null","fixation","","","","",""
"","1094","html-keyboard-response","233","1220989","0.0-3.0-1.184","<span style=""font-size:30px; font-family: monospace"">Ela</span>"," ","","exp-sent","Ela","","",""
"","1669","html-keyboard-response","234","1222909","0.0-3.0-1.185","<span style=""font-size:30px; font-family: monospace"">gosta</span>"," ","","exp-sent","gosta","","",""
"","853","html-keyboard-response","235","1224013","0.0-3.0-1.186","<span style=""font-size:30px; font-family: monospace"">de</span>"," ","","exp-sent","de","","",""
"","1493","html-keyboard-response","236","1225757","0.0-3.0-1.187","<span style=""font-size:30px; font-family: monospace"">estudar</span>"," ","","exp-sent","estudar","","",""
"","1045","html-keyboard-response","237","1227053","0.0-3.0-1.188","<span style=""font-size:30px; font-family: monospace"">matemática</span>"," ","","exp-sent","matemática","","",""
"","1749","html-keyboard-response","238","1229052","0.0-3.0-1.189","<span style=""font-size:30px; font-family: monospace"">com</span>"," ","","exp-sent","com","","",""
"","898","html-keyboard-response","239","1230205","0.0-3.0-1.190","<span style=""font-size:30px; font-family: monospace"">colegas.</span>"," ","","comp","colegas.","","",""
"","20133","html-keyboard-response","240","1250589","0.0-3.0-2.190-0.190","<span style=""font-size:30px; font-family: monospace"">Ela gosta de estudar física?</span>","s","","comp","","Ela gosta de estudar física?","não","false"
"","null","html-keyboard-response","241","1252091","0.0-3.0-0.191-0.191","<span style= ""font-size:30px; font-family: monospace"">+</span>","null","fixation","","","","",""
"","8695","html-keyboard-response","242","1261037","0.0-3.0-1.191","<span style=""font-size:30px; font-family: monospace"">O</span>"," ","","exp-sent","O","","",""
"","2309","html-keyboard-response","243","1263596","0.0-3.0-1.192","<span style=""font-size:30px; font-family: monospace"">texto</span>"," ","","exp-sent","texto","","",""
"","3781","html-keyboard-response","244","1267629","0.0-3.0-1.193","<span style=""font-size:30px; font-family: monospace"">trazia</span>"," ","","exp-sent","trazia","","",""
"","24245","html-keyboard-response","245","1292124","0.0-3.0-1.194","<span style=""font-size:30px; font-family: monospace"">um</span>"," ","","exp-sent","um","","",""
"","4549","html-keyboard-response","246","1296924","0.0-3.0-1.195","<span style=""font-size:30px; font-family: monospace"">argumento</span>"," ","","exp-sent","argumento","","",""
"","4068","html-keyboard-response","247","1301244","0.0-3.0-1.196","<span style=""font-size:30px; font-family: monospace"">central</span>"," ","","exp-sent","central","","",""
"","2630","html-keyboard-response","248","1304124","0.0-3.0-1.197","<span style=""font-size:30px; font-family: monospace"">para</span>"," ","","exp-sent","para","","",""
"","2357","html-keyboard-response","249","1306732","0.0-3.0-1.198","<span style=""font-size:30px; font-family: monospace"">a</span>"," ","","exp-sent","a","","",""
"","3253","html-keyboard-response","250","1310236","0.0-3.0-1.199","<span style=""font-size:30px; font-family: monospace"">conversa.</span>"," ","","exp-sent","conversa.","","",""
"","null","html-keyboard-response","251","1311489","0.0-3.0-0.200-0.200","<span style= ""font-size:30px; font-family: monospace"">+</span>","null","fixation","","","","",""
"","1168","html-keyboard-response","252","1312908","0.0-3.0-1.200","<span style=""font-size:30px; font-family: monospace"">Ontem</span>"," ","","exp-sent","Ontem","","",""
"","2053","html-keyboard-response","253","1315212","0.0-3.0-1.201","<span style=""font-size:30px; font-family: monospace"">a</span>"," ","","exp-sent","a","","",""
"","821","html-keyboard-response","254","1316284","0.0-3.0-1.202","<span style=""font-size:30px; font-family: monospace"">temperatura</span>"," ","","exp-sent","temperatura","","",""
"","2213","html-keyboard-response","255","1318748","0.0-3.0-1.203","<span style=""font-size:30px; font-family: monospace"">estava</span>"," ","","exp-sent","estava","","",""
"","3285","html-keyboard-response","256","1322284","0.0-3.0-1.204","<span style=""font-size:30px; font-family: monospace"">amena</span>"," ","","exp-sent","amena","","",""
"","2453","html-keyboard-response","257","1324988","0.0-3.0-1.205","<span style=""font-size:30px; font-family: monospace"">durante</span>"," ","","exp-sent","durante","","",""
"","1221","html-keyboard-response","258","1326460","0.0-3.0-1.206","<span style=""font-size:30px; font-family: monospace"">o</span>"," ","","exp-sent","o","","",""
"","3364","html-keyboard-response","259","1330076","0.0-3.0-1.207","<span style=""font-size:30px; font-family: monospace"">dia.</span>"," ","","exp-sent","dia.","","",""
"","null","html-keyboard-response","260","1331328","0.0-3.0-0.208-0.208","<span style= ""font-size:30px; font-family: monospace"">+</span>","null","fixation","","","","",""
"","4305","html-keyboard-response","261","1335884","0.0-3.0-1.208","<span style=""font-size:30px; font-family: monospace"">Havia</span>"," ","","exp-sent","Havia","","",""
"","165","html-keyboard-response","262","1336300","0.0-3.0-1.209","<span style=""font-size:30px; font-family: monospace"">um</span>"," ","","exp-sent","um","","",""
"","6885","html-keyboard-response","263","1343436","0.0-3.0-1.210","<span style=""font-size:30px; font-family: monospace"">machucado</span>"," ","","exp-sent","machucado","","",""
"","6437","html-keyboard-response","264","1350124","0.0-3.0-1.211","<span style=""font-size:30px; font-family: monospace"">no</span>"," ","","exp-sent","no","","",""
"","3605","html-keyboard-response","265","1353980","0.0-3.0-1.212","<span style=""font-size:30px; font-family: monospace"">dedo</span>"," ","","exp-sent","dedo","","",""
"","3621","html-keyboard-response","266","1357852","0.0-3.0-1.213","<span style=""font-size:30px; font-family: monospace"">da</span>"," ","","exp-sent","da","","",""
"","3684","html-keyboard-response","267","1361788","0.0-3.0-1.214","<span style=""font-size:30px; font-family: monospace"">criança.</span>"," ","","exp-sent","criança.","","",""
"","null","html-keyboard-response","268","1363039","0.0-3.0-0.215-0.215","<span style= ""font-size:30px; font-family: monospace"">+</span>","null","fixation","","","","",""
"","1378","html-keyboard-response","269","1364668","0.0-3.0-1.215","<span style=""font-size:30px; font-family: monospace"">A</span>"," ","","exp-sent","A","","",""
"","789","html-keyboard-response","270","1365708","0.0-3.0-1.216","<span style=""font-size:30px; font-family: monospace"">borboleta</span>"," ","","exp-sent","borboleta","","",""
"","4405","html-keyboard-response","271","1370363","0.0-3.0-1.217","<span style=""font-size:30px; font-family: monospace"">pousou</span>"," ","","exp-sent","pousou","","",""
"","2549","html-keyboard-response","272","1373164","0.0-3.0-1.218","<span style=""font-size:30px; font-family: monospace"">no</span>"," ","","exp-sent","no","","",""
"","2677","html-keyboard-response","273","1376092","0.0-3.0-1.219","<span style=""font-size:30px; font-family: monospace"">ombro</span>"," ","","exp-sent","ombro","","",""
"","6513","html-keyboard-response","274","1382860","0.0-3.0-1.220","<span style=""font-size:30px; font-family: monospace"">daquela</span>"," ","","exp-sent","daquela","","",""
"","3285","html-keyboard-response","275","1386396","0.0-3.0-1.221","<span style=""font-size:30px; font-family: monospace"">moça.</span>"," ","","exp-sent","moça.","","",""
"","null","html-keyboard-response","276","1387648","0.0-3.0-0.222-0.222","<span style= ""font-size:30px; font-family: monospace"">+</span>","null","fixation","","","","",""
"","1089","html-keyboard-response","277","1388988","0.0-3.0-1.222","<span style=""font-size:30px; font-family: monospace"">Eu</span>"," ","","exp-sent","Eu","","",""
"","1830","html-keyboard-response","278","1391068","0.0-3.0-1.223","<span style=""font-size:30px; font-family: monospace"">quero</span>"," ","","exp-sent","quero","","",""
"","1205","html-keyboard-response","279","1392524","0.0-3.0-1.224","<span style=""font-size:30px; font-family: monospace"">um</span>"," ","","exp-sent","um","","",""
"","1333","html-keyboard-response","280","1394108","0.0-3.0-1.225","<span style=""font-size:30px; font-family: monospace"">namorado</span>"," ","","exp-sent","namorado","","",""
"","4822","html-keyboard-response","281","1399180","0.0-3.0-1.226","<span style=""font-size:30px; font-family: monospace"">honesto</span>"," ","","exp-sent","honesto","","",""
"","2676","html-keyboard-response","282","1402108","0.0-3.0-1.227","<span style=""font-size:30px; font-family: monospace"">e</span>"," ","","exp-sent","e","","",""
"","4966","html-keyboard-response","283","1407324","0.0-3.0-1.228","<span style=""font-size:30px; font-family: monospace"">compreensivo.</span>"," ","","comp","compreensivo.","","",""
"","25188","html-keyboard-response","284","1432763","0.0-3.0-2.228-0.228","<span style=""font-size:30px; font-family: monospace"">Eu quero um namorado honesto?</span>","s","","comp","","Eu quero um namorado honesto?","sim","false"
"","null","html-keyboard-response","285","1434265","0.0-3.0-0.229-0.229","<span style= ""font-size:30px; font-family: monospace"">+</span>","null","fixation","","","","",""
"","1046","html-keyboard-response","286","1435563","0.0-3.0-1.229","<span style=""font-size:30px; font-family: monospace"">O</span>"," ","","exp-sent","O","","",""
"","2325","html-keyboard-response","287","1438139","0.0-3.0-1.230","<span style=""font-size:30px; font-family: monospace"">travesseiro</span>"," ","","exp-sent","travesseiro","","",""
"","3013","html-keyboard-response","288","1441403","0.0-3.0-1.231","<span style=""font-size:30px; font-family: monospace"">era</span>"," ","","exp-sent","era","","",""
"","2741","html-keyboard-response","289","1444395","0.0-3.0-1.232","<span style=""font-size:30px; font-family: monospace"">muito</span>"," ","","exp-sent","muito","","",""
"","3604","html-keyboard-response","290","1448251","0.0-3.0-1.233","<span style=""font-size:30px; font-family: monospace"">macio</span>"," ","","exp-sent","macio","","",""
"","2805","html-keyboard-response","291","1451307","0.0-3.0-1.234","<span style=""font-size:30px; font-family: monospace"">e</span>"," ","","exp-sent","e","","",""
"","10165","html-keyboard-response","292","1461723","0.0-3.0-1.235","<span style=""font-size:30px; font-family: monospace"">confortável.</span>"," ","","exp-sent","confortável.","","",""
"","null","html-keyboard-response","293","1462976","0.0-3.0-0.236-0.236","<span style= ""font-size:30px; font-family: monospace"">+</span>","null","fixation","","","","",""
"","1185","html-keyboard-response","294","1464411","0.0-3.0-1.236","<span style=""font-size:30px; font-family: monospace"">Hoje</span>"," ","","exp-sent","Hoje","","",""
"","8341","html-keyboard-response","295","1473003","0.0-3.0-1.237","<span style=""font-size:30px; font-family: monospace"">a</span>"," ","","exp-sent","a","","",""
"","4","html-keyboard-response","296","1473259","0.0-3.0-1.238","<span style=""font-size:30px; font-family: monospace"">atendente</span>"," ","","exp-sent","atendente","","",""
"","3860","html-keyboard-response","297","1477371","0.0-3.0-1.239","<span style=""font-size:30px; font-family: monospace"">estava</span>"," ","","exp-sent","estava","","",""
"","23092","html-keyboard-response","298","1500715","0.0-3.0-1.240","<span style=""font-size:30px; font-family: monospace"">furiosa</span>"," ","","exp-sent","furiosa","","",""
"","5110","html-keyboard-response","299","1506075","0.0-3.0-1.241","<span style=""font-size:30px; font-family: monospace"">com</span>"," ","","exp-sent","com","","",""
"","10420","html-keyboard-response","300","1516747","0.0-3.0-1.242","<span style=""font-size:30px; font-family: monospace"">o</span>"," ","","exp-sent","o","","",""
"","3317","html-keyboard-response","301","1520315","0.0-3.0-1.243","<span style=""font-size:30px; font-family: monospace"">cliente.</span>"," ","","exp-sent","cliente.","","",""
"","null","html-keyboard-response","302","1521568","0.0-3.0-0.244-0.244","<span style= ""font-size:30px; font-family: monospace"">+</span>","null","fixation","","","","",""
"","1424","html-keyboard-response","303","1523244","0.0-3.0-1.244","<span style=""font-size:30px; font-family: monospace"">O</span>"," ","","exp-sent","O","","",""
"","1765","html-keyboard-response","304","1525260","0.0-3.0-1.245","<span style=""font-size:30px; font-family: monospace"">vizinho</span>"," ","","exp-sent","vizinho","","",""
"","3622","html-keyboard-response","305","1529132","0.0-3.0-1.246","<span style=""font-size:30px; font-family: monospace"">é</span>"," ","","exp-sent","é","","",""
"","3156","html-keyboard-response","306","1532540","0.0-3.0-1.247","<span style=""font-size:30px; font-family: monospace"">um</span>"," ","","exp-sent","um","","",""
"","5909","html-keyboard-response","307","1538700","0.0-3.0-1.248","<span style=""font-size:30px; font-family: monospace"">arquiteto</span>"," ","","exp-sent","arquiteto","","",""
"","4116","html-keyboard-response","308","1543068","0.0-3.0-1.249","<span style=""font-size:30px; font-family: monospace"">muito</span>"," ","","exp-sent","muito","","",""
"","4741","html-keyboard-response","309","1548059","0.0-3.0-1.250","<span style=""font-size:30px; font-family: monospace"">excêntrico.</span>"," ","","exp-sent","excêntrico.","","",""
"","null","html-keyboard-response","310","1549310","0.0-3.0-0.251-0.251","<span style= ""font-size:30px; font-family: monospace"">+</span>","null","fixation","","","","",""
"","1394","html-keyboard-response","311","1550955","0.0-3.0-1.251","<span style=""font-size:30px; font-family: monospace"">A</span>"," ","","exp-sent","A","","",""
"","1717","html-keyboard-response","312","1552924","0.0-3.0-1.252","<span style=""font-size:30px; font-family: monospace"">nossa</span>"," ","","exp-sent","nossa","","",""
"","8165","html-keyboard-response","313","1561338","0.0-3.0-1.253","<span style=""font-size:30px; font-family: monospace"">colega</span>"," ","","exp-sent","colega","","",""
"","7509","html-keyboard-response","314","1569098","0.0-3.0-1.254","<span style=""font-size:30px; font-family: monospace"">foi</span>"," ","","exp-sent","foi","","",""
"","2694","html-keyboard-response","315","1572043","0.0-3.0-1.255","<span style=""font-size:30px; font-family: monospace"">má</span>"," ","","exp-sent","má","","",""
"","2517","html-keyboard-response","316","1574810","0.0-3.0-1.256","<span style=""font-size:30px; font-family: monospace"">com</span>"," ","","exp-sent","com","","",""
"","4523","html-keyboard-response","317","1579594","0.0-3.0-1.257","<span style=""font-size:30px; font-family: monospace"">as</span>"," ","","exp-sent","as","","",""
"","4101","html-keyboard-response","318","1583946","0.0-3.0-1.258","<span style=""font-size:30px; font-family: monospace"">crianças.</span>"," ","","exp-sent","crianças.","","",""
"","null","html-keyboard-response","319","1585198","0.0-3.0-0.259-0.259","<span style= ""font-size:30px; font-family: monospace"">+</span>","null","fixation","","","","",""
"","1682","html-keyboard-response","320","1587130","0.0-3.0-1.259","<span style=""font-size:30px; font-family: monospace"">Virtudes</span>"," ","","exp-sent","Virtudes","","",""
"","4773","html-keyboard-response","321","1592154","0.0-3.0-1.260","<span style=""font-size:30px; font-family: monospace"">não</span>"," ","","exp-sent","não","","",""
"","3094","html-keyboard-response","322","1595499","0.0-3.0-1.261","<span style=""font-size:30px; font-family: monospace"">são</span>"," ","","exp-sent","são","","",""
"","7764","html-keyboard-response","323","1603514","0.0-3.0-1.262","<span style=""font-size:30px; font-family: monospace"">preguiça,</span>"," ","","exp-sent","preguiça,","","",""
"","5494","html-keyboard-response","324","1609259","0.0-3.0-1.263","<span style=""font-size:30px; font-family: monospace"">gula</span>"," ","","exp-sent","gula","","",""
"","6804","html-keyboard-response","325","1616314","0.0-3.0-1.264","<span style=""font-size:30px; font-family: monospace"">nem</span>"," ","","exp-sent","nem","","",""
"","4950","html-keyboard-response","326","1621515","0.0-3.0-1.265","<span style=""font-size:30px; font-family: monospace"">ganância.</span>"," ","","comp","ganância.","","",""
"","24581","html-keyboard-response","327","1646347","0.0-3.0-2.265-0.265","<span style=""font-size:30px; font-family: monospace"">Preguiça é uma virtude?</span>","n","","comp","","Preguiça é uma virtude?","não","false"
"","null","html-keyboard-response","328","1647849","0.0-3.0-0.266-0.266","<span style= ""font-size:30px; font-family: monospace"">+</span>","null","fixation","","","","",""
"","2248","html-keyboard-response","329","1650347","0.0-3.0-1.266","<span style=""font-size:30px; font-family: monospace"">Eu</span>"," ","","exp-sent","Eu","","",""
"","2052","html-keyboard-response","330","1652651","0.0-3.0-1.267","<span style=""font-size:30px; font-family: monospace"">gosto</span>"," ","","exp-sent","gosto","","",""
"","2213","html-keyboard-response","331","1655115","0.0-3.0-1.268","<span style=""font-size:30px; font-family: monospace"">de</span>"," ","","exp-sent","de","","",""
"","2596","html-keyboard-response","332","1657963","0.0-3.0-1.269","<span style=""font-size:30px; font-family: monospace"">molho</span>"," ","","exp-sent","molho","","",""
"","3317","html-keyboard-response","333","1661531","0.0-3.0-1.270","<span style=""font-size:30px; font-family: monospace"">picante</span>"," ","","exp-sent","picante","","",""
"","2901","html-keyboard-response","334","1664682","0.0-3.0-1.271","<span style=""font-size:30px; font-family: monospace"">nas</span>"," ","","exp-sent","nas","","",""
"","3269","html-keyboard-response","335","1668203","0.0-3.0-1.272","<span style=""font-size:30px; font-family: monospace"">batatas.</span>"," ","","exp-sent","batatas.","","",""
"","null","html-keyboard-response","336","1669457","0.0-3.0-0.273-0.273","<span style= ""font-size:30px; font-family: monospace"">+</span>","null","fixation","","","","",""
"","1567","html-keyboard-response","337","1671275","0.0-3.0-1.273","<span style=""font-size:30px; font-family: monospace"">As</span>"," ","","exp-sent","As","","",""
"","4662","html-keyboard-response","338","1676187","0.0-3.0-1.274","<span style=""font-size:30px; font-family: monospace"">pessoas</span>"," ","","exp-sent","pessoas","","",""
"","2437","html-keyboard-response","339","1678875","0.0-3.0-1.275","<span style=""font-size:30px; font-family: monospace"">têm</span>"," ","","exp-sent","têm","","",""
"","3078","html-keyboard-response","340","1682203","0.0-3.0-1.276","<span style=""font-size:30px; font-family: monospace"">sua</span>"," ","","exp-sent","sua","","",""
"","2852","html-keyboard-response","341","1685306","0.0-3.0-1.277","<span style=""font-size:30px; font-family: monospace"">liberdade</span>"," ","","exp-sent","liberdade","","",""
"","3333","html-keyboard-response","342","1688890","0.0-3.0-1.278","<span style=""font-size:30px; font-family: monospace"">até</span>"," ","","exp-sent","até","","",""
"","2517","html-keyboard-response","343","1691658","0.0-3.0-1.279","<span style=""font-size:30px; font-family: monospace"">certo</span>"," ","","exp-sent","certo","","",""
"","2085","html-keyboard-response","344","1693994","0.0-3.0-1.280","<span style=""font-size:30px; font-family: monospace"">ponto.</span>"," ","","exp-sent","ponto.","","",""
"","null","html-keyboard-response","345","1695246","0.0-3.0-0.281-0.281","<span style= ""font-size:30px; font-family: monospace"">+</span>","null","fixation","","","","",""
"","993","html-keyboard-response","346","1696489","0.0-3.0-1.281","<span style=""font-size:30px; font-family: monospace"">A</span>"," ","","exp-sent","A","","",""
"","2069","html-keyboard-response","347","1698810","0.0-3.0-1.282","<span style=""font-size:30px; font-family: monospace"">empresa</span>"," ","","exp-sent","empresa","","",""
"","1237","html-keyboard-response","348","1700298","0.0-3.0-1.283","<span style=""font-size:30px; font-family: monospace"">enviou</span>"," ","","exp-sent","enviou","","",""
"","1924","html-keyboard-response","349","1702473","0.0-3.0-1.284","<span style=""font-size:30px; font-family: monospace"">o</span>"," ","","exp-sent","o","","",""
"","4981","html-keyboard-response","350","1707706","0.0-3.0-1.285","<span style=""font-size:30px; font-family: monospace"">aviso</span>"," ","","exp-sent","aviso","","",""
"","53","html-keyboard-response","351","1708009","0.0-3.0-1.286","<span style=""font-size:30px; font-family: monospace"">hoje</span>"," ","","exp-sent","hoje","","",""
"","3493","html-keyboard-response","352","1711754","0.0-3.0-1.287","<span style=""font-size:30px; font-family: monospace"">de</span>"," ","","exp-sent","de","","",""
"","53","html-keyboard-response","353","1712058","0.0-3.0-1.288","<span style=""font-size:30px; font-family: monospace"">tarde.</span>"," ","","exp-sent","tarde.","","",""
"","null","html-keyboard-response","354","1713309","0.0-3.0-0.289-0.289","<span style= ""font-size:30px; font-family: monospace"">+</span>","null","fixation","","","","",""
"","3361","html-keyboard-response","355","1716922","0.0-3.0-1.289","<span style=""font-size:30px; font-family: monospace"">A</span>"," ","","exp-sent","A","","",""
"","37","html-keyboard-response","356","1717209","0.0-3.0-1.290","<span style=""font-size:30px; font-family: monospace"">loja</span>"," ","","exp-sent","loja","","",""
"","4341","html-keyboard-response","357","1721802","0.0-3.0-1.291","<span style=""font-size:30px; font-family: monospace"">vende</span>"," ","","exp-sent","vende","","",""
"","100","html-keyboard-response","358","1722153","0.0-3.0-1.292","<span style=""font-size:30px; font-family: monospace"">tanto</span>"," ","","exp-sent","tanto","","",""
"","4613","html-keyboard-response","359","1727018","0.0-3.0-1.293","<span style=""font-size:30px; font-family: monospace"">frituras</span>"," ","","exp-sent","frituras","","",""
"","165","html-keyboard-response","360","1727434","0.0-3.0-1.294","<span style=""font-size:30px; font-family: monospace"">quanto</span>"," ","","exp-sent","quanto","","",""
"","4133","html-keyboard-response","361","1731818","0.0-3.0-1.295","<span style=""font-size:30px; font-family: monospace"">comidas</span>"," ","","exp-sent","comidas","","",""
"","165","html-keyboard-response","362","1732234","0.0-3.0-1.296","<span style=""font-size:30px; font-family: monospace"">leves.</span>"," ","","exp-sent","leves.","","",""
"","null","html-keyboard-response","363","1733485","0.0-3.0-0.297-0.297","<span style= ""font-size:30px; font-family: monospace"">+</span>","null","fixation","","","","",""
"","3474","html-keyboard-response","364","1737210","0.0-3.0-1.297","<span style=""font-size:30px; font-family: monospace"">As</span>"," ","","exp-sent","As","","",""
"","3797","html-keyboard-response","365","1741257","0.0-3.0-1.298","<span style=""font-size:30px; font-family: monospace"">cadeiras</span>"," ","","exp-sent","cadeiras","","",""
"","2469","html-keyboard-response","366","1743977","0.0-3.0-1.299","<span style=""font-size:30px; font-family: monospace"">azuis</span>"," ","","exp-sent","azuis","","",""
"","2853","html-keyboard-response","367","1747081","0.0-3.0-1.300","<span style=""font-size:30px; font-family: monospace"">da</span>"," ","","exp-sent","da","","",""
"","2421","html-keyboard-response","368","1749753","0.0-3.0-1.301","<span style=""font-size:30px; font-family: monospace"">sala</span>"," ","","exp-sent","sala","","",""
"","2342","html-keyboard-response","369","1752345","0.0-3.0-1.302","<span style=""font-size:30px; font-family: monospace"">eram</span>"," ","","exp-sent","eram","","",""
"","2709","html-keyboard-response","370","1755305","0.0-3.0-1.303","<span style=""font-size:30px; font-family: monospace"">da</span>"," ","","exp-sent","da","","",""
"","2341","html-keyboard-response","371","1757897","0.0-3.0-1.304","<span style=""font-size:30px; font-family: monospace"">minha</span>"," ","","exp-sent","minha","","",""
"","2565","html-keyboard-response","372","1760713","0.0-3.0-1.305","<span style=""font-size:30px; font-family: monospace"">vó.</span>"," ","","comp","vó.","","",""
"","10277","html-keyboard-response","373","1771241","0.0-3.0-2.305-0.305","<span style=""font-size:30px; font-family: monospace"">As cadeiras eram da avó?</span>","s","","comp","","As cadeiras eram da avó?","sim","false"
"","null","html-keyboard-response","374","1772744","0.0-3.0-0.306-0.306","<span style= ""font-size:30px; font-family: monospace"">+</span>","null","fixation","","","","",""
"","2374","html-keyboard-response","375","1775369","0.0-3.0-1.306","<span style=""font-size:30px; font-family: monospace"">Ganhamos</span>"," ","","exp-sent","Ganhamos","","",""
"","21","html-keyboard-response","376","1775641","0.0-3.0-1.307","<span style=""font-size:30px; font-family: monospace"">passagem</span>"," ","","exp-sent","passagem","","",""
"","7397","html-keyboard-response","377","1783289","0.0-3.0-1.308","<span style=""font-size:30px; font-family: monospace"">para</span>"," ","","exp-sent","para","","",""
"","2149","html-keyboard-response","378","1785689","0.0-3.0-1.309","<span style=""font-size:30px; font-family: monospace"">uma</span>"," ","","exp-sent","uma","","",""
"","165","html-keyboard-response","379","1786105","0.0-3.0-1.310","<span style=""font-size:30px; font-family: monospace"">viagem</span>"," ","","exp-sent","viagem","","",""
"","2277","html-keyboard-response","380","1788633","0.0-3.0-1.311","<span style=""font-size:30px; font-family: monospace"">de</span>"," ","","exp-sent","de","","",""
"","3941","html-keyboard-response","381","1792825","0.0-3.0-1.312","<span style=""font-size:30px; font-family: monospace"">férias.</span>"," ","","exp-sent","férias.","","",""
"","null","html-keyboard-response","382","1794078","0.0-3.0-0.313-0.313","<span style= ""font-size:30px; font-family: monospace"">+</span>","null","fixation","","","","",""
"","1601","html-keyboard-response","383","1795929","0.0-3.0-1.313","<span style=""font-size:30px; font-family: monospace"">Caiu</span>"," ","","exp-sent","Caiu","","",""
"","149","html-keyboard-response","384","1796329","0.0-3.0-1.314","<span style=""font-size:30px; font-family: monospace"">algo</span>"," ","","exp-sent","algo","","",""
"","4389","html-keyboard-response","385","1800969","0.0-3.0-1.315","<span style=""font-size:30px; font-family: monospace"">no</span>"," ","","exp-sent","no","","",""
"","85","html-keyboard-response","386","1801305","0.0-3.0-1.316","<span style=""font-size:30px; font-family: monospace"">meu</span>"," ","","exp-sent","meu","","",""
"","4437","html-keyboard-response","387","1805993","0.0-3.0-1.317","<span style=""font-size:30px; font-family: monospace"">olho</span>"," ","","exp-sent","olho","","",""
"","3509","html-keyboard-response","388","1809753","0.0-3.0-1.318","<span style=""font-size:30px; font-family: monospace"">ontem</span>"," ","","exp-sent","ontem","","",""
"","85","html-keyboard-response","389","1810089","0.0-3.0-1.319","<span style=""font-size:30px; font-family: monospace"">de</span>"," ","","exp-sent","de","","",""
"","3781","html-keyboard-response","390","1814121","0.0-3.0-1.320","<span style=""font-size:30px; font-family: monospace"">tarde.</span>"," ","","exp-sent","tarde.","","",""
"","null","html-keyboard-response","391","1815373","0.0-3.0-0.321-0.321","<span style= ""font-size:30px; font-family: monospace"">+</span>","null","fixation","","","","",""
"","4674","html-keyboard-response","392","1820297","0.0-3.0-1.321","<span style=""font-size:30px; font-family: monospace"">Não</span>"," ","","exp-sent","Não","","",""
"","68","html-keyboard-response","393","1820617","0.0-3.0-1.322","<span style=""font-size:30px; font-family: monospace"">havia</span>"," ","","exp-sent","havia","","",""
"","4517","html-keyboard-response","394","1825385","0.0-3.0-1.323","<span style=""font-size:30px; font-family: monospace"">mais</span>"," ","","exp-sent","mais","","",""
"","165","html-keyboard-response","395","1825801","0.0-3.0-1.324","<span style=""font-size:30px; font-family: monospace"">nenhum</span>"," ","","exp-sent","nenhum","","",""
"","4390","html-keyboard-response","396","1830441","0.0-3.0-1.325","<span style=""font-size:30px; font-family: monospace"">ingresso</span>"," ","","exp-sent","ingresso","","",""
"","2853","html-keyboard-response","397","1833545","0.0-3.0-1.326","<span style=""font-size:30px; font-family: monospace"">para</span>"," ","","exp-sent","para","","",""
"","84","html-keyboard-response","398","1833881","0.0-3.0-1.327","<span style=""font-size:30px; font-family: monospace"">o</span>"," ","","exp-sent","o","","",""
"","3925","html-keyboard-response","399","1838057","0.0-3.0-1.328","<span style=""font-size:30px; font-family: monospace"">evento.</span>"," ","","exp-sent","evento.","","",""
"","null","html-keyboard-response","400","1839309","0.0-3.0-0.329-0.329","<span style= ""font-size:30px; font-family: monospace"">+</span>","null","fixation","","","","",""
"","3458","html-keyboard-response","401","1843017","0.0-3.0-1.329","<span style=""font-size:30px; font-family: monospace"">A</span>"," ","","exp-sent","A","","",""
"","308","html-keyboard-response","402","1843577","0.0-3.0-1.330","<span style=""font-size:30px; font-family: monospace"">médica</span>"," ","","exp-sent","médica","","",""
"","5284","html-keyboard-response","403","1849113","0.0-3.0-1.331","<span style=""font-size:30px; font-family: monospace"">descobriu</span>"," ","","exp-sent","descobriu","","",""
"","133","html-keyboard-response","404","1849497","0.0-3.0-1.332","<span style=""font-size:30px; font-family: monospace"">uma</span>"," ","","exp-sent","uma","","",""
"","4502","html-keyboard-response","405","1854249","0.0-3.0-1.333","<span style=""font-size:30px; font-family: monospace"">cura</span>"," ","","exp-sent","cura","","",""
"","3398","html-keyboard-response","406","1857897","0.0-3.0-1.334","<span style=""font-size:30px; font-family: monospace"">para</span>"," ","","exp-sent","para","","",""
"","3637","html-keyboard-response","407","1861785","0.0-3.0-1.335","<span style=""font-size:30px; font-family: monospace"">a</span>"," ","","exp-sent","a","","",""
"","4422","html-keyboard-response","408","1866457","0.0-3.0-1.336","<span style=""font-size:30px; font-family: monospace"">doença.</span>"," ","","exp-sent","doença.","","",""
"","null","html-keyboard-response","409","1867710","0.0-3.0-0.337-0.337","<span style= ""font-size:30px; font-family: monospace"">+</span>","null","fixation","","","","",""
"","3568","html-keyboard-response","410","1871529","0.0-3.0-1.337","<span style=""font-size:30px; font-family: monospace"">O</span>"," ","","exp-sent","O","","",""
"","116","html-keyboard-response","411","1871897","0.0-3.0-1.338","<span style=""font-size:30px; font-family: monospace"">menino</span>"," ","","exp-sent","menino","","",""
"","4390","html-keyboard-response","412","1876537","0.0-3.0-1.339","<span style=""font-size:30px; font-family: monospace"">riscou</span>"," ","","exp-sent","riscou","","",""
"","437","html-keyboard-response","413","1877225","0.0-3.0-1.340","<span style=""font-size:30px; font-family: monospace"">o</span>"," ","","exp-sent","o","","",""
"","4293","html-keyboard-response","414","1881769","0.0-3.0-1.341","<span style=""font-size:30px; font-family: monospace"">caderno</span>"," ","","exp-sent","caderno","","",""
"","85","html-keyboard-response","415","1882105","0.0-3.0-1.342","<span style=""font-size:30px; font-family: monospace"">com</span>"," ","","exp-sent","com","","",""
"","4581","html-keyboard-response","416","1886937","0.0-3.0-1.343","<span style=""font-size:30px; font-family: monospace"">a</span>"," ","","exp-sent","a","","",""
"","180","html-keyboard-response","417","1887369","0.0-3.0-1.344","<span style=""font-size:30px; font-family: monospace"">caneta.</span>"," ","","comp","caneta.","","",""
"","28021","html-keyboard-response","418","1915641","0.0-3.0-2.344-0.344","<span style=""font-size:30px; font-family: monospace"">O menino riscou a parede com a caneta?</span>","s","","comp","","O menino riscou a parede com a caneta?","não","false"
"","null","html-keyboard-response","419","1917142","0.0-3.0-0.345-0.345","<span style= ""font-size:30px; font-family: monospace"">+</span>","null","fixation","","","","",""
"","3928","html-keyboard-response","420","1921321","0.0-3.0-1.345","<span style=""font-size:30px; font-family: monospace"">As</span>"," ","","exp-sent","As","","",""
"","3413","html-keyboard-response","421","1924985","0.0-3.0-1.346","<span style=""font-size:30px; font-family: monospace"">crianças</span>"," ","","exp-sent","crianças","","",""
"","2661","html-keyboard-response","422","1927896","0.0-3.0-1.347","<span style=""font-size:30px; font-family: monospace"">viram</span>"," ","","exp-sent","viram","","",""
"","2486","html-keyboard-response","423","1930632","0.0-3.0-1.348","<span style=""font-size:30px; font-family: monospace"">um</span>"," ","","exp-sent","um","","",""
"","4821","html-keyboard-response","424","1935704","0.0-3.0-1.349","<span style=""font-size:30px; font-family: monospace"">vaga-lume</span>"," ","","exp-sent","vaga-lume","","",""
"","2677","html-keyboard-response","425","1938632","0.0-3.0-1.350","<span style=""font-size:30px; font-family: monospace"">nos</span>"," ","","exp-sent","nos","","",""
"","4469","html-keyboard-response","426","1943352","0.0-3.0-1.351","<span style=""font-size:30px; font-family: monospace"">arbustos.</span>"," ","","exp-sent","arbustos.","","",""
"","null","html-keyboard-response","427","1944605","0.0-3.0-0.352-0.352","<span style= ""font-size:30px; font-family: monospace"">+</span>","null","fixation","","","","",""
"","3872","html-keyboard-response","428","1948728","0.0-3.0-1.352","<span style=""font-size:30px; font-family: monospace"">Ontem</span>"," ","","exp-sent","Ontem","","",""
"","2533","html-keyboard-response","429","1951512","0.0-3.0-1.353","<span style=""font-size:30px; font-family: monospace"">o</span>"," ","","exp-sent","o","","",""
"","4021","html-keyboard-response","430","1955784","0.0-3.0-1.354","<span style=""font-size:30px; font-family: monospace"">funcionário</span>"," ","","exp-sent","funcionário","","",""
"","4294","html-keyboard-response","431","1960328","0.0-3.0-1.355","<span style=""font-size:30px; font-family: monospace"">pediu</span>"," ","","exp-sent","pediu","","",""
"","4821","html-keyboard-response","432","1965400","0.0-3.0-1.356","<span style=""font-size:30px; font-family: monospace"">autorização</span>"," ","","exp-sent","autorização","","",""
"","3445","html-keyboard-response","433","1969096","0.0-3.0-1.357","<span style=""font-size:30px; font-family: monospace"">para</span>"," ","","exp-sent","para","","",""
"","2884","html-keyboard-response","434","1972232","0.0-3.0-1.358","<span style=""font-size:30px; font-family: monospace"">a</span>"," ","","exp-sent","a","","",""
"","5157","html-keyboard-response","435","1977640","0.0-3.0-1.359","<span style=""font-size:30px; font-family: monospace"">colega.</span>"," ","","exp-sent","colega.","","",""
"","null","html-keyboard-response","436","1978892","0.0-3.0-0.360-0.360","<span style= ""font-size:30px; font-family: monospace"">+</span>","null","fixation","","","","",""
"","1026","html-keyboard-response","437","1980168","0.0-3.0-1.360","<span style=""font-size:30px; font-family: monospace"">Eu</span>"," ","","exp-sent","Eu","","",""
"","2501","html-keyboard-response","438","1982920","0.0-3.0-1.361","<span style=""font-size:30px; font-family: monospace"">sempre</span>"," ","","exp-sent","sempre","","",""
"","2197","html-keyboard-response","439","1985368","0.0-3.0-1.362","<span style=""font-size:30px; font-family: monospace"">fujo</span>"," ","","exp-sent","fujo","","",""
"","2261","html-keyboard-response","440","1987880","0.0-3.0-1.363","<span style=""font-size:30px; font-family: monospace"">de</span>"," ","","exp-sent","de","","",""
"","2101","html-keyboard-response","441","1990232","0.0-3.0-1.364","<span style=""font-size:30px; font-family: monospace"">conflito</span>"," ","","exp-sent","conflito","","",""
"","2614","html-keyboard-response","442","1993096","0.0-3.0-1.365","<span style=""font-size:30px; font-family: monospace"">com</span>"," ","","exp-sent","com","","",""
"","4116","html-keyboard-response","443","1997464","0.0-3.0-1.366","<span style=""font-size:30px; font-family: monospace"">as</span>"," ","","exp-sent","as","","",""
"","3829","html-keyboard-response","444","2001544","0.0-3.0-1.367","<span style=""font-size:30px; font-family: monospace"">pessoas.</span>"," ","","exp-sent","pessoas.","","",""
"","null","html-keyboard-response","445","2002796","0.0-3.0-0.368-0.368","<span style= ""font-size:30px; font-family: monospace"">+</span>","null","fixation","","","","",""
"","7825","html-keyboard-response","446","2010872","0.0-3.0-1.368","<span style=""font-size:30px; font-family: monospace"">O</span>"," ","","exp-sent","O","","",""
"","3013","html-keyboard-response","447","2014136","0.0-3.0-1.369","<span style=""font-size:30px; font-family: monospace"">bolo</span>"," ","","exp-sent","bolo","","",""
"","2421","html-keyboard-response","448","2016808","0.0-3.0-1.370","<span style=""font-size:30px; font-family: monospace"">era</span>"," ","","exp-sent","era","","",""
"","2501","html-keyboard-response","449","2019560","0.0-3.0-1.371","<span style=""font-size:30px; font-family: monospace"">de</span>"," ","","exp-sent","de","","",""
"","229","html-keyboard-response","450","2020040","0.0-3.0-1.372","<span style=""font-size:30px; font-family: monospace"">abacaxi</span>"," ","","exp-sent","abacaxi","","",""
"","4277","html-keyboard-response","451","2024568","0.0-3.0-1.373","<span style=""font-size:30px; font-family: monospace"">e</span>"," ","","exp-sent","e","","",""
"","2517","html-keyboard-response","452","2027336","0.0-3.0-1.374","<span style=""font-size:30px; font-family: monospace"">creme</span>"," ","","exp-sent","creme","","",""
"","133","html-keyboard-response","453","2027720","0.0-3.0-1.375","<span style=""font-size:30px; font-family: monospace"">de</span>"," ","","exp-sent","de","","",""
"","2421","html-keyboard-response","454","2030392","0.0-3.0-1.376","<span style=""font-size:30px; font-family: monospace"">coco.</span>"," ","","exp-sent","coco.","","",""
"","null","html-keyboard-response","455","2031643","0.0-3.0-0.377-0.377","<span style= ""font-size:30px; font-family: monospace"">+</span>","null","fixation","","","","",""
"","3955","html-keyboard-response","456","2035848","0.0-3.0-1.377","<span style=""font-size:30px; font-family: monospace"">As</span>"," ","","exp-sent","As","","",""
"","3653","html-keyboard-response","457","2039752","0.0-3.0-1.378","<span style=""font-size:30px; font-family: monospace"">crianças</span>"," ","","exp-sent","crianças","","",""
"","5941","html-keyboard-response","458","2045944","0.0-3.0-1.379","<span style=""font-size:30px; font-family: monospace"">brincaram</span>"," ","","exp-sent","brincaram","","",""
"","37","html-keyboard-response","459","2046232","0.0-3.0-1.380","<span style=""font-size:30px; font-family: monospace"">com</span>"," ","","exp-sent","com","","",""
"","4196","html-keyboard-response","460","2050679","0.0-3.0-1.381","<span style=""font-size:30px; font-family: monospace"">bolhas</span>"," ","","exp-sent","bolhas","","",""
"","2245","html-keyboard-response","461","2053176","0.0-3.0-1.382","<span style=""font-size:30px; font-family: monospace"">no</span>"," ","","exp-sent","no","","",""
"","2981","html-keyboard-response","462","2056407","0.0-3.0-1.383","<span style=""font-size:30px; font-family: monospace"">banho.</span>"," ","","comp","banho.","","",""
"","9093","html-keyboard-response","463","2065751","0.0-3.0-2.383-0.383","<span style=""font-size:30px; font-family: monospace"">As crianças brincaram com bolhas?</span>","n","","comp","","As crianças brincaram com bolhas?","sim","false"
"","null","html-keyboard-response","464","2067255","0.0-3.0-0.384-0.384","<span style= ""font-size:30px; font-family: monospace"">+</span>","null","fixation","","","","",""
"","2613","html-keyboard-response","465","2070119","0.0-3.0-1.384","<span style=""font-size:30px; font-family: monospace"">Ursos</span>"," ","","exp-sent","Ursos","","",""
"","2101","html-keyboard-response","466","2072471","0.0-3.0-1.385","<span style=""font-size:30px; font-family: monospace"">têm</span>"," ","","exp-sent","têm","","",""
"","2005","html-keyboard-response","467","2074727","0.0-3.0-1.386","<span style=""font-size:30px; font-family: monospace"">uma</span>"," ","","exp-sent","uma","","",""
"","2229","html-keyboard-response","468","2077207","0.0-3.0-1.387","<span style=""font-size:30px; font-family: monospace"">patada</span>"," ","","exp-sent","patada","","",""
"","2149","html-keyboard-response","469","2079607","0.0-3.0-1.388","<span style=""font-size:30px; font-family: monospace"">brutal</span>"," ","","exp-sent","brutal","","",""
"","2485","html-keyboard-response","470","2082343","0.0-3.0-1.389","<span style=""font-size:30px; font-family: monospace"">e</span>"," ","","exp-sent","e","","",""
"","2149","html-keyboard-response","471","2084743","0.0-3.0-1.390","<span style=""font-size:30px; font-family: monospace"">poderosa.</span>"," ","","exp-sent","poderosa.","","",""
"","null","html-keyboard-response","472","2085994","0.0-3.0-0.391-0.391","<span style= ""font-size:30px; font-family: monospace"">+</span>","null","fixation","","","","",""
"","498","html-keyboard-response","473","2086743","0.0-3.0-1.391","<span style=""font-size:30px; font-family: monospace"">Eu</span>"," ","","exp-sent","Eu","","",""
"","6677","html-keyboard-response","474","2093671","0.0-3.0-1.392","<span style=""font-size:30px; font-family: monospace"">fiz</span>"," ","","exp-sent","fiz","","",""
"","3125","html-keyboard-response","475","2097047","0.0-3.0-1.393","<span style=""font-size:30px; font-family: monospace"">aulas</span>"," ","","exp-sent","aulas","","",""
"","2073","html-keyboard-response","476","2099383","0.0-3.0-1.394","<span style=""font-size:30px; font-family: monospace"">de</span>"," ","","exp-sent","de","","",""
"","2836","html-keyboard-response","477","2102471","0.0-3.0-1.395","<span style=""font-size:30px; font-family: monospace"">espanhol</span>"," ","","exp-sent","espanhol","","",""
"","2646","html-keyboard-response","478","2105367","0.0-3.0-1.396","<span style=""font-size:30px; font-family: monospace"">nesta</span>"," ","","exp-sent","nesta","","",""
"","2131","html-keyboard-response","479","2107751","0.0-3.0-1.397","<span style=""font-size:30px; font-family: monospace"">cidade.</span>"," ","","exp-sent","cidade.","","",""
"","null","html-keyboard-response","480","2109003","0.0-3.0-0.398-0.398","<span style= ""font-size:30px; font-family: monospace"">+</span>","null","fixation","","","","",""
"","946","html-keyboard-response","481","2110199","0.0-3.0-1.398","<span style=""font-size:30px; font-family: monospace"">Ele</span>"," ","","exp-sent","Ele","","",""
"","949","html-keyboard-response","482","2111400","0.0-3.0-1.399","<span style=""font-size:30px; font-family: monospace"">comprou</span>"," ","","exp-sent","comprou","","",""
"","2197","html-keyboard-response","483","2113848","0.0-3.0-1.400","<span style=""font-size:30px; font-family: monospace"">mais</span>"," ","","exp-sent","mais","","",""
"","4053","html-keyboard-response","484","2118152","0.0-3.0-1.401","<span style=""font-size:30px; font-family: monospace"">uma</span>"," ","","exp-sent","uma","","",""
"","3093","html-keyboard-response","485","2121495","0.0-3.0-1.402","<span style=""font-size:30px; font-family: monospace"">esponja</span>"," ","","exp-sent","esponja","","",""
"","2581","html-keyboard-response","486","2124328","0.0-3.0-1.403","<span style=""font-size:30px; font-family: monospace"">para</span>"," ","","exp-sent","para","","",""
"","2245","html-keyboard-response","487","2126824","0.0-3.0-1.404","<span style=""font-size:30px; font-family: monospace"">a</span>"," ","","exp-sent","a","","",""
"","2821","html-keyboard-response","488","2129896","0.0-3.0-1.405","<span style=""font-size:30px; font-family: monospace"">cozinha.</span>"," ","","exp-sent","cozinha.","","",""
"","null","html-keyboard-response","489","2131148","0.0-3.0-0.406-0.406","<span style= ""font-size:30px; font-family: monospace"">+</span>","null","fixation","","","","",""
"","978","html-keyboard-response","490","2132392","0.0-3.0-1.406","<span style=""font-size:30px; font-family: monospace"">Ele</span>"," ","","exp-sent","Ele","","",""
"","4357","html-keyboard-response","491","2137000","0.0-3.0-1.407","<span style=""font-size:30px; font-family: monospace"">teve</span>"," ","","exp-sent","teve","","",""
"","2949","html-keyboard-response","492","2140199","0.0-3.0-1.408","<span style=""font-size:30px; font-family: monospace"">um</span>"," ","","exp-sent","um","","",""
"","3317","html-keyboard-response","493","2143768","0.0-3.0-1.409","<span style=""font-size:30px; font-family: monospace"">sono</span>"," ","","exp-sent","sono","","",""
"","5300","html-keyboard-response","494","2149319","0.0-3.0-1.410","<span style=""font-size:30px; font-family: monospace"">bizarro</span>"," ","","exp-sent","bizarro","","",""
"","6325","html-keyboard-response","495","2155896","0.0-3.0-1.411","<span style=""font-size:30px; font-family: monospace"">sem</span>"," ","","exp-sent","sem","","",""
"","2324","html-keyboard-response","496","2158472","0.0-3.0-1.412","<span style=""font-size:30px; font-family: monospace"">nenhum</span>"," ","","exp-sent","nenhum","","",""
"","17077","html-keyboard-response","497","2175799","0.0-3.0-1.413","<span style=""font-size:30px; font-family: monospace"">motivo.</span>"," ","","exp-sent","motivo.","","",""
"","null","html-keyboard-response","498","2177051","0.0-3.0-0.414-0.414","<span style= ""font-size:30px; font-family: monospace"">+</span>","null","fixation","","","","",""
"","1265","html-keyboard-response","499","2178567","0.0-3.0-1.414","<span style=""font-size:30px; font-family: monospace"">A</span>"," ","","exp-sent","A","","",""
"","1573","html-keyboard-response","500","2180391","0.0-3.0-1.415","<span style=""font-size:30px; font-family: monospace"">moça</span>"," ","","exp-sent","moça","","",""
"","3301","html-keyboard-response","501","2183943","0.0-3.0-1.416","<span style=""font-size:30px; font-family: monospace"">comprou</span>"," ","","exp-sent","comprou","","",""
"","2149","html-keyboard-response","502","2186343","0.0-3.0-1.417","<span style=""font-size:30px; font-family: monospace"">um</span>"," ","","exp-sent","um","","",""
"","2149","html-keyboard-response","503","2188743","0.0-3.0-1.418","<span style=""font-size:30px; font-family: monospace"">diamante</span>"," ","","exp-sent","diamante","","",""
"","1813","html-keyboard-response","504","2190807","0.0-3.0-1.419","<span style=""font-size:30px; font-family: monospace"">para</span>"," ","","exp-sent","para","","",""
"","2069","html-keyboard-response","505","2193127","0.0-3.0-1.420","<span style=""font-size:30px; font-family: monospace"">sua</span>"," ","","exp-sent","sua","","",""
"","133","html-keyboard-response","506","2193511","0.0-3.0-1.421","<span style=""font-size:30px; font-family: monospace"">prima.</span>"," ","","comp","prima.","","",""
"","19701","html-keyboard-response","507","2213463","0.0-3.0-2.421-0.421","<span style=""font-size:30px; font-family: monospace"">A moça comprou um diamante?</span>","s","","comp","","A moça comprou um diamante?","sim","false"
"","null","html-keyboard-response","508","2214964","0.0-3.0-0.422-0.422","<span style= ""font-size:30px; font-family: monospace"">+</span>","null","fixation","","","","",""
"","328","html-keyboard-response","509","2215543","0.0-3.0-1.422","<span style=""font-size:30px; font-family: monospace"">Preciso</span>"," ","","exp-sent","Preciso","","",""
"","37","html-keyboard-response","510","2215831","0.0-3.0-1.423","<span style=""font-size:30px; font-family: monospace"">de</span>"," ","","exp-sent","de","","",""
"","2260","html-keyboard-response","511","2218343","0.0-3.0-1.424","<span style=""font-size:30px; font-family: monospace"">um</span>"," ","","exp-sent","um","","",""
"","11557","html-keyboard-response","512","2230151","0.0-3.0-1.425","<span style=""font-size:30px; font-family: monospace"">relatório</span>"," ","","exp-sent","relatório","","",""
"","5829","html-keyboard-response","513","2236231","0.0-3.0-1.426","<span style=""font-size:30px; font-family: monospace"">oficial</span>"," ","","exp-sent","oficial","","",""
"","2197","html-keyboard-response","514","2238679","0.0-3.0-1.427","<span style=""font-size:30px; font-family: monospace"">para</span>"," ","","exp-sent","para","","",""
"","5909","html-keyboard-response","515","2244839","0.0-3.0-1.428","<span style=""font-size:30px; font-family: monospace"">amanhã.</span>"," ","","exp-sent","amanhã.","","",""
"","null","html-keyboard-response","516","2246090","0.0-3.0-0.429-0.429","<span style= ""font-size:30px; font-family: monospace"">+</span>","null","fixation","","","","",""
"","1313","html-keyboard-response","517","2247655","0.0-3.0-1.429","<span style=""font-size:30px; font-family: monospace"">Ele</span>"," ","","exp-sent","Ele","","",""
"","3301","html-keyboard-response","518","2251207","0.0-3.0-1.430","<span style=""font-size:30px; font-family: monospace"">viu</span>"," ","","exp-sent","viu","","",""
"","2902","html-keyboard-response","519","2254359","0.0-3.0-1.431","<span style=""font-size:30px; font-family: monospace"">um</span>"," ","","exp-sent","um","","",""
"","2372","html-keyboard-response","520","2256983","0.0-3.0-1.432","<span style=""font-size:30px; font-family: monospace"">inseto</span>"," ","","exp-sent","inseto","","",""
"","2485","html-keyboard-response","521","2259719","0.0-3.0-1.433","<span style=""font-size:30px; font-family: monospace"">marrom</span>"," ","","exp-sent","marrom","","",""
"","2245","html-keyboard-response","522","2262215","0.0-3.0-1.434","<span style=""font-size:30px; font-family: monospace"">na</span>"," ","","exp-sent","na","","",""
"","2309","html-keyboard-response","523","2264775","0.0-3.0-1.435","<span style=""font-size:30px; font-family: monospace"">parede.</span>"," ","","exp-sent","parede.","","",""
"","null","html-keyboard-response","524","2266027","0.0-3.0-0.436-0.436","<span style= ""font-size:30px; font-family: monospace"">+</span>","null","fixation","","","","",""
"","513","html-keyboard-response","525","2266791","0.0-3.0-1.436","<span style=""font-size:30px; font-family: monospace"">O</span>"," ","","exp-sent","O","","",""
"","1205","html-keyboard-response","526","2268247","0.0-3.0-1.437","<span style=""font-size:30px; font-family: monospace"">avô</span>"," ","","exp-sent","avô","","",""
"","1077","html-keyboard-response","527","2269575","0.0-3.0-1.438","<span style=""font-size:30px; font-family: monospace"">fez</span>"," ","","exp-sent","fez","","",""
"","1685","html-keyboard-response","528","2271510","0.0-3.0-1.439","<span style=""font-size:30px; font-family: monospace"">uma</span>"," ","","exp-sent","uma","","",""
"","965","html-keyboard-response","529","2272727","0.0-3.0-1.440","<span style=""font-size:30px; font-family: monospace"">lista</span>"," ","","exp-sent","lista","","",""
"","1301","html-keyboard-response","530","2274279","0.0-3.0-1.441","<span style=""font-size:30px; font-family: monospace"">de</span>"," ","","exp-sent","de","","",""
"","1796","html-keyboard-response","531","2276327","0.0-3.0-1.442","<span style=""font-size:30px; font-family: monospace"">compras</span>"," ","","exp-sent","compras","","",""
"","118","html-keyboard-response","532","2276695","0.0-3.0-1.443","<span style=""font-size:30px; font-family: monospace"">do</span>"," ","","exp-sent","do","","",""
"","3781","html-keyboard-response","533","2280727","0.0-3.0-1.444","<span style=""font-size:30px; font-family: monospace"">mercado.</span>"," ","","exp-sent","mercado.","","",""
"","null","html-keyboard-response","534","2281980","0.0-3.0-0.445-0.445","<span style= ""font-size:30px; font-family: monospace"">+</span>","null","fixation","","","","",""
"","3232","html-keyboard-response","535","2285463","0.0-3.0-1.445","<span style=""font-size:30px; font-family: monospace"">As</span>"," ","","exp-sent","As","","",""
"","21","html-keyboard-response","536","2285735","0.0-3.0-1.446","<span style=""font-size:30px; font-family: monospace"">pessoas</span>"," ","","exp-sent","pessoas","","",""
"","6021","html-keyboard-response","537","2292007","0.0-3.0-1.447","<span style=""font-size:30px; font-family: monospace"">não</span>"," ","","exp-sent","não","","",""
"","2580","html-keyboard-response","538","2294839","0.0-3.0-1.448","<span style=""font-size:30px; font-family: monospace"">enviam</span>"," ","","exp-sent","enviam","","",""
"","2117","html-keyboard-response","539","2297206","0.0-3.0-1.449","<span style=""font-size:30px; font-family: monospace"">telegrama</span>"," ","","exp-sent","telegrama","","",""
"","2143","html-keyboard-response","540","2299605","0.0-3.0-1.450","<span style=""font-size:30px; font-family: monospace"">nos</span>"," ","","exp-sent","nos","","",""
"","2117","html-keyboard-response","541","2301974","0.0-3.0-1.451","<span style=""font-size:30px; font-family: monospace"">dias</span>"," ","","exp-sent","dias","","",""
"","3717","html-keyboard-response","542","2305942","0.0-3.0-1.452","<span style=""font-size:30px; font-family: monospace"">de</span>"," ","","exp-sent","de","","",""
"","2485","html-keyboard-response","543","2308677","0.0-3.0-1.453","<span style=""font-size:30px; font-family: monospace"">hoje.</span>"," ","","exp-sent","hoje.","","",""
"","null","html-keyboard-response","544","2309930","0.0-3.0-0.454-0.454","<span style= ""font-size:30px; font-family: monospace"">+</span>","null","fixation","","","","",""
"","1425","html-keyboard-response","545","2311606","0.0-3.0-1.454","<span style=""font-size:30px; font-family: monospace"">Ele</span>"," ","","exp-sent","Ele","","",""
"","1317","html-keyboard-response","546","2313174","0.0-3.0-1.455","<span style=""font-size:30px; font-family: monospace"">não</span>"," ","","exp-sent","não","","",""
"","1668","html-keyboard-response","547","2315094","0.0-3.0-1.456","<span style=""font-size:30px; font-family: monospace"">gosta</span>"," ","","exp-sent","gosta","","",""
"","1284","html-keyboard-response","548","2316629","0.0-3.0-1.457","<span style=""font-size:30px; font-family: monospace"">de</span>"," ","","exp-sent","de","","",""
"","1478","html-keyboard-response","549","2318358","0.0-3.0-1.458","<span style=""font-size:30px; font-family: monospace"">tomate</span>"," ","","exp-sent","tomate","","",""
"","1685","html-keyboard-response","550","2320294","0.0-3.0-1.459","<span style=""font-size:30px; font-family: monospace"">misturado</span>"," ","","exp-sent","misturado","","",""
"","1093","html-keyboard-response","551","2321638","0.0-3.0-1.460","<span style=""font-size:30px; font-family: monospace"">na</span>"," ","","exp-sent","na","","",""
"","5109","html-keyboard-response","552","2326998","0.0-3.0-1.461","<span style=""font-size:30px; font-family: monospace"">comida.</span>"," ","","comp","comida.","","",""
"","15798","html-keyboard-response","553","2343046","0.0-3.0-2.461-0.461","<span style=""font-size:30px; font-family: monospace"">Ele gosta de tomate na comida?</span>","s","","comp","","Ele gosta de tomate na comida?","não","false"
"","null","html-keyboard-response","554","2344548","0.0-3.0-0.462-0.462","<span style= ""font-size:30px; font-family: monospace"">+</span>","null","fixation","","","","",""
"","662","html-keyboard-response","555","2345462","0.0-3.0-1.462","<span style=""font-size:30px; font-family: monospace"">Ele</span>"," ","","exp-sent","Ele","","",""
"","69","html-keyboard-response","556","2345782","0.0-3.0-1.463","<span style=""font-size:30px; font-family: monospace"">é</span>"," ","","exp-sent","é","","",""
"","2757","html-keyboard-response","557","2348790","0.0-3.0-1.464","<span style=""font-size:30px; font-family: monospace"">um</span>"," ","","exp-sent","um","","",""
"","2693","html-keyboard-response","558","2351734","0.0-3.0-1.465","<span style=""font-size:30px; font-family: monospace"">pai</span>"," ","","exp-sent","pai","","",""
"","85","html-keyboard-response","559","2352070","0.0-3.0-1.466","<span style=""font-size:30px; font-family: monospace"">ausente</span>"," ","","exp-sent","ausente","","",""
"","4517","html-keyboard-response","560","2356838","0.0-3.0-1.467","<span style=""font-size:30px; font-family: monospace"">e</span>"," ","","exp-sent","e","","",""
"","149","html-keyboard-response","561","2357237","0.0-3.0-1.468","<span style=""font-size:30px; font-family: monospace"">muito</span>"," ","","exp-sent","muito","","",""
"","5717","html-keyboard-response","562","2363205","0.0-3.0-1.469","<span style=""font-size:30px; font-family: monospace"">fofoqueiro.</span>"," ","","exp-sent","fofoqueiro.","","",""
"","null","html-keyboard-response","563","2364457","0.0-3.0-0.470-0.470","<span style= ""font-size:30px; font-family: monospace"">+</span>","null","fixation","","","","",""
"","6401","html-keyboard-response","564","2371109","0.0-3.0-1.470","<span style=""font-size:30px; font-family: monospace"">O</span>"," ","","exp-sent","O","","",""
"","2917","html-keyboard-response","565","2374278","0.0-3.0-1.471","<span style=""font-size:30px; font-family: monospace"">filho</span>"," ","","exp-sent","filho","","",""
"","3605","html-keyboard-response","566","2378133","0.0-3.0-1.472","<span style=""font-size:30px; font-family: monospace"">lavou</span>"," ","","exp-sent","lavou","","",""
"","2325","html-keyboard-response","567","2380709","0.0-3.0-1.473","<span style=""font-size:30px; font-family: monospace"">a</span>"," ","","exp-sent","a","","",""
"","2597","html-keyboard-response","568","2383557","0.0-3.0-1.474","<span style=""font-size:30px; font-family: monospace"">roupa</span>"," ","","exp-sent","roupa","","",""
"","2325","html-keyboard-response","569","2386133","0.0-3.0-1.475","<span style=""font-size:30px; font-family: monospace"">sem</span>"," ","","exp-sent","sem","","",""
"","3460","html-keyboard-response","570","2389845","0.0-3.0-1.476","<span style=""font-size:30px; font-family: monospace"">nenhuma</span>"," ","","exp-sent","nenhuma","","",""
"","2470","html-keyboard-response","571","2392565","0.0-3.0-1.477","<span style=""font-size:30px; font-family: monospace"">ajuda.</span>"," ","","exp-sent","ajuda.","","",""
"","null","html-keyboard-response","572","2393817","0.0-3.0-0.478-0.478","<span style= ""font-size:30px; font-family: monospace"">+</span>","null","fixation","","","","",""
"","2929","html-keyboard-response","573","2396997","0.0-3.0-1.478","<span style=""font-size:30px; font-family: monospace"">O</span>"," ","","exp-sent","O","","",""
"","2645","html-keyboard-response","574","2399893","0.0-3.0-1.479","<span style=""font-size:30px; font-family: monospace"">menino</span>"," ","","exp-sent","menino","","",""
"","28","html-keyboard-response","575","2400181","0.0-3.0-1.480","<span style=""font-size:30px; font-family: monospace"">quebrou</span>"," ","","exp-sent","quebrou","","",""
"","3797","html-keyboard-response","576","2404229","0.0-3.0-1.481","<span style=""font-size:30px; font-family: monospace"">a</span>"," ","","exp-sent","a","","",""
"","116","html-keyboard-response","577","2404597","0.0-3.0-1.482","<span style=""font-size:30px; font-family: monospace"">perna</span>"," ","","exp-sent","perna","","",""
"","2229","html-keyboard-response","578","2407078","0.0-3.0-1.483","<span style=""font-size:30px; font-family: monospace"">nos</span>"," ","","exp-sent","nos","","",""
"","84","html-keyboard-response","579","2407413","0.0-3.0-1.484","<span style=""font-size:30px; font-family: monospace"">esportes.</span>"," ","","exp-sent","esportes.","","",""
