"view_history","rt","trial_type","trial_index","time_elapsed","internal_node_id","stimulus","response","class","status","answer","correct","trial","letters"
"[{""page_index"":0,""viewing_time"":5847}]","5847","instructions","0","5848","0.0-0.0","","","","","","","",""
"","null","html-keyboard-response","1","6468","0.0-1.0-0.0","+","null","","","","","",""
"","34772","html-keyboard-response","2","41240","0.0-1.0-1.0","daja","n","null","noncog","pseudo","N","prac","null"
"","null","html-keyboard-response","3","41741","0.0-1.0-0.1","+","null","","","","","",""
"","12154","html-keyboard-response","4","53895","0.0-1.0-1.1","órgão","n","null","noncog","word","S","prac","null"
"","null","html-keyboard-response","5","54396","0.0-1.0-0.2","+","null","","","","","",""
"","3867","html-keyboard-response","6","58263","0.0-1.0-1.2","plibar","s","null","noncog","pseudo","N","prac","null"
"","null","html-keyboard-response","7","58764","0.0-1.0-0.3","+","null","","","","","",""
"","3786","html-keyboard-response","8","62551","0.0-1.0-1.3","oliva","s","null","cog","word","S","prac","null"
"","null","html-keyboard-response","9","63057","0.0-1.0-0.4","+","null","","","","","",""
"","4085","html-keyboard-response","10","67143","0.0-1.0-1.4","chassi","s","null","cog","word","S","prac","null"
"","null","html-keyboard-response","11","67645","0.0-1.0-0.5","+","null","","","","","",""
"","4346","html-keyboard-response","12","71991","0.0-1.0-1.5","crante","s","null","noncog","pseudo","N","prac","null"
"","null","html-keyboard-response","13","72492","0.0-1.0-0.6","+","null","","","","","",""
"","9499","html-keyboard-response","14","81991","0.0-1.0-1.6","calmaria","n","null","noncog","word","S","prac","null"
"[{""page_index"":0,""viewing_time"":5304}]","5304","instructions","15","87295","0.0-2.0","","","","","","","",""
"","null","html-keyboard-response","16","87897","0.0-3.0-0.0","+","null","","","","","",""
"","6029","html-keyboard-response","17","93927","0.0-3.0-1.0","filosofia","s","n","cog","word","S","exp","9"
"","null","html-keyboard-response","18","94428","0.0-3.0-0.1","+","null","","","","","",""
"","3754","html-keyboard-response","19","98183","0.0-3.0-1.1","azul","s","n","noncog","word","S","exp","4"
"","null","html-keyboard-response","20","98684","0.0-3.0-0.2","+","null","","","","","",""
"","4922","html-keyboard-response","21","103607","0.0-3.0-1.2","fasdas","n","null","noncog","pseudo","N","exp","null"
"","null","html-keyboard-response","22","104108","0.0-3.0-0.3","+","null","","","","","",""
"","5851","html-keyboard-response","23","109959","0.0-3.0-1.3","avenas","n","null","noncog","pseudo","N","exp","null"
"","null","html-keyboard-response","24","110472","0.0-3.0-0.4","+","null","","","","","",""
"","4303","html-keyboard-response","25","114775","0.0-3.0-1.4","fogão","s","n","noncog","word","S","exp","5"
"","null","html-keyboard-response","26","115275","0.0-3.0-0.5","+","null","","","","","",""
"","4539","html-keyboard-response","27","119815","0.0-3.0-1.5","prenas","n","null","noncog","pseudo","N","exp","null"
"","null","html-keyboard-response","28","120316","0.0-3.0-0.6","+","null","","","","","",""
"","4507","html-keyboard-response","29","124823","0.0-3.0-1.6","braras","s","null","noncog","pseudo","N","exp","null"
"","null","html-keyboard-response","30","125324","0.0-3.0-0.7","+","null","","","","","",""
"","4186","html-keyboard-response","31","129510","0.0-3.0-1.7","dia","s","n","noncog","word","S","exp","3"
"","null","html-keyboard-response","32","130011","0.0-3.0-0.8","+","null","","","","","",""
"","6587","html-keyboard-response","33","136599","0.0-3.0-1.8","frotes","n","null","noncog","pseudo","N","exp","null"
"","null","html-keyboard-response","34","137100","0.0-3.0-0.9","+","null","","","","","",""
"","5658","html-keyboard-response","35","142759","0.0-3.0-1.9","morar","s","v","noncog","word","S","exp","5"
"","null","html-keyboard-response","36","143260","0.0-3.0-0.10","+","null","","","","","",""
"","2810","html-keyboard-response","37","146071","0.0-3.0-1.10","gruja","s","null","noncog","pseudo","N","exp","null"
"","null","html-keyboard-response","38","146572","0.0-3.0-0.11","+","null","","","","","",""
"","5610","html-keyboard-response","39","152182","0.0-3.0-1.11","pneucania","s","null","noncog","pseudo","N","exp","null"
"","null","html-keyboard-response","40","152684","0.0-3.0-0.12","+","null","","","","","",""
"","3851","html-keyboard-response","41","156535","0.0-3.0-1.12","aparme","s","null","noncog","pseudo","N","exp","null"
"","null","html-keyboard-response","42","157036","0.0-3.0-0.13","+","null","","","","","",""
"","6603","html-keyboard-response","43","163639","0.0-3.0-1.13","sintonizar","n","v","noncog","word","S","exp","10"
"","null","html-keyboard-response","44","164140","0.0-3.0-0.14","+","null","","","","","",""
"","3307","html-keyboard-response","45","167447","0.0-3.0-1.14","prever","s","v","cog","word","S","exp","6"
"","null","html-keyboard-response","46","167947","0.0-3.0-0.15","+","null","","","","","",""
"","4715","html-keyboard-response","47","172663","0.0-3.0-1.15","promessa","s","n","noncog","word","S","exp","8"
"","null","html-keyboard-response","48","173164","0.0-3.0-0.16","+","null","","","","","",""
"","3797","html-keyboard-response","49","176960","0.0-3.0-1.16","ótimo","s","a","noncog","word","S","exp","5"
"","null","html-keyboard-response","50","177462","0.0-3.0-0.17","+","null","","","","","",""
"","4320","html-keyboard-response","51","181782","0.0-3.0-1.17","enxerido","s","a","noncog","word","S","exp","8"
"","null","html-keyboard-response","52","182284","0.0-3.0-0.18","+","null","","","","","",""
"","3674","html-keyboard-response","53","185958","0.0-3.0-1.18","glória","s","n","cog","word","S","exp","6"
"","null","html-keyboard-response","54","186459","0.0-3.0-0.19","+","null","","","","","",""
"","7899","html-keyboard-response","55","194358","0.0-3.0-1.19","berquesa","s","null","noncog","pseudo","N","exp","null"
"","null","html-keyboard-response","56","194859","0.0-3.0-0.20","+","null","","","","","",""
"","2347","html-keyboard-response","57","197206","0.0-3.0-1.20","tela","s","n","noncog","word","S","exp","4"
"","null","html-keyboard-response","58","197707","0.0-3.0-0.21","+","null","","","","","",""
"","6523","html-keyboard-response","59","204230","0.0-3.0-1.21","âgnulo","n","null","noncog","pseudo","N","exp","null"
"","null","html-keyboard-response","60","204731","0.0-3.0-0.22","+","null","","","","","",""
"","3098","html-keyboard-response","61","207830","0.0-3.0-1.22","carregar","s","v","noncog","word","S","exp","8"
"","null","html-keyboard-response","62","208331","0.0-3.0-0.23","+","null","","","","","",""
"","3163","html-keyboard-response","63","211494","0.0-3.0-1.23","nacional","s","a","cog","word","S","exp","8"
"","null","html-keyboard-response","64","211995","0.0-3.0-0.24","+","null","","","","","",""
"","4106","html-keyboard-response","65","216102","0.0-3.0-1.24","sustentar","s","v","noncog","word","S","exp","9"
"","null","html-keyboard-response","66","216603","0.0-3.0-0.25","+","null","","","","","",""
"","3195","html-keyboard-response","67","219798","0.0-3.0-1.25","ofreta","s","null","noncog","pseudo","N","exp","null"
"","null","html-keyboard-response","68","220300","0.0-3.0-0.26","+","null","","","","","",""
"","2442","html-keyboard-response","69","222743","0.0-3.0-1.26","tio","s","n","noncog","word","S","exp","3"
"","null","html-keyboard-response","70","223250","0.0-3.0-0.27","+","null","","","","","",""
"","2691","html-keyboard-response","71","225942","0.0-3.0-1.27","motros","s","null","noncog","pseudo","N","exp","null"
"","null","html-keyboard-response","72","226443","0.0-3.0-0.28","+","null","","","","","",""
"","3194","html-keyboard-response","73","229638","0.0-3.0-1.28","mabras","n","null","noncog","pseudo","N","exp","null"
"","null","html-keyboard-response","74","230140","0.0-3.0-0.29","+","null","","","","","",""
"","3066","html-keyboard-response","75","233206","0.0-3.0-1.29","protas","s","null","noncog","pseudo","N","exp","null"
"","null","html-keyboard-response","76","233707","0.0-3.0-0.30","+","null","","","","","",""
"","13915","html-keyboard-response","77","247621","0.0-3.0-1.30","pedaço","n","n","noncog","word","S","exp","6"
"","null","html-keyboard-response","78","248122","0.0-3.0-0.31","+","null","","","","","",""
"","3579","html-keyboard-response","79","251701","0.0-3.0-1.31","jastor","n","null","noncog","pseudo","N","exp","null"
"","null","html-keyboard-response","80","252202","0.0-3.0-0.32","+","null","","","","","",""
"","4282","html-keyboard-response","81","256485","0.0-3.0-1.32","pantufa","s","n","cog","word","S","exp","7"
"","null","html-keyboard-response","82","256986","0.0-3.0-0.33","+","null","","","","","",""
"","3259","html-keyboard-response","83","260245","0.0-3.0-1.33","faínas","s","null","noncog","pseudo","N","exp","null"
"","null","html-keyboard-response","84","260746","0.0-3.0-0.34","+","null","","","","","",""
"","2891","html-keyboard-response","85","263637","0.0-3.0-1.34","enedro","n","null","noncog","pseudo","N","exp","null"
"","null","html-keyboard-response","86","264138","0.0-3.0-0.35","+","null","","","","","",""
"","2987","html-keyboard-response","87","267125","0.0-3.0-1.35","papai","s","n","cog","word","S","exp","5"
"","null","html-keyboard-response","88","267627","0.0-3.0-0.36","+","null","","","","","",""
"","4618","html-keyboard-response","89","272245","0.0-3.0-1.36","morno","s","a","noncog","word","S","exp","5"
"","null","html-keyboard-response","90","272746","0.0-3.0-0.37","+","null","","","","","",""
"","8411","html-keyboard-response","91","281157","0.0-3.0-1.37","quenzina","n","null","noncog","pseudo","N","exp","null"
"","null","html-keyboard-response","92","281658","0.0-3.0-0.38","+","null","","","","","",""
"","3227","html-keyboard-response","93","284885","0.0-3.0-1.38","lagras","n","null","noncog","pseudo","N","exp","null"
"","null","html-keyboard-response","94","285387","0.0-3.0-0.39","+","null","","","","","",""
"","9419","html-keyboard-response","95","294806","0.0-3.0-1.39","delomir","n","null","noncog","pseudo","N","exp","null"
"","null","html-keyboard-response","96","295307","0.0-3.0-0.40","+","null","","","","","",""
"","8362","html-keyboard-response","97","303669","0.0-3.0-1.40","espaço","s","n","cog","word","S","exp","6"
"","null","html-keyboard-response","98","304171","0.0-3.0-0.41","+","null","","","","","",""
"","3786","html-keyboard-response","99","307957","0.0-3.0-1.41","bagunceira","n","a","noncog","word","S","exp","10"
"","null","html-keyboard-response","100","308459","0.0-3.0-0.42","+","null","","","","","",""
"","5467","html-keyboard-response","101","313926","0.0-3.0-1.42","pangos","n","null","noncog","pseudo","N","exp","null"
"","null","html-keyboard-response","102","314427","0.0-3.0-0.43","+","null","","","","","",""
"","3370","html-keyboard-response","103","317798","0.0-3.0-1.43","destino","s","n","cog","word","S","exp","7"
"","null","html-keyboard-response","104","318299","0.0-3.0-0.44","+","null","","","","","",""
"","5162","html-keyboard-response","105","323462","0.0-3.0-1.44","melão","s","n","cog","word","S","exp","5"
"","null","html-keyboard-response","106","323963","0.0-3.0-0.45","+","null","","","","","",""
"","3690","html-keyboard-response","107","327653","0.0-3.0-1.45","espionar","s","v","cog","word","S","exp","8"
"","null","html-keyboard-response","108","328154","0.0-3.0-0.46","+","null","","","","","",""
"","3163","html-keyboard-response","109","331318","0.0-3.0-1.46","garastia","s","null","noncog","pseudo","N","exp","null"
"","null","html-keyboard-response","110","331819","0.0-3.0-0.47","+","null","","","","","",""
"","5178","html-keyboard-response","111","336998","0.0-3.0-1.47","orupas","s","null","noncog","pseudo","N","exp","null"
"","null","html-keyboard-response","112","337499","0.0-3.0-0.48","+","null","","","","","",""
"","8266","html-keyboard-response","113","345766","0.0-3.0-1.48","traduzir","s","v","cog","word","S","exp","8"
"","null","html-keyboard-response","114","346267","0.0-3.0-0.49","+","null","","","","","",""
"","3691","html-keyboard-response","115","349958","0.0-3.0-1.49","pitada","n","n","noncog","word","S","exp","6"
"","null","html-keyboard-response","116","350460","0.0-3.0-0.50","+","null","","","","","",""
"","3641","html-keyboard-response","117","354102","0.0-3.0-1.50","conjerto","s","null","noncog","pseudo","N","exp","null"
"","null","html-keyboard-response","118","354602","0.0-3.0-0.51","+","null","","","","","",""
"","3019","html-keyboard-response","119","357622","0.0-3.0-1.51","adoçar","s","v","noncog","word","S","exp","6"
"","null","html-keyboard-response","120","358122","0.0-3.0-0.52","+","null","","","","","",""
"","3211","html-keyboard-response","121","361334","0.0-3.0-1.52","revista","s","n","cog","word","S","exp","7"
"","null","html-keyboard-response","122","361835","0.0-3.0-0.53","+","null","","","","","",""
"","2970","html-keyboard-response","123","364806","0.0-3.0-1.53","dencosto","s","null","noncog","pseudo","N","exp","null"
"","null","html-keyboard-response","124","365306","0.0-3.0-0.54","+","null","","","","","",""
"","4475","html-keyboard-response","125","369781","0.0-3.0-1.54","ronronar","n","v","cog","word","S","exp","8"
"","null","html-keyboard-response","126","370283","0.0-3.0-0.55","+","null","","","","","",""
"","4970","html-keyboard-response","127","375254","0.0-3.0-1.55","independente","s","a","noncog","word","S","exp","12"
"","null","html-keyboard-response","128","375755","0.0-3.0-0.56","+","null","","","","","",""
"","3882","html-keyboard-response","129","379637","0.0-3.0-1.56","loaco","n","null","noncog","pseudo","N","exp","null"
"","null","html-keyboard-response","130","380139","0.0-3.0-0.57","+","null","","","","","",""
"","3162","html-keyboard-response","131","383301","0.0-3.0-1.57","aletiê","s","null","noncog","pseudo","N","exp","null"
"","null","html-keyboard-response","132","383802","0.0-3.0-0.58","+","null","","","","","",""
"","3883","html-keyboard-response","133","387685","0.0-3.0-1.58","refletir","s","v","cog","word","S","exp","8"
"","null","html-keyboard-response","134","388187","0.0-3.0-0.59","+","null","","","","","",""
"","8634","html-keyboard-response","135","396821","0.0-3.0-1.59","trair","s","v","cog","word","S","exp","5"
"","null","html-keyboard-response","136","397323","0.0-3.0-0.60","+","null","","","","","",""
"","5530","html-keyboard-response","137","402853","0.0-3.0-1.60","ilhure","s","null","noncog","pseudo","N","exp","null"
"","null","html-keyboard-response","138","403354","0.0-3.0-0.61","+","null","","","","","",""
"","3099","html-keyboard-response","139","406453","0.0-3.0-1.61","sábio","s","n","noncog","word","S","exp","5"
"","null","html-keyboard-response","140","406955","0.0-3.0-0.62","+","null","","","","","",""
"","5594","html-keyboard-response","141","412549","0.0-3.0-1.62","deselegante","s","a","noncog","word","S","exp","11"
"","null","html-keyboard-response","142","413050","0.0-3.0-0.63","+","null","","","","","",""
"","4043","html-keyboard-response","143","417093","0.0-3.0-1.63","beima","n","null","noncog","pseudo","N","exp","null"
"","null","html-keyboard-response","144","417594","0.0-3.0-0.64","+","null","","","","","",""
"","3643","html-keyboard-response","145","421237","0.0-3.0-1.64","bandido","n","n","cog","word","S","exp","7"
"","null","html-keyboard-response","146","421738","0.0-3.0-0.65","+","null","","","","","",""
"","9003","html-keyboard-response","147","430741","0.0-3.0-1.65","cravo","s","n","noncog","word","S","exp","5"
"","null","html-keyboard-response","148","431242","0.0-3.0-0.66","+","null","","","","","",""
"","4298","html-keyboard-response","149","435540","0.0-3.0-1.66","salpicado","s","a","noncog","word","S","exp","9"
"","null","html-keyboard-response","150","436042","0.0-3.0-0.67","+","null","","","","","",""
"","4010","html-keyboard-response","151","440052","0.0-3.0-1.67","imitar","s","v","cog","word","S","exp","6"
"","null","html-keyboard-response","152","440553","0.0-3.0-0.68","+","null","","","","","",""
"","3643","html-keyboard-response","153","444196","0.0-3.0-1.68","aivões","n","null","noncog","pseudo","N","exp","null"
"","null","html-keyboard-response","154","444698","0.0-3.0-0.69","+","null","","","","","",""
"","4666","html-keyboard-response","155","449364","0.0-3.0-1.69","usfiga","n","null","noncog","pseudo","N","exp","null"
"","null","html-keyboard-response","156","449865","0.0-3.0-0.70","+","null","","","","","",""
"","5211","html-keyboard-response","157","455076","0.0-3.0-1.70","espinho","s","n","noncog","word","S","exp","7"
"","null","html-keyboard-response","158","455577","0.0-3.0-0.71","+","null","","","","","",""
"","4219","html-keyboard-response","159","459796","0.0-3.0-1.71","distraído","s","a","cog","word","S","exp","9"
"","null","html-keyboard-response","160","460297","0.0-3.0-0.72","+","null","","","","","",""
"","2603","html-keyboard-response","161","462900","0.0-3.0-1.72","costra","s","null","noncog","pseudo","N","exp","null"
"","null","html-keyboard-response","162","463402","0.0-3.0-0.73","+","null","","","","","",""
"","5290","html-keyboard-response","163","468692","0.0-3.0-1.73","tênis","s","n","cog","word","S","exp","5"
"","null","html-keyboard-response","164","469193","0.0-3.0-0.74","+","null","","","","","",""
"","2875","html-keyboard-response","165","472068","0.0-3.0-1.74","mua","s","null","noncog","pseudo","N","exp","null"
"","null","html-keyboard-response","166","472570","0.0-3.0-0.75","+","null","","","","","",""
"","4954","html-keyboard-response","167","477524","0.0-3.0-1.75","comércio","s","n","noncog","word","S","exp","8"
"","null","html-keyboard-response","168","478025","0.0-3.0-0.76","+","null","","","","","",""
"","2715","html-keyboard-response","169","480741","0.0-3.0-1.76","liberal","s","a","cog","word","S","exp","7"
"","null","html-keyboard-response","170","481241","0.0-3.0-0.77","+","null","","","","","",""
"","2986","html-keyboard-response","171","484228","0.0-3.0-1.77","podilo","s","null","noncog","pseudo","N","exp","null"
"","null","html-keyboard-response","172","484729","0.0-3.0-0.78","+","null","","","","","",""
"","7370","html-keyboard-response","173","492100","0.0-3.0-1.78","atitro","n","null","noncog","pseudo","N","exp","null"
"","null","html-keyboard-response","174","492600","0.0-3.0-0.79","+","null","","","","","",""
"","3819","html-keyboard-response","175","496420","0.0-3.0-1.79","perbas","s","null","noncog","pseudo","N","exp","null"
"","null","html-keyboard-response","176","496920","0.0-3.0-0.80","+","null","","","","","",""
"","5451","html-keyboard-response","177","502372","0.0-3.0-1.80","prantal","s","null","noncog","pseudo","N","exp","null"
"","null","html-keyboard-response","178","502873","0.0-3.0-0.81","+","null","","","","","",""
"","3706","html-keyboard-response","179","506580","0.0-3.0-1.81","ocinto","s","null","noncog","pseudo","N","exp","null"
"","null","html-keyboard-response","180","507080","0.0-3.0-0.82","+","null","","","","","",""
"","5451","html-keyboard-response","181","512532","0.0-3.0-1.82","nevela","n","null","noncog","pseudo","N","exp","null"
"","null","html-keyboard-response","182","513033","0.0-3.0-0.83","+","null","","","","","",""
"","4299","html-keyboard-response","183","517332","0.0-3.0-1.83","uchães","s","null","noncog","pseudo","N","exp","null"
"","null","html-keyboard-response","184","517833","0.0-3.0-0.84","+","null","","","","","",""
"","3754","html-keyboard-response","185","521588","0.0-3.0-1.84","tímido","s","a","cog","word","S","exp","6"
"","null","html-keyboard-response","186","522089","0.0-3.0-0.85","+","null","","","","","",""
"","5355","html-keyboard-response","187","527444","0.0-3.0-1.85","raspar","n","v","noncog","word","S","exp","6"
"","null","html-keyboard-response","188","527945","0.0-3.0-0.86","+","null","","","","","",""
"","2827","html-keyboard-response","189","530772","0.0-3.0-1.86","selir","n","null","noncog","pseudo","N","exp","null"
"","null","html-keyboard-response","190","531273","0.0-3.0-0.87","+","null","","","","","",""
"","4811","html-keyboard-response","191","536084","0.0-3.0-1.87","plinta","s","null","noncog","pseudo","N","exp","null"
"","null","html-keyboard-response","192","536586","0.0-3.0-0.88","+","null","","","","","",""
"","2890","html-keyboard-response","193","539476","0.0-3.0-1.88","cristal","s","n","cog","word","S","exp","7"
"","null","html-keyboard-response","194","539977","0.0-3.0-0.89","+","null","","","","","",""
"","4187","html-keyboard-response","195","544164","0.0-3.0-1.89","preferir","s","v","cog","word","S","exp","8"
"","null","html-keyboard-response","196","544666","0.0-3.0-0.90","+","null","","","","","",""
"","6954","html-keyboard-response","197","551620","0.0-3.0-1.90","aperor","n","null","noncog","pseudo","N","exp","null"
"","null","html-keyboard-response","198","552121","0.0-3.0-0.91","+","null","","","","","",""
"","2443","html-keyboard-response","199","554564","0.0-3.0-1.91","agravar","s","v","cog","word","S","exp","7"
"","null","html-keyboard-response","200","555065","0.0-3.0-0.92","+","null","","","","","",""
"","3419","html-keyboard-response","201","558484","0.0-3.0-1.92","macras","s","null","noncog","pseudo","N","exp","null"
"","null","html-keyboard-response","202","558987","0.0-3.0-0.93","+","null","","","","","",""
"","4953","html-keyboard-response","203","563941","0.0-3.0-1.93","vervas","s","null","noncog","pseudo","N","exp","null"
"","null","html-keyboard-response","204","564442","0.0-3.0-0.94","+","null","","","","","",""
"","3258","html-keyboard-response","205","567700","0.0-3.0-1.94","mudança","s","n","noncog","word","S","exp","7"
"","null","html-keyboard-response","206","568203","0.0-3.0-0.95","+","null","","","","","",""
"","4169","html-keyboard-response","207","572372","0.0-3.0-1.95","tinta","n","n","cog","word","S","exp","5"
"","null","html-keyboard-response","208","572872","0.0-3.0-0.96","+","null","","","","","",""
"","5083","html-keyboard-response","209","577956","0.0-3.0-1.96","oecano","s","null","noncog","pseudo","N","exp","null"
"","null","html-keyboard-response","210","578458","0.0-3.0-0.97","+","null","","","","","",""
"","8266","html-keyboard-response","211","586724","0.0-3.0-1.97","montanha","s","n","cog","word","S","exp","8"
"","null","html-keyboard-response","212","587225","0.0-3.0-0.98","+","null","","","","","",""
"","3003","html-keyboard-response","213","590228","0.0-3.0-1.98","trenos","s","null","noncog","pseudo","N","exp","null"
"","null","html-keyboard-response","214","590730","0.0-3.0-0.99","+","null","","","","","",""
"","2954","html-keyboard-response","215","593684","0.0-3.0-1.99","gordo","s","a","noncog","word","S","exp","5"
"","null","html-keyboard-response","216","594186","0.0-3.0-0.100","+","null","","","","","",""
"","2314","html-keyboard-response","217","596500","0.0-3.0-1.100","drama","s","n","cog","word","S","exp","5"
"","null","html-keyboard-response","218","597002","0.0-3.0-0.101","+","null","","","","","",""
"","5770","html-keyboard-response","219","602772","0.0-3.0-1.101","candifência","s","null","noncog","pseudo","N","exp","null"
"","null","html-keyboard-response","220","603273","0.0-3.0-0.102","+","null","","","","","",""
"","7211","html-keyboard-response","221","610484","0.0-3.0-1.102","parceter","s","null","noncog","pseudo","N","exp","null"
"","null","html-keyboard-response","222","610985","0.0-3.0-0.103","+","null","","","","","",""
"","3467","html-keyboard-response","223","614451","0.0-3.0-1.103","arranjar","s","v","cog","word","S","exp","8"
"","null","html-keyboard-response","224","614952","0.0-3.0-0.104","+","null","","","","","",""
"","3099","html-keyboard-response","225","618051","0.0-3.0-1.104","promeção","s","null","noncog","pseudo","N","exp","null"
"","null","html-keyboard-response","226","618552","0.0-3.0-0.105","+","null","","","","","",""
"","3163","html-keyboard-response","227","621715","0.0-3.0-1.105","trabalhar","s","v","noncog","word","S","exp","9"
"","null","html-keyboard-response","228","622216","0.0-3.0-0.106","+","null","","","","","",""
"","3435","html-keyboard-response","229","625652","0.0-3.0-1.106","perdão","s","n","noncog","word","S","exp","6"
"","null","html-keyboard-response","230","626153","0.0-3.0-0.107","+","null","","","","","",""
"","3354","html-keyboard-response","231","629507","0.0-3.0-1.107","esperar","s","v","cog","word","S","exp","7"
"","null","html-keyboard-response","232","630009","0.0-3.0-0.108","+","null","","","","","",""
"","2858","html-keyboard-response","233","632867","0.0-3.0-1.108","boreta","s","null","noncog","pseudo","N","exp","null"
"","null","html-keyboard-response","234","633369","0.0-3.0-0.109","+","null","","","","","",""
"","4378","html-keyboard-response","235","637747","0.0-3.0-1.109","hébies","s","null","noncog","pseudo","N","exp","null"
"","null","html-keyboard-response","236","638249","0.0-3.0-0.110","+","null","","","","","",""
"","4890","html-keyboard-response","237","643139","0.0-3.0-1.110","ênclio","n","null","noncog","pseudo","N","exp","null"
"","null","html-keyboard-response","238","643641","0.0-3.0-0.111","+","null","","","","","",""
"","2682","html-keyboard-response","239","646323","0.0-3.0-1.111","livro","s","n","cog","word","S","exp","5"
"","null","html-keyboard-response","240","646824","0.0-3.0-0.112","+","null","","","","","",""
"","3483","html-keyboard-response","241","650307","0.0-3.0-1.112","fratos","n","null","noncog","pseudo","N","exp","null"
"","null","html-keyboard-response","242","650809","0.0-3.0-0.113","+","null","","","","","",""
"","2538","html-keyboard-response","243","653347","0.0-3.0-1.113","bambu","s","n","cog","word","S","exp","5"
"","null","html-keyboard-response","244","653849","0.0-3.0-0.114","+","null","","","","","",""
"","2474","html-keyboard-response","245","656323","0.0-3.0-1.114","telefone","s","n","cog","word","S","exp","8"
"","null","html-keyboard-response","246","656825","0.0-3.0-0.115","+","null","","","","","",""
"","2682","html-keyboard-response","247","659507","0.0-3.0-1.115","revear","s","null","noncog","pseudo","N","exp","null"
"","null","html-keyboard-response","248","660009","0.0-3.0-0.116","+","null","","","","","",""
"","266","html-keyboard-response","249","660275","0.0-3.0-1.116","carro","s","n","noncog","word","S","exp","5"
"","null","html-keyboard-response","250","660776","0.0-3.0-0.117","+","null","","","","","",""
"","5579","html-keyboard-response","251","666355","0.0-3.0-1.117","manais","n","null","noncog","pseudo","N","exp","null"
"","null","html-keyboard-response","252","666857","0.0-3.0-0.118","+","null","","","","","",""
"","4330","html-keyboard-response","253","671187","0.0-3.0-1.118","alfabeto","s","n","cog","word","S","exp","8"
"","null","html-keyboard-response","254","671689","0.0-3.0-0.119","+","null","","","","","",""
"","3178","html-keyboard-response","255","674866","0.0-3.0-1.119","cenada","s","null","noncog","pseudo","N","exp","null"
"","null","html-keyboard-response","256","675367","0.0-3.0-0.120","+","null","","","","","",""
"","3163","html-keyboard-response","257","678531","0.0-3.0-1.120","ideisa","s","null","noncog","pseudo","N","exp","null"
"","null","html-keyboard-response","258","679031","0.0-3.0-0.121","+","null","","","","","",""
"","2395","html-keyboard-response","259","681427","0.0-3.0-1.121","grave","s","a","cog","word","S","exp","5"
"","null","html-keyboard-response","260","681928","0.0-3.0-0.122","+","null","","","","","",""
"","7354","html-keyboard-response","261","689282","0.0-3.0-1.122","resmungar","n","v","noncog","word","S","exp","9"
"","null","html-keyboard-response","262","689785","0.0-3.0-0.123","+","null","","","","","",""
"","3913","html-keyboard-response","263","693698","0.0-3.0-1.123","instruído","s","a","noncog","word","S","exp","9"
"","null","html-keyboard-response","264","694200","0.0-3.0-0.124","+","null","","","","","",""
"","3530","html-keyboard-response","265","697730","0.0-3.0-1.124","cinema","s","n","cog","word","S","exp","6"
"","null","html-keyboard-response","266","698231","0.0-3.0-0.125","+","null","","","","","",""
"","3419","html-keyboard-response","267","701651","0.0-3.0-1.125","convidado","s","n","noncog","word","S","exp","9"
"","null","html-keyboard-response","268","702152","0.0-3.0-0.126","+","null","","","","","",""
"","5082","html-keyboard-response","269","707235","0.0-3.0-1.126","suipestar","s","null","noncog","pseudo","N","exp","null"
"","null","html-keyboard-response","270","707736","0.0-3.0-0.127","+","null","","","","","",""
"","7914","html-keyboard-response","271","715650","0.0-3.0-1.127","escumo","s","null","noncog","pseudo","N","exp","null"
"","null","html-keyboard-response","272","716165","0.0-3.0-0.128","+","null","","","","","",""
"","12237","html-keyboard-response","273","728403","0.0-3.0-1.128","bachir","n","null","noncog","pseudo","N","exp","null"
"","null","html-keyboard-response","274","728904","0.0-3.0-0.129","+","null","","","","","",""
"","4714","html-keyboard-response","275","733619","0.0-3.0-1.129","terdia","s","null","noncog","pseudo","N","exp","null"
"","null","html-keyboard-response","276","734119","0.0-3.0-0.130","+","null","","","","","",""
"","4523","html-keyboard-response","277","738642","0.0-3.0-1.130","abieso","s","null","noncog","pseudo","N","exp","null"
"","null","html-keyboard-response","278","739143","0.0-3.0-0.131","+","null","","","","","",""
"","2683","html-keyboard-response","279","741826","0.0-3.0-1.131","crutas","s","null","noncog","pseudo","N","exp","null"
"","null","html-keyboard-response","280","742327","0.0-3.0-0.132","+","null","","","","","",""
"","4331","html-keyboard-response","281","746658","0.0-3.0-1.132","aemaça","s","null","noncog","pseudo","N","exp","null"
"","null","html-keyboard-response","282","747159","0.0-3.0-0.133","+","null","","","","","",""
"","3419","html-keyboard-response","283","750578","0.0-3.0-1.133","reduzir","s","v","cog","word","S","exp","7"
"","null","html-keyboard-response","284","751079","0.0-3.0-0.134","+","null","","","","","",""
"","3035","html-keyboard-response","285","754114","0.0-3.0-1.134","matinal","s","a","cog","word","S","exp","7"
"","null","html-keyboard-response","286","754616","0.0-3.0-0.135","+","null","","","","","",""
"","4922","html-keyboard-response","287","759538","0.0-3.0-1.135","crolatário","s","null","noncog","pseudo","N","exp","null"
"","null","html-keyboard-response","288","760045","0.0-3.0-0.136","+","null","","","","","",""
"","2326","html-keyboard-response","289","762371","0.0-3.0-1.136","bracos","s","null","noncog","pseudo","N","exp","null"
"","null","html-keyboard-response","290","762872","0.0-3.0-0.137","+","null","","","","","",""
"","5722","html-keyboard-response","291","768594","0.0-3.0-1.137","tatear","s","v","cog","word","S","exp","6"
"","null","html-keyboard-response","292","769095","0.0-3.0-0.138","+","null","","","","","",""
"","3067","html-keyboard-response","293","772162","0.0-3.0-1.138","tartos","s","null","noncog","pseudo","N","exp","null"
"","null","html-keyboard-response","294","772663","0.0-3.0-0.139","+","null","","","","","",""
"","2283","html-keyboard-response","295","774946","0.0-3.0-1.139","nome","s","n","cog","word","S","exp","4"
"","null","html-keyboard-response","296","775447","0.0-3.0-0.140","+","null","","","","","",""
"","2682","html-keyboard-response","297","778130","0.0-3.0-1.140","gilha","s","null","noncog","pseudo","N","exp","null"
"","null","html-keyboard-response","298","778636","0.0-3.0-0.141","+","null","","","","","",""
"","3621","html-keyboard-response","299","782258","0.0-3.0-1.141","ejerro","s","null","noncog","pseudo","N","exp","null"
"","null","html-keyboard-response","300","782760","0.0-3.0-0.142","+","null","","","","","",""
"","2186","html-keyboard-response","301","784946","0.0-3.0-1.142","mal","s","a","cog","word","S","exp","3"
"","null","html-keyboard-response","302","785448","0.0-3.0-0.143","+","null","","","","","",""
"","4059","html-keyboard-response","303","789506","0.0-3.0-1.143","mania","n","n","cog","word","S","exp","5"
"","null","html-keyboard-response","304","790008","0.0-3.0-0.144","+","null","","","","","",""
"","3914","html-keyboard-response","305","793922","0.0-3.0-1.144","sanque","n","null","noncog","pseudo","N","exp","null"
"","null","html-keyboard-response","306","794424","0.0-3.0-0.145","+","null","","","","","",""
"","3274","html-keyboard-response","307","797698","0.0-3.0-1.145","fusbão","n","null","noncog","pseudo","N","exp","null"
"","null","html-keyboard-response","308","798199","0.0-3.0-0.146","+","null","","","","","",""
"","3931","html-keyboard-response","309","802130","0.0-3.0-1.146","propaganda","s","n","cog","word","S","exp","10"
"","null","html-keyboard-response","310","802632","0.0-3.0-0.147","+","null","","","","","",""
"","4986","html-keyboard-response","311","807618","0.0-3.0-1.147","nivelado","n","a","cog","word","S","exp","8"
"","null","html-keyboard-response","312","808119","0.0-3.0-0.148","+","null","","","","","",""
"","5227","html-keyboard-response","313","813346","0.0-3.0-1.148","tronca","n","null","noncog","pseudo","N","exp","null"
"","null","html-keyboard-response","314","813848","0.0-3.0-0.149","+","null","","","","","",""
"","3258","html-keyboard-response","315","817106","0.0-3.0-1.149","manfa","n","null","noncog","pseudo","N","exp","null"
"","null","html-keyboard-response","316","817607","0.0-3.0-0.150","+","null","","","","","",""
"","4906","html-keyboard-response","317","822514","0.0-3.0-1.150","hedoru","n","null","noncog","pseudo","N","exp","null"
"","null","html-keyboard-response","318","823015","0.0-3.0-0.151","+","null","","","","","",""
"","2458","html-keyboard-response","319","825474","0.0-3.0-1.151","filme","s","n","cog","word","S","exp","5"
"","null","html-keyboard-response","320","825976","0.0-3.0-0.152","+","null","","","","","",""
"","2474","html-keyboard-response","321","828450","0.0-3.0-1.152","oper","s","null","noncog","pseudo","N","exp","null"
"","null","html-keyboard-response","322","828951","0.0-3.0-0.153","+","null","","","","","",""
"","2714","html-keyboard-response","323","831666","0.0-3.0-1.153","barco","s","n","cog","word","S","exp","5"
"","null","html-keyboard-response","324","832168","0.0-3.0-0.154","+","null","","","","","",""
"","3674","html-keyboard-response","325","835842","0.0-3.0-1.154","lorfaz","n","null","noncog","pseudo","N","exp","null"
"","null","html-keyboard-response","326","836343","0.0-3.0-0.155","+","null","","","","","",""
"","2731","html-keyboard-response","327","839074","0.0-3.0-1.155","cerca","n","n","noncog","word","S","exp","5"
"","null","html-keyboard-response","328","839575","0.0-3.0-0.156","+","null","","","","","",""
"","4139","html-keyboard-response","329","843714","0.0-3.0-1.156","cirado","n","null","noncog","pseudo","N","exp","null"
"","null","html-keyboard-response","330","844216","0.0-3.0-0.157","+","null","","","","","",""
"","3898","html-keyboard-response","331","848114","0.0-3.0-1.157","risbos","s","null","noncog","pseudo","N","exp","null"
"","null","html-keyboard-response","332","848616","0.0-3.0-0.158","+","null","","","","","",""
"","2602","html-keyboard-response","333","851218","0.0-3.0-1.158","gertas","s","null","noncog","pseudo","N","exp","null"
"","null","html-keyboard-response","334","851720","0.0-3.0-0.159","+","null","","","","","",""
"","3130","html-keyboard-response","335","854850","0.0-3.0-1.159","fino","s","a","cog","word","S","exp","4"
"","null","html-keyboard-response","336","855351","0.0-3.0-0.160","+","null","","","","","",""
"","4091","html-keyboard-response","337","859442","0.0-3.0-1.160","enxarto","s","null","noncog","pseudo","N","exp","null"
"","null","html-keyboard-response","338","859943","0.0-3.0-0.161","+","null","","","","","",""
"","4186","html-keyboard-response","339","864130","0.0-3.0-1.161","encelhor","s","null","noncog","pseudo","N","exp","null"
"","null","html-keyboard-response","340","864632","0.0-3.0-0.162","+","null","","","","","",""
"","3946","html-keyboard-response","341","868578","0.0-3.0-1.162","euorpa","s","null","noncog","pseudo","N","exp","null"
"","null","html-keyboard-response","342","869078","0.0-3.0-0.163","+","null","","","","","",""
"","4859","html-keyboard-response","343","873938","0.0-3.0-1.163","animado","s","a","noncog","word","S","exp","7"
"","null","html-keyboard-response","344","874439","0.0-3.0-0.164","+","null","","","","","",""
"","4282","html-keyboard-response","345","878722","0.0-3.0-1.164","medalha","s","n","cog","word","S","exp","7"
"","null","html-keyboard-response","346","879223","0.0-3.0-0.165","+","null","","","","","",""
"","2122","html-keyboard-response","347","881346","0.0-3.0-1.165","país","s","n","noncog","word","S","exp","4"
"","null","html-keyboard-response","348","881847","0.0-3.0-0.166","+","null","","","","","",""
"","4330","html-keyboard-response","349","886177","0.0-3.0-1.166","dilheira","n","null","noncog","pseudo","N","exp","null"
"","null","html-keyboard-response","350","886678","0.0-3.0-0.167","+","null","","","","","",""
"","4779","html-keyboard-response","351","891458","0.0-3.0-1.167","fofo","s","a","noncog","word","S","exp","4"
"","null","html-keyboard-response","352","891958","0.0-3.0-0.168","+","null","","","","","",""
"","2939","html-keyboard-response","353","894898","0.0-3.0-1.168","memória","s","n","cog","word","S","exp","7"
"","null","html-keyboard-response","354","895399","0.0-3.0-0.169","+","null","","","","","",""
"","3387","html-keyboard-response","355","898786","0.0-3.0-1.169","senareta","s","null","noncog","pseudo","N","exp","null"
"","null","html-keyboard-response","356","899287","0.0-3.0-0.170","+","null","","","","","",""
"","4522","html-keyboard-response","357","903810","0.0-3.0-1.170","árovre","n","null","noncog","pseudo","N","exp","null"
"","null","html-keyboard-response","358","904311","0.0-3.0-0.171","+","null","","","","","",""
"","6251","html-keyboard-response","359","910562","0.0-3.0-1.171","delirar","s","v","noncog","word","S","exp","7"
"","null","html-keyboard-response","360","911063","0.0-3.0-0.172","+","null","","","","","",""
"","3259","html-keyboard-response","361","914322","0.0-3.0-1.172","jantar","n","v","noncog","word","S","exp","6"
"","null","html-keyboard-response","362","914823","0.0-3.0-0.173","+","null","","","","","",""
"","5834","html-keyboard-response","363","920658","0.0-3.0-1.173","rédesa","s","null","noncog","pseudo","N","exp","null"
"","null","html-keyboard-response","364","921159","0.0-3.0-0.174","+","null","","","","","",""
"","7706","html-keyboard-response","365","928865","0.0-3.0-1.174","taberia","s","null","noncog","pseudo","N","exp","null"
"","null","html-keyboard-response","366","929366","0.0-3.0-0.175","+","null","","","","","",""
"","3595","html-keyboard-response","367","932961","0.0-3.0-1.175","multiplicar","s","v","cog","word","S","exp","11"
"","null","html-keyboard-response","368","933463","0.0-3.0-0.176","+","null","","","","","",""
"","9066","html-keyboard-response","369","942529","0.0-3.0-1.176","motre","s","null","noncog","pseudo","N","exp","null"
"","null","html-keyboard-response","370","943045","0.0-3.0-0.177","+","null","","","","","",""
"","6764","html-keyboard-response","371","949809","0.0-3.0-1.177","bibarconato","n","null","noncog","pseudo","N","exp","null"
"","null","html-keyboard-response","372","950310","0.0-3.0-0.178","+","null","","","","","",""
"","3818","html-keyboard-response","373","954129","0.0-3.0-1.178","cascata","n","n","noncog","word","S","exp","7"
"","null","html-keyboard-response","374","954631","0.0-3.0-0.179","+","null","","","","","",""
"","5385","html-keyboard-response","375","960017","0.0-3.0-1.179","dobradiça","n","n","noncog","word","S","exp","9"
"","null","html-keyboard-response","376","960518","0.0-3.0-0.180","+","null","","","","","",""
"","4171","html-keyboard-response","377","964689","0.0-3.0-1.180","nervoso","s","a","noncog","word","S","exp","7"
"","null","html-keyboard-response","378","965190","0.0-3.0-0.181","+","null","","","","","",""
"","4219","html-keyboard-response","379","969409","0.0-3.0-1.181","morija","s","null","noncog","pseudo","N","exp","null"
"","null","html-keyboard-response","380","969911","0.0-3.0-0.182","+","null","","","","","",""
"","3162","html-keyboard-response","381","973073","0.0-3.0-1.182","cápsula","s","n","noncog","word","S","exp","7"
"","null","html-keyboard-response","382","973575","0.0-3.0-0.183","+","null","","","","","",""
"","4522","html-keyboard-response","383","978097","0.0-3.0-1.183","disbrituir","s","null","noncog","pseudo","N","exp","null"
"","null","html-keyboard-response","384","978598","0.0-3.0-0.184","+","null","","","","","",""
"","2779","html-keyboard-response","385","981377","0.0-3.0-1.184","francês","s","a","cog","word","S","exp","7"
"","null","html-keyboard-response","386","981879","0.0-3.0-0.185","+","null","","","","","",""
"","2970","html-keyboard-response","387","984849","0.0-3.0-1.185","viver","s","v","cog","word","S","exp","5"
"","null","html-keyboard-response","388","985350","0.0-3.0-0.186","+","null","","","","","",""
"","2715","html-keyboard-response","389","988065","0.0-3.0-1.186","liso","s","n","noncog","word","S","exp","4"
"","null","html-keyboard-response","390","988566","0.0-3.0-0.187","+","null","","","","","",""
"","2618","html-keyboard-response","391","991185","0.0-3.0-1.187","anjo","s","n","cog","word","S","exp","4"
"","null","html-keyboard-response","392","991686","0.0-3.0-0.188","+","null","","","","","",""
"","3035","html-keyboard-response","393","994721","0.0-3.0-1.188","areia","s","n","noncog","word","S","exp","5"
"","null","html-keyboard-response","394","995223","0.0-3.0-0.189","+","null","","","","","",""
"","2762","html-keyboard-response","395","997985","0.0-3.0-1.189","agressivo","s","a","cog","word","S","exp","9"
"","null","html-keyboard-response","396","998486","0.0-3.0-0.190","+","null","","","","","",""
"","3370","html-keyboard-response","397","1001857","0.0-3.0-1.190","grátis","s","a","cog","word","S","exp","6"
"","null","html-keyboard-response","398","1002358","0.0-3.0-0.191","+","null","","","","","",""
"","2379","html-keyboard-response","399","1004737","0.0-3.0-1.191","chorão","s","a","noncog","word","S","exp","6"
"","null","html-keyboard-response","400","1005238","0.0-3.0-0.192","+","null","","","","","",""
"","2955","html-keyboard-response","401","1008193","0.0-3.0-1.192","temperar","s","v","noncog","word","S","exp","8"
"","null","html-keyboard-response","402","1008694","0.0-3.0-0.193","+","null","","","","","",""
"","3994","html-keyboard-response","403","1012689","0.0-3.0-1.193","usnado","n","null","noncog","pseudo","N","exp","null"
"","null","html-keyboard-response","404","1013190","0.0-3.0-0.194","+","null","","","","","",""
"","3019","html-keyboard-response","405","1016209","0.0-3.0-1.194","rovaz","n","null","noncog","pseudo","N","exp","null"
"","null","html-keyboard-response","406","1016710","0.0-3.0-0.195","+","null","","","","","",""
"","4107","html-keyboard-response","407","1020817","0.0-3.0-1.195","undivídio","s","null","noncog","pseudo","N","exp","null"
"","null","html-keyboard-response","408","1021318","0.0-3.0-0.196","+","null","","","","","",""
"","3530","html-keyboard-response","409","1024849","0.0-3.0-1.196","pega-pega","s","n","noncog","word","S","exp","8"
"","null","html-keyboard-response","410","1025349","0.0-3.0-0.197","+","null","","","","","",""
"","3627","html-keyboard-response","411","1028977","0.0-3.0-1.197","especial","s","a","cog","word","S","exp","8"
"","null","html-keyboard-response","412","1029478","0.0-3.0-0.198","+","null","","","","","",""
"","4155","html-keyboard-response","413","1033633","0.0-3.0-1.198","brincar","s","v","noncog","word","S","exp","7"
"","null","html-keyboard-response","414","1034134","0.0-3.0-0.199","+","null","","","","","",""
"","2395","html-keyboard-response","415","1036529","0.0-3.0-1.199","verde","s","a","noncog","word","S","exp","5"
"","null","html-keyboard-response","416","1037029","0.0-3.0-0.200","+","null","","","","","",""
"","2555","html-keyboard-response","417","1039585","0.0-3.0-1.200","verdade","s","n","cog","word","S","exp","7"
"","null","html-keyboard-response","418","1040086","0.0-3.0-0.201","+","null","","","","","",""
"","2634","html-keyboard-response","419","1042721","0.0-3.0-1.201","ensuas","n","null","noncog","pseudo","N","exp","null"
"","null","html-keyboard-response","420","1043222","0.0-3.0-0.202","+","null","","","","","",""
"","3850","html-keyboard-response","421","1047073","0.0-3.0-1.202","farcas","s","null","noncog","pseudo","N","exp","null"
"","null","html-keyboard-response","422","1047573","0.0-3.0-0.203","+","null","","","","","",""
"","2955","html-keyboard-response","423","1050529","0.0-3.0-1.203","bancada","s","n","noncog","word","S","exp","7"
"","null","html-keyboard-response","424","1051030","0.0-3.0-0.204","+","null","","","","","",""
"","3898","html-keyboard-response","425","1054928","0.0-3.0-1.204","esfoce","s","null","noncog","pseudo","N","exp","null"
"","null","html-keyboard-response","426","1055429","0.0-3.0-0.205","+","null","","","","","",""
"","3659","html-keyboard-response","427","1059089","0.0-3.0-1.205","oricia","s","null","noncog","pseudo","N","exp","null"
"","null","html-keyboard-response","428","1059590","0.0-3.0-0.206","+","null","","","","","",""
"","4699","html-keyboard-response","429","1064289","0.0-3.0-1.206","incomodar","s","v","noncog","word","S","exp","9"
"","null","html-keyboard-response","430","1064791","0.0-3.0-0.207","+","null","","","","","",""
"","2889","html-keyboard-response","431","1067681","0.0-3.0-1.207","atrasar","s","v","noncog","word","S","exp","7"
"","null","html-keyboard-response","432","1068183","0.0-3.0-0.208","+","null","","","","","",""
"","3273","html-keyboard-response","433","1071457","0.0-3.0-1.208","extravagante","s","a","cog","word","S","exp","12"
"","null","html-keyboard-response","434","1071958","0.0-3.0-0.209","+","null","","","","","",""
"","2858","html-keyboard-response","435","1074816","0.0-3.0-1.209","grótis","s","null","noncog","pseudo","N","exp","null"
"","null","html-keyboard-response","436","1075318","0.0-3.0-0.210","+","null","","","","","",""
"","3210","html-keyboard-response","437","1078528","0.0-3.0-1.210","pulmão","s","n","noncog","word","S","exp","6"
"","null","html-keyboard-response","438","1079030","0.0-3.0-0.211","+","null","","","","","",""
"","5098","html-keyboard-response","439","1084128","0.0-3.0-1.211","telafonir","n","null","noncog","pseudo","N","exp","null"
"","null","html-keyboard-response","440","1084630","0.0-3.0-0.212","+","null","","","","","",""
"","3178","html-keyboard-response","441","1087808","0.0-3.0-1.212","alpica","n","null","noncog","pseudo","N","exp","null"
"","null","html-keyboard-response","442","1088309","0.0-3.0-0.213","+","null","","","","","",""
"","4235","html-keyboard-response","443","1092545","0.0-3.0-1.213","aitrou","s","null","noncog","pseudo","N","exp","null"
"","null","html-keyboard-response","444","1093046","0.0-3.0-0.214","+","null","","","","","",""
"","2282","html-keyboard-response","445","1095328","0.0-3.0-1.214","chato","s","n","noncog","word","S","exp","5"
"","null","html-keyboard-response","446","1095829","0.0-3.0-0.215","+","null","","","","","",""
"","4747","html-keyboard-response","447","1100577","0.0-3.0-1.215","afonher","n","null","noncog","pseudo","N","exp","null"
"","null","html-keyboard-response","448","1101078","0.0-3.0-0.216","+","null","","","","","",""
"","2827","html-keyboard-response","449","1103905","0.0-3.0-1.216","burtos","n","null","noncog","pseudo","N","exp","null"
"","null","html-keyboard-response","450","1104406","0.0-3.0-0.217","+","null","","","","","",""
"","3035","html-keyboard-response","451","1107441","0.0-3.0-1.217","afual","s","null","noncog","pseudo","N","exp","null"
"","null","html-keyboard-response","452","1107943","0.0-3.0-0.218","+","null","","","","","",""
"","3017","html-keyboard-response","453","1110961","0.0-3.0-1.218","planalto","s","n","cog","word","S","exp","8"
"","null","html-keyboard-response","454","1111462","0.0-3.0-0.219","+","null","","","","","",""
"","4026","html-keyboard-response","455","1115489","0.0-3.0-1.219","detative","s","null","noncog","pseudo","N","exp","null"
"","null","html-keyboard-response","456","1115990","0.0-3.0-0.220","+","null","","","","","",""
"","3418","html-keyboard-response","457","1119409","0.0-3.0-1.220","açúcar","s","n","noncog","word","S","exp","6"
"","null","html-keyboard-response","458","1119909","0.0-3.0-0.221","+","null","","","","","",""
"","4795","html-keyboard-response","459","1124705","0.0-3.0-1.221","lapestra","s","null","noncog","pseudo","N","exp","null"
"","null","html-keyboard-response","460","1125206","0.0-3.0-0.222","+","null","","","","","",""
"","7259","html-keyboard-response","461","1132465","0.0-3.0-1.222","atapdar","n","null","noncog","pseudo","N","exp","null"
"","null","html-keyboard-response","462","1132966","0.0-3.0-0.223","+","null","","","","","",""
"","3659","html-keyboard-response","463","1136625","0.0-3.0-1.223","lagoa","s","n","cog","word","S","exp","5"
"","null","html-keyboard-response","464","1137126","0.0-3.0-0.224","+","null","","","","","",""
"","3850","html-keyboard-response","465","1140977","0.0-3.0-1.224","irratinte","s","null","noncog","pseudo","N","exp","null"
"","null","html-keyboard-response","466","1141478","0.0-3.0-0.225","+","null","","","","","",""
"","5291","html-keyboard-response","467","1146769","0.0-3.0-1.225","uçar","s","null","noncog","pseudo","N","exp","null"
"","null","html-keyboard-response","468","1147271","0.0-3.0-0.226","+","null","","","","","",""
"","2619","html-keyboard-response","469","1149890","0.0-3.0-1.226","pimada","s","null","noncog","pseudo","N","exp","null"
"","null","html-keyboard-response","470","1150391","0.0-3.0-0.227","+","null","","","","","",""
"","4073","html-keyboard-response","471","1154465","0.0-3.0-1.227","vitrive","s","null","noncog","pseudo","N","exp","null"
"","null","html-keyboard-response","472","1154966","0.0-3.0-0.228","+","null","","","","","",""
"","3674","html-keyboard-response","473","1158641","0.0-3.0-1.228","hipócrita","s","a","noncog","word","S","exp","9"
"","null","html-keyboard-response","474","1159142","0.0-3.0-0.229","+","null","","","","","",""
"","3163","html-keyboard-response","475","1162305","0.0-3.0-1.229","casuas","s","null","noncog","pseudo","N","exp","null"
"","null","html-keyboard-response","476","1162806","0.0-3.0-0.230","+","null","","","","","",""
"","2987","html-keyboard-response","477","1165793","0.0-3.0-1.230","esprotiar","s","null","noncog","pseudo","N","exp","null"
"","null","html-keyboard-response","478","1166294","0.0-3.0-0.231","+","null","","","","","",""
"","5914","html-keyboard-response","479","1172209","0.0-3.0-1.231","civil","s","a","cog","word","S","exp","5"
"","null","html-keyboard-response","480","1172710","0.0-3.0-0.232","+","null","","","","","",""
"","3083","html-keyboard-response","481","1175792","0.0-3.0-1.232","verceja","s","null","noncog","pseudo","N","exp","null"
"","null","html-keyboard-response","482","1176293","0.0-3.0-0.233","+","null","","","","","",""
"","3178","html-keyboard-response","483","1179472","0.0-3.0-1.233","socorro","s","n","noncog","word","S","exp","7"
"","null","html-keyboard-response","484","1179973","0.0-3.0-0.234","+","null","","","","","",""
"","4747","html-keyboard-response","485","1184720","0.0-3.0-1.234","apontar","s","v","noncog","word","S","exp","7"
"","null","html-keyboard-response","486","1185221","0.0-3.0-0.235","+","null","","","","","",""
"","14379","html-keyboard-response","487","1199600","0.0-3.0-1.235","pritas","n","null","noncog","pseudo","N","exp","null"
"","null","html-keyboard-response","488","1200102","0.0-3.0-0.236","+","null","","","","","",""
"","15066","html-keyboard-response","489","1215168","0.0-3.0-1.236","dipata","n","null","noncog","pseudo","N","exp","null"
"","null","html-keyboard-response","490","1215670","0.0-3.0-0.237","+","null","","","","","",""
"","2506","html-keyboard-response","491","1218176","0.0-3.0-1.237","franda","s","null","noncog","pseudo","N","exp","null"
"","null","html-keyboard-response","492","1218677","0.0-3.0-0.238","+","null","","","","","",""
"","3563","html-keyboard-response","493","1222240","0.0-3.0-1.238","dacada","s","null","noncog","pseudo","N","exp","null"
"","null","html-keyboard-response","494","1222741","0.0-3.0-0.239","+","null","","","","","",""
"","5883","html-keyboard-response","495","1228624","0.0-3.0-1.239","carona","n","n","noncog","word","S","exp","6"
