"view_history","rt","trial_type","trial_index","time_elapsed","internal_node_id","stimulus","response","trial_part","word","question","answer","trial","accuracy"
"[{""page_index"":0,""viewing_time"":46280},{""page_index"":1,""viewing_time"":11700}]","57980","instructions","0","57986","0.0-0.0","","","","","","","",""
"","null","html-keyboard-response","1","59090","0.0-1.0-0.0-0.0","<span style= ""font-size:30px; font-family: monospace"">+</span>","null","fixation","","","","",""
"","8851","audio-keyboard-response","2","68737","0.0-1.0-1.0","../audio/prac-question-1-1.mp3"," ","","O","","","",""
"","4651","audio-keyboard-response","3","73738","0.0-1.0-1.1","../audio/prac-question-1-2.mp3"," ","","dia","","","",""
"","3880","audio-keyboard-response","4","78008","0.0-1.0-1.2","../audio/prac-question-1-3.mp3"," ","","estará","","","",""
"","1171","audio-keyboard-response","5","79515","0.0-1.0-1.3","../audio/prac-question-1-4.mp3"," ","","cheio","","","",""
"","891","audio-keyboard-response","6","80693","0.0-1.0-1.4","../audio/prac-question-1-5.mp3"," ","","de","","","",""
"","1381","audio-keyboard-response","7","82396","0.0-1.0-1.5","../audio/prac-question-1-6.mp3"," ","","nuvens","","","",""
"","1829","audio-keyboard-response","8","84529","0.0-1.0-1.6","../audio/prac-question-1-7.mp3"," ","","hoje.","","","",""
"","null","html-keyboard-response","9","85781","0.0-1.0-0.7-0.7","<span style= ""font-size:30px; font-family: monospace"">+</span>","null","fixation","","","","",""
"","1880","audio-keyboard-response","10","88092","0.0-1.0-1.7","../audio/prac-question-2-1.mp3"," ","","A","","","",""
"","1360","audio-keyboard-response","11","89841","0.0-1.0-1.8","../audio/prac-question-2-2.mp3"," ","","caneca","","","",""
"","1331","audio-keyboard-response","12","91496","0.0-1.0-1.9","../audio/prac-question-2-3.mp3"," ","","colorida","","","",""
"","1088","audio-keyboard-response","13","92891","0.0-1.0-1.10","../audio/prac-question-2-4.mp3"," ","","caiu","","","",""
"","1211","audio-keyboard-response","14","94429","0.0-1.0-1.11","../audio/prac-question-2-5.mp3"," ","","da","","","",""
"","1069","audio-keyboard-response","15","95819","0.0-1.0-1.12","../audio/prac-question-2-6.mp3"," ","","mesa","","","",""
"","912","audio-keyboard-response","16","97039","0.0-1.0-1.13","../audio/prac-question-2-7.mp3"," ","","de","","","",""
"","1091","audio-keyboard-response","17","98475","0.0-1.0-1.14","../audio/prac-question-2-8.mp3"," ","","jantar.","","","",""
"","4784","html-keyboard-response","18","103510","0.0-1.0-2.14-0.14","<span style=""font-size:25px; font-family: monospace"">A caneca era colorida?</span>","s","","","A caneca era colorida?","null","prac-sent","false"
"[{""page_index"":0,""viewing_time"":10847}]","10847","instructions","19","114859","0.0-2.0","","","","","","","",""
"","null","html-keyboard-response","20","115961","0.0-3.0-0.0-0.0","<span style= ""font-size:30px; font-family: monospace"">+</span>","null","fixation","","","","",""
"","251","audio-keyboard-response","21","116555","0.0-3.0-1.0","../audio/12-1-masc.mp3"," ","","O","","","",""
"","4651","audio-keyboard-response","22","121501","0.0-3.0-1.1","../audio/12-2-masc.mp3"," ","","dia","","","",""
"","1080","audio-keyboard-response","23","122958","0.0-3.0-1.2","../audio/12-3-masc.mp3"," ","","estava","","","",""
"","1269","audio-keyboard-response","24","124604","0.0-3.0-1.3","../audio/12-4-masc.mp3"," ","","quente,","","","",""
"","1288","audio-keyboard-response","25","126210","0.0-3.0-1.4","../audio/12-5-masc.mp3"," ","","tranquilo","","","",""
"","709","audio-keyboard-response","26","127217","0.0-3.0-1.5","../audio/12-6-masc.mp3"," ","","e","","","",""
"","1960","audio-keyboard-response","27","129494","0.0-3.0-1.6","../audio/12-7-masc.mp3"," ","","ensolarado.","","","",""
"","null","html-keyboard-response","28","130746","0.0-3.0-0.7-0.7","<span style= ""font-size:30px; font-family: monospace"">+</span>","null","fixation","","","","",""
"","2299","audio-keyboard-response","29","133446","0.0-3.0-1.7","../audio/11-1-masc.mp3"," ","","Elas","","","",""
"","1008","audio-keyboard-response","30","134805","0.0-3.0-1.8","../audio/11-2-masc.mp3"," ","","gostam","","","",""
"","952","audio-keyboard-response","31","136077","0.0-3.0-1.9","../audio/11-3-masc.mp3"," ","","muito","","","",""
"","829","audio-keyboard-response","32","137216","0.0-3.0-1.10","../audio/11-4-masc.mp3"," ","","de","","","",""
"","2971","audio-keyboard-response","33","140517","0.0-3.0-1.11","../audio/11-5-masc.mp3"," ","","aritmética","","","",""
"","1269","audio-keyboard-response","34","142132","0.0-3.0-1.12","../audio/11-6-masc.mp3"," ","","e","","","",""
"","731","audio-keyboard-response","35","143178","0.0-3.0-1.13","../audio/11-7-masc.mp3"," ","","de","","","",""
"","2280","audio-keyboard-response","36","145823","0.0-3.0-1.14","../audio/11-8-masc.mp3"," ","","leitura.","","","",""
"","null","html-keyboard-response","37","147075","0.0-3.0-0.15-0.15","<span style= ""font-size:30px; font-family: monospace"">+</span>","null","fixation","","","","",""
"","771","audio-keyboard-response","38","148192","0.0-3.0-1.15","../audio/14-1-masc.mp3"," ","","O","","","",""
"","1091","audio-keyboard-response","39","149586","0.0-3.0-1.16","../audio/14-2-masc.mp3"," ","","cachorro","","","",""
"","971","audio-keyboard-response","40","150858","0.0-3.0-1.17","../audio/14-3-masc.mp3"," ","","é","","","",""
"","1131","audio-keyboard-response","41","152309","0.0-3.0-1.18","../audio/14-4-masc.mp3"," ","","muito","","","",""
"","1000","audio-keyboard-response","42","153600","0.0-3.0-1.19","../audio/14-5-masc.mp3"," ","","fiel","","","",""
"","779","audio-keyboard-response","43","154728","0.0-3.0-1.20","../audio/14-6-masc.mp3"," ","","a","","","",""
"","1109","audio-keyboard-response","44","156143","0.0-3.0-1.21","../audio/14-7-masc.mp3"," ","","seus","","","",""
"","1440","audio-keyboard-response","45","157880","0.0-3.0-1.22","../audio/14-8-masc.mp3"," ","","donos.","","","",""
"","null","html-keyboard-response","46","159132","0.0-3.0-0.23-0.23","<span style= ""font-size:30px; font-family: monospace"">+</span>","null","fixation","","","","",""
"","152","audio-keyboard-response","47","159634","0.0-3.0-1.23","../audio/13-1-masc.mp3"," ","","Para","","","",""
"","1869","audio-keyboard-response","48","161802","0.0-3.0-1.24","../audio/13-2-masc.mp3"," ","","mim","","","",""
"","880","audio-keyboard-response","49","163032","0.0-3.0-1.25","../audio/13-3-masc.mp3"," ","","é","","","",""
"","1069","audio-keyboard-response","50","164454","0.0-3.0-1.26","../audio/13-4-masc.mp3"," ","","muito","","","",""
"","1099","audio-keyboard-response","51","165882","0.0-3.0-1.27","../audio/13-5-masc.mp3"," ","","difícil","","","",""
"","1221","audio-keyboard-response","52","167432","0.0-3.0-1.28","../audio/13-6-masc.mp3"," ","","acordar","","","",""
"","1509","audio-keyboard-response","53","169247","0.0-3.0-1.29","../audio/13-7-masc.mp3"," ","","cedo.","","","",""
"","null","html-keyboard-response","54","170498","0.0-3.0-0.30-0.30","<span style= ""font-size:30px; font-family: monospace"">+</span>","null","fixation","","","","",""
"","1291","audio-keyboard-response","55","172227","0.0-3.0-1.30","../audio/15-1-masc.mp3"," ","","Meu","","","",""
"","800","audio-keyboard-response","56","173312","0.0-3.0-1.31","../audio/15-2-masc.mp3"," ","","primo","","","",""
"","731","audio-keyboard-response","57","174383","0.0-3.0-1.32","../audio/15-3-masc.mp3"," ","","é","","","",""
"","688","audio-keyboard-response","58","175362","0.0-3.0-1.33","../audio/15-4-masc.mp3"," ","","um","","","",""
"","1211","audio-keyboard-response","59","176874","0.0-3.0-1.34","../audio/15-5-masc.mp3"," ","","grande","","","",""
"","1280","audio-keyboard-response","60","178489","0.0-3.0-1.35","../audio/15-6-masc.mp3"," ","","vendedor","","","",""
"","779","audio-keyboard-response","61","179571","0.0-3.0-1.36","../audio/15-7-masc.mp3"," ","","de","","","",""
"","1128","audio-keyboard-response","62","181001","0.0-3.0-1.37","../audio/15-8-masc.mp3"," ","","carros.","","","",""
"","5794","html-keyboard-response","63","187046","0.0-3.0-2.37-0.37","<span style=""font-size:25px; font-family: monospace"">O primo é um vendedor de carros?</span>","s","","","O primo é um vendedor de carros?","null","exp-sent","false"
"","null","html-keyboard-response","64","188548","0.0-3.0-0.38-0.38","<span style= ""font-size:30px; font-family: monospace"">+</span>","null","fixation","","","","",""
"","1592","audio-keyboard-response","65","190511","0.0-3.0-1.38","../audio/06-1-fem.mp3"," ","","Ouvimos","","","",""
"","829","audio-keyboard-response","66","191649","0.0-3.0-1.39","../audio/06-2-fem.mp3"," ","","a","","","",""
"","920","audio-keyboard-response","67","192876","0.0-3.0-1.40","../audio/06-3-fem.mp3"," ","","fala","","","",""
"","880","audio-keyboard-response","68","194065","0.0-3.0-1.41","../audio/06-4-fem.mp3"," ","","do","","","",""
"","1069","audio-keyboard-response","69","195465","0.0-3.0-1.42","../audio/06-5-fem.mp3"," ","","profeta","","","",""
"","1021","audio-keyboard-response","70","196782","0.0-3.0-1.43","../audio/06-6-fem.mp3"," ","","no","","","",""
"","1192","audio-keyboard-response","71","198276","0.0-3.0-1.44","../audio/06-7-fem.mp3"," ","","púlpito","","","",""
"","901","audio-keyboard-response","72","199469","0.0-3.0-1.45","../audio/06-8-fem.mp3"," ","","da","","","",""
"","1808","audio-keyboard-response","73","201606","0.0-3.0-1.46","../audio/06-9-fem.mp3"," ","","igreja.","","","",""
"","null","html-keyboard-response","74","202858","0.0-3.0-0.47-0.47","<span style= ""font-size:30px; font-family: monospace"">+</span>","null","fixation","","","","",""
"","949","audio-keyboard-response","75","204176","0.0-3.0-1.47","../audio/09-1-masc.mp3"," ","","O","","","",""
"","1531","audio-keyboard-response","76","206038","0.0-3.0-1.48","../audio/09-2-masc.mp3"," ","","rapaz","","","",""
"","1251","audio-keyboard-response","77","207595","0.0-3.0-1.49","../audio/09-3-masc.mp3"," ","","limpou","","","",""
"","760","audio-keyboard-response","78","208666","0.0-3.0-1.50","../audio/09-4-masc.mp3"," ","","o","","","",""
"","1099","audio-keyboard-response","79","210081","0.0-3.0-1.51","../audio/09-5-masc.mp3"," ","","terreno","","","",""
"","880","audio-keyboard-response","80","211275","0.0-3.0-1.52","../audio/09-6-masc.mp3"," ","","com","","","",""
"","979","audio-keyboard-response","81","212567","0.0-3.0-1.53","../audio/09-7-masc.mp3"," ","","uma","","","",""
"","1579","audio-keyboard-response","82","214454","0.0-3.0-1.54","../audio/09-8-masc.mp3"," ","","pá.","","","",""
"","null","html-keyboard-response","83","215705","0.0-3.0-0.55-0.55","<span style= ""font-size:30px; font-family: monospace"">+</span>","null","fixation","","","","",""
"","1181","audio-keyboard-response","84","217228","0.0-3.0-1.55","../audio/08-1-fem.mp3"," ","","A","","","",""
"","1131","audio-keyboard-response","85","218690","0.0-3.0-1.56","../audio/08-2-fem.mp3"," ","","receita","","","",""
"","979","audio-keyboard-response","86","219966","0.0-3.0-1.57","../audio/08-3-fem.mp3"," ","","pede","","","",""
"","989","audio-keyboard-response","87","221248","0.0-3.0-1.58","../audio/08-4-fem.mp3"," ","","um","","","",""
"","1229","audio-keyboard-response","88","222781","0.0-3.0-1.59","../audio/08-5-fem.mp3"," ","","litro","","","",""
"","1259","audio-keyboard-response","89","224335","0.0-3.0-1.60","../audio/08-6-fem.mp3"," ","","de","","","",""
"","1469","audio-keyboard-response","90","226175","0.0-3.0-1.61","../audio/08-7-fem.mp3"," ","","leite","","","",""
"","1579","audio-keyboard-response","91","228083","0.0-3.0-1.62","../audio/08-8-fem.mp3"," ","","integral.","","","",""
"","null","html-keyboard-response","92","229335","0.0-3.0-0.63-0.63","<span style= ""font-size:30px; font-family: monospace"">+</span>","null","fixation","","","","",""
"","1091","audio-keyboard-response","93","230781","0.0-3.0-1.63","../audio/07-1-masc.mp3"," ","","Meu","","","",""
"","949","audio-keyboard-response","94","232021","0.0-3.0-1.64","../audio/07-2-masc.mp3"," ","","filho","","","",""
"","672","audio-keyboard-response","95","232997","0.0-3.0-1.65","../audio/07-3-masc.mp3"," ","","é","","","",""
"","979","audio-keyboard-response","96","234336","0.0-3.0-1.66","../audio/07-4-masc.mp3"," ","","muito","","","",""
"","1739","audio-keyboard-response","97","236416","0.0-3.0-1.67","../audio/07-5-masc.mp3"," ","","responsável","","","",""
"","872","audio-keyboard-response","98","237635","0.0-3.0-1.68","../audio/07-6-masc.mp3"," ","","nos","","","",""
"","1291","audio-keyboard-response","99","239256","0.0-3.0-1.69","../audio/07-7-masc.mp3"," ","","estudos.","","","",""
"","null","html-keyboard-response","100","240508","0.0-3.0-0.70-0.70","<span style= ""font-size:30px; font-family: monospace"">+</span>","null","fixation","","","","",""
"","1000","audio-keyboard-response","101","241841","0.0-3.0-1.70","../audio/10-1-fem.mp3"," ","","O","","","",""
"","1280","audio-keyboard-response","102","243445","0.0-3.0-1.71","../audio/10-2-fem.mp3"," ","","pássaro","","","",""
"","1160","audio-keyboard-response","103","244947","0.0-3.0-1.72","../audio/10-3-fem.mp3"," ","","azul","","","",""
"","971","audio-keyboard-response","104","246260","0.0-3.0-1.73","../audio/10-4-fem.mp3"," ","","estava","","","",""
"","1101","audio-keyboard-response","105","247660","0.0-3.0-1.74","../audio/10-5-fem.mp3"," ","","vivo","","","",""
"","912","audio-keyboard-response","106","248870","0.0-3.0-1.75","../audio/10-6-fem.mp3"," ","","e","","","",""
"","851","audio-keyboard-response","107","250009","0.0-3.0-1.76","../audio/10-7-fem.mp3"," ","","em","","","",""
"","1360","audio-keyboard-response","108","251697","0.0-3.0-1.77","../audio/10-8-fem.mp3"," ","","segurança.","","","",""
"","19586","html-keyboard-response","109","271534","0.0-3.0-2.77-0.77","<span style=""font-size:25px; font-family: monospace"">O pássaro vermelho estava em segurança?</span>","s","","","O pássaro vermelho estava em segurança?","null","exp-sent","false"
"","null","html-keyboard-response","110","273036","0.0-3.0-0.78-0.78","<span style= ""font-size:30px; font-family: monospace"">+</span>","null","fixation","","","","",""
"","128","audio-keyboard-response","111","273521","0.0-3.0-1.78","../audio/32-1-fem.mp3"," ","","A","","","",""
"","941","audio-keyboard-response","112","274777","0.0-3.0-1.79","../audio/32-2-fem.mp3"," ","","tia","","","",""
"","808","audio-keyboard-response","113","275880","0.0-3.0-1.80","../audio/32-3-fem.mp3"," ","","comprou","","","",""
"","539","audio-keyboard-response","114","276715","0.0-3.0-1.81","../audio/32-4-fem.mp3"," ","","um","","","",""
"","488","audio-keyboard-response","115","277515","0.0-3.0-1.82","../audio/32-5-fem.mp3"," ","","pilão","","","",""
"","501","audio-keyboard-response","116","278305","0.0-3.0-1.83","../audio/32-6-fem.mp3"," ","","para","","","",""
"","621","audio-keyboard-response","117","279217","0.0-3.0-1.84","../audio/32-7-fem.mp3"," ","","a","","","",""
"","960","audio-keyboard-response","118","280505","0.0-3.0-1.85","../audio/32-8-fem.mp3"," ","","cozinha.","","","",""
"","null","html-keyboard-response","119","281756","0.0-3.0-0.86-0.86","<span style= ""font-size:30px; font-family: monospace"">+</span>","null","fixation","","","","",""
"","760","audio-keyboard-response","120","282889","0.0-3.0-1.86","../audio/34-1-fem.mp3"," ","","Cobrança","","","",""
"","1411","audio-keyboard-response","121","284627","0.0-3.0-1.87","../audio/34-2-fem.mp3"," ","","excessiva","","","",""
"","691","audio-keyboard-response","122","285610","0.0-3.0-1.88","../audio/34-3-fem.mp3"," ","","é","","","",""
"","859","audio-keyboard-response","123","286767","0.0-3.0-1.89","../audio/34-4-fem.mp3"," ","","um","","","",""
"","1069","audio-keyboard-response","124","288162","0.0-3.0-1.90","../audio/34-5-fem.mp3"," ","","fardo","","","",""
"","771","audio-keyboard-response","125","289229","0.0-3.0-1.91","../audio/34-6-fem.mp3"," ","","para","","","",""
"","821","audio-keyboard-response","126","290337","0.0-3.0-1.92","../audio/34-7-fem.mp3"," ","","a","","","",""
"","1251","audio-keyboard-response","127","291912","0.0-3.0-1.93","../audio/34-8-fem.mp3"," ","","cabeça.","","","",""
"","null","html-keyboard-response","128","293164","0.0-3.0-0.94-0.94","<span style= ""font-size:30px; font-family: monospace"">+</span>","null","fixation","","","","",""
"","1229","audio-keyboard-response","129","294762","0.0-3.0-1.94","../audio/33-1-masc.mp3"," ","","Eles","","","",""
"","960","audio-keyboard-response","130","296023","0.0-3.0-1.95","../audio/33-2-masc.mp3"," ","","sabem","","","",""
"","771","audio-keyboard-response","131","297090","0.0-3.0-1.96","../audio/33-3-masc.mp3"," ","","do","","","",""
"","888","audio-keyboard-response","132","298279","0.0-3.0-1.97","../audio/33-4-masc.mp3"," ","","seu","","","",""
"","1288","audio-keyboard-response","133","299884","0.0-3.0-1.98","../audio/33-5-masc.mp3"," ","","privilégio","","","",""
"","760","audio-keyboard-response","134","300945","0.0-3.0-1.99","../audio/33-6-masc.mp3"," ","","nessa","","","",""
"","1000","audio-keyboard-response","135","302268","0.0-3.0-1.100","../audio/33-7-masc.mp3"," ","","confusão.","","","",""
"","null","html-keyboard-response","136","303520","0.0-3.0-0.101-0.101","<span style= ""font-size:30px; font-family: monospace"">+</span>","null","fixation","","","","",""
"","739","audio-keyboard-response","137","304599","0.0-3.0-1.101","../audio/31-1-masc.mp3"," ","","O","","","",""
"","1061","audio-keyboard-response","138","305984","0.0-3.0-1.102","../audio/31-2-masc.mp3"," ","","padeiro","","","",""
"","861","audio-keyboard-response","139","307137","0.0-3.0-1.103","../audio/31-3-masc.mp3"," ","","usou","","","",""
"","771","audio-keyboard-response","140","308224","0.0-3.0-1.104","../audio/31-4-masc.mp3"," ","","a","","","",""
"","819","audio-keyboard-response","141","309367","0.0-3.0-1.105","../audio/31-5-masc.mp3"," ","","balança","","","",""
"","760","audio-keyboard-response","142","310429","0.0-3.0-1.106","../audio/31-6-masc.mp3"," ","","o","","","",""
"","760","audio-keyboard-response","143","311495","0.0-3.0-1.107","../audio/31-7-masc.mp3"," ","","dia","","","",""
"","1091","audio-keyboard-response","144","312885","0.0-3.0-1.108","../audio/31-8-masc.mp3"," ","","inteiro.","","","",""
"","null","html-keyboard-response","145","314137","0.0-3.0-0.109-0.109","<span style= ""font-size:30px; font-family: monospace"">+</span>","null","fixation","","","","",""
"","768","audio-keyboard-response","146","315279","0.0-3.0-1.109","../audio/35-1-masc.mp3"," ","","A","","","",""
"","1000","audio-keyboard-response","147","316612","0.0-3.0-1.110","../audio/35-2-masc.mp3"," ","","receita","","","",""
"","739","audio-keyboard-response","148","317654","0.0-3.0-1.111","../audio/35-3-masc.mp3"," ","","para","","","",""
"","720","audio-keyboard-response","149","318679","0.0-3.0-1.112","../audio/35-4-masc.mp3"," ","","a","","","",""
"","971","audio-keyboard-response","150","319976","0.0-3.0-1.113","../audio/35-5-masc.mp3"," ","","preparação","","","",""
"","792","audio-keyboard-response","151","321073","0.0-3.0-1.114","../audio/35-6-masc.mp3"," ","","do","","","",""
"","920","audio-keyboard-response","152","322295","0.0-3.0-1.115","../audio/35-7-masc.mp3"," ","","bolo","","","",""
"","680","audio-keyboard-response","153","323274","0.0-3.0-1.116","../audio/35-8-masc.mp3"," ","","é","","","",""
"","1040","audio-keyboard-response","154","324673","0.0-3.0-1.117","../audio/35-9-masc.mp3"," ","","leve.","","","",""
"","5414","html-keyboard-response","155","330339","0.0-3.0-2.117-0.117","<span style=""font-size:25px; font-family: monospace"">A receita do bolo é pesada?</span>","n","","","A receita do bolo é pesada?","null","exp-sent","false"
"","null","html-keyboard-response","156","331841","0.0-3.0-0.118-0.118","<span style= ""font-size:30px; font-family: monospace"">+</span>","null","fixation","","","","",""
"","1771","audio-keyboard-response","157","333984","0.0-3.0-1.118","../audio/23-1-fem.mp3"," ","","Português","","","",""
"","781","audio-keyboard-response","158","335111","0.0-3.0-1.119","../audio/23-2-fem.mp3"," ","","é","","","",""
"","699","audio-keyboard-response","159","336132","0.0-3.0-1.120","../audio/23-3-fem.mp3"," ","","um","","","",""
"","960","audio-keyboard-response","160","337414","0.0-3.0-1.121","../audio/23-4-fem.mp3"," ","","assunto","","","",""
"","1080","audio-keyboard-response","161","338813","0.0-3.0-1.122","../audio/23-5-fem.mp3"," ","","elementar","","","",""
"","920","audio-keyboard-response","162","340023","0.0-3.0-1.123","../audio/23-6-fem.mp3"," ","","para","","","",""
"","829","audio-keyboard-response","163","341161","0.0-3.0-1.124","../audio/23-7-fem.mp3"," ","","os","","","",""
"","1491","audio-keyboard-response","164","342975","0.0-3.0-1.125","../audio/23-8-fem.mp3"," ","","alunos.","","","",""
"","null","html-keyboard-response","165","344226","0.0-3.0-0.126-0.126","<span style= ""font-size:30px; font-family: monospace"">+</span>","null","fixation","","","","",""
"","1080","audio-keyboard-response","166","345695","0.0-3.0-1.126","../audio/21-1-fem.mp3"," ","","Precisamos","","","",""
"","819","audio-keyboard-response","167","346842","0.0-3.0-1.127","../audio/21-2-fem.mp3"," ","","de","","","",""
"","1429","audio-keyboard-response","168","348610","0.0-3.0-1.128","../audio/21-3-fem.mp3"," ","","paciência","","","",""
"","659","audio-keyboard-response","169","349564","0.0-3.0-1.129","../audio/21-4-fem.mp3"," ","","e","","","",""
"","1160","audio-keyboard-response","170","351056","0.0-3.0-1.130","../audio/21-5-fem.mp3"," ","","bondade","","","",""
"","901","audio-keyboard-response","171","352255","0.0-3.0-1.131","../audio/21-6-fem.mp3"," ","","para","","","",""
"","989","audio-keyboard-response","172","353542","0.0-3.0-1.132","../audio/21-7-fem.mp3"," ","","um","","","",""
"","1011","audio-keyboard-response","173","354905","0.0-3.0-1.133","../audio/21-8-fem.mp3"," ","","mundo","","","",""
"","1101","audio-keyboard-response","174","356341","0.0-3.0-1.134","../audio/21-9-fem.mp3"," ","","melhor.","","","",""
"","null","html-keyboard-response","175","357593","0.0-3.0-0.135-0.135","<span style= ""font-size:30px; font-family: monospace"">+</span>","null","fixation","","","","",""
"","851","audio-keyboard-response","176","358786","0.0-3.0-1.135","../audio/22-1-masc.mp3"," ","","Eu","","","",""
"","1171","audio-keyboard-response","177","360289","0.0-3.0-1.136","../audio/22-2-masc.mp3"," ","","detesto","","","",""
"","920","audio-keyboard-response","178","361541","0.0-3.0-1.137","../audio/22-3-masc.mp3"," ","","fumaça","","","",""
"","800","audio-keyboard-response","179","362642","0.0-3.0-1.138","../audio/22-4-masc.mp3"," ","","de","","","",""
"","1149","audio-keyboard-response","180","364114","0.0-3.0-1.139","../audio/22-5-masc.mp3"," ","","cachimbo","","","",""
"","768","audio-keyboard-response","181","365237","0.0-3.0-1.140","../audio/22-6-masc.mp3"," ","","e","","","",""
"","880","audio-keyboard-response","182","366420","0.0-3.0-1.141","../audio/22-7-masc.mp3"," ","","de","","","",""
"","1240","audio-keyboard-response","183","367968","0.0-3.0-1.142","../audio/22-8-masc.mp3"," ","","cigarro.","","","",""
"","null","html-keyboard-response","184","369220","0.0-3.0-0.143-0.143","<span style= ""font-size:30px; font-family: monospace"">+</span>","null","fixation","","","","",""
"","1048","audio-keyboard-response","185","370639","0.0-3.0-1.143","../audio/24-1-masc.mp3"," ","","As","","","",""
"","741","audio-keyboard-response","186","371699","0.0-3.0-1.144","../audio/24-2-masc.mp3"," ","","crianças","","","",""
"","829","audio-keyboard-response","187","372817","0.0-3.0-1.145","../audio/24-3-masc.mp3"," ","","vão","","","",""
"","771","audio-keyboard-response","188","373888","0.0-3.0-1.146","../audio/24-4-masc.mp3"," ","","ao","","","",""
"","989","audio-keyboard-response","189","375272","0.0-3.0-1.147","../audio/24-5-masc.mp3"," ","","cinema","","","",""
"","981","audio-keyboard-response","190","376543","0.0-3.0-1.148","../audio/24-6-masc.mp3"," ","","mais","","","",""
"","1040","audio-keyboard-response","191","377886","0.0-3.0-1.149","../audio/24-7-masc.mp3"," ","","tarde.","","","",""
"","null","html-keyboard-response","192","379139","0.0-3.0-0.150-0.150","<span style= ""font-size:30px; font-family: monospace"">+</span>","null","fixation","","","","",""
"","920","audio-keyboard-response","193","380404","0.0-3.0-1.150","../audio/25-1-fem.mp3"," ","","Ela","","","",""
"","1069","audio-keyboard-response","194","381798","0.0-3.0-1.151","../audio/25-2-fem.mp3"," ","","faz","","","",""
"","899","audio-keyboard-response","195","383009","0.0-3.0-1.152","../audio/25-3-fem.mp3"," ","","tanto","","","",""
"","1160","audio-keyboard-response","196","384547","0.0-3.0-1.153","../audio/25-4-fem.mp3"," ","","cabelo","","","",""
"","1088","audio-keyboard-response","197","385958","0.0-3.0-1.154","../audio/25-5-fem.mp3"," ","","liso","","","",""
"","979","audio-keyboard-response","198","387233","0.0-3.0-1.155","../audio/25-6-fem.mp3"," ","","quanto","","","",""
"","1112","audio-keyboard-response","199","388669","0.0-3.0-1.156","../audio/25-7-fem.mp3"," ","","cacheado.","","","",""
"","7870","html-keyboard-response","200","396791","0.0-3.0-2.156-0.156","<span style=""font-size:25px; font-family: monospace"">Ela só faz cabelo cacheado?</span>","n","","","Ela só faz cabelo cacheado?","null","exp-sent","false"
"","null","html-keyboard-response","201","398293","0.0-3.0-0.157-0.157","<span style= ""font-size:30px; font-family: monospace"">+</span>","null","fixation","","","","",""
"","1189","audio-keyboard-response","202","399887","0.0-3.0-1.157","../audio/54-1-fem.mp3"," ","","Estou","","","",""
"","7299","audio-keyboard-response","203","407485","0.0-3.0-1.158","../audio/54-2-fem.mp3"," ","","com","","","",""
"","1869","audio-keyboard-response","204","409756","0.0-3.0-1.159","../audio/54-3-fem.mp3"," ","","medo","","","",""
"","752","audio-keyboard-response","205","410864","0.0-3.0-1.160","../audio/54-4-fem.mp3"," ","","da","","","",""
"","1051","audio-keyboard-response","206","412248","0.0-3.0-1.161","../audio/54-5-fem.mp3"," ","","atual","","","",""
"","1419","audio-keyboard-response","207","414007","0.0-3.0-1.162","../audio/54-6-fem.mp3"," ","","organização","","","",""
"","632","audio-keyboard-response","208","414981","0.0-3.0-1.163","../audio/54-7-fem.mp3"," ","","do","","","",""
"","909","audio-keyboard-response","209","416196","0.0-3.0-1.164","../audio/54-8-fem.mp3"," ","","país.","","","",""
"","null","html-keyboard-response","210","417448","0.0-3.0-0.165-0.165","<span style= ""font-size:30px; font-family: monospace"">+</span>","null","fixation","","","","",""
"","781","audio-keyboard-response","211","418575","0.0-3.0-1.165","../audio/52-1-fem.mp3"," ","","Às","","","",""
"","941","audio-keyboard-response","212","419825","0.0-3.0-1.166","../audio/52-2-fem.mp3"," ","","vezes","","","",""
"","611","audio-keyboard-response","213","420732","0.0-3.0-1.167","../audio/52-3-fem.mp3"," ","","eu","","","",""
"","632","audio-keyboard-response","214","421665","0.0-3.0-1.168","../audio/52-4-fem.mp3"," ","","tenho","","","",""
"","488","audio-keyboard-response","215","422471","0.0-3.0-1.169","../audio/52-5-fem.mp3"," ","","azia","","","",""
"","1120","audio-keyboard-response","216","423882","0.0-3.0-1.170","../audio/52-6-fem.mp3"," ","","depois","","","",""
"","701","audio-keyboard-response","217","424937","0.0-3.0-1.171","../audio/52-7-fem.mp3"," ","","da","","","",""
"","728","audio-keyboard-response","218","425998","0.0-3.0-1.172","../audio/52-8-fem.mp3"," ","","janta.","","","",""
"","null","html-keyboard-response","219","427250","0.0-3.0-0.173-0.173","<span style= ""font-size:30px; font-family: monospace"">+</span>","null","fixation","","","","",""
"","792","audio-keyboard-response","220","428382","0.0-3.0-1.173","../audio/53-1-fem.mp3"," ","","O","","","",""
"","861","audio-keyboard-response","221","429542","0.0-3.0-1.174","../audio/53-2-fem.mp3"," ","","médico","","","",""
"","869","audio-keyboard-response","222","430714","0.0-3.0-1.175","../audio/53-3-fem.mp3"," ","","foi","","","",""
"","989","audio-keyboard-response","223","432030","0.0-3.0-1.176","../audio/53-4-fem.mp3"," ","","bastante","","","",""
"","1051","audio-keyboard-response","224","433404","0.0-3.0-1.177","../audio/53-5-fem.mp3"," ","","preciso","","","",""
"","1131","audio-keyboard-response","225","434880","0.0-3.0-1.178","../audio/53-6-fem.mp3"," ","","durante","","","",""
"","720","audio-keyboard-response","226","435890","0.0-3.0-1.179","../audio/53-7-fem.mp3"," ","","a","","","",""
"","1349","audio-keyboard-response","227","437577","0.0-3.0-1.180","../audio/53-8-fem.mp3"," ","","cirurgia.","","","",""
"","null","html-keyboard-response","228","438829","0.0-3.0-0.181-0.181","<span style= ""font-size:30px; font-family: monospace"">+</span>","null","fixation","","","","",""
"","949","audio-keyboard-response","229","440136","0.0-3.0-1.181","../audio/51-1-masc.mp3"," ","","Suco","","","",""
"","872","audio-keyboard-response","230","441304","0.0-3.0-1.182","../audio/51-2-masc.mp3"," ","","de","","","",""
"","1181","audio-keyboard-response","231","442817","0.0-3.0-1.183","../audio/51-3-masc.mp3"," ","","acerola","","","",""
"","720","audio-keyboard-response","232","443832","0.0-3.0-1.184","../audio/51-4-masc.mp3"," ","","é","","","",""
"","1189","audio-keyboard-response","233","445375","0.0-3.0-1.185","../audio/51-5-masc.mp3"," ","","azedo","","","",""
"","691","audio-keyboard-response","234","446360","0.0-3.0-1.186","../audio/51-6-masc.mp3"," ","","e","","","",""
"","1109","audio-keyboard-response","235","447775","0.0-3.0-1.187","../audio/51-7-masc.mp3"," ","","até","","","",""
"","1272","audio-keyboard-response","236","449344","0.0-3.0-1.188","../audio/51-8-masc.mp3"," ","","barato.","","","",""
"","null","html-keyboard-response","237","450596","0.0-3.0-0.189-0.189","<span style= ""font-size:30px; font-family: monospace"">+</span>","null","fixation","","","","",""
"","728","audio-keyboard-response","238","451677","0.0-3.0-1.189","../audio/55-1-fem.mp3"," ","","O","","","",""
"","1189","audio-keyboard-response","239","453204","0.0-3.0-1.190","../audio/55-2-fem.mp3"," ","","insulto","","","",""
"","1301","audio-keyboard-response","240","454860","0.0-3.0-1.191","../audio/55-3-fem.mp3"," ","","recente","","","",""
"","1000","audio-keyboard-response","241","456163","0.0-3.0-1.192","../audio/55-4-fem.mp3"," ","","causou","","","",""
"","1331","audio-keyboard-response","242","457824","0.0-3.0-1.193","../audio/55-5-fem.mp3"," ","","indignação","","","",""
"","861","audio-keyboard-response","243","458983","0.0-3.0-1.194","../audio/55-6-fem.mp3"," ","","em","","","",""
"","891","audio-keyboard-response","244","460172","0.0-3.0-1.195","../audio/55-7-fem.mp3"," ","","todos.","","","",""
"","7033","html-keyboard-response","245","467460","0.0-3.0-2.195-0.195","<span style=""font-size:25px; font-family: monospace"">O insulto causou calmaria?</span>","n","","","O insulto causou calmaria?","null","exp-sent","false"
"","null","html-keyboard-response","246","468963","0.0-3.0-0.196-0.196","<span style= ""font-size:30px; font-family: monospace"">+</span>","null","fixation","","","","",""
"","1080","audio-keyboard-response","247","470381","0.0-3.0-1.196","../audio/57-1-masc.mp3"," ","","O","","","",""
"","1059","audio-keyboard-response","248","471765","0.0-3.0-1.197","../audio/57-2-masc.mp3"," ","","capitão","","","",""
"","619","audio-keyboard-response","249","472687","0.0-3.0-1.198","../audio/57-3-masc.mp3"," ","","deu","","","",""
"","819","audio-keyboard-response","250","473798","0.0-3.0-1.199","../audio/57-4-masc.mp3"," ","","uma","","","",""
"","1091","audio-keyboard-response","251","475249","0.0-3.0-1.200","../audio/57-5-masc.mp3"," ","","instrução","","","",""
"","659","audio-keyboard-response","252","476203","0.0-3.0-1.201","../audio/57-6-masc.mp3"," ","","para","","","",""
"","699","audio-keyboard-response","253","477208","0.0-3.0-1.202","../audio/57-7-masc.mp3"," ","","as","","","",""
"","891","audio-keyboard-response","254","478424","0.0-3.0-1.203","../audio/57-8-masc.mp3"," ","","pessoas.","","","",""
"","null","html-keyboard-response","255","479676","0.0-3.0-0.204-0.204","<span style= ""font-size:30px; font-family: monospace"">+</span>","null","fixation","","","","",""
"","851","audio-keyboard-response","256","480894","0.0-3.0-1.204","../audio/59-1-fem.mp3"," ","","O","","","",""
"","1179","audio-keyboard-response","257","482401","0.0-3.0-1.205","../audio/59-2-fem.mp3"," ","","carteiro","","","",""
"","848","audio-keyboard-response","258","483550","0.0-3.0-1.206","../audio/59-3-fem.mp3"," ","","fez","","","",""
"","851","audio-keyboard-response","259","484787","0.0-3.0-1.207","../audio/59-4-fem.mp3"," ","","uma","","","",""
"","832","audio-keyboard-response","260","485945","0.0-3.0-1.208","../audio/59-5-fem.mp3"," ","","tentativa","","","",""
"","779","audio-keyboard-response","261","487031","0.0-3.0-1.209","../audio/59-6-fem.mp3"," ","","de","","","",""
"","1040","audio-keyboard-response","262","488380","0.0-3.0-1.210","../audio/59-7-fem.mp3"," ","","entrega.","","","",""
"","null","html-keyboard-response","263","489632","0.0-3.0-0.211-0.211","<span style= ""font-size:30px; font-family: monospace"">+</span>","null","fixation","","","","",""
"","989","audio-keyboard-response","264","490968","0.0-3.0-1.211","../audio/58-1-masc.mp3"," ","","Havia","","","",""
"","880","audio-keyboard-response","265","492173","0.0-3.0-1.212","../audio/58-2-masc.mp3"," ","","apenas","","","",""
"","771","audio-keyboard-response","266","493239","0.0-3.0-1.213","../audio/58-3-masc.mp3"," ","","um","","","",""
"","1160","audio-keyboard-response","267","494752","0.0-3.0-1.214","../audio/58-4-masc.mp3"," ","","último","","","",""
"","1208","audio-keyboard-response","268","496275","0.0-3.0-1.215","../audio/58-5-masc.mp3"," ","","herdeiro","","","",""
"","800","audio-keyboard-response","269","497369","0.0-3.0-1.216","../audio/58-6-masc.mp3"," ","","do","","","",""
"","1240","audio-keyboard-response","270","498915","0.0-3.0-1.217","../audio/58-7-masc.mp3"," ","","dinheiro.","","","",""
"","null","html-keyboard-response","271","500167","0.0-3.0-0.218-0.218","<span style= ""font-size:30px; font-family: monospace"">+</span>","null","fixation","","","","",""
"","771","audio-keyboard-response","272","501284","0.0-3.0-1.218","../audio/56-1-fem.mp3"," ","","A","","","",""
"","939","audio-keyboard-response","273","502525","0.0-3.0-1.219","../audio/56-2-fem.mp3"," ","","moça","","","",""
"","832","audio-keyboard-response","274","503662","0.0-3.0-1.220","../audio/56-3-fem.mp3"," ","","foi","","","",""
"","789","audio-keyboard-response","275","504816","0.0-3.0-1.221","../audio/56-4-fem.mp3"," ","","à","","","",""
"","1309","audio-keyboard-response","276","506467","0.0-3.0-1.222","../audio/56-5-fem.mp3"," ","","agência","","","",""
"","1440","audio-keyboard-response","277","508241","0.0-3.0-1.223","../audio/56-6-fem.mp3"," ","","bancária","","","",""
"","1280","audio-keyboard-response","278","509825","0.0-3.0-1.224","../audio/56-7-fem.mp3"," ","","ontem","","","",""
"","1000","audio-keyboard-response","279","511123","0.0-3.0-1.225","../audio/56-8-fem.mp3"," ","","de","","","",""
"","1131","audio-keyboard-response","280","512558","0.0-3.0-1.226","../audio/56-9-fem.mp3"," ","","tarde.","","","",""
"","null","html-keyboard-response","281","513811","0.0-3.0-0.227-0.227","<span style= ""font-size:30px; font-family: monospace"">+</span>","null","fixation","","","","",""
"","1109","audio-keyboard-response","282","515276","0.0-3.0-1.227","../audio/60-1-masc.mp3"," ","","Ondas","","","",""
"","829","audio-keyboard-response","283","516404","0.0-3.0-1.228","../audio/60-2-masc.mp3"," ","","têm","","","",""
"","888","audio-keyboard-response","284","517594","0.0-3.0-1.229","../audio/60-3-masc.mp3"," ","","um","","","",""
"","1451","audio-keyboard-response","285","519373","0.0-3.0-1.230","../audio/60-4-masc.mp3"," ","","impacto","","","",""
"","1560","audio-keyboard-response","286","521256","0.0-3.0-1.231","../audio/60-5-masc.mp3"," ","","destrutivo","","","",""
"","840","audio-keyboard-response","287","522414","0.0-3.0-1.232","../audio/60-6-masc.mp3"," ","","no","","","",""
"","1619","audio-keyboard-response","288","524358","0.0-3.0-1.233","../audio/60-7-masc.mp3"," ","","litoral.","","","",""
"","5401","html-keyboard-response","289","530012","0.0-3.0-2.233-0.233","<span style=""font-size:25px; font-family: monospace"">Ondas têm um impacto destrutivo?</span>","s","","","Ondas têm um impacto destrutivo?","null","exp-sent","false"
"","null","html-keyboard-response","290","531513","0.0-3.0-0.234-0.234","<span style= ""font-size:30px; font-family: monospace"">+</span>","null","fixation","","","","",""
"","139","audio-keyboard-response","291","532000","0.0-3.0-1.234","../audio/39-1-masc.mp3"," ","","O","","","",""
"","1101","audio-keyboard-response","292","533419","0.0-3.0-1.235","../audio/39-2-masc.mp3"," ","","conselho","","","",""
"","771","audio-keyboard-response","293","534531","0.0-3.0-1.236","../audio/39-3-masc.mp3"," ","","foi","","","",""
"","989","audio-keyboard-response","294","535837","0.0-3.0-1.237","../audio/39-4-masc.mp3"," ","","muito","","","",""
"","1019","audio-keyboard-response","295","537165","0.0-3.0-1.238","../audio/39-5-masc.mp3"," ","","útil","","","",""
"","819","audio-keyboard-response","296","538272","0.0-3.0-1.239","../audio/39-6-masc.mp3"," ","","para","","","",""
"","869","audio-keyboard-response","297","539446","0.0-3.0-1.240","../audio/39-7-masc.mp3"," ","","minha","","","",""
"","1019","audio-keyboard-response","298","540763","0.0-3.0-1.241","../audio/39-8-masc.mp3"," ","","tia.","","","",""
"","null","html-keyboard-response","299","542015","0.0-3.0-0.242-0.242","<span style= ""font-size:30px; font-family: monospace"">+</span>","null","fixation","","","","",""
"","891","audio-keyboard-response","300","543251","0.0-3.0-1.242","../audio/37-1-fem.mp3"," ","","Eu","","","",""
"","1160","audio-keyboard-response","301","544787","0.0-3.0-1.243","../audio/37-2-fem.mp3"," ","","adoro","","","",""
"","1331","audio-keyboard-response","302","546448","0.0-3.0-1.244","../audio/37-3-fem.mp3"," ","","suco","","","",""
"","741","audio-keyboard-response","303","547494","0.0-3.0-1.245","../audio/37-4-fem.mp3"," ","","de","","","",""
"","1251","audio-keyboard-response","304","549053","0.0-3.0-1.246","../audio/37-5-fem.mp3"," ","","manga","","","",""
"","811","audio-keyboard-response","305","550160","0.0-3.0-1.247","../audio/37-6-fem.mp3"," ","","com","","","",""
"","1360","audio-keyboard-response","306","551841","0.0-3.0-1.248","../audio/37-7-fem.mp3"," ","","hortelã.","","","",""
"","null","html-keyboard-response","307","553093","0.0-3.0-0.249-0.249","<span style= ""font-size:30px; font-family: monospace"">+</span>","null","fixation","","","","",""
"","720","audio-keyboard-response","308","554175","0.0-3.0-1.249","../audio/38-1-fem.mp3"," ","","A","","","",""
"","1240","audio-keyboard-response","309","555748","0.0-3.0-1.250","../audio/38-2-fem.mp3"," ","","empresa","","","",""
"","949","audio-keyboard-response","310","557004","0.0-3.0-1.251","../audio/38-3-fem.mp3"," ","","criou","","","",""
"","760","audio-keyboard-response","311","558066","0.0-3.0-1.252","../audio/38-4-fem.mp3"," ","","a","","","",""
"","1240","audio-keyboard-response","312","559630","0.0-3.0-1.253","../audio/38-5-fem.mp3"," ","","patente","","","",""
"","749","audio-keyboard-response","313","560691","0.0-3.0-1.254","../audio/38-6-fem.mp3"," ","","da","","","",""
"","1080","audio-keyboard-response","314","562096","0.0-3.0-1.255","../audio/38-7-fem.mp3"," ","","frigideira.","","","",""
"","null","html-keyboard-response","315","563348","0.0-3.0-0.256-0.256","<span style= ""font-size:30px; font-family: monospace"">+</span>","null","fixation","","","","",""
"","800","audio-keyboard-response","316","564501","0.0-3.0-1.256","../audio/36-1-fem.mp3"," ","","Meu","","","",""
"","861","audio-keyboard-response","317","565664","0.0-3.0-1.257","../audio/36-2-fem.mp3"," ","","tio","","","",""
"","621","audio-keyboard-response","318","566607","0.0-3.0-1.258","../audio/36-3-fem.mp3"," ","","comprou","","","",""
"","939","audio-keyboard-response","319","567843","0.0-3.0-1.259","../audio/36-4-fem.mp3"," ","","um","","","",""
"","1331","audio-keyboard-response","320","569484","0.0-3.0-1.260","../audio/36-5-fem.mp3"," ","","filtro","","","",""
"","840","audio-keyboard-response","321","570632","0.0-3.0-1.261","../audio/36-6-fem.mp3"," ","","de","","","",""
"","709","audio-keyboard-response","322","571652","0.0-3.0-1.262","../audio/36-7-fem.mp3"," ","","água","","","",""
"","1181","audio-keyboard-response","323","573139","0.0-3.0-1.263","../audio/36-8-fem.mp3"," ","","hoje","","","",""
"","1141","audio-keyboard-response","324","574653","0.0-3.0-1.264","../audio/36-9-fem.mp3"," ","","cedo.","","","",""
"","null","html-keyboard-response","325","575905","0.0-3.0-0.265-0.265","<span style= ""font-size:30px; font-family: monospace"">+</span>","null","fixation","","","","",""
"","2069","audio-keyboard-response","326","578323","0.0-3.0-1.265","../audio/40-1-fem.mp3"," ","","O","","","",""
"","1171","audio-keyboard-response","327","579846","0.0-3.0-1.266","../audio/40-2-fem.mp3"," ","","jogo","","","",""
"","1088","audio-keyboard-response","328","581266","0.0-3.0-1.267","../audio/40-3-fem.mp3"," ","","falava","","","",""
"","800","audio-keyboard-response","329","582368","0.0-3.0-1.268","../audio/40-4-fem.mp3"," ","","de","","","",""
"","1619","audio-keyboard-response","330","584322","0.0-3.0-1.269","../audio/40-5-fem.mp3"," ","","fantasia","","","",""
"","741","audio-keyboard-response","331","585405","0.0-3.0-1.270","../audio/40-6-fem.mp3"," ","","e","","","",""
"","960","audio-keyboard-response","332","586670","0.0-3.0-1.271","../audio/40-7-fem.mp3"," ","","de","","","",""
"","1629","audio-keyboard-response","333","588624","0.0-3.0-1.272","../audio/40-8-fem.mp3"," ","","aventura.","","","",""
"","6290","html-keyboard-response","334","595166","0.0-3.0-2.272-0.272","<span style=""font-size:25px; font-family: monospace"">O jogo tinha fantasia e aventura?</span>","s","","","O jogo tinha fantasia e aventura?","null","exp-sent","false"
"","null","html-keyboard-response","335","596667","0.0-3.0-0.273-0.273","<span style= ""font-size:30px; font-family: monospace"">+</span>","null","fixation","","","","",""
"","960","audio-keyboard-response","336","598001","0.0-3.0-1.273","../audio/48-1-fem.mp3"," ","","Ela","","","",""
"","1040","audio-keyboard-response","337","599350","0.0-3.0-1.274","../audio/48-2-fem.mp3"," ","","come","","","",""
"","1160","audio-keyboard-response","338","600825","0.0-3.0-1.275","../audio/48-3-fem.mp3"," ","","feijão","","","",""
"","859","audio-keyboard-response","339","601993","0.0-3.0-1.276","../audio/48-4-fem.mp3"," ","","com","","","",""
"","981","audio-keyboard-response","340","603295","0.0-3.0-1.277","../audio/48-5-fem.mp3"," ","","arroz","","","",""
"","909","audio-keyboard-response","341","604561","0.0-3.0-1.278","../audio/48-6-fem.mp3"," ","","todos","","","",""
"","800","audio-keyboard-response","342","605658","0.0-3.0-1.279","../audio/48-7-fem.mp3"," ","","os","","","",""
"","1379","audio-keyboard-response","343","607361","0.0-3.0-1.280","../audio/48-8-fem.mp3"," ","","dias.","","","",""
"","null","html-keyboard-response","344","608613","0.0-3.0-0.281-0.281","<span style= ""font-size:30px; font-family: monospace"">+</span>","null","fixation","","","","",""
"","621","audio-keyboard-response","345","609570","0.0-3.0-1.281","../audio/47-1-fem.mp3"," ","","O","","","",""
"","920","audio-keyboard-response","346","610785","0.0-3.0-1.282","../audio/47-2-fem.mp3"," ","","tio","","","",""
"","1381","audio-keyboard-response","347","612487","0.0-3.0-1.283","../audio/47-3-fem.mp3"," ","","recusou","","","",""
"","1451","audio-keyboard-response","348","614241","0.0-3.0-1.284","../audio/47-4-fem.mp3"," ","","a","","","",""
"","2939","audio-keyboard-response","349","617584","0.0-3.0-1.285","../audio/47-5-fem.mp3"," ","","sobremesa","","","",""
"","880","audio-keyboard-response","350","618819","0.0-3.0-1.286","../audio/47-6-fem.mp3"," ","","no","","","",""
"","1251","audio-keyboard-response","351","620401","0.0-3.0-1.287","../audio/47-7-fem.mp3"," ","","almoço.","","","",""
"","null","html-keyboard-response","352","621652","0.0-3.0-0.288-0.288","<span style= ""font-size:30px; font-family: monospace"">+</span>","null","fixation","","","","",""
"","800","audio-keyboard-response","353","622800","0.0-3.0-1.288","../audio/46-1-masc.mp3"," ","","Meu","","","",""
"","848","audio-keyboard-response","354","623949","0.0-3.0-1.289","../audio/46-2-masc.mp3"," ","","primo","","","",""
"","861","audio-keyboard-response","355","625180","0.0-3.0-1.290","../audio/46-3-masc.mp3"," ","","estava","","","",""
"","1000","audio-keyboard-response","356","626482","0.0-3.0-1.291","../audio/46-4-masc.mp3"," ","","muito","","","",""
"","1269","audio-keyboard-response","357","628073","0.0-3.0-1.292","../audio/46-5-masc.mp3"," ","","deprimido","","","",""
"","779","audio-keyboard-response","358","629144","0.0-3.0-1.293","../audio/46-6-masc.mp3"," ","","no","","","",""
"","1080","audio-keyboard-response","359","630513","0.0-3.0-1.294","../audio/46-7-masc.mp3"," ","","inverno.","","","",""
"","null","html-keyboard-response","360","631765","0.0-3.0-0.295-0.295","<span style= ""font-size:30px; font-family: monospace"">+</span>","null","fixation","","","","",""
"","861","audio-keyboard-response","361","633010","0.0-3.0-1.295","../audio/49-1-masc.mp3"," ","","Eu","","","",""
"","861","audio-keyboard-response","362","634210","0.0-3.0-1.296","../audio/49-2-masc.mp3"," ","","quero","","","",""
"","829","audio-keyboard-response","363","635348","0.0-3.0-1.297","../audio/49-3-masc.mp3"," ","","um","","","",""
"","971","audio-keyboard-response","364","636614","0.0-3.0-1.298","../audio/49-4-masc.mp3"," ","","lanche","","","",""
"","1269","audio-keyboard-response","365","638189","0.0-3.0-1.299","../audio/49-5-masc.mp3"," ","","duplo","","","",""
"","880","audio-keyboard-response","366","639380","0.0-3.0-1.300","../audio/49-6-masc.mp3"," ","","e","","","",""
"","901","audio-keyboard-response","367","640579","0.0-3.0-1.301","../audio/49-7-masc.mp3"," ","","um","","","",""
"","1339","audio-keyboard-response","368","642225","0.0-3.0-1.302","../audio/49-8-masc.mp3"," ","","suco.","","","",""
"","null","html-keyboard-response","369","643476","0.0-3.0-0.303-0.303","<span style= ""font-size:30px; font-family: monospace"">+</span>","null","fixation","","","","",""
"","928","audio-keyboard-response","370","644742","0.0-3.0-1.303","../audio/50-1-fem.mp3"," ","","O","","","",""
"","1421","audio-keyboard-response","371","646491","0.0-3.0-1.304","../audio/50-2-fem.mp3"," ","","pássaro","","","",""
"","1749","audio-keyboard-response","372","648547","0.0-3.0-1.305","../audio/50-3-fem.mp3"," ","","fugiu","","","",""
"","880","audio-keyboard-response","373","649774","0.0-3.0-1.306","../audio/50-4-fem.mp3"," ","","da","","","",""
"","1160","audio-keyboard-response","374","651265","0.0-3.0-1.307","../audio/50-5-fem.mp3"," ","","gaiola","","","",""
"","1040","audio-keyboard-response","375","652604","0.0-3.0-1.308","../audio/50-6-fem.mp3"," ","","pela","","","",""
"","3419","audio-keyboard-response","376","656357","0.0-3.0-1.309","../audio/50-7-fem.mp3"," ","","portinhola.","","","",""
"","3305","html-keyboard-response","377","659913","0.0-3.0-2.309-0.309","<span style=""font-size:25px; font-family: monospace"">O pássaro fugiu da gaiola?</span>","s","","","O pássaro fugiu da gaiola?","null","exp-sent","false"
"","null","html-keyboard-response","378","661415","0.0-3.0-0.310-0.310","<span style= ""font-size:30px; font-family: monospace"">+</span>","null","fixation","","","","",""
"","400","audio-keyboard-response","379","662176","0.0-3.0-1.310","../audio/69-1-fem.mp3"," ","","A","","","",""
"","1040","audio-keyboard-response","380","663539","0.0-3.0-1.311","../audio/69-2-fem.mp3"," ","","loja","","","",""
"","1120","audio-keyboard-response","381","665036","0.0-3.0-1.312","../audio/69-3-fem.mp3"," ","","recebeu","","","",""
"","880","audio-keyboard-response","382","666221","0.0-3.0-1.313","../audio/69-4-fem.mp3"," ","","uma","","","",""
"","1040","audio-keyboard-response","383","667589","0.0-3.0-1.314","../audio/69-5-fem.mp3"," ","","poltrona","","","",""
"","909","audio-keyboard-response","384","668795","0.0-3.0-1.315","../audio/69-6-fem.mp3"," ","","de","","","",""
"","1008","audio-keyboard-response","385","670103","0.0-3.0-1.316","../audio/69-7-fem.mp3"," ","","couro","","","",""
"","1091","audio-keyboard-response","386","671486","0.0-3.0-1.317","../audio/69-8-fem.mp3"," ","","preto.","","","",""
"","null","html-keyboard-response","387","672737","0.0-3.0-0.318-0.318","<span style= ""font-size:30px; font-family: monospace"">+</span>","null","fixation","","","","",""
"","1181","audio-keyboard-response","388","674258","0.0-3.0-1.318","../audio/67-1-fem.mp3"," ","","Minha","","","",""
"","1131","audio-keyboard-response","389","675734","0.0-3.0-1.319","../audio/67-2-fem.mp3"," ","","tia","","","",""
"","1251","audio-keyboard-response","390","677293","0.0-3.0-1.320","../audio/67-3-fem.mp3"," ","","comprou","","","",""
"","952","audio-keyboard-response","391","678533","0.0-3.0-1.321","../audio/67-4-fem.mp3"," ","","um","","","",""
"","1248","audio-keyboard-response","392","680104","0.0-3.0-1.322","../audio/67-5-fem.mp3"," ","","cordão","","","",""
"","920","audio-keyboard-response","393","681328","0.0-3.0-1.323","../audio/67-6-fem.mp3"," ","","para","","","",""
"","979","audio-keyboard-response","394","682591","0.0-3.0-1.324","../audio/67-7-fem.mp3"," ","","o","","","",""
"","989","audio-keyboard-response","395","683907","0.0-3.0-1.325","../audio/67-8-fem.mp3"," ","","varal.","","","",""
"","null","html-keyboard-response","396","685159","0.0-3.0-0.326-0.326","<span style= ""font-size:30px; font-family: monospace"">+</span>","null","fixation","","","","",""
"","1051","audio-keyboard-response","397","686551","0.0-3.0-1.326","../audio/68-1-fem.mp3"," ","","Meu","","","",""
"","1109","audio-keyboard-response","398","687966","0.0-3.0-1.327","../audio/68-2-fem.mp3"," ","","irmão","","","",""
"","851","audio-keyboard-response","399","689129","0.0-3.0-1.328","../audio/68-3-fem.mp3"," ","","teve","","","",""
"","931","audio-keyboard-response","400","690355","0.0-3.0-1.329","../audio/68-4-fem.mp3"," ","","um","","","",""
"","1451","audio-keyboard-response","401","692130","0.0-3.0-1.330","../audio/68-5-fem.mp3"," ","","noivado","","","",""
"","1000","audio-keyboard-response","402","693436","0.0-3.0-1.331","../audio/68-6-fem.mp3"," ","","longo","","","",""
"","829","audio-keyboard-response","403","694601","0.0-3.0-1.332","../audio/68-7-fem.mp3"," ","","e","","","",""
"","1651","audio-keyboard-response","404","696579","0.0-3.0-1.333","../audio/68-8-fem.mp3"," ","","maravilhoso.","","","",""
"","null","html-keyboard-response","405","697831","0.0-3.0-0.334-0.334","<span style= ""font-size:30px; font-family: monospace"">+</span>","null","fixation","","","","",""
"","840","audio-keyboard-response","406","699009","0.0-3.0-1.334","../audio/66-1-fem.mp3"," ","","Não","","","",""
"","1099","audio-keyboard-response","407","700428","0.0-3.0-1.335","../audio/66-2-fem.mp3"," ","","gosto","","","",""
"","781","audio-keyboard-response","408","701495","0.0-3.0-1.336","../audio/66-3-fem.mp3"," ","","de","","","",""
"","1259","audio-keyboard-response","409","703069","0.0-3.0-1.337","../audio/66-4-fem.mp3"," ","","gente","","","",""
"","1549","audio-keyboard-response","410","705007","0.0-3.0-1.338","../audio/66-5-fem.mp3"," ","","egoísta","","","",""
"","939","audio-keyboard-response","411","706263","0.0-3.0-1.339","../audio/66-6-fem.mp3"," ","","nem","","","",""
"","1061","audio-keyboard-response","412","707658","0.0-3.0-1.340","../audio/66-7-fem.mp3"," ","","chata.","","","",""
"","null","html-keyboard-response","413","708910","0.0-3.0-0.341-0.341","<span style= ""font-size:30px; font-family: monospace"">+</span>","null","fixation","","","","",""
"","880","audio-keyboard-response","414","710136","0.0-3.0-1.341","../audio/70-1-masc.mp3"," ","","O","","","",""
"","869","audio-keyboard-response","415","711305","0.0-3.0-1.342","../audio/70-2-masc.mp3"," ","","meu","","","",""
"","840","audio-keyboard-response","416","712443","0.0-3.0-1.343","../audio/70-3-masc.mp3"," ","","filho","","","",""
"","731","audio-keyboard-response","417","713473","0.0-3.0-1.344","../audio/70-4-masc.mp3"," ","","tem","","","",""
"","840","audio-keyboard-response","418","714657","0.0-3.0-1.345","../audio/70-5-masc.mp3"," ","","medo","","","",""
"","691","audio-keyboard-response","419","715642","0.0-3.0-1.346","../audio/70-6-masc.mp3"," ","","de","","","",""
"","1069","audio-keyboard-response","420","717032","0.0-3.0-1.347","../audio/70-7-masc.mp3"," ","","enguia","","","",""
"","819","audio-keyboard-response","421","718160","0.0-3.0-1.348","../audio/70-8-masc.mp3"," ","","e","","","",""
"","1280","audio-keyboard-response","422","719770","0.0-3.0-1.349","../audio/70-9-masc.mp3"," ","","beija-flor.","","","",""
"","8492","html-keyboard-response","423","728512","0.0-3.0-2.349-0.349","<span style=""font-size:25px; font-family: monospace"">O filho tem medo de tigre?</span>","n","","","O filho tem medo de tigre?","null","exp-sent","false"
"","null","html-keyboard-response","424","730013","0.0-3.0-0.350-0.350","<span style= ""font-size:30px; font-family: monospace"">+</span>","null","fixation","","","","",""
"","69","audio-keyboard-response","425","730464","0.0-3.0-1.350","../audio/63-1-fem.mp3"," ","","A","","","",""
"","1021","audio-keyboard-response","426","731975","0.0-3.0-1.351","../audio/63-2-fem.mp3"," ","","chuva","","","",""
"","1051","audio-keyboard-response","427","733329","0.0-3.0-1.352","../audio/63-3-fem.mp3"," ","","entrou","","","",""
"","971","audio-keyboard-response","428","734647","0.0-3.0-1.353","../audio/63-4-fem.mp3"," ","","pela","","","",""
"","1240","audio-keyboard-response","429","736211","0.0-3.0-1.354","../audio/63-5-fem.mp3"," ","","abertura","","","",""
"","859","audio-keyboard-response","430","737385","0.0-3.0-1.355","../audio/63-6-fem.mp3"," ","","na","","","",""
"","1131","audio-keyboard-response","431","738842","0.0-3.0-1.356","../audio/63-7-fem.mp3"," ","","janela.","","","",""
"","null","html-keyboard-response","432","740094","0.0-3.0-0.357-0.357","<span style= ""font-size:30px; font-family: monospace"">+</span>","null","fixation","","","","",""
"","741","audio-keyboard-response","433","741290","0.0-3.0-1.357","../audio/64-1-fem.mp3"," ","","O","","","",""
"","880","audio-keyboard-response","434","742464","0.0-3.0-1.358","../audio/64-2-fem.mp3"," ","","dia","","","",""
"","1171","audio-keyboard-response","435","743952","0.0-3.0-1.359","../audio/64-3-fem.mp3"," ","","começou","","","",""
"","821","audio-keyboard-response","436","745126","0.0-3.0-1.360","../audio/64-4-fem.mp3"," ","","com","","","",""
"","891","audio-keyboard-response","437","746331","0.0-3.0-1.361","../audio/64-5-fem.mp3"," ","","garoa","","","",""
"","1269","audio-keyboard-response","438","747910","0.0-3.0-1.362","../audio/64-6-fem.mp3"," ","","gelada","","","",""
"","1051","audio-keyboard-response","439","749255","0.0-3.0-1.363","../audio/64-7-fem.mp3"," ","","e","","","",""
"","1040","audio-keyboard-response","440","750612","0.0-3.0-1.364","../audio/64-8-fem.mp3"," ","","leve.","","","",""
"","null","html-keyboard-response","441","751864","0.0-3.0-0.365-0.365","<span style= ""font-size:30px; font-family: monospace"">+</span>","null","fixation","","","","",""
"","288","audio-keyboard-response","442","752499","0.0-3.0-1.365","../audio/62-1-masc.mp3"," ","","As","","","",""
"","1269","audio-keyboard-response","443","754099","0.0-3.0-1.366","../audio/62-2-masc.mp3"," ","","artesãs","","","",""
"","1099","audio-keyboard-response","444","755550","0.0-3.0-1.367","../audio/62-3-masc.mp3"," ","","gostam","","","",""
"","869","audio-keyboard-response","445","756719","0.0-3.0-1.368","../audio/62-4-masc.mp3"," ","","de","","","",""
"","2128","audio-keyboard-response","446","759180","0.0-3.0-1.369","../audio/62-5-masc.mp3"," ","","maquiagem","","","",""
"","789","audio-keyboard-response","447","760320","0.0-3.0-1.370","../audio/62-6-masc.mp3"," ","","e","","","",""
"","912","audio-keyboard-response","448","761534","0.0-3.0-1.371","../audio/62-7-masc.mp3"," ","","de","","","",""
"","1109","audio-keyboard-response","449","762954","0.0-3.0-1.372","../audio/62-8-masc.mp3"," ","","crochê.","","","",""
"","null","html-keyboard-response","450","764206","0.0-3.0-0.373-0.373","<span style= ""font-size:30px; font-family: monospace"">+</span>","null","fixation","","","","",""
"","1120","audio-keyboard-response","451","765702","0.0-3.0-1.373","../audio/61-1-masc.mp3"," ","","Aquele","","","",""
"","989","audio-keyboard-response","452","766994","0.0-3.0-1.374","../audio/61-2-masc.mp3"," ","","senhor","","","",""
"","829","audio-keyboard-response","453","768127","0.0-3.0-1.375","../audio/61-3-masc.mp3"," ","","é","","","",""
"","1149","audio-keyboard-response","454","769578","0.0-3.0-1.376","../audio/61-4-masc.mp3"," ","","muito","","","",""
"","1312","audio-keyboard-response","455","771210","0.0-3.0-1.377","../audio/61-5-masc.mp3"," ","","sovina","","","",""
"","731","audio-keyboard-response","456","772245","0.0-3.0-1.378","../audio/61-6-masc.mp3"," ","","e","","","",""
"","1648","audio-keyboard-response","457","774223","0.0-3.0-1.379","../audio/61-7-masc.mp3"," ","","inflexível.","","","",""
"","null","html-keyboard-response","458","775475","0.0-3.0-0.380-0.380","<span style= ""font-size:30px; font-family: monospace"">+</span>","null","fixation","","","","",""
"","792","audio-keyboard-response","459","776613","0.0-3.0-1.380","../audio/65-1-fem.mp3"," ","","O","","","",""
"","1341","audio-keyboard-response","460","778279","0.0-3.0-1.381","../audio/65-2-fem.mp3"," ","","fantasma","","","",""
"","960","audio-keyboard-response","461","779541","0.0-3.0-1.382","../audio/65-3-fem.mp3"," ","","veio","","","",""
"","720","audio-keyboard-response","462","780562","0.0-3.0-1.383","../audio/65-4-fem.mp3"," ","","da","","","",""
"","1539","audio-keyboard-response","463","782429","0.0-3.0-1.384","../audio/65-5-fem.mp3"," ","","escuridão","","","",""
"","800","audio-keyboard-response","464","783520","0.0-3.0-1.385","../audio/65-6-fem.mp3"," ","","do","","","",""
"","1400","audio-keyboard-response","465","785294","0.0-3.0-1.386","../audio/65-7-fem.mp3"," ","","armário.","","","",""
"","3348","html-keyboard-response","466","788894","0.0-3.0-2.386-0.386","<span style=""font-size:25px; font-family: monospace"">O fantasma veio da escuridão do armário?</span>","s","","","O fantasma veio da escuridão do armário?","null","exp-sent","false"
"","null","html-keyboard-response","467","790396","0.0-3.0-0.387-0.387","<span style= ""font-size:30px; font-family: monospace"">+</span>","null","fixation","","","","",""
"","669","audio-keyboard-response","468","791426","0.0-3.0-1.387","../audio/01-1-fem.mp3"," ","","O","","","",""
"","960","audio-keyboard-response","469","792688","0.0-3.0-1.388","../audio/01-2-fem.mp3"," ","","menino","","","",""
"","971","audio-keyboard-response","470","793969","0.0-3.0-1.389","../audio/01-3-fem.mp3"," ","","derrubou","","","",""
"","851","audio-keyboard-response","471","795168","0.0-3.0-1.390","../audio/01-4-fem.mp3"," ","","a","","","",""
"","1189","audio-keyboard-response","472","796686","0.0-3.0-1.391","../audio/01-5-fem.mp3"," ","","guitarra","","","",""
"","931","audio-keyboard-response","473","797913","0.0-3.0-1.392","../audio/01-6-fem.mp3"," ","","no","","","",""
"","1160","audio-keyboard-response","474","799368","0.0-3.0-1.393","../audio/01-7-fem.mp3"," ","","chão.","","","",""
"","null","html-keyboard-response","475","800619","0.0-3.0-0.394-0.394","<span style= ""font-size:30px; font-family: monospace"">+</span>","null","fixation","","","","",""
"","808","audio-keyboard-response","476","801777","0.0-3.0-1.394","../audio/02-2-masc.mp3"," ","","Havia","","","",""
"","901","audio-keyboard-response","477","802931","0.0-3.0-1.395","../audio/02-2-masc.mp3"," ","","um","","","",""
"","869","audio-keyboard-response","478","804152","0.0-3.0-1.396","../audio/02-3-masc.mp3"," ","","cheiro","","","",""
"","760","audio-keyboard-response","479","805208","0.0-3.0-1.397","../audio/02-4-masc.mp3"," ","","de","","","",""
"","731","audio-keyboard-response","480","806274","0.0-3.0-1.398","../audio/02-5-masc.mp3"," ","","gasolina","","","",""
"","771","audio-keyboard-response","481","807346","0.0-3.0-1.399","../audio/02-6-masc.mp3"," ","","na","","","",""
"","1109","audio-keyboard-response","482","808777","0.0-3.0-1.400","../audio/02-7-masc.mp3"," ","","garagem.","","","",""
"","null","html-keyboard-response","483","810029","0.0-3.0-0.401-0.401","<span style= ""font-size:30px; font-family: monospace"">+</span>","null","fixation","","","","",""
"","1189","audio-keyboard-response","484","811592","0.0-3.0-1.401","../audio/04-1-fem.mp3"," ","","Duzentos","","","",""
"","811","audio-keyboard-response","485","812725","0.0-3.0-1.402","../audio/04-2-fem.mp3"," ","","carros","","","",""
"","771","audio-keyboard-response","486","813813","0.0-3.0-1.403","../audio/04-3-fem.mp3"," ","","passaram","","","",""
"","589","audio-keyboard-response","487","814751","0.0-3.0-1.404","../audio/04-4-fem.mp3"," ","","pela","","","",""
"","581","audio-keyboard-response","488","815638","0.0-3.0-1.405","../audio/04-5-fem.mp3"," ","","ponte","","","",""
"","621","audio-keyboard-response","489","816561","0.0-3.0-1.406","../audio/04-6-fem.mp3"," ","","hoje","","","",""
"","691","audio-keyboard-response","490","817551","0.0-3.0-1.407","../audio/04-7-fem.mp3"," ","","de","","","",""
"","589","audio-keyboard-response","491","818443","0.0-3.0-1.408","../audio/04-8-fem.mp3"," ","","tarde.","","","",""
"","null","html-keyboard-response","492","819695","0.0-3.0-0.409-0.409","<span style= ""font-size:30px; font-family: monospace"">+</span>","null","fixation","","","","",""
"","608","audio-keyboard-response","493","820664","0.0-3.0-1.409","../audio/03-1-masc.mp3"," ","","O","","","",""
"","1088","audio-keyboard-response","494","822058","0.0-3.0-1.410","../audio/03-2-masc.mp3"," ","","coelho","","","",""
"","651","audio-keyboard-response","495","823013","0.0-3.0-1.411","../audio/03-3-masc.mp3"," ","","foi","","","",""
"","792","audio-keyboard-response","496","824167","0.0-3.0-1.412","../audio/03-4-masc.mp3"," ","","bastante","","","",""
"","651","audio-keyboard-response","497","825125","0.0-3.0-1.413","../audio/03-5-masc.mp3"," ","","dócil","","","",""
"","800","audio-keyboard-response","498","826228","0.0-3.0-1.414","../audio/03-6-masc.mp3"," ","","com","","","",""
"","989","audio-keyboard-response","499","827520","0.0-3.0-1.415","../audio/03-7-masc.mp3"," ","","as","","","",""
"","779","audio-keyboard-response","500","828617","0.0-3.0-1.416","../audio/03-8-masc.mp3"," ","","crianças.","","","",""
"","null","html-keyboard-response","501","829869","0.0-3.0-0.417-0.417","<span style= ""font-size:30px; font-family: monospace"">+</span>","null","fixation","","","","",""
"","691","audio-keyboard-response","502","830909","0.0-3.0-1.417","../audio/05-1-masc.mp3"," ","","A","","","",""
"","909","audio-keyboard-response","503","832145","0.0-3.0-1.418","../audio/05-2-masc.mp3"," ","","vendedora","","","",""
"","789","audio-keyboard-response","504","833264","0.0-3.0-1.419","../audio/05-3-masc.mp3"," ","","ajudou","","","",""
"","600","audio-keyboard-response","505","834209","0.0-3.0-1.420","../audio/05-4-masc.mp3"," ","","um","","","",""
"","848","audio-keyboard-response","506","835382","0.0-3.0-1.421","../audio/05-5-masc.mp3"," ","","turista","","","",""
"","779","audio-keyboard-response","507","836458","0.0-3.0-1.422","../audio/05-6-masc.mp3"," ","","na","","","",""
"","939","audio-keyboard-response","508","837705","0.0-3.0-1.423","../audio/05-7-masc.mp3"," ","","loja.","","","",""
"","3138","html-keyboard-response","509","841094","0.0-3.0-2.423-0.423","<span style=""font-size:25px; font-family: monospace"">A vendedora ajudou um turista?</span>","s","","","A vendedora ajudou um turista?","null","exp-sent","false"
"","null","html-keyboard-response","510","842596","0.0-3.0-0.424-0.424","<span style= ""font-size:30px; font-family: monospace"">+</span>","null","fixation","","","","",""
"","592","audio-keyboard-response","511","843529","0.0-3.0-1.424","../audio/28-1-masc.mp3"," ","","O","","","",""
"","531","audio-keyboard-response","512","844406","0.0-3.0-1.425","../audio/28-2-masc.mp3"," ","","time","","","",""
"","661","audio-keyboard-response","513","845365","0.0-3.0-1.426","../audio/28-3-masc.mp3"," ","","quer","","","",""
"","640","audio-keyboard-response","514","846298","0.0-3.0-1.427","../audio/28-4-masc.mp3"," ","","a","","","",""
"","960","audio-keyboard-response","515","847595","0.0-3.0-1.428","../audio/28-5-masc.mp3"," ","","vitória","","","",""
"","720","audio-keyboard-response","516","848610","0.0-3.0-1.429","../audio/28-6-masc.mp3"," ","","no","","","",""
"","941","audio-keyboard-response","517","849852","0.0-3.0-1.430","../audio/28-7-masc.mp3"," ","","jogo","","","",""
"","771","audio-keyboard-response","518","850918","0.0-3.0-1.431","../audio/28-8-masc.mp3"," ","","de","","","",""
"","1291","audio-keyboard-response","519","852533","0.0-3.0-1.432","../audio/28-9-masc.mp3"," ","","vôlei.","","","",""
"","null","html-keyboard-response","520","853785","0.0-3.0-0.433-0.433","<span style= ""font-size:30px; font-family: monospace"">+</span>","null","fixation","","","","",""
"","619","audio-keyboard-response","521","854754","0.0-3.0-1.433","../audio/27-1-masc.mp3"," ","","O","","","",""
"","1000","audio-keyboard-response","522","856071","0.0-3.0-1.434","../audio/27-2-masc.mp3"," ","","dinheiro","","","",""
"","899","audio-keyboard-response","523","857271","0.0-3.0-1.435","../audio/27-3-masc.mp3"," ","","chegou","","","",""
"","779","audio-keyboard-response","524","858353","0.0-3.0-1.436","../audio/27-4-masc.mp3"," ","","à","","","",""
"","1160","audio-keyboard-response","525","859846","0.0-3.0-1.437","../audio/27-5-masc.mp3"," ","","elite","","","",""
"","891","audio-keyboard-response","526","861035","0.0-3.0-1.438","../audio/27-6-masc.mp3"," ","","deste","","","",""
"","1091","audio-keyboard-response","527","862425","0.0-3.0-1.439","../audio/27-7-masc.mp3"," ","","país.","","","",""
"","null","html-keyboard-response","528","863677","0.0-3.0-0.440-0.440","<span style= ""font-size:30px; font-family: monospace"">+</span>","null","fixation","","","","",""
"","1251","audio-keyboard-response","529","865277","0.0-3.0-1.440","../audio/29-1-fem.mp3"," ","","Hoje","","","",""
"","1091","audio-keyboard-response","530","866706","0.0-3.0-1.441","../audio/29-2-fem.mp3"," ","","vamos","","","",""
"","1021","audio-keyboard-response","531","868045","0.0-3.0-1.442","../audio/29-3-fem.mp3"," ","","fazer","","","",""
"","741","audio-keyboard-response","532","869090","0.0-3.0-1.443","../audio/29-4-fem.mp3"," ","","uma","","","",""
"","1632","audio-keyboard-response","533","871054","0.0-3.0-1.444","../audio/29-5-fem.mp3"," ","","atividade","","","",""
"","1440","audio-keyboard-response","534","872809","0.0-3.0-1.445","../audio/29-6-fem.mp3"," ","","sobre","","","",""
"","1469","audio-keyboard-response","535","874602","0.0-3.0-1.446","../audio/29-7-fem.mp3"," ","","fauna","","","",""
"","1880","audio-keyboard-response","536","876858","0.0-3.0-1.447","../audio/29-8-fem.mp3"," ","","marinha.","","","",""
"","null","html-keyboard-response","537","878110","0.0-3.0-0.448-0.448","<span style= ""font-size:30px; font-family: monospace"">+</span>","null","fixation","","","","",""
"","1291","audio-keyboard-response","538","879754","0.0-3.0-1.448","../audio/26-1-fem.mp3"," ","","Amanhã","","","",""
"","1069","audio-keyboard-response","539","881137","0.0-3.0-1.449","../audio/26-2-fem.mp3"," ","","temos","","","",""
"","1200","audio-keyboard-response","540","882657","0.0-3.0-1.450","../audio/26-3-fem.mp3"," ","","festa","","","",""
"","880","audio-keyboard-response","541","883836","0.0-3.0-1.451","../audio/26-4-fem.mp3"," ","","na","","","",""
"","1152","audio-keyboard-response","542","885364","0.0-3.0-1.452","../audio/26-5-fem.mp3"," ","","piscina","","","",""
"","909","audio-keyboard-response","543","886580","0.0-3.0-1.453","../audio/26-6-fem.mp3"," ","","o","","","",""
"","1219","audio-keyboard-response","544","888112","0.0-3.0-1.454","../audio/26-7-fem.mp3"," ","","dia","","","",""
"","1312","audio-keyboard-response","545","889724","0.0-3.0-1.455","../audio/26-8-fem.mp3"," ","","todo.","","","",""
"","null","html-keyboard-response","546","890976","0.0-3.0-0.456-0.456","<span style= ""font-size:30px; font-family: monospace"">+</span>","null","fixation","","","","",""
"","928","audio-keyboard-response","547","892259","0.0-3.0-1.456","../audio/30-1-masc.mp3"," ","","O","","","",""
"","1112","audio-keyboard-response","548","893686","0.0-3.0-1.457","../audio/30-2-masc.mp3"," ","","funcionário","","","",""
"","2480","audio-keyboard-response","549","896537","0.0-3.0-1.458","../audio/30-3-masc.mp3"," ","","entregou","","","",""
"","819","audio-keyboard-response","550","897711","0.0-3.0-1.459","../audio/30-4-masc.mp3"," ","","o","","","",""
"","1360","audio-keyboard-response","551","899394","0.0-3.0-1.460","../audio/30-5-masc.mp3"," ","","restante","","","",""
"","800","audio-keyboard-response","552","900500","0.0-3.0-1.461","../audio/30-6-masc.mp3"," ","","do","","","",""
"","901","audio-keyboard-response","553","901721","0.0-3.0-1.462","../audio/30-7-masc.mp3"," ","","dinheiro.","","","",""
"","4286","html-keyboard-response","554","906258","0.0-3.0-2.462-0.462","<span style=""font-size:25px; font-family: monospace"">O funcionário entregou o contrato?</span>","n","","","O funcionário entregou o contrato?","null","exp-sent","false"
"","null","html-keyboard-response","555","907760","0.0-3.0-0.463-0.463","<span style= ""font-size:30px; font-family: monospace"">+</span>","null","fixation","","","","",""
"","629","audio-keyboard-response","556","908754","0.0-3.0-1.463","../audio/41-1-masc.mp3"," ","","A","","","",""
"","960","audio-keyboard-response","557","910043","0.0-3.0-1.464","../audio/41-2-masc.mp3"," ","","novela","","","",""
"","731","audio-keyboard-response","558","911072","0.0-3.0-1.465","../audio/41-3-masc.mp3"," ","","falava","","","",""
"","659","audio-keyboard-response","559","912025","0.0-3.0-1.466","../audio/41-4-masc.mp3"," ","","de","","","",""
"","949","audio-keyboard-response","560","913281","0.0-3.0-1.467","../audio/41-5-masc.mp3"," ","","paixão","","","",""
"","672","audio-keyboard-response","561","914291","0.0-3.0-1.468","../audio/41-6-masc.mp3"," ","","e","","","",""
"","1189","audio-keyboard-response","562","915789","0.0-3.0-1.469","../audio/41-7-masc.mp3"," ","","comédia.","","","",""
"","null","html-keyboard-response","563","917040","0.0-3.0-0.470-0.470","<span style= ""font-size:30px; font-family: monospace"">+</span>","null","fixation","","","","",""
"","901","audio-keyboard-response","564","918291","0.0-3.0-1.470","../audio/42-1-fem.mp3"," ","","Eu","","","",""
"","960","audio-keyboard-response","565","919547","0.0-3.0-1.471","../audio/42-2-fem.mp3"," ","","fui","","","",""
"","811","audio-keyboard-response","566","920650","0.0-3.0-1.472","../audio/42-3-fem.mp3"," ","","a","","","",""
"","1000","audio-keyboard-response","567","921952","0.0-3.0-1.473","../audio/42-4-fem.mp3"," ","","uma","","","",""
"","1120","audio-keyboard-response","568","923371","0.0-3.0-1.474","../audio/42-5-fem.mp3"," ","","loja","","","",""
"","680","audio-keyboard-response","569","924392","0.0-3.0-1.475","../audio/42-6-fem.mp3"," ","","de","","","",""
"","989","audio-keyboard-response","570","925694","0.0-3.0-1.476","../audio/42-7-fem.mp3"," ","","móveis","","","",""
"","800","audio-keyboard-response","571","926797","0.0-3.0-1.477","../audio/42-8-fem.mp3"," ","","no","","","",""
"","1251","audio-keyboard-response","572","928350","0.0-3.0-1.478","../audio/42-9-fem.mp3"," ","","bairro.","","","",""
"","null","html-keyboard-response","573","929602","0.0-3.0-0.479-0.479","<span style= ""font-size:30px; font-family: monospace"">+</span>","null","fixation","","","","",""
"","829","audio-keyboard-response","574","930777","0.0-3.0-1.479","../audio/44-1-masc.mp3"," ","","Meus","","","",""
"","1000","audio-keyboard-response","575","932078","0.0-3.0-1.480","../audio/44-2-masc.mp3"," ","","irmãos","","","",""
"","960","audio-keyboard-response","576","933328","0.0-3.0-1.481","../audio/44-3-masc.mp3"," ","","brigam","","","",""
"","821","audio-keyboard-response","577","934487","0.0-3.0-1.482","../audio/44-4-masc.mp3"," ","","por","","","",""
"","1171","audio-keyboard-response","578","935964","0.0-3.0-1.483","../audio/44-5-masc.mp3"," ","","bobagem","","","",""
"","789","audio-keyboard-response","579","937060","0.0-3.0-1.484","../audio/44-6-masc.mp3"," ","","todos","","","",""
"","819","audio-keyboard-response","580","938173","0.0-3.0-1.485","../audio/44-7-masc.mp3"," ","","os","","","",""
"","899","audio-keyboard-response","581","939373","0.0-3.0-1.486","../audio/44-8-masc.mp3"," ","","dias.","","","",""
"","null","html-keyboard-response","582","940625","0.0-3.0-0.487-0.487","<span style= ""font-size:30px; font-family: monospace"">+</span>","null","fixation","","","","",""
"","741","audio-keyboard-response","583","941712","0.0-3.0-1.487","../audio/43-1-fem.mp3"," ","","Eu","","","",""
"","949","audio-keyboard-response","584","942983","0.0-3.0-1.488","../audio/43-2-fem.mp3"," ","","achei","","","",""
"","800","audio-keyboard-response","585","944137","0.0-3.0-1.489","../audio/43-3-fem.mp3"," ","","um","","","",""
"","1059","audio-keyboard-response","586","945495","0.0-3.0-1.490","../audio/43-4-fem.mp3"," ","","colchão","","","",""
"","1061","audio-keyboard-response","587","946879","0.0-3.0-1.491","../audio/43-5-fem.mp3"," ","","velho","","","",""
"","829","audio-keyboard-response","588","947997","0.0-3.0-1.492","../audio/43-6-fem.mp3"," ","","e","","","",""
"","1221","audio-keyboard-response","589","949526","0.0-3.0-1.493","../audio/43-7-fem.mp3"," ","","imundo","","","",""
"","931","audio-keyboard-response","590","950766","0.0-3.0-1.494","../audio/43-8-fem.mp3"," ","","na","","","",""
"","1171","audio-keyboard-response","591","952239","0.0-3.0-1.495","../audio/43-9-fem.mp3"," ","","casa.","","","",""
"","null","html-keyboard-response","592","953491","0.0-3.0-0.496-0.496","<span style= ""font-size:30px; font-family: monospace"">+</span>","null","fixation","","","","",""
"","789","audio-keyboard-response","593","954628","0.0-3.0-1.496","../audio/45-1-fem.mp3"," ","","O","","","",""
"","1040","audio-keyboard-response","594","955966","0.0-3.0-1.497","../audio/45-2-fem.mp3"," ","","homem","","","",""
"","880","audio-keyboard-response","595","957154","0.0-3.0-1.498","../audio/45-3-fem.mp3"," ","","pagou","","","",""
"","792","audio-keyboard-response","596","958247","0.0-3.0-1.499","../audio/45-4-fem.mp3"," ","","o","","","",""
"","1280","audio-keyboard-response","597","959831","0.0-3.0-1.500","../audio/45-5-fem.mp3"," ","","aluguel","","","",""
"","861","audio-keyboard-response","598","960995","0.0-3.0-1.501","../audio/45-6-fem.mp3"," ","","com","","","",""
"","1208","audio-keyboard-response","599","962533","0.0-3.0-1.502","../audio/45-7-fem.mp3"," ","","atraso.","","","",""
"","3610","html-keyboard-response","600","966395","0.0-3.0-2.502-0.502","<span style=""font-size:25px; font-family: monospace"">O homem pagou o aluguel em dia?</span>","n","","","O homem pagou o aluguel em dia?","null","exp-sent","false"
"","null","html-keyboard-response","601","967897","0.0-3.0-0.503-0.503","<span style= ""font-size:30px; font-family: monospace"">+</span>","null","fixation","","","","",""
"","309","audio-keyboard-response","602","968552","0.0-3.0-1.503","../audio/18-1-masc.mp3"," ","","O","","","",""
"","629","audio-keyboard-response","603","969501","0.0-3.0-1.504","../audio/18-2-masc.mp3"," ","","enredo","","","",""
"","768","audio-keyboard-response","604","970578","0.0-3.0-1.505","../audio/18-3-masc.mp3"," ","","traz","","","",""
"","768","audio-keyboard-response","605","971654","0.0-3.0-1.506","../audio/18-4-masc.mp3"," ","","um","","","",""
"","1019","audio-keyboard-response","606","972972","0.0-3.0-1.507","../audio/18-5-masc.mp3"," ","","dragão","","","",""
"","989","audio-keyboard-response","607","974320","0.0-3.0-1.508","../audio/18-6-masc.mp3"," ","","forte","","","",""
"","821","audio-keyboard-response","608","975433","0.0-3.0-1.509","../audio/18-7-masc.mp3"," ","","e","","","",""
"","1229","audio-keyboard-response","609","976981","0.0-3.0-1.510","../audio/18-8-masc.mp3"," ","","solitário.","","","",""
"","null","html-keyboard-response","610","978233","0.0-3.0-0.511-0.511","<span style= ""font-size:30px; font-family: monospace"">+</span>","null","fixation","","","","",""
"","701","audio-keyboard-response","611","979284","0.0-3.0-1.511","../audio/19-1-fem.mp3"," ","","O","","","",""
"","1229","audio-keyboard-response","612","980832","0.0-3.0-1.512","../audio/19-2-fem.mp3"," ","","menino","","","",""
"","1232","audio-keyboard-response","613","982366","0.0-3.0-1.513","../audio/19-3-fem.mp3"," ","","ganhou","","","",""
"","981","audio-keyboard-response","614","983643","0.0-3.0-1.514","../audio/19-4-fem.mp3"," ","","uma","","","",""
"","1029","audio-keyboard-response","615","985027","0.0-3.0-1.515","../audio/19-5-fem.mp3"," ","","bala","","","",""
"","1080","audio-keyboard-response","616","986411","0.0-3.0-1.516","../audio/19-6-fem.mp3"," ","","depois","","","",""
"","811","audio-keyboard-response","617","987529","0.0-3.0-1.517","../audio/19-7-fem.mp3"," ","","do","","","",""
"","1381","audio-keyboard-response","618","989231","0.0-3.0-1.518","../audio/19-8-fem.mp3"," ","","almoço.","","","",""
"","null","html-keyboard-response","619","990484","0.0-3.0-0.519-0.519","<span style= ""font-size:30px; font-family: monospace"">+</span>","null","fixation","","","","",""
"","1621","audio-keyboard-response","620","992446","0.0-3.0-1.519","../audio/16-1-fem.mp3"," ","","Eu","","","",""
"","1149","audio-keyboard-response","621","993892","0.0-3.0-1.520","../audio/16-2-fem.mp3"," ","","nunca","","","",""
"","1171","audio-keyboard-response","622","995435","0.0-3.0-1.521","../audio/16-3-fem.mp3"," ","","conheci","","","",""
"","971","audio-keyboard-response","623","996701","0.0-3.0-1.522","../audio/16-4-fem.mp3"," ","","um","","","",""
"","1200","audio-keyboard-response","624","998238","0.0-3.0-1.523","../audio/16-5-fem.mp3"," ","","general","","","",""
"","792","audio-keyboard-response","625","999320","0.0-3.0-1.524","../audio/16-6-fem.mp3"," ","","do","","","",""
"","1480","audio-keyboard-response","626","1001120","0.0-3.0-1.525","../audio/16-7-fem.mp3"," ","","exército.","","","",""
"","null","html-keyboard-response","627","1002371","0.0-3.0-0.526-0.526","<span style= ""font-size:30px; font-family: monospace"">+</span>","null","fixation","","","","",""
"","1109","audio-keyboard-response","628","1003832","0.0-3.0-1.526","../audio/17-1-masc.mp3"," ","","Falaram","","","",""
"","859","audio-keyboard-response","629","1005058","0.0-3.0-1.527","../audio/17-2-masc.mp3"," ","","da","","","",""
"","1128","audio-keyboard-response","630","1006493","0.0-3.0-1.528","../audio/17-3-masc.mp3"," ","","lei","","","",""
"","1051","audio-keyboard-response","631","1007847","0.0-3.0-1.529","../audio/17-4-masc.mp3"," ","","no","","","",""
"","1301","audio-keyboard-response","632","1009472","0.0-3.0-1.530","../audio/17-5-masc.mp3"," ","","ministério","","","",""
"","1149","audio-keyboard-response","633","1010954","0.0-3.0-1.531","../audio/17-6-masc.mp3"," ","","diversas","","","",""
"","1291","audio-keyboard-response","634","1012553","0.0-3.0-1.532","../audio/17-7-masc.mp3"," ","","vezes.","","","",""
"","null","html-keyboard-response","635","1013805","0.0-3.0-0.533-0.533","<span style= ""font-size:30px; font-family: monospace"">+</span>","null","fixation","","","","",""
"","981","audio-keyboard-response","636","1015153","0.0-3.0-1.533","../audio/20-1-fem.mp3"," ","","O","","","",""
"","1291","audio-keyboard-response","637","1016753","0.0-3.0-1.534","../audio/20-2-fem.mp3"," ","","colega","","","",""
"","1480","audio-keyboard-response","638","1018564","0.0-3.0-1.535","../audio/20-3-fem.mp3"," ","","parecia","","","",""
"","1269","audio-keyboard-response","639","1020143","0.0-3.0-1.536","../audio/20-4-fem.mp3"," ","","muito","","","",""
"","1429","audio-keyboard-response","640","1021917","0.0-3.0-1.537","../audio/20-5-fem.mp3"," ","","gripado","","","",""
"","1061","audio-keyboard-response","641","1023286","0.0-3.0-1.538","../audio/20-6-fem.mp3"," ","","no","","","",""
"","1131","audio-keyboard-response","642","1024752","0.0-3.0-1.539","../audio/20-7-fem.mp3"," ","","dia","","","",""
"","731","audio-keyboard-response","643","1025803","0.0-3.0-1.540","../audio/20-8-fem.mp3"," ","","anterior.","","","",""
"","10117","html-keyboard-response","644","1036172","0.0-3.0-2.540-0.540","<span style=""font-size:25px; font-family: monospace"">O colega parecia muito gripado?</span>","s","","","O colega parecia muito gripado?","null","exp-sent","false"
"","null","html-keyboard-response","645","1037674","0.0-3.0-0.541-0.541","<span style= ""font-size:30px; font-family: monospace"">+</span>","null","fixation","","","","",""
"","840","audio-keyboard-response","646","1038892","0.0-3.0-1.541","../audio/78-1-fem.mp3"," ","","Eles","","","",""
"","920","audio-keyboard-response","647","1040128","0.0-3.0-1.542","../audio/78-2-fem.mp3"," ","","trazem","","","",""
"","781","audio-keyboard-response","648","1041199","0.0-3.0-1.543","../audio/78-3-fem.mp3"," ","","um","","","",""
"","920","audio-keyboard-response","649","1042420","0.0-3.0-1.544","../audio/78-4-fem.mp3"," ","","fato","","","",""
"","1240","audio-keyboard-response","650","1043984","0.0-3.0-1.545","../audio/78-5-fem.mp3"," ","","urgente","","","",""
"","651","audio-keyboard-response","651","1044979","0.0-3.0-1.546","../audio/78-6-fem.mp3"," ","","todos","","","",""
"","608","audio-keyboard-response","652","1045891","0.0-3.0-1.547","../audio/78-7-fem.mp3"," ","","os","","","",""
"","611","audio-keyboard-response","653","1046820","0.0-3.0-1.548","../audio/78-8-fem.mp3"," ","","dias.","","","",""
"","null","html-keyboard-response","654","1048072","0.0-3.0-0.549-0.549","<span style= ""font-size:30px; font-family: monospace"">+</span>","null","fixation","","","","",""
"","360","audio-keyboard-response","655","1048778","0.0-3.0-1.549","../audio/77-1-masc.mp3"," ","","A","","","",""
"","680","audio-keyboard-response","656","1049783","0.0-3.0-1.550","../audio/77-2-masc.mp3"," ","","criança","","","",""
"","760","audio-keyboard-response","657","1050849","0.0-3.0-1.551","../audio/77-3-masc.mp3"," ","","ficou","","","",""
"","869","audio-keyboard-response","658","1052018","0.0-3.0-1.552","../audio/77-4-masc.mp3"," ","","muito","","","",""
"","829","audio-keyboard-response","659","1053151","0.0-3.0-1.553","../audio/77-5-masc.mp3"," ","","feliz","","","",""
"","720","audio-keyboard-response","660","1054217","0.0-3.0-1.554","../audio/77-6-masc.mp3"," ","","com","","","",""
"","851","audio-keyboard-response","661","1055360","0.0-3.0-1.555","../audio/77-7-masc.mp3"," ","","o","","","",""
"","1120","audio-keyboard-response","662","1056770","0.0-3.0-1.556","../audio/77-8-masc.mp3"," ","","brinquedo.","","","",""
"","null","html-keyboard-response","663","1058022","0.0-3.0-0.557-0.557","<span style= ""font-size:30px; font-family: monospace"">+</span>","null","fixation","","","","",""
"","872","audio-keyboard-response","664","1059241","0.0-3.0-1.557","../audio/79-1-masc.mp3"," ","","A","","","",""
"","1192","audio-keyboard-response","665","1060759","0.0-3.0-1.558","../audio/79-2-masc.mp3"," ","","médica","","","",""
"","1181","audio-keyboard-response","666","1062271","0.0-3.0-1.559","../audio/79-3-masc.mp3"," ","","verificou","","","",""
"","792","audio-keyboard-response","667","1063358","0.0-3.0-1.560","../audio/79-4-masc.mp3"," ","","a","","","",""
"","1312","audio-keyboard-response","668","1065040","0.0-3.0-1.561","../audio/79-5-masc.mp3"," ","","gengiva","","","",""
"","869","audio-keyboard-response","669","1066209","0.0-3.0-1.562","../audio/79-6-masc.mp3"," ","","por","","","",""
"","1251","audio-keyboard-response","670","1067751","0.0-3.0-1.563","../audio/79-7-masc.mp3"," ","","último.","","","",""
"","null","html-keyboard-response","671","1069003","0.0-3.0-0.564-0.564","<span style= ""font-size:30px; font-family: monospace"">+</span>","null","fixation","","","","",""
"","728","audio-keyboard-response","672","1070090","0.0-3.0-1.564","../audio/76-1-masc.mp3"," ","","O","","","",""
"","1000","audio-keyboard-response","673","1071392","0.0-3.0-1.565","../audio/76-2-masc.mp3"," ","","bisavô","","","",""
"","1040","audio-keyboard-response","674","1072737","0.0-3.0-1.566","../audio/76-3-masc.mp3"," ","","comprou","","","",""
"","739","audio-keyboard-response","675","1073767","0.0-3.0-1.567","../audio/76-4-masc.mp3"," ","","um","","","",""
"","1291","audio-keyboard-response","676","1075428","0.0-3.0-1.568","../audio/76-5-masc.mp3"," ","","ralador","","","",""
"","851","audio-keyboard-response","677","1076577","0.0-3.0-1.569","../audio/76-6-masc.mp3"," ","","de","","","",""
"","1000","audio-keyboard-response","678","1077879","0.0-3.0-1.570","../audio/76-7-masc.mp3"," ","","queijo.","","","",""
"","null","html-keyboard-response","679","1079130","0.0-3.0-0.571-0.571","<span style= ""font-size:30px; font-family: monospace"">+</span>","null","fixation","","","","",""
"","888","audio-keyboard-response","680","1080375","0.0-3.0-1.571","../audio/80-1-fem.mp3"," ","","Meu","","","",""
"","971","audio-keyboard-response","681","1081641","0.0-3.0-1.572","../audio/80-2-fem.mp3"," ","","primo","","","",""
"","1040","audio-keyboard-response","682","1083000","0.0-3.0-1.573","../audio/80-3-fem.mp3"," ","","conheceu","","","",""
"","920","audio-keyboard-response","683","1084261","0.0-3.0-1.574","../audio/80-4-fem.mp3"," ","","um","","","",""
"","1360","audio-keyboard-response","684","1085943","0.0-3.0-1.575","../audio/80-5-fem.mp3"," ","","jovem","","","",""
"","1291","audio-keyboard-response","685","1087558","0.0-3.0-1.576","../audio/80-6-fem.mp3"," ","","amável","","","",""
"","1272","audio-keyboard-response","686","1089119","0.0-3.0-1.577","../audio/80-7-fem.mp3"," ","","e","","","",""
"","1629","audio-keyboard-response","687","1091075","0.0-3.0-1.578","../audio/80-8-fem.mp3"," ","","confiante.","","","",""
"","7125","html-keyboard-response","688","1098451","0.0-3.0-2.578-0.578","<span style=""font-size:25px; font-family: monospace"">O primo conheceu um jovem irritante?</span>","n","","","O primo conheceu um jovem irritante?","null","exp-sent","false"
"","null","html-keyboard-response","689","1099953","0.0-3.0-0.579-0.579","<span style= ""font-size:30px; font-family: monospace"">+</span>","null","fixation","","","","",""
"","101","audio-keyboard-response","690","1100404","0.0-3.0-1.579","../audio/71-1-masc.mp3"," ","","Minhas","","","",""
"","1261","audio-keyboard-response","691","1101987","0.0-3.0-1.580","../audio/71-2-masc.mp3"," ","","comidas","","","",""
"","1280","audio-keyboard-response","692","1103581","0.0-3.0-1.581","../audio/71-3-masc.mp3"," ","","favoritas","","","",""
"","821","audio-keyboard-response","693","1104750","0.0-3.0-1.582","../audio/71-4-masc.mp3"," ","","são","","","",""
"","1141","audio-keyboard-response","694","1106186","0.0-3.0-1.583","../audio/71-5-masc.mp3"," ","","morango","","","",""
"","699","audio-keyboard-response","695","1107180","0.0-3.0-1.584","../audio/71-6-masc.mp3"," ","","e","","","",""
"","989","audio-keyboard-response","696","1108473","0.0-3.0-1.585","../audio/71-7-masc.mp3"," ","","uva.","","","",""
"","null","html-keyboard-response","697","1109725","0.0-3.0-0.586-0.586","<span style= ""font-size:30px; font-family: monospace"">+</span>","null","fixation","","","","",""
"","800","audio-keyboard-response","698","1110873","0.0-3.0-1.586","../audio/73-1-fem.mp3"," ","","O","","","",""
"","1200","audio-keyboard-response","699","1112400","0.0-3.0-1.587","../audio/73-2-fem.mp3"," ","","cliente","","","",""
"","589","audio-keyboard-response","700","1113287","0.0-3.0-1.588","../audio/73-3-fem.mp3"," ","","era","","","",""
"","920","audio-keyboard-response","701","1114559","0.0-3.0-1.589","../audio/73-4-fem.mp3"," ","","um","","","",""
"","861","audio-keyboard-response","702","1115723","0.0-3.0-1.590","../audio/73-5-fem.mp3"," ","","homem","","","",""
"","971","audio-keyboard-response","703","1117004","0.0-3.0-1.591","../audio/73-6-fem.mp3"," ","","muito","","","",""
"","1491","audio-keyboard-response","704","1118821","0.0-3.0-1.592","../audio/73-7-fem.mp3"," ","","educado.","","","",""
"","null","html-keyboard-response","705","1120072","0.0-3.0-0.593-0.593","<span style= ""font-size:30px; font-family: monospace"">+</span>","null","fixation","","","","",""
"","821","audio-keyboard-response","706","1121241","0.0-3.0-1.593","../audio/72-1-masc.mp3"," ","","A","","","",""
"","1181","audio-keyboard-response","707","1122746","0.0-3.0-1.594","../audio/72-2-masc.mp3"," ","","vencedora","","","",""
"","1120","audio-keyboard-response","708","1124212","0.0-3.0-1.595","../audio/72-3-masc.mp3"," ","","recebeu","","","",""
"","920","audio-keyboard-response","709","1125483","0.0-3.0-1.596","../audio/72-4-masc.mp3"," ","","um","","","",""
"","1091","audio-keyboard-response","710","1126878","0.0-3.0-1.597","../audio/72-5-masc.mp3"," ","","prêmio","","","",""
"","981","audio-keyboard-response","711","1128160","0.0-3.0-1.598","../audio/72-6-masc.mp3"," ","","em","","","",""
"","1699","audio-keyboard-response","712","1130169","0.0-3.0-1.599","../audio/72-7-masc.mp3"," ","","dinheiro.","","","",""
"","null","html-keyboard-response","713","1131422","0.0-3.0-0.600-0.600","<span style= ""font-size:30px; font-family: monospace"">+</span>","null","fixation","","","","",""
"","1080","audio-keyboard-response","714","1132835","0.0-3.0-1.600","../audio/74-1-masc.mp3"," ","","Este","","","",""
"","1211","audio-keyboard-response","715","1134358","0.0-3.0-1.601","../audio/74-2-masc.mp3"," ","","emprego","","","",""
"","909","audio-keyboard-response","716","1135607","0.0-3.0-1.602","../audio/74-3-masc.mp3"," ","","é","","","",""
"","861","audio-keyboard-response","717","1136760","0.0-3.0-1.603","../audio/74-4-masc.mp3"," ","","muito","","","",""
"","1411","audio-keyboard-response","718","1138502","0.0-3.0-1.604","../audio/74-5-masc.mp3"," ","","cansativo","","","",""
"","920","audio-keyboard-response","719","1139717","0.0-3.0-1.605","../audio/74-6-masc.mp3"," ","","a","","","",""
"","1141","audio-keyboard-response","720","1141163","0.0-3.0-1.606","../audio/74-7-masc.mp3"," ","","longo","","","",""
"","1251","audio-keyboard-response","721","1142712","0.0-3.0-1.607","../audio/74-8-masc.mp3"," ","","prazo.","","","",""
"","null","html-keyboard-response","722","1143964","0.0-3.0-0.608-0.608","<span style= ""font-size:30px; font-family: monospace"">+</span>","null","fixation","","","","",""
"","960","audio-keyboard-response","723","1145279","0.0-3.0-1.608","../audio/75-1-fem.mp3"," ","","Só","","","",""
"","1291","audio-keyboard-response","724","1146894","0.0-3.0-1.609","../audio/75-2-fem.mp3"," ","","existe","","","",""
"","859","audio-keyboard-response","725","1148048","0.0-3.0-1.610","../audio/75-3-fem.mp3"," ","","uma","","","",""
"","1131","audio-keyboard-response","726","1149513","0.0-3.0-1.611","../audio/75-4-fem.mp3"," ","","pessoa","","","",""
"","1291","audio-keyboard-response","727","1151138","0.0-3.0-1.612","../audio/75-5-fem.mp3"," ","","canhota","","","",""
"","1240","audio-keyboard-response","728","1152712","0.0-3.0-1.613","../audio/75-6-fem.mp3"," ","","nesta","","","",""
"","1400","audio-keyboard-response","729","1154435","0.0-3.0-1.614","../audio/75-7-fem.mp3"," ","","cidade.","","","",""
"","4072","html-keyboard-response","730","1158757","0.0-3.0-2.614-0.614","<span style=""font-size:25px; font-family: monospace"">Só existe uma pessoa canhota na cidade?</span>","s","","","Só existe uma pessoa canhota na cidade?","null","exp-sent","false"
"[{""page_index"":0,""viewing_time"":15470}]","15471","instructions","731","1174729","0.0-4.0","","","","","","","",""
