[
	{
		"view_history": [
			{
				"page_index": 0,
				"viewing_time": 11669
			}
		],
		"rt": 11669,
		"trial_type": "instructions",
		"trial_index": 0,
		"time_elapsed": 11673,
		"internal_node_id": "0.0-0.0"
	},
	{
		"rt": 19631,
		"response": {
			"age": "26"
		},
		"trial_type": "survey-text",
		"trial_index": 1,
		"time_elapsed": 31409,
		"internal_node_id": "0.0-1.0"
	},
	{
		"rt": 2760,
		"response": {
			"sex": "Feminino"
		},
		"question_order": [
			0
		],
		"trial_type": "survey-multi-choice",
		"trial_index": 2,
		"time_elapsed": 34272,
		"internal_node_id": "0.0-2.0"
	},
	{
		"rt": 21067,
		"response": {
			"own_schooling": "Ensino Médio completo"
		},
		"question_order": [
			0
		],
		"trial_type": "survey-multi-choice",
		"trial_index": 3,
		"time_elapsed": 55443,
		"internal_node_id": "0.0-3.0"
	},
	{
		"rt": 14398,
		"response": {
			"mother_schooling": "Ensino Médio completo"
		},
		"question_order": [
			0
		],
		"trial_type": "survey-multi-choice",
		"trial_index": 4,
		"time_elapsed": 69945,
		"internal_node_id": "0.0-4.0"
	},
	{
		"rt": 5227,
		"response": {
			"father_schooling": "Ensino Superior completo"
		},
		"question_order": [
			0
		],
		"trial_type": "survey-multi-choice",
		"trial_index": 5,
		"time_elapsed": 75276,
		"internal_node_id": "0.0-5.0"
	},
	{
		"rt": 177957,
		"response": {
			"language_0": "CRIOULA",
			"listening_0": "2 ",
			"speaking_0": "2",
			"reading_0": "5",
			"writing_0": "5",
			"language_1": "FRANÇES",
			"listening_1": "2 ",
			"speaking_1": "2",
			"reading_1": "5",
			"writing_1": "5",
			"language_2": "PORTUGÛES",
			"listening_2": "21",
			"speaking_2": "21",
			"reading_2": "21",
			"writing_2": "21",
			"language_3": "",
			"listening_3": "",
			"speaking_3": "",
			"reading_3": "",
			"writing_3": ""
		},
		"trial_type": "survey-html-form",
		"trial_index": 6,
		"time_elapsed": 253341,
		"internal_node_id": "0.0-6.0"
	},
	{
		"rt": 161889,
		"response": {
			"language_3": "",
			"listening_3": "",
			"speaking_3": "",
			"reading_3": "",
			"writing_3": "",
			"language_1": "FRANCES",
			"listening_1": "5",
			"speaking_1": "5",
			"reading_1": "3",
			"writing_1": "3",
			"language_2": "PORTUGÛES",
			"listening_2": "1",
			"speaking_2": "1",
			"reading_2": "6 MESES",
			"writing_2": "6 MESES"
		},
		"trial_type": "survey-html-form",
		"trial_index": 7,
		"time_elapsed": 415336,
		"internal_node_id": "0.0-7.0"
	},
	{
		"rt": 5981,
		"response": {
			"country_of_origin": "HAITI"
		},
		"trial_type": "survey-text",
		"trial_index": 8,
		"time_elapsed": 421422,
		"internal_node_id": "0.0-8.0"
	},
	{
		"rt": 6817,
		"response": {
			"country_of_residence": "BRASIL"
		},
		"trial_type": "survey-text",
		"trial_index": 9,
		"time_elapsed": 428343,
		"internal_node_id": "0.0-9.0"
	},
	{
		"rt": 95139,
		"response": {
			"country_0": "",
			"duration_0": "",
			"language_0": "",
			"frequency_0": "",
			"country_1": "",
			"duration_1": "",
			"language_1": "",
			"frequency_1": "",
			"country_2": "",
			"duration_2": "",
			"language_2": "",
			"frequency_2": "",
			"country_3": "",
			"duration_3": "",
			"language_3": "",
			"frequency_3": ""
		},
		"trial_type": "survey-html-form",
		"trial_index": 10,
		"time_elapsed": 523588,
		"internal_node_id": "0.0-10.0"
	},
	{
		"rt": 38220,
		"response": {
			"language_0": "PORTUGÛES",
			"context_0": "2",
			"language_1": "",
			"context_1": "",
			"language_2": "",
			"context_2": "",
			"language_3": "",
			"context_3": ""
		},
		"trial_type": "survey-html-form",
		"trial_index": 11,
		"time_elapsed": 561914,
		"internal_node_id": "0.0-11.0"
	},
	{
		"rt": 132943,
		"response": {
			"language_0": "CRIOULA",
			"home_0": "2",
			"friends_0": "",
			"school_0": "3",
			"work_0": "",
			"computer_0": "",
			"games_0": "",
			"language_1": "FRANCES",
			"home_1": "2",
			"friends_1": "",
			"school_1": "3",
			"work_1": "",
			"computer_1": "",
			"games_1": "",
			"language_2": "PORTUGUES",
			"home_2": "21",
			"friends_2": "21",
			"school_2": "21",
			"work_2": "",
			"computer_2": "21",
			"games_2": "",
			"language_3": "",
			"home_3": "",
			"friends_3": "",
			"school_3": "",
			"work_3": "",
			"computer_3": "",
			"games_3": ""
		},
		"trial_type": "survey-html-form",
		"trial_index": 12,
		"time_elapsed": 694960,
		"internal_node_id": "0.0-12.0"
	},
	{
		"rt": 16998,
		"response": {
			"new_languages": 5
		},
		"question_order": [
			0
		],
		"trial_type": "survey-likert",
		"trial_index": 13,
		"time_elapsed": 712063,
		"internal_node_id": "0.0-13.0"
	},
	{
		"rt": 103839,
		"response": {
			"language_0": "CRIOULA",
			"listen_0": "7",
			"talk_0": "7",
			"read_0": "7",
			"write_0": "7",
			"language_1": "FRANCES",
			"listen_1": "7",
			"talk_1": "7",
			"read_1": "7",
			"write_1": "7",
			"language_2": "PORTUGUES",
			"listen_2": "5",
			"talk_2": "5",
			"read_2": "5",
			"write_2": "5",
			"language_3": "",
			"listen_3": "",
			"talk_3": "",
			"read_3": "",
			"write_3": ""
		},
		"trial_type": "survey-html-form",
		"trial_index": 14,
		"time_elapsed": 816009,
		"internal_node_id": "0.0-14.0"
	},
	{
		"rt": 123802,
		"response": {
			"language_0": "CRIOULA",
			"tv_0": "",
			"radio_0": "",
			"read_fun_0": "",
			"read_work_0": "",
			"write_0": "",
			"social_nets_0": "3",
			"language_1": "FRANCES",
			"tv_1": "",
			"radio_1": "",
			"read_fun_1": "",
			"read_work_1": "",
			"write_1": "",
			"social_nets_1": "3",
			"language_2": "PORTUGUES",
			"tv_2": "1",
			"radio_2": "2",
			"read_fun_2": "",
			"read_work_2": "5",
			"write_2": "5",
			"social_nets_2": "3",
			"language_3": "",
			"tv_3": "",
			"radio_3": "",
			"read_fun_3": "",
			"read_work_3": "",
			"write_3": "",
			"social_nets_3": ""
		},
		"trial_type": "survey-html-form",
		"trial_index": 15,
		"time_elapsed": 939917,
		"internal_node_id": "0.0-15.0"
	},
	{
		"rt": 122710,
		"response": {
			"language_0": "CRIOULA",
			"family_0": "2",
			"friends_0": "2",
			"work_0": "",
			"school_0": "",
			"language_1": "FRANCES",
			"family_1": "2",
			"friends_1": "1",
			"work_1": "",
			"school_1": "",
			"language_2": "PORTUGUES",
			"family_2": "",
			"friends_2": "2",
			"work_2": "",
			"school_2": "5",
			"language_3": "",
			"family_3": "",
			"friends_3": "",
			"work_3": "",
			"school_3": ""
		},
		"trial_type": "survey-html-form",
		"trial_index": 16,
		"time_elapsed": 1062734,
		"internal_node_id": "0.0-16.0"
	},
	{
		"rt": 166737,
		"response": {
			"language_0_0": "PORTUGUES",
			"language_0_1": "CRIOULO",
			"language_0_2": "FRANCES",
			"language_0_3": "FRANCES",
			"language_1_0": "CRIOULO",
			"language_1_1": "PORTUGUES",
			"language_1_2": "CRIOULO",
			"language_1_3": "CRIOULO",
			"language_2_0": "PORTUGUES",
			"language_2_1": "PORTUGUES",
			"language_2_2": "PORTUGUES",
			"language_2_3": "PORTUGUES",
			"language_3_0": "",
			"language_3_1": "",
			"language_3_2": "",
			"language_3_3": ""
		},
		"trial_type": "survey-html-form",
		"trial_index": 17,
		"time_elapsed": 1229576,
		"internal_node_id": "0.0-17.0"
	},
	{
		"rt": 215693,
		"response": {
			"language_2": "PORTUGUES",
			"think_2": "4",
			"selftalk_2": "4",
			"emotions_2": "2",
			"dream_2": "2",
			"math_2": "5",
			"remember_2": "5",
			"pray_2": "4",
			"language_1": "FRANCES",
			"think_1": "5",
			"selftalk_1": "5",
			"emotions_1": "3",
			"dream_1": "4",
			"math_1": "5",
			"remember_1": "5",
			"pray_1": "4",
			"language_3": "",
			"think_3": "",
			"selftalk_3": "",
			"emotions_3": "",
			"dream_3": "",
			"math_3": "",
			"remember_3": "",
			"pray_3": ""
		},
		"trial_type": "survey-html-form",
		"trial_index": 18,
		"time_elapsed": 1445377,
		"internal_node_id": "0.0-18.0"
	},
	{
		"rt": 7916,
		"response": {
			"dificuldade_visao_ou_audicao": "Não"
		},
		"question_order": [
			0
		],
		"trial_type": "survey-multi-choice",
		"trial_index": 19,
		"time_elapsed": 1453396,
		"internal_node_id": "0.0-19.0"
	},
	{
		"rt": 7651,
		"response": {
			"detalhes_dificuldades_audicao_ou_visao": ""
		},
		"trial_type": "survey-text",
		"trial_index": 20,
		"time_elapsed": 1461152,
		"internal_node_id": "0.0-20.0"
	},
	{
		"rt": 17193,
		"response": {
			"additional_info": ""
		},
		"trial_type": "survey-text",
		"trial_index": 21,
		"time_elapsed": 1478449,
		"internal_node_id": "0.0-21.0"
	}
]