[
	{
		"view_history": [
			{
				"page_index": 0,
				"viewing_time": 50300
			},
			{
				"page_index": 1,
				"viewing_time": 20825
			}
		],
		"rt": 71127,
		"trial_type": "instructions",
		"trial_index": 0,
		"time_elapsed": 71130,
		"internal_node_id": "0.0-0.0"
	},
	{
		"rt": null,
		"stimulus": "<span style= \"font-size:30px; font-family: monospace\">+</span>",
		"response": null,
		"trial_part": "fixation",
		"trial_type": "html-keyboard-response",
		"trial_index": 1,
		"time_elapsed": 72234,
		"internal_node_id": "0.0-1.0-0.0-0.0"
	},
	{
		"rt": 8519,
		"stimulus": "<span style=\"font-size:30px; font-family: monospace\">O</span>",
		"response": " ",
		"trial": "prac-sent",
		"word": "O",
		"trial_type": "html-keyboard-response",
		"trial_index": 2,
		"time_elapsed": 81005,
		"internal_node_id": "0.0-1.0-1.0"
	},
	{
		"rt": 2404,
		"stimulus": "<span style=\"font-size:30px; font-family: monospace\">dia</span>",
		"response": " ",
		"trial": "prac-sent",
		"word": "dia",
		"trial_type": "html-keyboard-response",
		"trial_index": 3,
		"time_elapsed": 83661,
		"internal_node_id": "0.0-1.0-1.1"
	},
	{
		"rt": 3614,
		"stimulus": "<span style=\"font-size:30px; font-family: monospace\">estará</span>",
		"response": " ",
		"trial": "prac-sent",
		"word": "estará",
		"trial_type": "html-keyboard-response",
		"trial_index": 4,
		"time_elapsed": 87526,
		"internal_node_id": "0.0-1.0-1.2"
	},
	{
		"rt": 3434,
		"stimulus": "<span style=\"font-size:30px; font-family: monospace\">cheio</span>",
		"response": " ",
		"trial": "prac-sent",
		"word": "cheio",
		"trial_type": "html-keyboard-response",
		"trial_index": 5,
		"time_elapsed": 91212,
		"internal_node_id": "0.0-1.0-1.3"
	},
	{
		"rt": 1686,
		"stimulus": "<span style=\"font-size:30px; font-family: monospace\">de</span>",
		"response": " ",
		"trial": "prac-sent",
		"word": "de",
		"trial_type": "html-keyboard-response",
		"trial_index": 6,
		"time_elapsed": 93150,
		"internal_node_id": "0.0-1.0-1.4"
	},
	{
		"rt": 3096,
		"stimulus": "<span style=\"font-size:30px; font-family: monospace\">nuvens</span>",
		"response": " ",
		"trial": "prac-sent",
		"word": "nuvens",
		"trial_type": "html-keyboard-response",
		"trial_index": 7,
		"time_elapsed": 96497,
		"internal_node_id": "0.0-1.0-1.5"
	},
	{
		"rt": 2800,
		"stimulus": "<span style=\"font-size:30px; font-family: monospace\">hoje.</span>",
		"response": " ",
		"trial": "prac-sent",
		"word": "hoje.",
		"trial_type": "html-keyboard-response",
		"trial_index": 8,
		"time_elapsed": 99549,
		"internal_node_id": "0.0-1.0-1.6"
	},
	{
		"rt": null,
		"stimulus": "<span style= \"font-size:30px; font-family: monospace\">+</span>",
		"response": null,
		"trial_part": "fixation",
		"trial_type": "html-keyboard-response",
		"trial_index": 9,
		"time_elapsed": 100801,
		"internal_node_id": "0.0-1.0-0.7-0.7"
	},
	{
		"rt": 3926,
		"stimulus": "<span style=\"font-size:30px; font-family: monospace\">A</span>",
		"response": " ",
		"trial": "prac-sent",
		"word": "A",
		"trial_type": "html-keyboard-response",
		"trial_index": 10,
		"time_elapsed": 104979,
		"internal_node_id": "0.0-1.0-1.7"
	},
	{
		"rt": 1511,
		"stimulus": "<span style=\"font-size:30px; font-family: monospace\">caneca</span>",
		"response": " ",
		"trial": "prac-sent",
		"word": "caneca",
		"trial_type": "html-keyboard-response",
		"trial_index": 11,
		"time_elapsed": 106741,
		"internal_node_id": "0.0-1.0-1.8"
	},
	{
		"rt": 1081,
		"stimulus": "<span style=\"font-size:30px; font-family: monospace\">colorida</span>",
		"response": " ",
		"trial": "prac-sent",
		"word": "colorida",
		"trial_type": "html-keyboard-response",
		"trial_index": 12,
		"time_elapsed": 108075,
		"internal_node_id": "0.0-1.0-1.9"
	},
	{
		"rt": 647,
		"stimulus": "<span style=\"font-size:30px; font-family: monospace\">caiu</span>",
		"response": " ",
		"trial": "prac-sent",
		"word": "caiu",
		"trial_type": "html-keyboard-response",
		"trial_index": 13,
		"time_elapsed": 108972,
		"internal_node_id": "0.0-1.0-1.10"
	},
	{
		"rt": 548,
		"stimulus": "<span style=\"font-size:30px; font-family: monospace\">da</span>",
		"response": " ",
		"trial": "prac-sent",
		"word": "da",
		"trial_type": "html-keyboard-response",
		"trial_index": 14,
		"time_elapsed": 109772,
		"internal_node_id": "0.0-1.0-1.11"
	},
	{
		"rt": 584,
		"stimulus": "<span style=\"font-size:30px; font-family: monospace\">mesa</span>",
		"response": " ",
		"trial": "prac-sent",
		"word": "mesa",
		"trial_type": "html-keyboard-response",
		"trial_index": 15,
		"time_elapsed": 110608,
		"internal_node_id": "0.0-1.0-1.12"
	},
	{
		"rt": 548,
		"stimulus": "<span style=\"font-size:30px; font-family: monospace\">de</span>",
		"response": " ",
		"trial": "prac-sent",
		"word": "de",
		"trial_type": "html-keyboard-response",
		"trial_index": 16,
		"time_elapsed": 111408,
		"internal_node_id": "0.0-1.0-1.13"
	},
	{
		"rt": 2788,
		"stimulus": "<span style=\"font-size:30px; font-family: monospace\">jantar.</span>",
		"response": " ",
		"trial": "prac-comp",
		"word": "jantar.",
		"trial_type": "html-keyboard-response",
		"trial_index": 17,
		"time_elapsed": 114447,
		"internal_node_id": "0.0-1.0-1.14"
	},
	{
		"rt": 45922,
		"stimulus": "<span style=\"font-size:30px; font-family: monospace\">A caneca permaneceu na mesa?</span>",
		"response": "n",
		"question": "A caneca permaneceu na mesa?",
		"answer": "não",
		"trial": "prac-comp",
		"trial_type": "html-keyboard-response",
		"trial_index": 18,
		"time_elapsed": 160620,
		"internal_node_id": "0.0-1.0-2.14-0.14",
		"accuracy": false
	},
	{
		"view_history": [
			{
				"page_index": 0,
				"viewing_time": 19080
			}
		],
		"rt": 19081,
		"trial_type": "instructions",
		"trial_index": 19,
		"time_elapsed": 180203,
		"internal_node_id": "0.0-2.0"
	},
	{
		"rt": null,
		"stimulus": "<span style= \"font-size:30px; font-family: monospace\">+</span>",
		"response": null,
		"trial_part": "fixation",
		"trial_type": "html-keyboard-response",
		"trial_index": 20,
		"time_elapsed": 181305,
		"internal_node_id": "0.0-3.0-0.0-0.0"
	},
	{
		"rt": 3849,
		"stimulus": "<span style=\"font-size:30px; font-family: monospace\">Ele</span>",
		"response": " ",
		"trial": "exp-sent",
		"word": "Ele",
		"trial_type": "html-keyboard-response",
		"trial_index": 21,
		"time_elapsed": 185406,
		"internal_node_id": "0.0-3.0-1.0"
	},
	{
		"rt": 580,
		"stimulus": "<span style=\"font-size:30px; font-family: monospace\">é</span>",
		"response": " ",
		"trial": "exp-sent",
		"word": "é",
		"trial_type": "html-keyboard-response",
		"trial_index": 22,
		"time_elapsed": 186236,
		"internal_node_id": "0.0-3.0-1.1"
	},
	{
		"rt": 440,
		"stimulus": "<span style=\"font-size:30px; font-family: monospace\">um</span>",
		"response": " ",
		"trial": "exp-sent",
		"word": "um",
		"trial_type": "html-keyboard-response",
		"trial_index": 23,
		"time_elapsed": 186929,
		"internal_node_id": "0.0-3.0-1.2"
	},
	{
		"rt": 415,
		"stimulus": "<span style=\"font-size:30px; font-family: monospace\">pai</span>",
		"response": " ",
		"trial": "exp-sent",
		"word": "pai",
		"trial_type": "html-keyboard-response",
		"trial_index": 24,
		"time_elapsed": 187595,
		"internal_node_id": "0.0-3.0-1.3"
	},
	{
		"rt": 610,
		"stimulus": "<span style=\"font-size:30px; font-family: monospace\">ausente</span>",
		"response": " ",
		"trial": "exp-sent",
		"word": "ausente",
		"trial_type": "html-keyboard-response",
		"trial_index": 25,
		"time_elapsed": 188456,
		"internal_node_id": "0.0-3.0-1.4"
	},
	{
		"rt": 600,
		"stimulus": "<span style=\"font-size:30px; font-family: monospace\">e</span>",
		"response": " ",
		"trial": "exp-sent",
		"word": "e",
		"trial_type": "html-keyboard-response",
		"trial_index": 26,
		"time_elapsed": 189307,
		"internal_node_id": "0.0-3.0-1.5"
	},
	{
		"rt": 576,
		"stimulus": "<span style=\"font-size:30px; font-family: monospace\">muito</span>",
		"response": " ",
		"trial": "exp-sent",
		"word": "muito",
		"trial_type": "html-keyboard-response",
		"trial_index": 27,
		"time_elapsed": 190134,
		"internal_node_id": "0.0-3.0-1.6"
	},
	{
		"rt": 542,
		"stimulus": "<span style=\"font-size:30px; font-family: monospace\">fofoqueiro.</span>",
		"response": " ",
		"trial": "exp-sent",
		"word": "fofoqueiro.",
		"trial_type": "html-keyboard-response",
		"trial_index": 28,
		"time_elapsed": 190927,
		"internal_node_id": "0.0-3.0-1.7"
	},
	{
		"rt": null,
		"stimulus": "<span style= \"font-size:30px; font-family: monospace\">+</span>",
		"response": null,
		"trial_part": "fixation",
		"trial_type": "html-keyboard-response",
		"trial_index": 29,
		"time_elapsed": 192179,
		"internal_node_id": "0.0-3.0-0.8-0.8"
	},
	{
		"rt": 698,
		"stimulus": "<span style=\"font-size:30px; font-family: monospace\">O</span>",
		"response": " ",
		"trial": "exp-sent",
		"word": "O",
		"trial_type": "html-keyboard-response",
		"trial_index": 30,
		"time_elapsed": 193128,
		"internal_node_id": "0.0-3.0-1.8"
	},
	{
		"rt": 1122,
		"stimulus": "<span style=\"font-size:30px; font-family: monospace\">filho</span>",
		"response": " ",
		"trial": "exp-sent",
		"word": "filho",
		"trial_type": "html-keyboard-response",
		"trial_index": 31,
		"time_elapsed": 194501,
		"internal_node_id": "0.0-3.0-1.9"
	},
	{
		"rt": 646,
		"stimulus": "<span style=\"font-size:30px; font-family: monospace\">lavou</span>",
		"response": " ",
		"trial": "exp-sent",
		"word": "lavou",
		"trial_type": "html-keyboard-response",
		"trial_index": 32,
		"time_elapsed": 195399,
		"internal_node_id": "0.0-3.0-1.10"
	},
	{
		"rt": 528,
		"stimulus": "<span style=\"font-size:30px; font-family: monospace\">a</span>",
		"response": " ",
		"trial": "exp-sent",
		"word": "a",
		"trial_type": "html-keyboard-response",
		"trial_index": 33,
		"time_elapsed": 196178,
		"internal_node_id": "0.0-3.0-1.11"
	},
	{
		"rt": 559,
		"stimulus": "<span style=\"font-size:30px; font-family: monospace\">roupa</span>",
		"response": " ",
		"trial": "exp-sent",
		"word": "roupa",
		"trial_type": "html-keyboard-response",
		"trial_index": 34,
		"time_elapsed": 196988,
		"internal_node_id": "0.0-3.0-1.12"
	},
	{
		"rt": 579,
		"stimulus": "<span style=\"font-size:30px; font-family: monospace\">sem</span>",
		"response": " ",
		"trial": "exp-sent",
		"word": "sem",
		"trial_type": "html-keyboard-response",
		"trial_index": 35,
		"time_elapsed": 197819,
		"internal_node_id": "0.0-3.0-1.13"
	},
	{
		"rt": 713,
		"stimulus": "<span style=\"font-size:30px; font-family: monospace\">nenhuma</span>",
		"response": " ",
		"trial": "exp-sent",
		"word": "nenhuma",
		"trial_type": "html-keyboard-response",
		"trial_index": 36,
		"time_elapsed": 198782,
		"internal_node_id": "0.0-3.0-1.14"
	},
	{
		"rt": 687,
		"stimulus": "<span style=\"font-size:30px; font-family: monospace\">ajuda.</span>",
		"response": " ",
		"trial": "exp-sent",
		"word": "ajuda.",
		"trial_type": "html-keyboard-response",
		"trial_index": 37,
		"time_elapsed": 199720,
		"internal_node_id": "0.0-3.0-1.15"
	},
	{
		"rt": null,
		"stimulus": "<span style= \"font-size:30px; font-family: monospace\">+</span>",
		"response": null,
		"trial_part": "fixation",
		"trial_type": "html-keyboard-response",
		"trial_index": 38,
		"time_elapsed": 200972,
		"internal_node_id": "0.0-3.0-0.16-0.16"
	},
	{
		"rt": 726,
		"stimulus": "<span style=\"font-size:30px; font-family: monospace\">O</span>",
		"response": " ",
		"trial": "exp-sent",
		"word": "O",
		"trial_type": "html-keyboard-response",
		"trial_index": 39,
		"time_elapsed": 201950,
		"internal_node_id": "0.0-3.0-1.16"
	},
	{
		"rt": 589,
		"stimulus": "<span style=\"font-size:30px; font-family: monospace\">menino</span>",
		"response": " ",
		"trial": "exp-sent",
		"word": "menino",
		"trial_type": "html-keyboard-response",
		"trial_index": 40,
		"time_elapsed": 202791,
		"internal_node_id": "0.0-3.0-1.17"
	},
	{
		"rt": 709,
		"stimulus": "<span style=\"font-size:30px; font-family: monospace\">quebrou</span>",
		"response": " ",
		"trial": "exp-sent",
		"word": "quebrou",
		"trial_type": "html-keyboard-response",
		"trial_index": 41,
		"time_elapsed": 203750,
		"internal_node_id": "0.0-3.0-1.18"
	},
	{
		"rt": 553,
		"stimulus": "<span style=\"font-size:30px; font-family: monospace\">a</span>",
		"response": " ",
		"trial": "exp-sent",
		"word": "a",
		"trial_type": "html-keyboard-response",
		"trial_index": 42,
		"time_elapsed": 204555,
		"internal_node_id": "0.0-3.0-1.19"
	},
	{
		"rt": 651,
		"stimulus": "<span style=\"font-size:30px; font-family: monospace\">perna</span>",
		"response": " ",
		"trial": "exp-sent",
		"word": "perna",
		"trial_type": "html-keyboard-response",
		"trial_index": 43,
		"time_elapsed": 205457,
		"internal_node_id": "0.0-3.0-1.20"
	},
	{
		"rt": 584,
		"stimulus": "<span style=\"font-size:30px; font-family: monospace\">nos</span>",
		"response": " ",
		"trial": "exp-sent",
		"word": "nos",
		"trial_type": "html-keyboard-response",
		"trial_index": 44,
		"time_elapsed": 206293,
		"internal_node_id": "0.0-3.0-1.21"
	},
	{
		"rt": 928,
		"stimulus": "<span style=\"font-size:30px; font-family: monospace\">esportes.</span>",
		"response": " ",
		"trial": "exp-sent",
		"word": "esportes.",
		"trial_type": "html-keyboard-response",
		"trial_index": 45,
		"time_elapsed": 207472,
		"internal_node_id": "0.0-3.0-1.22"
	},
	{
		"rt": null,
		"stimulus": "<span style= \"font-size:30px; font-family: monospace\">+</span>",
		"response": null,
		"trial_part": "fixation",
		"trial_type": "html-keyboard-response",
		"trial_index": 46,
		"time_elapsed": 208724,
		"internal_node_id": "0.0-3.0-0.23-0.23"
	},
	{
		"rt": 692,
		"stimulus": "<span style=\"font-size:30px; font-family: monospace\">Ela</span>",
		"response": " ",
		"trial": "exp-sent",
		"word": "Ela",
		"trial_type": "html-keyboard-response",
		"trial_index": 47,
		"time_elapsed": 209667,
		"internal_node_id": "0.0-3.0-1.23"
	},
	{
		"rt": 625,
		"stimulus": "<span style=\"font-size:30px; font-family: monospace\">brincou</span>",
		"response": " ",
		"trial": "exp-sent",
		"word": "brincou",
		"trial_type": "html-keyboard-response",
		"trial_index": 48,
		"time_elapsed": 210544,
		"internal_node_id": "0.0-3.0-1.24"
	},
	{
		"rt": 447,
		"stimulus": "<span style=\"font-size:30px; font-family: monospace\">com</span>",
		"response": " ",
		"trial": "exp-sent",
		"word": "com",
		"trial_type": "html-keyboard-response",
		"trial_index": 49,
		"time_elapsed": 211242,
		"internal_node_id": "0.0-3.0-1.25"
	},
	{
		"rt": 435,
		"stimulus": "<span style=\"font-size:30px; font-family: monospace\">uma</span>",
		"response": " ",
		"trial": "exp-sent",
		"word": "uma",
		"trial_type": "html-keyboard-response",
		"trial_index": 50,
		"time_elapsed": 211928,
		"internal_node_id": "0.0-3.0-1.26"
	},
	{
		"rt": 621,
		"stimulus": "<span style=\"font-size:30px; font-family: monospace\">menina</span>",
		"response": " ",
		"trial": "exp-sent",
		"word": "menina",
		"trial_type": "html-keyboard-response",
		"trial_index": 51,
		"time_elapsed": 212800,
		"internal_node_id": "0.0-3.0-1.27"
	},
	{
		"rt": 528,
		"stimulus": "<span style=\"font-size:30px; font-family: monospace\">da</span>",
		"response": " ",
		"trial": "exp-sent",
		"word": "da",
		"trial_type": "html-keyboard-response",
		"trial_index": 52,
		"time_elapsed": 213579,
		"internal_node_id": "0.0-3.0-1.28"
	},
	{
		"rt": 503,
		"stimulus": "<span style=\"font-size:30px; font-family: monospace\">turma.</span>",
		"response": " ",
		"trial": "exp-sent",
		"word": "turma.",
		"trial_type": "html-keyboard-response",
		"trial_index": 53,
		"time_elapsed": 214333,
		"internal_node_id": "0.0-3.0-1.29"
	},
	{
		"rt": null,
		"stimulus": "<span style= \"font-size:30px; font-family: monospace\">+</span>",
		"response": null,
		"trial_part": "fixation",
		"trial_type": "html-keyboard-response",
		"trial_index": 54,
		"time_elapsed": 215586,
		"internal_node_id": "0.0-3.0-0.30-0.30"
	},
	{
		"rt": 619,
		"stimulus": "<span style=\"font-size:30px; font-family: monospace\">Ele</span>",
		"response": " ",
		"trial": "exp-sent",
		"word": "Ele",
		"trial_type": "html-keyboard-response",
		"trial_index": 55,
		"time_elapsed": 216457,
		"internal_node_id": "0.0-3.0-1.30"
	},
	{
		"rt": 594,
		"stimulus": "<span style=\"font-size:30px; font-family: monospace\">esteve</span>",
		"response": " ",
		"trial": "exp-sent",
		"word": "esteve",
		"trial_type": "html-keyboard-response",
		"trial_index": 56,
		"time_elapsed": 217303,
		"internal_node_id": "0.0-3.0-1.31"
	},
	{
		"rt": 523,
		"stimulus": "<span style=\"font-size:30px; font-family: monospace\">no</span>",
		"response": " ",
		"trial": "exp-sent",
		"word": "no",
		"trial_type": "html-keyboard-response",
		"trial_index": 57,
		"time_elapsed": 218077,
		"internal_node_id": "0.0-3.0-1.32"
	},
	{
		"rt": 867,
		"stimulus": "<span style=\"font-size:30px; font-family: monospace\">escritório</span>",
		"response": " ",
		"trial": "exp-sent",
		"word": "escritório",
		"trial_type": "html-keyboard-response",
		"trial_index": 58,
		"time_elapsed": 219195,
		"internal_node_id": "0.0-3.0-1.33"
	},
	{
		"rt": 574,
		"stimulus": "<span style=\"font-size:30px; font-family: monospace\">o</span>",
		"response": " ",
		"trial": "exp-sent",
		"word": "o",
		"trial_type": "html-keyboard-response",
		"trial_index": 59,
		"time_elapsed": 220020,
		"internal_node_id": "0.0-3.0-1.34"
	},
	{
		"rt": 529,
		"stimulus": "<span style=\"font-size:30px; font-family: monospace\">dia</span>",
		"response": " ",
		"trial": "exp-sent",
		"word": "dia",
		"trial_type": "html-keyboard-response",
		"trial_index": 60,
		"time_elapsed": 220801,
		"internal_node_id": "0.0-3.0-1.35"
	},
	{
		"rt": 596,
		"stimulus": "<span style=\"font-size:30px; font-family: monospace\">inteiro.</span>",
		"response": " ",
		"trial": "comp",
		"word": "inteiro.",
		"trial_type": "html-keyboard-response",
		"trial_index": 61,
		"time_elapsed": 221647,
		"internal_node_id": "0.0-3.0-1.36"
	},
	{
		"rt": 7183,
		"stimulus": "<span style=\"font-size:30px; font-family: monospace\">Ele esteve no parque o dia inteiro?</span>",
		"response": "n",
		"question": "Ele esteve no parque o dia inteiro?",
		"answer": "não",
		"trial": "comp",
		"trial_type": "html-keyboard-response",
		"trial_index": 62,
		"time_elapsed": 229081,
		"internal_node_id": "0.0-3.0-2.36-0.36",
		"accuracy": false
	},
	{
		"rt": null,
		"stimulus": "<span style= \"font-size:30px; font-family: monospace\">+</span>",
		"response": null,
		"trial_part": "fixation",
		"trial_type": "html-keyboard-response",
		"trial_index": 63,
		"time_elapsed": 230583,
		"internal_node_id": "0.0-3.0-0.37-0.37"
	},
	{
		"rt": 2269,
		"stimulus": "<span style=\"font-size:30px; font-family: monospace\">A</span>",
		"response": " ",
		"trial": "exp-sent",
		"word": "A",
		"trial_type": "html-keyboard-response",
		"trial_index": 64,
		"time_elapsed": 233104,
		"internal_node_id": "0.0-3.0-1.37"
	},
	{
		"rt": 439,
		"stimulus": "<span style=\"font-size:30px; font-family: monospace\">motorista</span>",
		"response": " ",
		"trial": "exp-sent",
		"word": "motorista",
		"trial_type": "html-keyboard-response",
		"trial_index": 65,
		"time_elapsed": 233794,
		"internal_node_id": "0.0-3.0-1.38"
	},
	{
		"rt": 411,
		"stimulus": "<span style=\"font-size:30px; font-family: monospace\">fez</span>",
		"response": " ",
		"trial": "exp-sent",
		"word": "fez",
		"trial_type": "html-keyboard-response",
		"trial_index": 66,
		"time_elapsed": 234457,
		"internal_node_id": "0.0-3.0-1.39"
	},
	{
		"rt": 349,
		"stimulus": "<span style=\"font-size:30px; font-family: monospace\">o</span>",
		"response": " ",
		"trial": "exp-sent",
		"word": "o",
		"trial_type": "html-keyboard-response",
		"trial_index": 67,
		"time_elapsed": 235057,
		"internal_node_id": "0.0-3.0-1.40"
	},
	{
		"rt": 395,
		"stimulus": "<span style=\"font-size:30px; font-family: monospace\">retorno</span>",
		"response": " ",
		"trial": "exp-sent",
		"word": "retorno",
		"trial_type": "html-keyboard-response",
		"trial_index": 68,
		"time_elapsed": 235704,
		"internal_node_id": "0.0-3.0-1.41"
	},
	{
		"rt": 333,
		"stimulus": "<span style=\"font-size:30px; font-family: monospace\">com</span>",
		"response": " ",
		"trial": "exp-sent",
		"word": "com",
		"trial_type": "html-keyboard-response",
		"trial_index": 69,
		"time_elapsed": 236288,
		"internal_node_id": "0.0-3.0-1.42"
	},
	{
		"rt": 395,
		"stimulus": "<span style=\"font-size:30px; font-family: monospace\">cuidado.</span>",
		"response": " ",
		"trial": "exp-sent",
		"word": "cuidado.",
		"trial_type": "html-keyboard-response",
		"trial_index": 70,
		"time_elapsed": 236934,
		"internal_node_id": "0.0-3.0-1.43"
	},
	{
		"rt": null,
		"stimulus": "<span style= \"font-size:30px; font-family: monospace\">+</span>",
		"response": null,
		"trial_part": "fixation",
		"trial_type": "html-keyboard-response",
		"trial_index": 71,
		"time_elapsed": 238186,
		"internal_node_id": "0.0-3.0-0.44-0.44"
	},
	{
		"rt": 526,
		"stimulus": "<span style=\"font-size:30px; font-family: monospace\">Contos</span>",
		"response": " ",
		"trial": "exp-sent",
		"word": "Contos",
		"trial_type": "html-keyboard-response",
		"trial_index": 72,
		"time_elapsed": 238963,
		"internal_node_id": "0.0-3.0-1.44"
	},
	{
		"rt": 2164,
		"stimulus": "<span style=\"font-size:30px; font-family: monospace\">de</span>",
		"response": " ",
		"trial": "exp-sent",
		"word": "de",
		"trial_type": "html-keyboard-response",
		"trial_index": 73,
		"time_elapsed": 241378,
		"internal_node_id": "0.0-3.0-1.45"
	},
	{
		"rt": 652,
		"stimulus": "<span style=\"font-size:30px; font-family: monospace\">ação</span>",
		"response": " ",
		"trial": "exp-sent",
		"word": "ação",
		"trial_type": "html-keyboard-response",
		"trial_index": 74,
		"time_elapsed": 242280,
		"internal_node_id": "0.0-3.0-1.46"
	},
	{
		"rt": 652,
		"stimulus": "<span style=\"font-size:30px; font-family: monospace\">têm</span>",
		"response": " ",
		"trial": "exp-sent",
		"word": "têm",
		"trial_type": "html-keyboard-response",
		"trial_index": 75,
		"time_elapsed": 243183,
		"internal_node_id": "0.0-3.0-1.47"
	},
	{
		"rt": 1066,
		"stimulus": "<span style=\"font-size:30px; font-family: monospace\">chantagem</span>",
		"response": " ",
		"trial": "exp-sent",
		"word": "chantagem",
		"trial_type": "html-keyboard-response",
		"trial_index": 76,
		"time_elapsed": 244500,
		"internal_node_id": "0.0-3.0-1.48"
	},
	{
		"rt": 646,
		"stimulus": "<span style=\"font-size:30px; font-family: monospace\">e</span>",
		"response": " ",
		"trial": "exp-sent",
		"word": "e",
		"trial_type": "html-keyboard-response",
		"trial_index": 77,
		"time_elapsed": 245398,
		"internal_node_id": "0.0-3.0-1.49"
	},
	{
		"rt": 656,
		"stimulus": "<span style=\"font-size:30px; font-family: monospace\">muita</span>",
		"response": " ",
		"trial": "exp-sent",
		"word": "muita",
		"trial_type": "html-keyboard-response",
		"trial_index": 78,
		"time_elapsed": 246305,
		"internal_node_id": "0.0-3.0-1.50"
	},
	{
		"rt": 605,
		"stimulus": "<span style=\"font-size:30px; font-family: monospace\">luta.</span>",
		"response": " ",
		"trial": "exp-sent",
		"word": "luta.",
		"trial_type": "html-keyboard-response",
		"trial_index": 79,
		"time_elapsed": 247162,
		"internal_node_id": "0.0-3.0-1.51"
	},
	{
		"rt": null,
		"stimulus": "<span style= \"font-size:30px; font-family: monospace\">+</span>",
		"response": null,
		"trial_part": "fixation",
		"trial_type": "html-keyboard-response",
		"trial_index": 80,
		"time_elapsed": 248413,
		"internal_node_id": "0.0-3.0-0.52-0.52"
	},
	{
		"rt": 630,
		"stimulus": "<span style=\"font-size:30px; font-family: monospace\">A</span>",
		"response": " ",
		"trial": "exp-sent",
		"word": "A",
		"trial_type": "html-keyboard-response",
		"trial_index": 81,
		"time_elapsed": 249294,
		"internal_node_id": "0.0-3.0-1.52"
	},
	{
		"rt": 943,
		"stimulus": "<span style=\"font-size:30px; font-family: monospace\">bisavó</span>",
		"response": " ",
		"trial": "exp-sent",
		"word": "bisavó",
		"trial_type": "html-keyboard-response",
		"trial_index": 82,
		"time_elapsed": 250489,
		"internal_node_id": "0.0-3.0-1.53"
	},
	{
		"rt": 693,
		"stimulus": "<span style=\"font-size:30px; font-family: monospace\">recebeu</span>",
		"response": " ",
		"trial": "exp-sent",
		"word": "recebeu",
		"trial_type": "html-keyboard-response",
		"trial_index": 83,
		"time_elapsed": 251432,
		"internal_node_id": "0.0-3.0-1.54"
	},
	{
		"rt": 518,
		"stimulus": "<span style=\"font-size:30px; font-family: monospace\">um</span>",
		"response": " ",
		"trial": "exp-sent",
		"word": "um",
		"trial_type": "html-keyboard-response",
		"trial_index": 84,
		"time_elapsed": 252202,
		"internal_node_id": "0.0-3.0-1.55"
	},
	{
		"rt": 842,
		"stimulus": "<span style=\"font-size:30px; font-family: monospace\">benefício</span>",
		"response": " ",
		"trial": "exp-sent",
		"word": "benefício",
		"trial_type": "html-keyboard-response",
		"trial_index": 85,
		"time_elapsed": 253294,
		"internal_node_id": "0.0-3.0-1.56"
	},
	{
		"rt": 737,
		"stimulus": "<span style=\"font-size:30px; font-family: monospace\">temporário</span>",
		"response": " ",
		"trial": "exp-sent",
		"word": "temporário",
		"trial_type": "html-keyboard-response",
		"trial_index": 86,
		"time_elapsed": 254283,
		"internal_node_id": "0.0-3.0-1.57"
	},
	{
		"rt": 630,
		"stimulus": "<span style=\"font-size:30px; font-family: monospace\">do</span>",
		"response": " ",
		"trial": "exp-sent",
		"word": "do",
		"trial_type": "html-keyboard-response",
		"trial_index": 87,
		"time_elapsed": 255165,
		"internal_node_id": "0.0-3.0-1.58"
	},
	{
		"rt": 933,
		"stimulus": "<span style=\"font-size:30px; font-family: monospace\">governo.</span>",
		"response": " ",
		"trial": "exp-sent",
		"word": "governo.",
		"trial_type": "html-keyboard-response",
		"trial_index": 88,
		"time_elapsed": 256350,
		"internal_node_id": "0.0-3.0-1.59"
	},
	{
		"rt": null,
		"stimulus": "<span style= \"font-size:30px; font-family: monospace\">+</span>",
		"response": null,
		"trial_part": "fixation",
		"trial_type": "html-keyboard-response",
		"trial_index": 89,
		"time_elapsed": 257602,
		"internal_node_id": "0.0-3.0-0.60-0.60"
	},
	{
		"rt": 614,
		"stimulus": "<span style=\"font-size:30px; font-family: monospace\">As</span>",
		"response": " ",
		"trial": "exp-sent",
		"word": "As",
		"trial_type": "html-keyboard-response",
		"trial_index": 90,
		"time_elapsed": 258467,
		"internal_node_id": "0.0-3.0-1.60"
	},
	{
		"rt": 554,
		"stimulus": "<span style=\"font-size:30px; font-family: monospace\">crianças</span>",
		"response": " ",
		"trial": "exp-sent",
		"word": "crianças",
		"trial_type": "html-keyboard-response",
		"trial_index": 91,
		"time_elapsed": 259272,
		"internal_node_id": "0.0-3.0-1.61"
	},
	{
		"rt": 601,
		"stimulus": "<span style=\"font-size:30px; font-family: monospace\">brincaram</span>",
		"response": " ",
		"trial": "exp-sent",
		"word": "brincaram",
		"trial_type": "html-keyboard-response",
		"trial_index": 92,
		"time_elapsed": 260124,
		"internal_node_id": "0.0-3.0-1.62"
	},
	{
		"rt": 492,
		"stimulus": "<span style=\"font-size:30px; font-family: monospace\">no</span>",
		"response": " ",
		"trial": "exp-sent",
		"word": "no",
		"trial_type": "html-keyboard-response",
		"trial_index": 93,
		"time_elapsed": 260866,
		"internal_node_id": "0.0-3.0-1.63"
	},
	{
		"rt": 611,
		"stimulus": "<span style=\"font-size:30px; font-family: monospace\">balanço</span>",
		"response": " ",
		"trial": "exp-sent",
		"word": "balanço",
		"trial_type": "html-keyboard-response",
		"trial_index": 94,
		"time_elapsed": 261728,
		"internal_node_id": "0.0-3.0-1.64"
	},
	{
		"rt": 554,
		"stimulus": "<span style=\"font-size:30px; font-family: monospace\">a</span>",
		"response": " ",
		"trial": "exp-sent",
		"word": "a",
		"trial_type": "html-keyboard-response",
		"trial_index": 95,
		"time_elapsed": 262533,
		"internal_node_id": "0.0-3.0-1.65"
	},
	{
		"rt": 595,
		"stimulus": "<span style=\"font-size:30px; font-family: monospace\">tarde</span>",
		"response": " ",
		"trial": "exp-sent",
		"word": "tarde",
		"trial_type": "html-keyboard-response",
		"trial_index": 96,
		"time_elapsed": 263379,
		"internal_node_id": "0.0-3.0-1.66"
	},
	{
		"rt": 487,
		"stimulus": "<span style=\"font-size:30px; font-family: monospace\">toda.</span>",
		"response": " ",
		"trial": "exp-sent",
		"word": "toda.",
		"trial_type": "html-keyboard-response",
		"trial_index": 97,
		"time_elapsed": 264117,
		"internal_node_id": "0.0-3.0-1.67"
	},
	{
		"rt": null,
		"stimulus": "<span style= \"font-size:30px; font-family: monospace\">+</span>",
		"response": null,
		"trial_part": "fixation",
		"trial_type": "html-keyboard-response",
		"trial_index": 98,
		"time_elapsed": 265369,
		"internal_node_id": "0.0-3.0-0.68-0.68"
	},
	{
		"rt": 650,
		"stimulus": "<span style=\"font-size:30px; font-family: monospace\">Ela</span>",
		"response": " ",
		"trial": "exp-sent",
		"word": "Ela",
		"trial_type": "html-keyboard-response",
		"trial_index": 99,
		"time_elapsed": 266271,
		"internal_node_id": "0.0-3.0-1.68"
	},
	{
		"rt": 693,
		"stimulus": "<span style=\"font-size:30px; font-family: monospace\">gosta</span>",
		"response": " ",
		"trial": "exp-sent",
		"word": "gosta",
		"trial_type": "html-keyboard-response",
		"trial_index": 100,
		"time_elapsed": 267215,
		"internal_node_id": "0.0-3.0-1.69"
	},
	{
		"rt": 696,
		"stimulus": "<span style=\"font-size:30px; font-family: monospace\">de</span>",
		"response": " ",
		"trial": "exp-sent",
		"word": "de",
		"trial_type": "html-keyboard-response",
		"trial_index": 101,
		"time_elapsed": 268163,
		"internal_node_id": "0.0-3.0-1.70"
	},
	{
		"rt": 472,
		"stimulus": "<span style=\"font-size:30px; font-family: monospace\">comida</span>",
		"response": " ",
		"trial": "exp-sent",
		"word": "comida",
		"trial_type": "html-keyboard-response",
		"trial_index": 102,
		"time_elapsed": 268886,
		"internal_node_id": "0.0-3.0-1.71"
	},
	{
		"rt": 645,
		"stimulus": "<span style=\"font-size:30px; font-family: monospace\">natural</span>",
		"response": " ",
		"trial": "exp-sent",
		"word": "natural",
		"trial_type": "html-keyboard-response",
		"trial_index": 103,
		"time_elapsed": 269782,
		"internal_node_id": "0.0-3.0-1.72"
	},
	{
		"rt": 616,
		"stimulus": "<span style=\"font-size:30px; font-family: monospace\">no</span>",
		"response": " ",
		"trial": "exp-sent",
		"word": "no",
		"trial_type": "html-keyboard-response",
		"trial_index": 104,
		"time_elapsed": 270649,
		"internal_node_id": "0.0-3.0-1.73"
	},
	{
		"rt": 615,
		"stimulus": "<span style=\"font-size:30px; font-family: monospace\">almoço.</span>",
		"response": " ",
		"trial": "comp",
		"word": "almoço.",
		"trial_type": "html-keyboard-response",
		"trial_index": 105,
		"time_elapsed": 271516,
		"internal_node_id": "0.0-3.0-1.74"
	},
	{
		"rt": 4655,
		"stimulus": "<span style=\"font-size:30px; font-family: monospace\">Ela gosta de comida natural no almoço?</span>",
		"response": "s",
		"question": "Ela gosta de comida natural no almoço?",
		"answer": "sim",
		"trial": "comp",
		"trial_type": "html-keyboard-response",
		"trial_index": 106,
		"time_elapsed": 276422,
		"internal_node_id": "0.0-3.0-2.74-0.74",
		"accuracy": false
	},
	{
		"rt": null,
		"stimulus": "<span style= \"font-size:30px; font-family: monospace\">+</span>",
		"response": null,
		"trial_part": "fixation",
		"trial_type": "html-keyboard-response",
		"trial_index": 107,
		"time_elapsed": 277923,
		"internal_node_id": "0.0-3.0-0.75-0.75"
	},
	{
		"rt": 993,
		"stimulus": "<span style=\"font-size:30px; font-family: monospace\">O</span>",
		"response": " ",
		"trial": "exp-sent",
		"word": "O",
		"trial_type": "html-keyboard-response",
		"trial_index": 108,
		"time_elapsed": 279168,
		"internal_node_id": "0.0-3.0-1.75"
	},
	{
		"rt": 492,
		"stimulus": "<span style=\"font-size:30px; font-family: monospace\">moço</span>",
		"response": " ",
		"trial": "exp-sent",
		"word": "moço",
		"trial_type": "html-keyboard-response",
		"trial_index": 109,
		"time_elapsed": 279911,
		"internal_node_id": "0.0-3.0-1.76"
	},
	{
		"rt": 446,
		"stimulus": "<span style=\"font-size:30px; font-family: monospace\">usou</span>",
		"response": " ",
		"trial": "exp-sent",
		"word": "usou",
		"trial_type": "html-keyboard-response",
		"trial_index": 110,
		"time_elapsed": 280609,
		"internal_node_id": "0.0-3.0-1.77"
	},
	{
		"rt": 400,
		"stimulus": "<span style=\"font-size:30px; font-family: monospace\">várias</span>",
		"response": " ",
		"trial": "exp-sent",
		"word": "várias",
		"trial_type": "html-keyboard-response",
		"trial_index": 111,
		"time_elapsed": 281260,
		"internal_node_id": "0.0-3.0-1.78"
	},
	{
		"rt": 396,
		"stimulus": "<span style=\"font-size:30px; font-family: monospace\">velas</span>",
		"response": " ",
		"trial": "exp-sent",
		"word": "velas",
		"trial_type": "html-keyboard-response",
		"trial_index": 112,
		"time_elapsed": 281907,
		"internal_node_id": "0.0-3.0-1.79"
	},
	{
		"rt": 537,
		"stimulus": "<span style=\"font-size:30px; font-family: monospace\">no</span>",
		"response": " ",
		"trial": "exp-sent",
		"word": "no",
		"trial_type": "html-keyboard-response",
		"trial_index": 113,
		"time_elapsed": 282696,
		"internal_node_id": "0.0-3.0-1.80"
	},
	{
		"rt": 646,
		"stimulus": "<span style=\"font-size:30px; font-family: monospace\">enfeite</span>",
		"response": " ",
		"trial": "exp-sent",
		"word": "enfeite",
		"trial_type": "html-keyboard-response",
		"trial_index": 114,
		"time_elapsed": 283593,
		"internal_node_id": "0.0-3.0-1.81"
	},
	{
		"rt": 738,
		"stimulus": "<span style=\"font-size:30px; font-family: monospace\">de</span>",
		"response": " ",
		"trial": "exp-sent",
		"word": "de",
		"trial_type": "html-keyboard-response",
		"trial_index": 115,
		"time_elapsed": 284583,
		"internal_node_id": "0.0-3.0-1.82"
	},
	{
		"rt": 574,
		"stimulus": "<span style=\"font-size:30px; font-family: monospace\">mesa.</span>",
		"response": " ",
		"trial": "exp-sent",
		"word": "mesa.",
		"trial_type": "html-keyboard-response",
		"trial_index": 116,
		"time_elapsed": 285409,
		"internal_node_id": "0.0-3.0-1.83"
	},
	{
		"rt": null,
		"stimulus": "<span style= \"font-size:30px; font-family: monospace\">+</span>",
		"response": null,
		"trial_part": "fixation",
		"trial_type": "html-keyboard-response",
		"trial_index": 117,
		"time_elapsed": 286661,
		"internal_node_id": "0.0-3.0-0.84-0.84"
	},
	{
		"rt": 1793,
		"stimulus": "<span style=\"font-size:30px; font-family: monospace\">Gostamos</span>",
		"response": " ",
		"trial": "exp-sent",
		"word": "Gostamos",
		"trial_type": "html-keyboard-response",
		"trial_index": 118,
		"time_elapsed": 288706,
		"internal_node_id": "0.0-3.0-1.84"
	},
	{
		"rt": 529,
		"stimulus": "<span style=\"font-size:30px; font-family: monospace\">de</span>",
		"response": " ",
		"trial": "exp-sent",
		"word": "de",
		"trial_type": "html-keyboard-response",
		"trial_index": 119,
		"time_elapsed": 289486,
		"internal_node_id": "0.0-3.0-1.85"
	},
	{
		"rt": 518,
		"stimulus": "<span style=\"font-size:30px; font-family: monospace\">suco</span>",
		"response": " ",
		"trial": "exp-sent",
		"word": "suco",
		"trial_type": "html-keyboard-response",
		"trial_index": 120,
		"time_elapsed": 290255,
		"internal_node_id": "0.0-3.0-1.86"
	},
	{
		"rt": 569,
		"stimulus": "<span style=\"font-size:30px; font-family: monospace\">em</span>",
		"response": " ",
		"trial": "exp-sent",
		"word": "em",
		"trial_type": "html-keyboard-response",
		"trial_index": 121,
		"time_elapsed": 291076,
		"internal_node_id": "0.0-3.0-1.87"
	},
	{
		"rt": 706,
		"stimulus": "<span style=\"font-size:30px; font-family: monospace\">garrafa</span>",
		"response": " ",
		"trial": "exp-sent",
		"word": "garrafa",
		"trial_type": "html-keyboard-response",
		"trial_index": 122,
		"time_elapsed": 292033,
		"internal_node_id": "0.0-3.0-1.88"
	},
	{
		"rt": 652,
		"stimulus": "<span style=\"font-size:30px; font-family: monospace\">de</span>",
		"response": " ",
		"trial": "exp-sent",
		"word": "de",
		"trial_type": "html-keyboard-response",
		"trial_index": 123,
		"time_elapsed": 292937,
		"internal_node_id": "0.0-3.0-1.89"
	},
	{
		"rt": 1075,
		"stimulus": "<span style=\"font-size:30px; font-family: monospace\">tamanho</span>",
		"response": " ",
		"trial": "exp-sent",
		"word": "tamanho",
		"trial_type": "html-keyboard-response",
		"trial_index": 124,
		"time_elapsed": 294264,
		"internal_node_id": "0.0-3.0-1.90"
	},
	{
		"rt": 857,
		"stimulus": "<span style=\"font-size:30px; font-family: monospace\">pequeno.</span>",
		"response": " ",
		"trial": "exp-sent",
		"word": "pequeno.",
		"trial_type": "html-keyboard-response",
		"trial_index": 125,
		"time_elapsed": 295371,
		"internal_node_id": "0.0-3.0-1.91"
	},
	{
		"rt": null,
		"stimulus": "<span style= \"font-size:30px; font-family: monospace\">+</span>",
		"response": null,
		"trial_part": "fixation",
		"trial_type": "html-keyboard-response",
		"trial_index": 126,
		"time_elapsed": 296623,
		"internal_node_id": "0.0-3.0-0.92-0.92"
	},
	{
		"rt": 605,
		"stimulus": "<span style=\"font-size:30px; font-family: monospace\">Sua</span>",
		"response": " ",
		"trial": "exp-sent",
		"word": "Sua",
		"trial_type": "html-keyboard-response",
		"trial_index": 127,
		"time_elapsed": 297480,
		"internal_node_id": "0.0-3.0-1.92"
	},
	{
		"rt": 722,
		"stimulus": "<span style=\"font-size:30px; font-family: monospace\">filha</span>",
		"response": " ",
		"trial": "exp-sent",
		"word": "filha",
		"trial_type": "html-keyboard-response",
		"trial_index": 128,
		"time_elapsed": 298453,
		"internal_node_id": "0.0-3.0-1.93"
	},
	{
		"rt": 753,
		"stimulus": "<span style=\"font-size:30px; font-family: monospace\">é</span>",
		"response": " ",
		"trial": "exp-sent",
		"word": "é",
		"trial_type": "html-keyboard-response",
		"trial_index": 129,
		"time_elapsed": 299458,
		"internal_node_id": "0.0-3.0-1.94"
	},
	{
		"rt": 850,
		"stimulus": "<span style=\"font-size:30px; font-family: monospace\">muito</span>",
		"response": " ",
		"trial": "exp-sent",
		"word": "muito",
		"trial_type": "html-keyboard-response",
		"trial_index": 130,
		"time_elapsed": 300560,
		"internal_node_id": "0.0-3.0-1.95"
	},
	{
		"rt": 969,
		"stimulus": "<span style=\"font-size:30px; font-family: monospace\">capaz</span>",
		"response": " ",
		"trial": "exp-sent",
		"word": "capaz",
		"trial_type": "html-keyboard-response",
		"trial_index": 131,
		"time_elapsed": 301780,
		"internal_node_id": "0.0-3.0-1.96"
	},
	{
		"rt": 907,
		"stimulus": "<span style=\"font-size:30px; font-family: monospace\">e</span>",
		"response": " ",
		"trial": "exp-sent",
		"word": "e",
		"trial_type": "html-keyboard-response",
		"trial_index": 132,
		"time_elapsed": 302939,
		"internal_node_id": "0.0-3.0-1.97"
	},
	{
		"rt": 1625,
		"stimulus": "<span style=\"font-size:30px; font-family: monospace\">esforçada.</span>",
		"response": " ",
		"trial": "exp-sent",
		"word": "esforçada.",
		"trial_type": "html-keyboard-response",
		"trial_index": 133,
		"time_elapsed": 304816,
		"internal_node_id": "0.0-3.0-1.98"
	},
	{
		"rt": null,
		"stimulus": "<span style= \"font-size:30px; font-family: monospace\">+</span>",
		"response": null,
		"trial_part": "fixation",
		"trial_type": "html-keyboard-response",
		"trial_index": 134,
		"time_elapsed": 306068,
		"internal_node_id": "0.0-3.0-0.99-0.99"
	},
	{
		"rt": 809,
		"stimulus": "<span style=\"font-size:30px; font-family: monospace\">A</span>",
		"response": " ",
		"trial": "exp-sent",
		"word": "A",
		"trial_type": "html-keyboard-response",
		"trial_index": 135,
		"time_elapsed": 307128,
		"internal_node_id": "0.0-3.0-1.99"
	},
	{
		"rt": 904,
		"stimulus": "<span style=\"font-size:30px; font-family: monospace\">batida</span>",
		"response": " ",
		"trial": "exp-sent",
		"word": "batida",
		"trial_type": "html-keyboard-response",
		"trial_index": 136,
		"time_elapsed": 308283,
		"internal_node_id": "0.0-3.0-1.100"
	},
	{
		"rt": 758,
		"stimulus": "<span style=\"font-size:30px; font-family: monospace\">causou</span>",
		"response": " ",
		"trial": "exp-sent",
		"word": "causou",
		"trial_type": "html-keyboard-response",
		"trial_index": 137,
		"time_elapsed": 309292,
		"internal_node_id": "0.0-3.0-1.101"
	},
	{
		"rt": 764,
		"stimulus": "<span style=\"font-size:30px; font-family: monospace\">muita</span>",
		"response": " ",
		"trial": "exp-sent",
		"word": "muita",
		"trial_type": "html-keyboard-response",
		"trial_index": 138,
		"time_elapsed": 310308,
		"internal_node_id": "0.0-3.0-1.102"
	},
	{
		"rt": 727,
		"stimulus": "<span style=\"font-size:30px; font-family: monospace\">confusão</span>",
		"response": " ",
		"trial": "exp-sent",
		"word": "confusão",
		"trial_type": "html-keyboard-response",
		"trial_index": 139,
		"time_elapsed": 311287,
		"internal_node_id": "0.0-3.0-1.103"
	},
	{
		"rt": 681,
		"stimulus": "<span style=\"font-size:30px; font-family: monospace\">na</span>",
		"response": " ",
		"trial": "exp-sent",
		"word": "na",
		"trial_type": "html-keyboard-response",
		"trial_index": 140,
		"time_elapsed": 312220,
		"internal_node_id": "0.0-3.0-1.104"
	},
	{
		"rt": 933,
		"stimulus": "<span style=\"font-size:30px; font-family: monospace\">estrada.</span>",
		"response": " ",
		"trial": "exp-sent",
		"word": "estrada.",
		"trial_type": "html-keyboard-response",
		"trial_index": 141,
		"time_elapsed": 313404,
		"internal_node_id": "0.0-3.0-1.105"
	},
	{
		"rt": null,
		"stimulus": "<span style= \"font-size:30px; font-family: monospace\">+</span>",
		"response": null,
		"trial_part": "fixation",
		"trial_type": "html-keyboard-response",
		"trial_index": 142,
		"time_elapsed": 314656,
		"internal_node_id": "0.0-3.0-0.106-0.106"
	},
	{
		"rt": 758,
		"stimulus": "<span style=\"font-size:30px; font-family: monospace\">Eu</span>",
		"response": " ",
		"trial": "exp-sent",
		"word": "Eu",
		"trial_type": "html-keyboard-response",
		"trial_index": 143,
		"time_elapsed": 315665,
		"internal_node_id": "0.0-3.0-1.106"
	},
	{
		"rt": 867,
		"stimulus": "<span style=\"font-size:30px; font-family: monospace\">cozinhei</span>",
		"response": " ",
		"trial": "exp-sent",
		"word": "cozinhei",
		"trial_type": "html-keyboard-response",
		"trial_index": 144,
		"time_elapsed": 316783,
		"internal_node_id": "0.0-3.0-1.107"
	},
	{
		"rt": 580,
		"stimulus": "<span style=\"font-size:30px; font-family: monospace\">um</span>",
		"response": " ",
		"trial": "exp-sent",
		"word": "um",
		"trial_type": "html-keyboard-response",
		"trial_index": 145,
		"time_elapsed": 317614,
		"internal_node_id": "0.0-3.0-1.108"
	},
	{
		"rt": 642,
		"stimulus": "<span style=\"font-size:30px; font-family: monospace\">almoço</span>",
		"response": " ",
		"trial": "exp-sent",
		"word": "almoço",
		"trial_type": "html-keyboard-response",
		"trial_index": 146,
		"time_elapsed": 318507,
		"internal_node_id": "0.0-3.0-1.109"
	},
	{
		"rt": 912,
		"stimulus": "<span style=\"font-size:30px; font-family: monospace\">nutritivo</span>",
		"response": " ",
		"trial": "exp-sent",
		"word": "nutritivo",
		"trial_type": "html-keyboard-response",
		"trial_index": 147,
		"time_elapsed": 319670,
		"internal_node_id": "0.0-3.0-1.110"
	},
	{
		"rt": 518,
		"stimulus": "<span style=\"font-size:30px; font-family: monospace\">para</span>",
		"response": " ",
		"trial": "exp-sent",
		"word": "para",
		"trial_type": "html-keyboard-response",
		"trial_index": 148,
		"time_elapsed": 320439,
		"internal_node_id": "0.0-3.0-1.111"
	},
	{
		"rt": 507,
		"stimulus": "<span style=\"font-size:30px; font-family: monospace\">hoje.</span>",
		"response": " ",
		"trial": "comp",
		"word": "hoje.",
		"trial_type": "html-keyboard-response",
		"trial_index": 149,
		"time_elapsed": 321198,
		"internal_node_id": "0.0-3.0-1.112"
	},
	{
		"rt": 3568,
		"stimulus": "<span style=\"font-size:30px; font-family: monospace\">O almoço era nutritivo?</span>",
		"response": "s",
		"question": "O almoço era nutritivo?",
		"answer": "sim",
		"trial": "comp",
		"trial_type": "html-keyboard-response",
		"trial_index": 150,
		"time_elapsed": 325018,
		"internal_node_id": "0.0-3.0-2.112-0.112",
		"accuracy": false
	},
	{
		"rt": null,
		"stimulus": "<span style= \"font-size:30px; font-family: monospace\">+</span>",
		"response": null,
		"trial_part": "fixation",
		"trial_type": "html-keyboard-response",
		"trial_index": 151,
		"time_elapsed": 326519,
		"internal_node_id": "0.0-3.0-0.113-0.113"
	},
	{
		"rt": 2285,
		"stimulus": "<span style=\"font-size:30px; font-family: monospace\">Ursos</span>",
		"response": " ",
		"trial": "exp-sent",
		"word": "Ursos",
		"trial_type": "html-keyboard-response",
		"trial_index": 152,
		"time_elapsed": 329056,
		"internal_node_id": "0.0-3.0-1.113"
	},
	{
		"rt": 574,
		"stimulus": "<span style=\"font-size:30px; font-family: monospace\">têm</span>",
		"response": " ",
		"trial": "exp-sent",
		"word": "têm",
		"trial_type": "html-keyboard-response",
		"trial_index": 153,
		"time_elapsed": 329881,
		"internal_node_id": "0.0-3.0-1.114"
	},
	{
		"rt": 794,
		"stimulus": "<span style=\"font-size:30px; font-family: monospace\">uma</span>",
		"response": " ",
		"trial": "exp-sent",
		"word": "uma",
		"trial_type": "html-keyboard-response",
		"trial_index": 154,
		"time_elapsed": 330928,
		"internal_node_id": "0.0-3.0-1.115"
	},
	{
		"rt": 2465,
		"stimulus": "<span style=\"font-size:30px; font-family: monospace\">patada</span>",
		"response": " ",
		"trial": "exp-sent",
		"word": "patada",
		"trial_type": "html-keyboard-response",
		"trial_index": 155,
		"time_elapsed": 333644,
		"internal_node_id": "0.0-3.0-1.116"
	},
	{
		"rt": 883,
		"stimulus": "<span style=\"font-size:30px; font-family: monospace\">brutal</span>",
		"response": " ",
		"trial": "exp-sent",
		"word": "brutal",
		"trial_type": "html-keyboard-response",
		"trial_index": 156,
		"time_elapsed": 334778,
		"internal_node_id": "0.0-3.0-1.117"
	},
	{
		"rt": 554,
		"stimulus": "<span style=\"font-size:30px; font-family: monospace\">e</span>",
		"response": " ",
		"trial": "exp-sent",
		"word": "e",
		"trial_type": "html-keyboard-response",
		"trial_index": 157,
		"time_elapsed": 335583,
		"internal_node_id": "0.0-3.0-1.118"
	},
	{
		"rt": 1025,
		"stimulus": "<span style=\"font-size:30px; font-family: monospace\">poderosa.</span>",
		"response": " ",
		"trial": "exp-sent",
		"word": "poderosa.",
		"trial_type": "html-keyboard-response",
		"trial_index": 158,
		"time_elapsed": 336859,
		"internal_node_id": "0.0-3.0-1.119"
	},
	{
		"rt": null,
		"stimulus": "<span style= \"font-size:30px; font-family: monospace\">+</span>",
		"response": null,
		"trial_part": "fixation",
		"trial_type": "html-keyboard-response",
		"trial_index": 159,
		"time_elapsed": 338111,
		"internal_node_id": "0.0-3.0-0.120-0.120"
	},
	{
		"rt": 631,
		"stimulus": "<span style=\"font-size:30px; font-family: monospace\">Eu</span>",
		"response": " ",
		"trial": "exp-sent",
		"word": "Eu",
		"trial_type": "html-keyboard-response",
		"trial_index": 160,
		"time_elapsed": 338993,
		"internal_node_id": "0.0-3.0-1.120"
	},
	{
		"rt": 719,
		"stimulus": "<span style=\"font-size:30px; font-family: monospace\">fiz</span>",
		"response": " ",
		"trial": "exp-sent",
		"word": "fiz",
		"trial_type": "html-keyboard-response",
		"trial_index": 161,
		"time_elapsed": 339963,
		"internal_node_id": "0.0-3.0-1.121"
	},
	{
		"rt": 861,
		"stimulus": "<span style=\"font-size:30px; font-family: monospace\">aulas</span>",
		"response": " ",
		"trial": "exp-sent",
		"word": "aulas",
		"trial_type": "html-keyboard-response",
		"trial_index": 162,
		"time_elapsed": 341075,
		"internal_node_id": "0.0-3.0-1.122"
	},
	{
		"rt": 612,
		"stimulus": "<span style=\"font-size:30px; font-family: monospace\">de</span>",
		"response": " ",
		"trial": "exp-sent",
		"word": "de",
		"trial_type": "html-keyboard-response",
		"trial_index": 163,
		"time_elapsed": 341939,
		"internal_node_id": "0.0-3.0-1.123"
	},
	{
		"rt": 814,
		"stimulus": "<span style=\"font-size:30px; font-family: monospace\">espanhol</span>",
		"response": " ",
		"trial": "exp-sent",
		"word": "espanhol",
		"trial_type": "html-keyboard-response",
		"trial_index": 164,
		"time_elapsed": 343003,
		"internal_node_id": "0.0-3.0-1.124"
	},
	{
		"rt": 641,
		"stimulus": "<span style=\"font-size:30px; font-family: monospace\">nesta</span>",
		"response": " ",
		"trial": "exp-sent",
		"word": "nesta",
		"trial_type": "html-keyboard-response",
		"trial_index": 165,
		"time_elapsed": 343896,
		"internal_node_id": "0.0-3.0-1.125"
	},
	{
		"rt": 640,
		"stimulus": "<span style=\"font-size:30px; font-family: monospace\">cidade.</span>",
		"response": " ",
		"trial": "exp-sent",
		"word": "cidade.",
		"trial_type": "html-keyboard-response",
		"trial_index": 166,
		"time_elapsed": 344788,
		"internal_node_id": "0.0-3.0-1.126"
	},
	{
		"rt": null,
		"stimulus": "<span style= \"font-size:30px; font-family: monospace\">+</span>",
		"response": null,
		"trial_part": "fixation",
		"trial_type": "html-keyboard-response",
		"trial_index": 167,
		"time_elapsed": 346040,
		"internal_node_id": "0.0-3.0-0.127-0.127"
	},
	{
		"rt": 584,
		"stimulus": "<span style=\"font-size:30px; font-family: monospace\">Ele</span>",
		"response": " ",
		"trial": "exp-sent",
		"word": "Ele",
		"trial_type": "html-keyboard-response",
		"trial_index": 168,
		"time_elapsed": 346875,
		"internal_node_id": "0.0-3.0-1.127"
	},
	{
		"rt": 641,
		"stimulus": "<span style=\"font-size:30px; font-family: monospace\">comprou</span>",
		"response": " ",
		"trial": "exp-sent",
		"word": "comprou",
		"trial_type": "html-keyboard-response",
		"trial_index": 169,
		"time_elapsed": 347768,
		"internal_node_id": "0.0-3.0-1.128"
	},
	{
		"rt": 569,
		"stimulus": "<span style=\"font-size:30px; font-family: monospace\">mais</span>",
		"response": " ",
		"trial": "exp-sent",
		"word": "mais",
		"trial_type": "html-keyboard-response",
		"trial_index": 170,
		"time_elapsed": 348588,
		"internal_node_id": "0.0-3.0-1.129"
	},
	{
		"rt": 646,
		"stimulus": "<span style=\"font-size:30px; font-family: monospace\">uma</span>",
		"response": " ",
		"trial": "exp-sent",
		"word": "uma",
		"trial_type": "html-keyboard-response",
		"trial_index": 171,
		"time_elapsed": 349486,
		"internal_node_id": "0.0-3.0-1.130"
	},
	{
		"rt": 872,
		"stimulus": "<span style=\"font-size:30px; font-family: monospace\">esponja</span>",
		"response": " ",
		"trial": "exp-sent",
		"word": "esponja",
		"trial_type": "html-keyboard-response",
		"trial_index": 172,
		"time_elapsed": 350609,
		"internal_node_id": "0.0-3.0-1.131"
	},
	{
		"rt": 538,
		"stimulus": "<span style=\"font-size:30px; font-family: monospace\">para</span>",
		"response": " ",
		"trial": "exp-sent",
		"word": "para",
		"trial_type": "html-keyboard-response",
		"trial_index": 173,
		"time_elapsed": 351399,
		"internal_node_id": "0.0-3.0-1.132"
	},
	{
		"rt": 666,
		"stimulus": "<span style=\"font-size:30px; font-family: monospace\">a</span>",
		"response": " ",
		"trial": "exp-sent",
		"word": "a",
		"trial_type": "html-keyboard-response",
		"trial_index": 174,
		"time_elapsed": 352317,
		"internal_node_id": "0.0-3.0-1.133"
	},
	{
		"rt": 934,
		"stimulus": "<span style=\"font-size:30px; font-family: monospace\">cozinha.</span>",
		"response": " ",
		"trial": "exp-sent",
		"word": "cozinha.",
		"trial_type": "html-keyboard-response",
		"trial_index": 175,
		"time_elapsed": 353501,
		"internal_node_id": "0.0-3.0-1.134"
	},
	{
		"rt": null,
		"stimulus": "<span style= \"font-size:30px; font-family: monospace\">+</span>",
		"response": null,
		"trial_part": "fixation",
		"trial_type": "html-keyboard-response",
		"trial_index": 176,
		"time_elapsed": 354753,
		"internal_node_id": "0.0-3.0-0.135-0.135"
	},
	{
		"rt": 548,
		"stimulus": "<span style=\"font-size:30px; font-family: monospace\">Ele</span>",
		"response": " ",
		"trial": "exp-sent",
		"word": "Ele",
		"trial_type": "html-keyboard-response",
		"trial_index": 177,
		"time_elapsed": 355552,
		"internal_node_id": "0.0-3.0-1.135"
	},
	{
		"rt": 631,
		"stimulus": "<span style=\"font-size:30px; font-family: monospace\">teve</span>",
		"response": " ",
		"trial": "exp-sent",
		"word": "teve",
		"trial_type": "html-keyboard-response",
		"trial_index": 178,
		"time_elapsed": 356434,
		"internal_node_id": "0.0-3.0-1.136"
	},
	{
		"rt": 615,
		"stimulus": "<span style=\"font-size:30px; font-family: monospace\">um</span>",
		"response": " ",
		"trial": "exp-sent",
		"word": "um",
		"trial_type": "html-keyboard-response",
		"trial_index": 179,
		"time_elapsed": 357301,
		"internal_node_id": "0.0-3.0-1.137"
	},
	{
		"rt": 554,
		"stimulus": "<span style=\"font-size:30px; font-family: monospace\">sono</span>",
		"response": " ",
		"trial": "exp-sent",
		"word": "sono",
		"trial_type": "html-keyboard-response",
		"trial_index": 180,
		"time_elapsed": 358105,
		"internal_node_id": "0.0-3.0-1.138"
	},
	{
		"rt": 738,
		"stimulus": "<span style=\"font-size:30px; font-family: monospace\">bizarro</span>",
		"response": " ",
		"trial": "exp-sent",
		"word": "bizarro",
		"trial_type": "html-keyboard-response",
		"trial_index": 181,
		"time_elapsed": 359094,
		"internal_node_id": "0.0-3.0-1.139"
	},
	{
		"rt": 667,
		"stimulus": "<span style=\"font-size:30px; font-family: monospace\">sem</span>",
		"response": " ",
		"trial": "exp-sent",
		"word": "sem",
		"trial_type": "html-keyboard-response",
		"trial_index": 182,
		"time_elapsed": 360012,
		"internal_node_id": "0.0-3.0-1.140"
	},
	{
		"rt": 821,
		"stimulus": "<span style=\"font-size:30px; font-family: monospace\">nenhum</span>",
		"response": " ",
		"trial": "exp-sent",
		"word": "nenhum",
		"trial_type": "html-keyboard-response",
		"trial_index": 183,
		"time_elapsed": 361085,
		"internal_node_id": "0.0-3.0-1.141"
	},
	{
		"rt": 738,
		"stimulus": "<span style=\"font-size:30px; font-family: monospace\">motivo.</span>",
		"response": " ",
		"trial": "exp-sent",
		"word": "motivo.",
		"trial_type": "html-keyboard-response",
		"trial_index": 184,
		"time_elapsed": 362074,
		"internal_node_id": "0.0-3.0-1.142"
	},
	{
		"rt": null,
		"stimulus": "<span style= \"font-size:30px; font-family: monospace\">+</span>",
		"response": null,
		"trial_part": "fixation",
		"trial_type": "html-keyboard-response",
		"trial_index": 185,
		"time_elapsed": 363326,
		"internal_node_id": "0.0-3.0-0.143-0.143"
	},
	{
		"rt": 584,
		"stimulus": "<span style=\"font-size:30px; font-family: monospace\">A</span>",
		"response": " ",
		"trial": "exp-sent",
		"word": "A",
		"trial_type": "html-keyboard-response",
		"trial_index": 186,
		"time_elapsed": 364161,
		"internal_node_id": "0.0-3.0-1.143"
	},
	{
		"rt": 569,
		"stimulus": "<span style=\"font-size:30px; font-family: monospace\">moça</span>",
		"response": " ",
		"trial": "exp-sent",
		"word": "moça",
		"trial_type": "html-keyboard-response",
		"trial_index": 187,
		"time_elapsed": 364981,
		"internal_node_id": "0.0-3.0-1.144"
	},
	{
		"rt": 621,
		"stimulus": "<span style=\"font-size:30px; font-family: monospace\">comprou</span>",
		"response": " ",
		"trial": "exp-sent",
		"word": "comprou",
		"trial_type": "html-keyboard-response",
		"trial_index": 188,
		"time_elapsed": 365853,
		"internal_node_id": "0.0-3.0-1.145"
	},
	{
		"rt": 535,
		"stimulus": "<span style=\"font-size:30px; font-family: monospace\">um</span>",
		"response": " ",
		"trial": "exp-sent",
		"word": "um",
		"trial_type": "html-keyboard-response",
		"trial_index": 189,
		"time_elapsed": 366639,
		"internal_node_id": "0.0-3.0-1.146"
	},
	{
		"rt": 1045,
		"stimulus": "<span style=\"font-size:30px; font-family: monospace\">diamante</span>",
		"response": " ",
		"trial": "exp-sent",
		"word": "diamante",
		"trial_type": "html-keyboard-response",
		"trial_index": 190,
		"time_elapsed": 367935,
		"internal_node_id": "0.0-3.0-1.147"
	},
	{
		"rt": 708,
		"stimulus": "<span style=\"font-size:30px; font-family: monospace\">para</span>",
		"response": " ",
		"trial": "exp-sent",
		"word": "para",
		"trial_type": "html-keyboard-response",
		"trial_index": 191,
		"time_elapsed": 368894,
		"internal_node_id": "0.0-3.0-1.148"
	},
	{
		"rt": 749,
		"stimulus": "<span style=\"font-size:30px; font-family: monospace\">sua</span>",
		"response": " ",
		"trial": "exp-sent",
		"word": "sua",
		"trial_type": "html-keyboard-response",
		"trial_index": 192,
		"time_elapsed": 369894,
		"internal_node_id": "0.0-3.0-1.149"
	},
	{
		"rt": 790,
		"stimulus": "<span style=\"font-size:30px; font-family: monospace\">prima.</span>",
		"response": " ",
		"trial": "comp",
		"word": "prima.",
		"trial_type": "html-keyboard-response",
		"trial_index": 193,
		"time_elapsed": 370935,
		"internal_node_id": "0.0-3.0-1.150"
	},
	{
		"rt": 10108,
		"stimulus": "<span style=\"font-size:30px; font-family: monospace\">A moça comprou um diamante?</span>",
		"response": "s",
		"question": "A moça comprou um diamante?",
		"answer": "sim",
		"trial": "comp",
		"trial_type": "html-keyboard-response",
		"trial_index": 194,
		"time_elapsed": 381294,
		"internal_node_id": "0.0-3.0-2.150-0.150",
		"accuracy": false
	},
	{
		"rt": null,
		"stimulus": "<span style= \"font-size:30px; font-family: monospace\">+</span>",
		"response": null,
		"trial_part": "fixation",
		"trial_type": "html-keyboard-response",
		"trial_index": 195,
		"time_elapsed": 382796,
		"internal_node_id": "0.0-3.0-0.151-0.151"
	},
	{
		"rt": 985,
		"stimulus": "<span style=\"font-size:30px; font-family: monospace\">Eu</span>",
		"response": " ",
		"trial": "exp-sent",
		"word": "Eu",
		"trial_type": "html-keyboard-response",
		"trial_index": 196,
		"time_elapsed": 384033,
		"internal_node_id": "0.0-3.0-1.151"
	},
	{
		"rt": 528,
		"stimulus": "<span style=\"font-size:30px; font-family: monospace\">gosto</span>",
		"response": " ",
		"trial": "exp-sent",
		"word": "gosto",
		"trial_type": "html-keyboard-response",
		"trial_index": 197,
		"time_elapsed": 384813,
		"internal_node_id": "0.0-3.0-1.152"
	},
	{
		"rt": 482,
		"stimulus": "<span style=\"font-size:30px; font-family: monospace\">de</span>",
		"response": " ",
		"trial": "exp-sent",
		"word": "de",
		"trial_type": "html-keyboard-response",
		"trial_index": 198,
		"time_elapsed": 385546,
		"internal_node_id": "0.0-3.0-1.153"
	},
	{
		"rt": 630,
		"stimulus": "<span style=\"font-size:30px; font-family: monospace\">molho</span>",
		"response": " ",
		"trial": "exp-sent",
		"word": "molho",
		"trial_type": "html-keyboard-response",
		"trial_index": 199,
		"time_elapsed": 386427,
		"internal_node_id": "0.0-3.0-1.154"
	},
	{
		"rt": 896,
		"stimulus": "<span style=\"font-size:30px; font-family: monospace\">picante</span>",
		"response": " ",
		"trial": "exp-sent",
		"word": "picante",
		"trial_type": "html-keyboard-response",
		"trial_index": 200,
		"time_elapsed": 387574,
		"internal_node_id": "0.0-3.0-1.155"
	},
	{
		"rt": 573,
		"stimulus": "<span style=\"font-size:30px; font-family: monospace\">nas</span>",
		"response": " ",
		"trial": "exp-sent",
		"word": "nas",
		"trial_type": "html-keyboard-response",
		"trial_index": 201,
		"time_elapsed": 388399,
		"internal_node_id": "0.0-3.0-1.156"
	},
	{
		"rt": 810,
		"stimulus": "<span style=\"font-size:30px; font-family: monospace\">batatas.</span>",
		"response": " ",
		"trial": "exp-sent",
		"word": "batatas.",
		"trial_type": "html-keyboard-response",
		"trial_index": 202,
		"time_elapsed": 389460,
		"internal_node_id": "0.0-3.0-1.157"
	},
	{
		"rt": null,
		"stimulus": "<span style= \"font-size:30px; font-family: monospace\">+</span>",
		"response": null,
		"trial_part": "fixation",
		"trial_type": "html-keyboard-response",
		"trial_index": 203,
		"time_elapsed": 390712,
		"internal_node_id": "0.0-3.0-0.158-0.158"
	},
	{
		"rt": 822,
		"stimulus": "<span style=\"font-size:30px; font-family: monospace\">As</span>",
		"response": " ",
		"trial": "exp-sent",
		"word": "As",
		"trial_type": "html-keyboard-response",
		"trial_index": 204,
		"time_elapsed": 391785,
		"internal_node_id": "0.0-3.0-1.158"
	},
	{
		"rt": 738,
		"stimulus": "<span style=\"font-size:30px; font-family: monospace\">pessoas</span>",
		"response": " ",
		"trial": "exp-sent",
		"word": "pessoas",
		"trial_type": "html-keyboard-response",
		"trial_index": 205,
		"time_elapsed": 392774,
		"internal_node_id": "0.0-3.0-1.159"
	},
	{
		"rt": 708,
		"stimulus": "<span style=\"font-size:30px; font-family: monospace\">têm</span>",
		"response": " ",
		"trial": "exp-sent",
		"word": "têm",
		"trial_type": "html-keyboard-response",
		"trial_index": 206,
		"time_elapsed": 393733,
		"internal_node_id": "0.0-3.0-1.160"
	},
	{
		"rt": 579,
		"stimulus": "<span style=\"font-size:30px; font-family: monospace\">sua</span>",
		"response": " ",
		"trial": "exp-sent",
		"word": "sua",
		"trial_type": "html-keyboard-response",
		"trial_index": 207,
		"time_elapsed": 394564,
		"internal_node_id": "0.0-3.0-1.161"
	},
	{
		"rt": 805,
		"stimulus": "<span style=\"font-size:30px; font-family: monospace\">liberdade</span>",
		"response": " ",
		"trial": "exp-sent",
		"word": "liberdade",
		"trial_type": "html-keyboard-response",
		"trial_index": 208,
		"time_elapsed": 395620,
		"internal_node_id": "0.0-3.0-1.162"
	},
	{
		"rt": 816,
		"stimulus": "<span style=\"font-size:30px; font-family: monospace\">até</span>",
		"response": " ",
		"trial": "exp-sent",
		"word": "até",
		"trial_type": "html-keyboard-response",
		"trial_index": 209,
		"time_elapsed": 396687,
		"internal_node_id": "0.0-3.0-1.163"
	},
	{
		"rt": 759,
		"stimulus": "<span style=\"font-size:30px; font-family: monospace\">certo</span>",
		"response": " ",
		"trial": "exp-sent",
		"word": "certo",
		"trial_type": "html-keyboard-response",
		"trial_index": 210,
		"time_elapsed": 397697,
		"internal_node_id": "0.0-3.0-1.164"
	},
	{
		"rt": 652,
		"stimulus": "<span style=\"font-size:30px; font-family: monospace\">ponto.</span>",
		"response": " ",
		"trial": "exp-sent",
		"word": "ponto.",
		"trial_type": "html-keyboard-response",
		"trial_index": 211,
		"time_elapsed": 398600,
		"internal_node_id": "0.0-3.0-1.165"
	},
	{
		"rt": null,
		"stimulus": "<span style= \"font-size:30px; font-family: monospace\">+</span>",
		"response": null,
		"trial_part": "fixation",
		"trial_type": "html-keyboard-response",
		"trial_index": 212,
		"time_elapsed": 399864,
		"internal_node_id": "0.0-3.0-0.166-0.166"
	},
	{
		"rt": 201,
		"stimulus": "<span style=\"font-size:30px; font-family: monospace\">A</span>",
		"response": " ",
		"trial": "exp-sent",
		"word": "A",
		"trial_type": "html-keyboard-response",
		"trial_index": 213,
		"time_elapsed": 400317,
		"internal_node_id": "0.0-3.0-1.166"
	},
	{
		"rt": 714,
		"stimulus": "<span style=\"font-size:30px; font-family: monospace\">empresa</span>",
		"response": " ",
		"trial": "exp-sent",
		"word": "empresa",
		"trial_type": "html-keyboard-response",
		"trial_index": 214,
		"time_elapsed": 401282,
		"internal_node_id": "0.0-3.0-1.167"
	},
	{
		"rt": 483,
		"stimulus": "<span style=\"font-size:30px; font-family: monospace\">enviou</span>",
		"response": " ",
		"trial": "exp-sent",
		"word": "enviou",
		"trial_type": "html-keyboard-response",
		"trial_index": 215,
		"time_elapsed": 402015,
		"internal_node_id": "0.0-3.0-1.168"
	},
	{
		"rt": 557,
		"stimulus": "<span style=\"font-size:30px; font-family: monospace\">o</span>",
		"response": " ",
		"trial": "exp-sent",
		"word": "o",
		"trial_type": "html-keyboard-response",
		"trial_index": 216,
		"time_elapsed": 402823,
		"internal_node_id": "0.0-3.0-1.169"
	},
	{
		"rt": 578,
		"stimulus": "<span style=\"font-size:30px; font-family: monospace\">aviso</span>",
		"response": " ",
		"trial": "exp-sent",
		"word": "aviso",
		"trial_type": "html-keyboard-response",
		"trial_index": 217,
		"time_elapsed": 403653,
		"internal_node_id": "0.0-3.0-1.170"
	},
	{
		"rt": 586,
		"stimulus": "<span style=\"font-size:30px; font-family: monospace\">hoje</span>",
		"response": " ",
		"trial": "exp-sent",
		"word": "hoje",
		"trial_type": "html-keyboard-response",
		"trial_index": 218,
		"time_elapsed": 404489,
		"internal_node_id": "0.0-3.0-1.171"
	},
	{
		"rt": 559,
		"stimulus": "<span style=\"font-size:30px; font-family: monospace\">de</span>",
		"response": " ",
		"trial": "exp-sent",
		"word": "de",
		"trial_type": "html-keyboard-response",
		"trial_index": 219,
		"time_elapsed": 405299,
		"internal_node_id": "0.0-3.0-1.172"
	},
	{
		"rt": 579,
		"stimulus": "<span style=\"font-size:30px; font-family: monospace\">tarde.</span>",
		"response": " ",
		"trial": "exp-sent",
		"word": "tarde.",
		"trial_type": "html-keyboard-response",
		"trial_index": 220,
		"time_elapsed": 406130,
		"internal_node_id": "0.0-3.0-1.173"
	},
	{
		"rt": null,
		"stimulus": "<span style= \"font-size:30px; font-family: monospace\">+</span>",
		"response": null,
		"trial_part": "fixation",
		"trial_type": "html-keyboard-response",
		"trial_index": 221,
		"time_elapsed": 407382,
		"internal_node_id": "0.0-3.0-0.174-0.174"
	},
	{
		"rt": 856,
		"stimulus": "<span style=\"font-size:30px; font-family: monospace\">A</span>",
		"response": " ",
		"trial": "exp-sent",
		"word": "A",
		"trial_type": "html-keyboard-response",
		"trial_index": 222,
		"time_elapsed": 408489,
		"internal_node_id": "0.0-3.0-1.174"
	},
	{
		"rt": 784,
		"stimulus": "<span style=\"font-size:30px; font-family: monospace\">loja</span>",
		"response": " ",
		"trial": "exp-sent",
		"word": "loja",
		"trial_type": "html-keyboard-response",
		"trial_index": 223,
		"time_elapsed": 409526,
		"internal_node_id": "0.0-3.0-1.175"
	},
	{
		"rt": 692,
		"stimulus": "<span style=\"font-size:30px; font-family: monospace\">vende</span>",
		"response": " ",
		"trial": "exp-sent",
		"word": "vende",
		"trial_type": "html-keyboard-response",
		"trial_index": 224,
		"time_elapsed": 410470,
		"internal_node_id": "0.0-3.0-1.176"
	},
	{
		"rt": 563,
		"stimulus": "<span style=\"font-size:30px; font-family: monospace\">tanto</span>",
		"response": " ",
		"trial": "exp-sent",
		"word": "tanto",
		"trial_type": "html-keyboard-response",
		"trial_index": 225,
		"time_elapsed": 411285,
		"internal_node_id": "0.0-3.0-1.177"
	},
	{
		"rt": 2209,
		"stimulus": "<span style=\"font-size:30px; font-family: monospace\">frituras</span>",
		"response": " ",
		"trial": "exp-sent",
		"word": "frituras",
		"trial_type": "html-keyboard-response",
		"trial_index": 226,
		"time_elapsed": 413745,
		"internal_node_id": "0.0-3.0-1.178"
	},
	{
		"rt": 1255,
		"stimulus": "<span style=\"font-size:30px; font-family: monospace\">quanto</span>",
		"response": " ",
		"trial": "exp-sent",
		"word": "quanto",
		"trial_type": "html-keyboard-response",
		"trial_index": 227,
		"time_elapsed": 415251,
		"internal_node_id": "0.0-3.0-1.179"
	},
	{
		"rt": 954,
		"stimulus": "<span style=\"font-size:30px; font-family: monospace\">comidas</span>",
		"response": " ",
		"trial": "exp-sent",
		"word": "comidas",
		"trial_type": "html-keyboard-response",
		"trial_index": 228,
		"time_elapsed": 416456,
		"internal_node_id": "0.0-3.0-1.180"
	},
	{
		"rt": 728,
		"stimulus": "<span style=\"font-size:30px; font-family: monospace\">leves.</span>",
		"response": " ",
		"trial": "exp-sent",
		"word": "leves.",
		"trial_type": "html-keyboard-response",
		"trial_index": 229,
		"time_elapsed": 417435,
		"internal_node_id": "0.0-3.0-1.181"
	},
	{
		"rt": null,
		"stimulus": "<span style= \"font-size:30px; font-family: monospace\">+</span>",
		"response": null,
		"trial_part": "fixation",
		"trial_type": "html-keyboard-response",
		"trial_index": 230,
		"time_elapsed": 418687,
		"internal_node_id": "0.0-3.0-0.182-0.182"
	},
	{
		"rt": 712,
		"stimulus": "<span style=\"font-size:30px; font-family: monospace\">As</span>",
		"response": " ",
		"trial": "exp-sent",
		"word": "As",
		"trial_type": "html-keyboard-response",
		"trial_index": 231,
		"time_elapsed": 419650,
		"internal_node_id": "0.0-3.0-1.182"
	},
	{
		"rt": 805,
		"stimulus": "<span style=\"font-size:30px; font-family: monospace\">cadeiras</span>",
		"response": " ",
		"trial": "exp-sent",
		"word": "cadeiras",
		"trial_type": "html-keyboard-response",
		"trial_index": 232,
		"time_elapsed": 420706,
		"internal_node_id": "0.0-3.0-1.183"
	},
	{
		"rt": 852,
		"stimulus": "<span style=\"font-size:30px; font-family: monospace\">azuis</span>",
		"response": " ",
		"trial": "exp-sent",
		"word": "azuis",
		"trial_type": "html-keyboard-response",
		"trial_index": 233,
		"time_elapsed": 421809,
		"internal_node_id": "0.0-3.0-1.184"
	},
	{
		"rt": 672,
		"stimulus": "<span style=\"font-size:30px; font-family: monospace\">da</span>",
		"response": " ",
		"trial": "exp-sent",
		"word": "da",
		"trial_type": "html-keyboard-response",
		"trial_index": 234,
		"time_elapsed": 422732,
		"internal_node_id": "0.0-3.0-1.185"
	},
	{
		"rt": 836,
		"stimulus": "<span style=\"font-size:30px; font-family: monospace\">sala</span>",
		"response": " ",
		"trial": "exp-sent",
		"word": "sala",
		"trial_type": "html-keyboard-response",
		"trial_index": 235,
		"time_elapsed": 423820,
		"internal_node_id": "0.0-3.0-1.186"
	},
	{
		"rt": 803,
		"stimulus": "<span style=\"font-size:30px; font-family: monospace\">eram</span>",
		"response": " ",
		"trial": "exp-sent",
		"word": "eram",
		"trial_type": "html-keyboard-response",
		"trial_index": 236,
		"time_elapsed": 424875,
		"internal_node_id": "0.0-3.0-1.187"
	},
	{
		"rt": 687,
		"stimulus": "<span style=\"font-size:30px; font-family: monospace\">da</span>",
		"response": " ",
		"trial": "exp-sent",
		"word": "da",
		"trial_type": "html-keyboard-response",
		"trial_index": 237,
		"time_elapsed": 425813,
		"internal_node_id": "0.0-3.0-1.188"
	},
	{
		"rt": 656,
		"stimulus": "<span style=\"font-size:30px; font-family: monospace\">minha</span>",
		"response": " ",
		"trial": "exp-sent",
		"word": "minha",
		"trial_type": "html-keyboard-response",
		"trial_index": 238,
		"time_elapsed": 426720,
		"internal_node_id": "0.0-3.0-1.189"
	},
	{
		"rt": 604,
		"stimulus": "<span style=\"font-size:30px; font-family: monospace\">vó.</span>",
		"response": " ",
		"trial": "comp",
		"word": "vó.",
		"trial_type": "html-keyboard-response",
		"trial_index": 239,
		"time_elapsed": 427577,
		"internal_node_id": "0.0-3.0-1.190"
	},
	{
		"rt": 3441,
		"stimulus": "<span style=\"font-size:30px; font-family: monospace\">As cadeiras eram da avó?</span>",
		"response": "s",
		"question": "As cadeiras eram da avó?",
		"answer": "sim",
		"trial": "comp",
		"trial_type": "html-keyboard-response",
		"trial_index": 240,
		"time_elapsed": 431270,
		"internal_node_id": "0.0-3.0-2.190-0.190",
		"accuracy": false
	},
	{
		"rt": null,
		"stimulus": "<span style= \"font-size:30px; font-family: monospace\">+</span>",
		"response": null,
		"trial_part": "fixation",
		"trial_type": "html-keyboard-response",
		"trial_index": 241,
		"time_elapsed": 432771,
		"internal_node_id": "0.0-3.0-0.191-0.191"
	},
	{
		"rt": 1747,
		"stimulus": "<span style=\"font-size:30px; font-family: monospace\">Ganhamos</span>",
		"response": " ",
		"trial": "exp-sent",
		"word": "Ganhamos",
		"trial_type": "html-keyboard-response",
		"trial_index": 242,
		"time_elapsed": 434770,
		"internal_node_id": "0.0-3.0-1.191"
	},
	{
		"rt": 348,
		"stimulus": "<span style=\"font-size:30px; font-family: monospace\">passagem</span>",
		"response": " ",
		"trial": "exp-sent",
		"word": "passagem",
		"trial_type": "html-keyboard-response",
		"trial_index": 243,
		"time_elapsed": 435370,
		"internal_node_id": "0.0-3.0-1.192"
	},
	{
		"rt": 436,
		"stimulus": "<span style=\"font-size:30px; font-family: monospace\">para</span>",
		"response": " ",
		"trial": "exp-sent",
		"word": "para",
		"trial_type": "html-keyboard-response",
		"trial_index": 244,
		"time_elapsed": 436057,
		"internal_node_id": "0.0-3.0-1.193"
	},
	{
		"rt": 390,
		"stimulus": "<span style=\"font-size:30px; font-family: monospace\">uma</span>",
		"response": " ",
		"trial": "exp-sent",
		"word": "uma",
		"trial_type": "html-keyboard-response",
		"trial_index": 245,
		"time_elapsed": 436698,
		"internal_node_id": "0.0-3.0-1.194"
	},
	{
		"rt": 498,
		"stimulus": "<span style=\"font-size:30px; font-family: monospace\">viagem</span>",
		"response": " ",
		"trial": "exp-sent",
		"word": "viagem",
		"trial_type": "html-keyboard-response",
		"trial_index": 246,
		"time_elapsed": 437446,
		"internal_node_id": "0.0-3.0-1.195"
	},
	{
		"rt": 594,
		"stimulus": "<span style=\"font-size:30px; font-family: monospace\">de</span>",
		"response": " ",
		"trial": "exp-sent",
		"word": "de",
		"trial_type": "html-keyboard-response",
		"trial_index": 247,
		"time_elapsed": 438292,
		"internal_node_id": "0.0-3.0-1.196"
	},
	{
		"rt": 898,
		"stimulus": "<span style=\"font-size:30px; font-family: monospace\">férias.</span>",
		"response": " ",
		"trial": "exp-sent",
		"word": "férias.",
		"trial_type": "html-keyboard-response",
		"trial_index": 248,
		"time_elapsed": 439440,
		"internal_node_id": "0.0-3.0-1.197"
	},
	{
		"rt": null,
		"stimulus": "<span style= \"font-size:30px; font-family: monospace\">+</span>",
		"response": null,
		"trial_part": "fixation",
		"trial_type": "html-keyboard-response",
		"trial_index": 249,
		"time_elapsed": 440693,
		"internal_node_id": "0.0-3.0-0.198-0.198"
	},
	{
		"rt": 810,
		"stimulus": "<span style=\"font-size:30px; font-family: monospace\">Caiu</span>",
		"response": " ",
		"trial": "exp-sent",
		"word": "Caiu",
		"trial_type": "html-keyboard-response",
		"trial_index": 250,
		"time_elapsed": 441753,
		"internal_node_id": "0.0-3.0-1.198"
	},
	{
		"rt": 528,
		"stimulus": "<span style=\"font-size:30px; font-family: monospace\">algo</span>",
		"response": " ",
		"trial": "exp-sent",
		"word": "algo",
		"trial_type": "html-keyboard-response",
		"trial_index": 251,
		"time_elapsed": 442533,
		"internal_node_id": "0.0-3.0-1.199"
	},
	{
		"rt": 615,
		"stimulus": "<span style=\"font-size:30px; font-family: monospace\">no</span>",
		"response": " ",
		"trial": "exp-sent",
		"word": "no",
		"trial_type": "html-keyboard-response",
		"trial_index": 252,
		"time_elapsed": 443399,
		"internal_node_id": "0.0-3.0-1.200"
	},
	{
		"rt": 574,
		"stimulus": "<span style=\"font-size:30px; font-family: monospace\">meu</span>",
		"response": " ",
		"trial": "exp-sent",
		"word": "meu",
		"trial_type": "html-keyboard-response",
		"trial_index": 253,
		"time_elapsed": 444225,
		"internal_node_id": "0.0-3.0-1.201"
	},
	{
		"rt": 959,
		"stimulus": "<span style=\"font-size:30px; font-family: monospace\">olho</span>",
		"response": " ",
		"trial": "exp-sent",
		"word": "olho",
		"trial_type": "html-keyboard-response",
		"trial_index": 254,
		"time_elapsed": 445435,
		"internal_node_id": "0.0-3.0-1.202"
	},
	{
		"rt": 722,
		"stimulus": "<span style=\"font-size:30px; font-family: monospace\">ontem</span>",
		"response": " ",
		"trial": "exp-sent",
		"word": "ontem",
		"trial_type": "html-keyboard-response",
		"trial_index": 255,
		"time_elapsed": 446409,
		"internal_node_id": "0.0-3.0-1.203"
	},
	{
		"rt": 605,
		"stimulus": "<span style=\"font-size:30px; font-family: monospace\">de</span>",
		"response": " ",
		"trial": "exp-sent",
		"word": "de",
		"trial_type": "html-keyboard-response",
		"trial_index": 256,
		"time_elapsed": 447266,
		"internal_node_id": "0.0-3.0-1.204"
	},
	{
		"rt": 569,
		"stimulus": "<span style=\"font-size:30px; font-family: monospace\">tarde.</span>",
		"response": " ",
		"trial": "exp-sent",
		"word": "tarde.",
		"trial_type": "html-keyboard-response",
		"trial_index": 257,
		"time_elapsed": 448086,
		"internal_node_id": "0.0-3.0-1.205"
	},
	{
		"rt": null,
		"stimulus": "<span style= \"font-size:30px; font-family: monospace\">+</span>",
		"response": null,
		"trial_part": "fixation",
		"trial_type": "html-keyboard-response",
		"trial_index": 258,
		"time_elapsed": 449338,
		"internal_node_id": "0.0-3.0-0.206-0.206"
	},
	{
		"rt": 768,
		"stimulus": "<span style=\"font-size:30px; font-family: monospace\">Não</span>",
		"response": " ",
		"trial": "exp-sent",
		"word": "Não",
		"trial_type": "html-keyboard-response",
		"trial_index": 259,
		"time_elapsed": 450358,
		"internal_node_id": "0.0-3.0-1.206"
	},
	{
		"rt": 836,
		"stimulus": "<span style=\"font-size:30px; font-family: monospace\">havia</span>",
		"response": " ",
		"trial": "exp-sent",
		"word": "havia",
		"trial_type": "html-keyboard-response",
		"trial_index": 260,
		"time_elapsed": 451444,
		"internal_node_id": "0.0-3.0-1.207"
	},
	{
		"rt": 564,
		"stimulus": "<span style=\"font-size:30px; font-family: monospace\">mais</span>",
		"response": " ",
		"trial": "exp-sent",
		"word": "mais",
		"trial_type": "html-keyboard-response",
		"trial_index": 261,
		"time_elapsed": 452260,
		"internal_node_id": "0.0-3.0-1.208"
	},
	{
		"rt": 606,
		"stimulus": "<span style=\"font-size:30px; font-family: monospace\">nenhum</span>",
		"response": " ",
		"trial": "exp-sent",
		"word": "nenhum",
		"trial_type": "html-keyboard-response",
		"trial_index": 262,
		"time_elapsed": 453116,
		"internal_node_id": "0.0-3.0-1.209"
	},
	{
		"rt": 734,
		"stimulus": "<span style=\"font-size:30px; font-family: monospace\">ingresso</span>",
		"response": " ",
		"trial": "exp-sent",
		"word": "ingresso",
		"trial_type": "html-keyboard-response",
		"trial_index": 263,
		"time_elapsed": 454102,
		"internal_node_id": "0.0-3.0-1.210"
	},
	{
		"rt": 512,
		"stimulus": "<span style=\"font-size:30px; font-family: monospace\">para</span>",
		"response": " ",
		"trial": "exp-sent",
		"word": "para",
		"trial_type": "html-keyboard-response",
		"trial_index": 264,
		"time_elapsed": 454865,
		"internal_node_id": "0.0-3.0-1.211"
	},
	{
		"rt": 614,
		"stimulus": "<span style=\"font-size:30px; font-family: monospace\">o</span>",
		"response": " ",
		"trial": "exp-sent",
		"word": "o",
		"trial_type": "html-keyboard-response",
		"trial_index": 265,
		"time_elapsed": 455731,
		"internal_node_id": "0.0-3.0-1.212"
	},
	{
		"rt": 594,
		"stimulus": "<span style=\"font-size:30px; font-family: monospace\">evento.</span>",
		"response": " ",
		"trial": "exp-sent",
		"word": "evento.",
		"trial_type": "html-keyboard-response",
		"trial_index": 266,
		"time_elapsed": 456577,
		"internal_node_id": "0.0-3.0-1.213"
	},
	{
		"rt": null,
		"stimulus": "<span style= \"font-size:30px; font-family: monospace\">+</span>",
		"response": null,
		"trial_part": "fixation",
		"trial_type": "html-keyboard-response",
		"trial_index": 267,
		"time_elapsed": 457828,
		"internal_node_id": "0.0-3.0-0.214-0.214"
	},
	{
		"rt": 660,
		"stimulus": "<span style=\"font-size:30px; font-family: monospace\">A</span>",
		"response": " ",
		"trial": "exp-sent",
		"word": "A",
		"trial_type": "html-keyboard-response",
		"trial_index": 268,
		"time_elapsed": 458741,
		"internal_node_id": "0.0-3.0-1.214"
	},
	{
		"rt": 630,
		"stimulus": "<span style=\"font-size:30px; font-family: monospace\">médica</span>",
		"response": " ",
		"trial": "exp-sent",
		"word": "médica",
		"trial_type": "html-keyboard-response",
		"trial_index": 269,
		"time_elapsed": 459622,
		"internal_node_id": "0.0-3.0-1.215"
	},
	{
		"rt": 774,
		"stimulus": "<span style=\"font-size:30px; font-family: monospace\">descobriu</span>",
		"response": " ",
		"trial": "exp-sent",
		"word": "descobriu",
		"trial_type": "html-keyboard-response",
		"trial_index": 270,
		"time_elapsed": 460647,
		"internal_node_id": "0.0-3.0-1.216"
	},
	{
		"rt": 559,
		"stimulus": "<span style=\"font-size:30px; font-family: monospace\">uma</span>",
		"response": " ",
		"trial": "exp-sent",
		"word": "uma",
		"trial_type": "html-keyboard-response",
		"trial_index": 271,
		"time_elapsed": 461458,
		"internal_node_id": "0.0-3.0-1.217"
	},
	{
		"rt": 534,
		"stimulus": "<span style=\"font-size:30px; font-family: monospace\">cura</span>",
		"response": " ",
		"trial": "exp-sent",
		"word": "cura",
		"trial_type": "html-keyboard-response",
		"trial_index": 272,
		"time_elapsed": 462243,
		"internal_node_id": "0.0-3.0-1.218"
	},
	{
		"rt": 728,
		"stimulus": "<span style=\"font-size:30px; font-family: monospace\">para</span>",
		"response": " ",
		"trial": "exp-sent",
		"word": "para",
		"trial_type": "html-keyboard-response",
		"trial_index": 273,
		"time_elapsed": 463222,
		"internal_node_id": "0.0-3.0-1.219"
	},
	{
		"rt": 642,
		"stimulus": "<span style=\"font-size:30px; font-family: monospace\">a</span>",
		"response": " ",
		"trial": "exp-sent",
		"word": "a",
		"trial_type": "html-keyboard-response",
		"trial_index": 274,
		"time_elapsed": 464115,
		"internal_node_id": "0.0-3.0-1.220"
	},
	{
		"rt": 1148,
		"stimulus": "<span style=\"font-size:30px; font-family: monospace\">doença.</span>",
		"response": " ",
		"trial": "exp-sent",
		"word": "doença.",
		"trial_type": "html-keyboard-response",
		"trial_index": 275,
		"time_elapsed": 465514,
		"internal_node_id": "0.0-3.0-1.221"
	},
	{
		"rt": null,
		"stimulus": "<span style= \"font-size:30px; font-family: monospace\">+</span>",
		"response": null,
		"trial_part": "fixation",
		"trial_type": "html-keyboard-response",
		"trial_index": 276,
		"time_elapsed": 466766,
		"internal_node_id": "0.0-3.0-0.222-0.222"
	},
	{
		"rt": 450,
		"stimulus": "<span style=\"font-size:30px; font-family: monospace\">O</span>",
		"response": " ",
		"trial": "exp-sent",
		"word": "O",
		"trial_type": "html-keyboard-response",
		"trial_index": 277,
		"time_elapsed": 467467,
		"internal_node_id": "0.0-3.0-1.222"
	},
	{
		"rt": 590,
		"stimulus": "<span style=\"font-size:30px; font-family: monospace\">menino</span>",
		"response": " ",
		"trial": "exp-sent",
		"word": "menino",
		"trial_type": "html-keyboard-response",
		"trial_index": 278,
		"time_elapsed": 468308,
		"internal_node_id": "0.0-3.0-1.223"
	},
	{
		"rt": 652,
		"stimulus": "<span style=\"font-size:30px; font-family: monospace\">riscou</span>",
		"response": " ",
		"trial": "exp-sent",
		"word": "riscou",
		"trial_type": "html-keyboard-response",
		"trial_index": 279,
		"time_elapsed": 469211,
		"internal_node_id": "0.0-3.0-1.224"
	},
	{
		"rt": 621,
		"stimulus": "<span style=\"font-size:30px; font-family: monospace\">o</span>",
		"response": " ",
		"trial": "exp-sent",
		"word": "o",
		"trial_type": "html-keyboard-response",
		"trial_index": 280,
		"time_elapsed": 470083,
		"internal_node_id": "0.0-3.0-1.225"
	},
	{
		"rt": 677,
		"stimulus": "<span style=\"font-size:30px; font-family: monospace\">caderno</span>",
		"response": " ",
		"trial": "exp-sent",
		"word": "caderno",
		"trial_type": "html-keyboard-response",
		"trial_index": 281,
		"time_elapsed": 471012,
		"internal_node_id": "0.0-3.0-1.226"
	},
	{
		"rt": 595,
		"stimulus": "<span style=\"font-size:30px; font-family: monospace\">com</span>",
		"response": " ",
		"trial": "exp-sent",
		"word": "com",
		"trial_type": "html-keyboard-response",
		"trial_index": 282,
		"time_elapsed": 471858,
		"internal_node_id": "0.0-3.0-1.227"
	},
	{
		"rt": 533,
		"stimulus": "<span style=\"font-size:30px; font-family: monospace\">a</span>",
		"response": " ",
		"trial": "exp-sent",
		"word": "a",
		"trial_type": "html-keyboard-response",
		"trial_index": 283,
		"time_elapsed": 472642,
		"internal_node_id": "0.0-3.0-1.228"
	},
	{
		"rt": 861,
		"stimulus": "<span style=\"font-size:30px; font-family: monospace\">caneta.</span>",
		"response": " ",
		"trial": "comp",
		"word": "caneta.",
		"trial_type": "html-keyboard-response",
		"trial_index": 284,
		"time_elapsed": 473755,
		"internal_node_id": "0.0-3.0-1.229"
	},
	{
		"rt": 14242,
		"stimulus": "<span style=\"font-size:30px; font-family: monospace\">O menino riscou a parede com a caneta?</span>",
		"response": "s",
		"question": "O menino riscou a parede com a caneta?",
		"answer": "não",
		"trial": "comp",
		"trial_type": "html-keyboard-response",
		"trial_index": 285,
		"time_elapsed": 488249,
		"internal_node_id": "0.0-3.0-2.229-0.229",
		"accuracy": false
	},
	{
		"rt": null,
		"stimulus": "<span style= \"font-size:30px; font-family: monospace\">+</span>",
		"response": null,
		"trial_part": "fixation",
		"trial_type": "html-keyboard-response",
		"trial_index": 286,
		"time_elapsed": 489750,
		"internal_node_id": "0.0-3.0-0.230-0.230"
	},
	{
		"rt": 1456,
		"stimulus": "<span style=\"font-size:30px; font-family: monospace\">As</span>",
		"response": " ",
		"trial": "exp-sent",
		"word": "As",
		"trial_type": "html-keyboard-response",
		"trial_index": 287,
		"time_elapsed": 491458,
		"internal_node_id": "0.0-3.0-1.230"
	},
	{
		"rt": 594,
		"stimulus": "<span style=\"font-size:30px; font-family: monospace\">crianças</span>",
		"response": " ",
		"trial": "exp-sent",
		"word": "crianças",
		"trial_type": "html-keyboard-response",
		"trial_index": 288,
		"time_elapsed": 492303,
		"internal_node_id": "0.0-3.0-1.231"
	},
	{
		"rt": 1477,
		"stimulus": "<span style=\"font-size:30px; font-family: monospace\">viram</span>",
		"response": " ",
		"trial": "exp-sent",
		"word": "viram",
		"trial_type": "html-keyboard-response",
		"trial_index": 289,
		"time_elapsed": 494030,
		"internal_node_id": "0.0-3.0-1.232"
	},
	{
		"rt": 596,
		"stimulus": "<span style=\"font-size:30px; font-family: monospace\">um</span>",
		"response": " ",
		"trial": "exp-sent",
		"word": "um",
		"trial_type": "html-keyboard-response",
		"trial_index": 290,
		"time_elapsed": 494877,
		"internal_node_id": "0.0-3.0-1.233"
	},
	{
		"rt": 1692,
		"stimulus": "<span style=\"font-size:30px; font-family: monospace\">vaga-lume</span>",
		"response": " ",
		"trial": "exp-sent",
		"word": "vaga-lume",
		"trial_type": "html-keyboard-response",
		"trial_index": 291,
		"time_elapsed": 496820,
		"internal_node_id": "0.0-3.0-1.234"
	},
	{
		"rt": 621,
		"stimulus": "<span style=\"font-size:30px; font-family: monospace\">nos</span>",
		"response": " ",
		"trial": "exp-sent",
		"word": "nos",
		"trial_type": "html-keyboard-response",
		"trial_index": 292,
		"time_elapsed": 497692,
		"internal_node_id": "0.0-3.0-1.235"
	},
	{
		"rt": 2170,
		"stimulus": "<span style=\"font-size:30px; font-family: monospace\">arbustos.</span>",
		"response": " ",
		"trial": "exp-sent",
		"word": "arbustos.",
		"trial_type": "html-keyboard-response",
		"trial_index": 293,
		"time_elapsed": 500113,
		"internal_node_id": "0.0-3.0-1.236"
	},
	{
		"rt": null,
		"stimulus": "<span style= \"font-size:30px; font-family: monospace\">+</span>",
		"response": null,
		"trial_part": "fixation",
		"trial_type": "html-keyboard-response",
		"trial_index": 294,
		"time_elapsed": 501365,
		"internal_node_id": "0.0-3.0-0.237-0.237"
	},
	{
		"rt": 753,
		"stimulus": "<span style=\"font-size:30px; font-family: monospace\">Ontem</span>",
		"response": " ",
		"trial": "exp-sent",
		"word": "Ontem",
		"trial_type": "html-keyboard-response",
		"trial_index": 295,
		"time_elapsed": 502369,
		"internal_node_id": "0.0-3.0-1.237"
	},
	{
		"rt": 811,
		"stimulus": "<span style=\"font-size:30px; font-family: monospace\">o</span>",
		"response": " ",
		"trial": "exp-sent",
		"word": "o",
		"trial_type": "html-keyboard-response",
		"trial_index": 296,
		"time_elapsed": 503442,
		"internal_node_id": "0.0-3.0-1.238"
	},
	{
		"rt": 1077,
		"stimulus": "<span style=\"font-size:30px; font-family: monospace\">funcionário</span>",
		"response": " ",
		"trial": "exp-sent",
		"word": "funcionário",
		"trial_type": "html-keyboard-response",
		"trial_index": 297,
		"time_elapsed": 504769,
		"internal_node_id": "0.0-3.0-1.239"
	},
	{
		"rt": 616,
		"stimulus": "<span style=\"font-size:30px; font-family: monospace\">pediu</span>",
		"response": " ",
		"trial": "exp-sent",
		"word": "pediu",
		"trial_type": "html-keyboard-response",
		"trial_index": 298,
		"time_elapsed": 505636,
		"internal_node_id": "0.0-3.0-1.240"
	},
	{
		"rt": 1334,
		"stimulus": "<span style=\"font-size:30px; font-family: monospace\">autorização</span>",
		"response": " ",
		"trial": "exp-sent",
		"word": "autorização",
		"trial_type": "html-keyboard-response",
		"trial_index": 299,
		"time_elapsed": 507221,
		"internal_node_id": "0.0-3.0-1.241"
	},
	{
		"rt": 549,
		"stimulus": "<span style=\"font-size:30px; font-family: monospace\">para</span>",
		"response": " ",
		"trial": "exp-sent",
		"word": "para",
		"trial_type": "html-keyboard-response",
		"trial_index": 300,
		"time_elapsed": 508021,
		"internal_node_id": "0.0-3.0-1.242"
	},
	{
		"rt": 477,
		"stimulus": "<span style=\"font-size:30px; font-family: monospace\">a</span>",
		"response": " ",
		"trial": "exp-sent",
		"word": "a",
		"trial_type": "html-keyboard-response",
		"trial_index": 301,
		"time_elapsed": 508750,
		"internal_node_id": "0.0-3.0-1.243"
	},
	{
		"rt": 1051,
		"stimulus": "<span style=\"font-size:30px; font-family: monospace\">colega.</span>",
		"response": " ",
		"trial": "exp-sent",
		"word": "colega.",
		"trial_type": "html-keyboard-response",
		"trial_index": 302,
		"time_elapsed": 510053,
		"internal_node_id": "0.0-3.0-1.244"
	},
	{
		"rt": null,
		"stimulus": "<span style= \"font-size:30px; font-family: monospace\">+</span>",
		"response": null,
		"trial_part": "fixation",
		"trial_type": "html-keyboard-response",
		"trial_index": 303,
		"time_elapsed": 511304,
		"internal_node_id": "0.0-3.0-0.245-0.245"
	},
	{
		"rt": 851,
		"stimulus": "<span style=\"font-size:30px; font-family: monospace\">Eu</span>",
		"response": " ",
		"trial": "exp-sent",
		"word": "Eu",
		"trial_type": "html-keyboard-response",
		"trial_index": 304,
		"time_elapsed": 512407,
		"internal_node_id": "0.0-3.0-1.245"
	},
	{
		"rt": 611,
		"stimulus": "<span style=\"font-size:30px; font-family: monospace\">sempre</span>",
		"response": " ",
		"trial": "exp-sent",
		"word": "sempre",
		"trial_type": "html-keyboard-response",
		"trial_index": 305,
		"time_elapsed": 513268,
		"internal_node_id": "0.0-3.0-1.246"
	},
	{
		"rt": 621,
		"stimulus": "<span style=\"font-size:30px; font-family: monospace\">fujo</span>",
		"response": " ",
		"trial": "exp-sent",
		"word": "fujo",
		"trial_type": "html-keyboard-response",
		"trial_index": 306,
		"time_elapsed": 514140,
		"internal_node_id": "0.0-3.0-1.247"
	},
	{
		"rt": 626,
		"stimulus": "<span style=\"font-size:30px; font-family: monospace\">de</span>",
		"response": " ",
		"trial": "exp-sent",
		"word": "de",
		"trial_type": "html-keyboard-response",
		"trial_index": 307,
		"time_elapsed": 515017,
		"internal_node_id": "0.0-3.0-1.248"
	},
	{
		"rt": 692,
		"stimulus": "<span style=\"font-size:30px; font-family: monospace\">conflito</span>",
		"response": " ",
		"trial": "exp-sent",
		"word": "conflito",
		"trial_type": "html-keyboard-response",
		"trial_index": 308,
		"time_elapsed": 515961,
		"internal_node_id": "0.0-3.0-1.249"
	},
	{
		"rt": 518,
		"stimulus": "<span style=\"font-size:30px; font-family: monospace\">com</span>",
		"response": " ",
		"trial": "exp-sent",
		"word": "com",
		"trial_type": "html-keyboard-response",
		"trial_index": 309,
		"time_elapsed": 516731,
		"internal_node_id": "0.0-3.0-1.250"
	},
	{
		"rt": 605,
		"stimulus": "<span style=\"font-size:30px; font-family: monospace\">as</span>",
		"response": " ",
		"trial": "exp-sent",
		"word": "as",
		"trial_type": "html-keyboard-response",
		"trial_index": 310,
		"time_elapsed": 517587,
		"internal_node_id": "0.0-3.0-1.251"
	},
	{
		"rt": 888,
		"stimulus": "<span style=\"font-size:30px; font-family: monospace\">pessoas.</span>",
		"response": " ",
		"trial": "exp-sent",
		"word": "pessoas.",
		"trial_type": "html-keyboard-response",
		"trial_index": 311,
		"time_elapsed": 518726,
		"internal_node_id": "0.0-3.0-1.252"
	},
	{
		"rt": null,
		"stimulus": "<span style= \"font-size:30px; font-family: monospace\">+</span>",
		"response": null,
		"trial_part": "fixation",
		"trial_type": "html-keyboard-response",
		"trial_index": 312,
		"time_elapsed": 519978,
		"internal_node_id": "0.0-3.0-0.253-0.253"
	},
	{
		"rt": 564,
		"stimulus": "<span style=\"font-size:30px; font-family: monospace\">O</span>",
		"response": " ",
		"trial": "exp-sent",
		"word": "O",
		"trial_type": "html-keyboard-response",
		"trial_index": 313,
		"time_elapsed": 520793,
		"internal_node_id": "0.0-3.0-1.253"
	},
	{
		"rt": 497,
		"stimulus": "<span style=\"font-size:30px; font-family: monospace\">bolo</span>",
		"response": " ",
		"trial": "exp-sent",
		"word": "bolo",
		"trial_type": "html-keyboard-response",
		"trial_index": 314,
		"time_elapsed": 521541,
		"internal_node_id": "0.0-3.0-1.254"
	},
	{
		"rt": 425,
		"stimulus": "<span style=\"font-size:30px; font-family: monospace\">era</span>",
		"response": " ",
		"trial": "exp-sent",
		"word": "era",
		"trial_type": "html-keyboard-response",
		"trial_index": 315,
		"time_elapsed": 522217,
		"internal_node_id": "0.0-3.0-1.255"
	},
	{
		"rt": 421,
		"stimulus": "<span style=\"font-size:30px; font-family: monospace\">de</span>",
		"response": " ",
		"trial": "exp-sent",
		"word": "de",
		"trial_type": "html-keyboard-response",
		"trial_index": 316,
		"time_elapsed": 522890,
		"internal_node_id": "0.0-3.0-1.256"
	},
	{
		"rt": 763,
		"stimulus": "<span style=\"font-size:30px; font-family: monospace\">abacaxi</span>",
		"response": " ",
		"trial": "exp-sent",
		"word": "abacaxi",
		"trial_type": "html-keyboard-response",
		"trial_index": 317,
		"time_elapsed": 523904,
		"internal_node_id": "0.0-3.0-1.257"
	},
	{
		"rt": 779,
		"stimulus": "<span style=\"font-size:30px; font-family: monospace\">e</span>",
		"response": " ",
		"trial": "exp-sent",
		"word": "e",
		"trial_type": "html-keyboard-response",
		"trial_index": 318,
		"time_elapsed": 524934,
		"internal_node_id": "0.0-3.0-1.258"
	},
	{
		"rt": 636,
		"stimulus": "<span style=\"font-size:30px; font-family: monospace\">creme</span>",
		"response": " ",
		"trial": "exp-sent",
		"word": "creme",
		"trial_type": "html-keyboard-response",
		"trial_index": 319,
		"time_elapsed": 525821,
		"internal_node_id": "0.0-3.0-1.259"
	},
	{
		"rt": 580,
		"stimulus": "<span style=\"font-size:30px; font-family: monospace\">de</span>",
		"response": " ",
		"trial": "exp-sent",
		"word": "de",
		"trial_type": "html-keyboard-response",
		"trial_index": 320,
		"time_elapsed": 526652,
		"internal_node_id": "0.0-3.0-1.260"
	},
	{
		"rt": 657,
		"stimulus": "<span style=\"font-size:30px; font-family: monospace\">coco.</span>",
		"response": " ",
		"trial": "exp-sent",
		"word": "coco.",
		"trial_type": "html-keyboard-response",
		"trial_index": 321,
		"time_elapsed": 527560,
		"internal_node_id": "0.0-3.0-1.261"
	},
	{
		"rt": null,
		"stimulus": "<span style= \"font-size:30px; font-family: monospace\">+</span>",
		"response": null,
		"trial_part": "fixation",
		"trial_type": "html-keyboard-response",
		"trial_index": 322,
		"time_elapsed": 528812,
		"internal_node_id": "0.0-3.0-0.262-0.262"
	},
	{
		"rt": 645,
		"stimulus": "<span style=\"font-size:30px; font-family: monospace\">As</span>",
		"response": " ",
		"trial": "exp-sent",
		"word": "As",
		"trial_type": "html-keyboard-response",
		"trial_index": 323,
		"time_elapsed": 529709,
		"internal_node_id": "0.0-3.0-1.262"
	},
	{
		"rt": 595,
		"stimulus": "<span style=\"font-size:30px; font-family: monospace\">crianças</span>",
		"response": " ",
		"trial": "exp-sent",
		"word": "crianças",
		"trial_type": "html-keyboard-response",
		"trial_index": 324,
		"time_elapsed": 530556,
		"internal_node_id": "0.0-3.0-1.263"
	},
	{
		"rt": 969,
		"stimulus": "<span style=\"font-size:30px; font-family: monospace\">brincaram</span>",
		"response": " ",
		"trial": "exp-sent",
		"word": "brincaram",
		"trial_type": "html-keyboard-response",
		"trial_index": 325,
		"time_elapsed": 531776,
		"internal_node_id": "0.0-3.0-1.264"
	},
	{
		"rt": 501,
		"stimulus": "<span style=\"font-size:30px; font-family: monospace\">com</span>",
		"response": " ",
		"trial": "exp-sent",
		"word": "com",
		"trial_type": "html-keyboard-response",
		"trial_index": 326,
		"time_elapsed": 532529,
		"internal_node_id": "0.0-3.0-1.265"
	},
	{
		"rt": 1272,
		"stimulus": "<span style=\"font-size:30px; font-family: monospace\">bolhas</span>",
		"response": " ",
		"trial": "exp-sent",
		"word": "bolhas",
		"trial_type": "html-keyboard-response",
		"trial_index": 327,
		"time_elapsed": 534053,
		"internal_node_id": "0.0-3.0-1.266"
	},
	{
		"rt": 502,
		"stimulus": "<span style=\"font-size:30px; font-family: monospace\">no</span>",
		"response": " ",
		"trial": "exp-sent",
		"word": "no",
		"trial_type": "html-keyboard-response",
		"trial_index": 328,
		"time_elapsed": 534807,
		"internal_node_id": "0.0-3.0-1.267"
	},
	{
		"rt": 615,
		"stimulus": "<span style=\"font-size:30px; font-family: monospace\">banho.</span>",
		"response": " ",
		"trial": "comp",
		"word": "banho.",
		"trial_type": "html-keyboard-response",
		"trial_index": 329,
		"time_elapsed": 535674,
		"internal_node_id": "0.0-3.0-1.268"
	},
	{
		"rt": 3797,
		"stimulus": "<span style=\"font-size:30px; font-family: monospace\">As crianças brincaram com bolhas?</span>",
		"response": "s",
		"question": "As crianças brincaram com bolhas?",
		"answer": "sim",
		"trial": "comp",
		"trial_type": "html-keyboard-response",
		"trial_index": 330,
		"time_elapsed": 539722,
		"internal_node_id": "0.0-3.0-2.268-0.268",
		"accuracy": false
	},
	{
		"rt": null,
		"stimulus": "<span style= \"font-size:30px; font-family: monospace\">+</span>",
		"response": null,
		"trial_part": "fixation",
		"trial_type": "html-keyboard-response",
		"trial_index": 331,
		"time_elapsed": 541224,
		"internal_node_id": "0.0-3.0-0.269-0.269"
	},
	{
		"rt": 6477,
		"stimulus": "<span style=\"font-size:30px; font-family: monospace\">A</span>",
		"response": " ",
		"trial": "exp-sent",
		"word": "A",
		"trial_type": "html-keyboard-response",
		"trial_index": 332,
		"time_elapsed": 547952,
		"internal_node_id": "0.0-3.0-1.269"
	},
	{
		"rt": 650,
		"stimulus": "<span style=\"font-size:30px; font-family: monospace\">força</span>",
		"response": " ",
		"trial": "exp-sent",
		"word": "força",
		"trial_type": "html-keyboard-response",
		"trial_index": 333,
		"time_elapsed": 548853,
		"internal_node_id": "0.0-3.0-1.270"
	},
	{
		"rt": 682,
		"stimulus": "<span style=\"font-size:30px; font-family: monospace\">d'água</span>",
		"response": " ",
		"trial": "exp-sent",
		"word": "d'água",
		"trial_type": "html-keyboard-response",
		"trial_index": 334,
		"time_elapsed": 549786,
		"internal_node_id": "0.0-3.0-1.271"
	},
	{
		"rt": 580,
		"stimulus": "<span style=\"font-size:30px; font-family: monospace\">estava</span>",
		"response": " ",
		"trial": "exp-sent",
		"word": "estava",
		"trial_type": "html-keyboard-response",
		"trial_index": 335,
		"time_elapsed": 550617,
		"internal_node_id": "0.0-3.0-1.272"
	},
	{
		"rt": 508,
		"stimulus": "<span style=\"font-size:30px; font-family: monospace\">normal</span>",
		"response": " ",
		"trial": "exp-sent",
		"word": "normal",
		"trial_type": "html-keyboard-response",
		"trial_index": 336,
		"time_elapsed": 551376,
		"internal_node_id": "0.0-3.0-1.273"
	},
	{
		"rt": 615,
		"stimulus": "<span style=\"font-size:30px; font-family: monospace\">naquele</span>",
		"response": " ",
		"trial": "exp-sent",
		"word": "naquele",
		"trial_type": "html-keyboard-response",
		"trial_index": 337,
		"time_elapsed": 552242,
		"internal_node_id": "0.0-3.0-1.274"
	},
	{
		"rt": 493,
		"stimulus": "<span style=\"font-size:30px; font-family: monospace\">dia.</span>",
		"response": " ",
		"trial": "exp-sent",
		"word": "dia.",
		"trial_type": "html-keyboard-response",
		"trial_index": 338,
		"time_elapsed": 552986,
		"internal_node_id": "0.0-3.0-1.275"
	},
	{
		"rt": null,
		"stimulus": "<span style= \"font-size:30px; font-family: monospace\">+</span>",
		"response": null,
		"trial_part": "fixation",
		"trial_type": "html-keyboard-response",
		"trial_index": 339,
		"time_elapsed": 554238,
		"internal_node_id": "0.0-3.0-0.276-0.276"
	},
	{
		"rt": 702,
		"stimulus": "<span style=\"font-size:30px; font-family: monospace\">A</span>",
		"response": " ",
		"trial": "exp-sent",
		"word": "A",
		"trial_type": "html-keyboard-response",
		"trial_index": 340,
