[
	{
		"view_history": [
			{
				"page_index": 0,
				"viewing_time": 13443
			}
		],
		"rt": 13445,
		"trial_type": "instructions",
		"trial_index": 0,
		"time_elapsed": 13454,
		"internal_node_id": "0.0-0.0"
	},
	{
		"rt": 19556,
		"response": {
			"tcle": "Concordo voluntariamente em participar da pesquisa conforme texto acima."
		},
		"question_order": [
			0
		],
		"trial_type": "survey-multi-choice",
		"trial_index": 1,
		"time_elapsed": 33216,
		"internal_node_id": "0.0-1.0"
	},
	{
		"rt": 121617,
		"response": {
			"email": "MARMONTELWILMIDE@GMAIL.COM"
		},
		"trial_type": "survey-text",
		"trial_index": 2,
		"time_elapsed": 155853,
		"internal_node_id": "0.0-2.0"
	}
]