"view_history","rt","trial_type","trial_index","time_elapsed","internal_node_id","stimulus","response","trial_part","trial","word","question","answer","accuracy"
"[{""page_index"":0,""viewing_time"":50300},{""page_index"":1,""viewing_time"":20825}]","71127","instructions","0","71130","0.0-0.0","","","","","","","",""
"","null","html-keyboard-response","1","72234","0.0-1.0-0.0-0.0","<span style= ""font-size:30px; font-family: monospace"">+</span>","null","fixation","","","","",""
"","8519","html-keyboard-response","2","81005","0.0-1.0-1.0","<span style=""font-size:30px; font-family: monospace"">O</span>"," ","","prac-sent","O","","",""
"","2404","html-keyboard-response","3","83661","0.0-1.0-1.1","<span style=""font-size:30px; font-family: monospace"">dia</span>"," ","","prac-sent","dia","","",""
"","3614","html-keyboard-response","4","87526","0.0-1.0-1.2","<span style=""font-size:30px; font-family: monospace"">estará</span>"," ","","prac-sent","estará","","",""
"","3434","html-keyboard-response","5","91212","0.0-1.0-1.3","<span style=""font-size:30px; font-family: monospace"">cheio</span>"," ","","prac-sent","cheio","","",""
"","1686","html-keyboard-response","6","93150","0.0-1.0-1.4","<span style=""font-size:30px; font-family: monospace"">de</span>"," ","","prac-sent","de","","",""
"","3096","html-keyboard-response","7","96497","0.0-1.0-1.5","<span style=""font-size:30px; font-family: monospace"">nuvens</span>"," ","","prac-sent","nuvens","","",""
"","2800","html-keyboard-response","8","99549","0.0-1.0-1.6","<span style=""font-size:30px; font-family: monospace"">hoje.</span>"," ","","prac-sent","hoje.","","",""
"","null","html-keyboard-response","9","100801","0.0-1.0-0.7-0.7","<span style= ""font-size:30px; font-family: monospace"">+</span>","null","fixation","","","","",""
"","3926","html-keyboard-response","10","104979","0.0-1.0-1.7","<span style=""font-size:30px; font-family: monospace"">A</span>"," ","","prac-sent","A","","",""
"","1511","html-keyboard-response","11","106741","0.0-1.0-1.8","<span style=""font-size:30px; font-family: monospace"">caneca</span>"," ","","prac-sent","caneca","","",""
"","1081","html-keyboard-response","12","108075","0.0-1.0-1.9","<span style=""font-size:30px; font-family: monospace"">colorida</span>"," ","","prac-sent","colorida","","",""
"","647","html-keyboard-response","13","108972","0.0-1.0-1.10","<span style=""font-size:30px; font-family: monospace"">caiu</span>"," ","","prac-sent","caiu","","",""
"","548","html-keyboard-response","14","109772","0.0-1.0-1.11","<span style=""font-size:30px; font-family: monospace"">da</span>"," ","","prac-sent","da","","",""
"","584","html-keyboard-response","15","110608","0.0-1.0-1.12","<span style=""font-size:30px; font-family: monospace"">mesa</span>"," ","","prac-sent","mesa","","",""
"","548","html-keyboard-response","16","111408","0.0-1.0-1.13","<span style=""font-size:30px; font-family: monospace"">de</span>"," ","","prac-sent","de","","",""
"","2788","html-keyboard-response","17","114447","0.0-1.0-1.14","<span style=""font-size:30px; font-family: monospace"">jantar.</span>"," ","","prac-comp","jantar.","","",""
"","45922","html-keyboard-response","18","160620","0.0-1.0-2.14-0.14","<span style=""font-size:30px; font-family: monospace"">A caneca permaneceu na mesa?</span>","n","","prac-comp","","A caneca permaneceu na mesa?","não","false"
"[{""page_index"":0,""viewing_time"":19080}]","19081","instructions","19","180203","0.0-2.0","","","","","","","",""
"","null","html-keyboard-response","20","181305","0.0-3.0-0.0-0.0","<span style= ""font-size:30px; font-family: monospace"">+</span>","null","fixation","","","","",""
"","3849","html-keyboard-response","21","185406","0.0-3.0-1.0","<span style=""font-size:30px; font-family: monospace"">Ele</span>"," ","","exp-sent","Ele","","",""
"","580","html-keyboard-response","22","186236","0.0-3.0-1.1","<span style=""font-size:30px; font-family: monospace"">é</span>"," ","","exp-sent","é","","",""
"","440","html-keyboard-response","23","186929","0.0-3.0-1.2","<span style=""font-size:30px; font-family: monospace"">um</span>"," ","","exp-sent","um","","",""
"","415","html-keyboard-response","24","187595","0.0-3.0-1.3","<span style=""font-size:30px; font-family: monospace"">pai</span>"," ","","exp-sent","pai","","",""
"","610","html-keyboard-response","25","188456","0.0-3.0-1.4","<span style=""font-size:30px; font-family: monospace"">ausente</span>"," ","","exp-sent","ausente","","",""
"","600","html-keyboard-response","26","189307","0.0-3.0-1.5","<span style=""font-size:30px; font-family: monospace"">e</span>"," ","","exp-sent","e","","",""
"","576","html-keyboard-response","27","190134","0.0-3.0-1.6","<span style=""font-size:30px; font-family: monospace"">muito</span>"," ","","exp-sent","muito","","",""
"","542","html-keyboard-response","28","190927","0.0-3.0-1.7","<span style=""font-size:30px; font-family: monospace"">fofoqueiro.</span>"," ","","exp-sent","fofoqueiro.","","",""
"","null","html-keyboard-response","29","192179","0.0-3.0-0.8-0.8","<span style= ""font-size:30px; font-family: monospace"">+</span>","null","fixation","","","","",""
"","698","html-keyboard-response","30","193128","0.0-3.0-1.8","<span style=""font-size:30px; font-family: monospace"">O</span>"," ","","exp-sent","O","","",""
"","1122","html-keyboard-response","31","194501","0.0-3.0-1.9","<span style=""font-size:30px; font-family: monospace"">filho</span>"," ","","exp-sent","filho","","",""
"","646","html-keyboard-response","32","195399","0.0-3.0-1.10","<span style=""font-size:30px; font-family: monospace"">lavou</span>"," ","","exp-sent","lavou","","",""
"","528","html-keyboard-response","33","196178","0.0-3.0-1.11","<span style=""font-size:30px; font-family: monospace"">a</span>"," ","","exp-sent","a","","",""
"","559","html-keyboard-response","34","196988","0.0-3.0-1.12","<span style=""font-size:30px; font-family: monospace"">roupa</span>"," ","","exp-sent","roupa","","",""
"","579","html-keyboard-response","35","197819","0.0-3.0-1.13","<span style=""font-size:30px; font-family: monospace"">sem</span>"," ","","exp-sent","sem","","",""
"","713","html-keyboard-response","36","198782","0.0-3.0-1.14","<span style=""font-size:30px; font-family: monospace"">nenhuma</span>"," ","","exp-sent","nenhuma","","",""
"","687","html-keyboard-response","37","199720","0.0-3.0-1.15","<span style=""font-size:30px; font-family: monospace"">ajuda.</span>"," ","","exp-sent","ajuda.","","",""
"","null","html-keyboard-response","38","200972","0.0-3.0-0.16-0.16","<span style= ""font-size:30px; font-family: monospace"">+</span>","null","fixation","","","","",""
"","726","html-keyboard-response","39","201950","0.0-3.0-1.16","<span style=""font-size:30px; font-family: monospace"">O</span>"," ","","exp-sent","O","","",""
"","589","html-keyboard-response","40","202791","0.0-3.0-1.17","<span style=""font-size:30px; font-family: monospace"">menino</span>"," ","","exp-sent","menino","","",""
"","709","html-keyboard-response","41","203750","0.0-3.0-1.18","<span style=""font-size:30px; font-family: monospace"">quebrou</span>"," ","","exp-sent","quebrou","","",""
"","553","html-keyboard-response","42","204555","0.0-3.0-1.19","<span style=""font-size:30px; font-family: monospace"">a</span>"," ","","exp-sent","a","","",""
"","651","html-keyboard-response","43","205457","0.0-3.0-1.20","<span style=""font-size:30px; font-family: monospace"">perna</span>"," ","","exp-sent","perna","","",""
"","584","html-keyboard-response","44","206293","0.0-3.0-1.21","<span style=""font-size:30px; font-family: monospace"">nos</span>"," ","","exp-sent","nos","","",""
"","928","html-keyboard-response","45","207472","0.0-3.0-1.22","<span style=""font-size:30px; font-family: monospace"">esportes.</span>"," ","","exp-sent","esportes.","","",""
"","null","html-keyboard-response","46","208724","0.0-3.0-0.23-0.23","<span style= ""font-size:30px; font-family: monospace"">+</span>","null","fixation","","","","",""
"","692","html-keyboard-response","47","209667","0.0-3.0-1.23","<span style=""font-size:30px; font-family: monospace"">Ela</span>"," ","","exp-sent","Ela","","",""
"","625","html-keyboard-response","48","210544","0.0-3.0-1.24","<span style=""font-size:30px; font-family: monospace"">brincou</span>"," ","","exp-sent","brincou","","",""
"","447","html-keyboard-response","49","211242","0.0-3.0-1.25","<span style=""font-size:30px; font-family: monospace"">com</span>"," ","","exp-sent","com","","",""
"","435","html-keyboard-response","50","211928","0.0-3.0-1.26","<span style=""font-size:30px; font-family: monospace"">uma</span>"," ","","exp-sent","uma","","",""
"","621","html-keyboard-response","51","212800","0.0-3.0-1.27","<span style=""font-size:30px; font-family: monospace"">menina</span>"," ","","exp-sent","menina","","",""
"","528","html-keyboard-response","52","213579","0.0-3.0-1.28","<span style=""font-size:30px; font-family: monospace"">da</span>"," ","","exp-sent","da","","",""
"","503","html-keyboard-response","53","214333","0.0-3.0-1.29","<span style=""font-size:30px; font-family: monospace"">turma.</span>"," ","","exp-sent","turma.","","",""
"","null","html-keyboard-response","54","215586","0.0-3.0-0.30-0.30","<span style= ""font-size:30px; font-family: monospace"">+</span>","null","fixation","","","","",""
"","619","html-keyboard-response","55","216457","0.0-3.0-1.30","<span style=""font-size:30px; font-family: monospace"">Ele</span>"," ","","exp-sent","Ele","","",""
"","594","html-keyboard-response","56","217303","0.0-3.0-1.31","<span style=""font-size:30px; font-family: monospace"">esteve</span>"," ","","exp-sent","esteve","","",""
"","523","html-keyboard-response","57","218077","0.0-3.0-1.32","<span style=""font-size:30px; font-family: monospace"">no</span>"," ","","exp-sent","no","","",""
"","867","html-keyboard-response","58","219195","0.0-3.0-1.33","<span style=""font-size:30px; font-family: monospace"">escritório</span>"," ","","exp-sent","escritório","","",""
"","574","html-keyboard-response","59","220020","0.0-3.0-1.34","<span style=""font-size:30px; font-family: monospace"">o</span>"," ","","exp-sent","o","","",""
"","529","html-keyboard-response","60","220801","0.0-3.0-1.35","<span style=""font-size:30px; font-family: monospace"">dia</span>"," ","","exp-sent","dia","","",""
"","596","html-keyboard-response","61","221647","0.0-3.0-1.36","<span style=""font-size:30px; font-family: monospace"">inteiro.</span>"," ","","comp","inteiro.","","",""
"","7183","html-keyboard-response","62","229081","0.0-3.0-2.36-0.36","<span style=""font-size:30px; font-family: monospace"">Ele esteve no parque o dia inteiro?</span>","n","","comp","","Ele esteve no parque o dia inteiro?","não","false"
"","null","html-keyboard-response","63","230583","0.0-3.0-0.37-0.37","<span style= ""font-size:30px; font-family: monospace"">+</span>","null","fixation","","","","",""
"","2269","html-keyboard-response","64","233104","0.0-3.0-1.37","<span style=""font-size:30px; font-family: monospace"">A</span>"," ","","exp-sent","A","","",""
"","439","html-keyboard-response","65","233794","0.0-3.0-1.38","<span style=""font-size:30px; font-family: monospace"">motorista</span>"," ","","exp-sent","motorista","","",""
"","411","html-keyboard-response","66","234457","0.0-3.0-1.39","<span style=""font-size:30px; font-family: monospace"">fez</span>"," ","","exp-sent","fez","","",""
"","349","html-keyboard-response","67","235057","0.0-3.0-1.40","<span style=""font-size:30px; font-family: monospace"">o</span>"," ","","exp-sent","o","","",""
"","395","html-keyboard-response","68","235704","0.0-3.0-1.41","<span style=""font-size:30px; font-family: monospace"">retorno</span>"," ","","exp-sent","retorno","","",""
"","333","html-keyboard-response","69","236288","0.0-3.0-1.42","<span style=""font-size:30px; font-family: monospace"">com</span>"," ","","exp-sent","com","","",""
"","395","html-keyboard-response","70","236934","0.0-3.0-1.43","<span style=""font-size:30px; font-family: monospace"">cuidado.</span>"," ","","exp-sent","cuidado.","","",""
"","null","html-keyboard-response","71","238186","0.0-3.0-0.44-0.44","<span style= ""font-size:30px; font-family: monospace"">+</span>","null","fixation","","","","",""
"","526","html-keyboard-response","72","238963","0.0-3.0-1.44","<span style=""font-size:30px; font-family: monospace"">Contos</span>"," ","","exp-sent","Contos","","",""
"","2164","html-keyboard-response","73","241378","0.0-3.0-1.45","<span style=""font-size:30px; font-family: monospace"">de</span>"," ","","exp-sent","de","","",""
"","652","html-keyboard-response","74","242280","0.0-3.0-1.46","<span style=""font-size:30px; font-family: monospace"">ação</span>"," ","","exp-sent","ação","","",""
"","652","html-keyboard-response","75","243183","0.0-3.0-1.47","<span style=""font-size:30px; font-family: monospace"">têm</span>"," ","","exp-sent","têm","","",""
"","1066","html-keyboard-response","76","244500","0.0-3.0-1.48","<span style=""font-size:30px; font-family: monospace"">chantagem</span>"," ","","exp-sent","chantagem","","",""
"","646","html-keyboard-response","77","245398","0.0-3.0-1.49","<span style=""font-size:30px; font-family: monospace"">e</span>"," ","","exp-sent","e","","",""
"","656","html-keyboard-response","78","246305","0.0-3.0-1.50","<span style=""font-size:30px; font-family: monospace"">muita</span>"," ","","exp-sent","muita","","",""
"","605","html-keyboard-response","79","247162","0.0-3.0-1.51","<span style=""font-size:30px; font-family: monospace"">luta.</span>"," ","","exp-sent","luta.","","",""
"","null","html-keyboard-response","80","248413","0.0-3.0-0.52-0.52","<span style= ""font-size:30px; font-family: monospace"">+</span>","null","fixation","","","","",""
"","630","html-keyboard-response","81","249294","0.0-3.0-1.52","<span style=""font-size:30px; font-family: monospace"">A</span>"," ","","exp-sent","A","","",""
"","943","html-keyboard-response","82","250489","0.0-3.0-1.53","<span style=""font-size:30px; font-family: monospace"">bisavó</span>"," ","","exp-sent","bisavó","","",""
"","693","html-keyboard-response","83","251432","0.0-3.0-1.54","<span style=""font-size:30px; font-family: monospace"">recebeu</span>"," ","","exp-sent","recebeu","","",""
"","518","html-keyboard-response","84","252202","0.0-3.0-1.55","<span style=""font-size:30px; font-family: monospace"">um</span>"," ","","exp-sent","um","","",""
"","842","html-keyboard-response","85","253294","0.0-3.0-1.56","<span style=""font-size:30px; font-family: monospace"">benefício</span>"," ","","exp-sent","benefício","","",""
"","737","html-keyboard-response","86","254283","0.0-3.0-1.57","<span style=""font-size:30px; font-family: monospace"">temporário</span>"," ","","exp-sent","temporário","","",""
"","630","html-keyboard-response","87","255165","0.0-3.0-1.58","<span style=""font-size:30px; font-family: monospace"">do</span>"," ","","exp-sent","do","","",""
"","933","html-keyboard-response","88","256350","0.0-3.0-1.59","<span style=""font-size:30px; font-family: monospace"">governo.</span>"," ","","exp-sent","governo.","","",""
"","null","html-keyboard-response","89","257602","0.0-3.0-0.60-0.60","<span style= ""font-size:30px; font-family: monospace"">+</span>","null","fixation","","","","",""
"","614","html-keyboard-response","90","258467","0.0-3.0-1.60","<span style=""font-size:30px; font-family: monospace"">As</span>"," ","","exp-sent","As","","",""
"","554","html-keyboard-response","91","259272","0.0-3.0-1.61","<span style=""font-size:30px; font-family: monospace"">crianças</span>"," ","","exp-sent","crianças","","",""
"","601","html-keyboard-response","92","260124","0.0-3.0-1.62","<span style=""font-size:30px; font-family: monospace"">brincaram</span>"," ","","exp-sent","brincaram","","",""
"","492","html-keyboard-response","93","260866","0.0-3.0-1.63","<span style=""font-size:30px; font-family: monospace"">no</span>"," ","","exp-sent","no","","",""
"","611","html-keyboard-response","94","261728","0.0-3.0-1.64","<span style=""font-size:30px; font-family: monospace"">balanço</span>"," ","","exp-sent","balanço","","",""
"","554","html-keyboard-response","95","262533","0.0-3.0-1.65","<span style=""font-size:30px; font-family: monospace"">a</span>"," ","","exp-sent","a","","",""
"","595","html-keyboard-response","96","263379","0.0-3.0-1.66","<span style=""font-size:30px; font-family: monospace"">tarde</span>"," ","","exp-sent","tarde","","",""
"","487","html-keyboard-response","97","264117","0.0-3.0-1.67","<span style=""font-size:30px; font-family: monospace"">toda.</span>"," ","","exp-sent","toda.","","",""
"","null","html-keyboard-response","98","265369","0.0-3.0-0.68-0.68","<span style= ""font-size:30px; font-family: monospace"">+</span>","null","fixation","","","","",""
"","650","html-keyboard-response","99","266271","0.0-3.0-1.68","<span style=""font-size:30px; font-family: monospace"">Ela</span>"," ","","exp-sent","Ela","","",""
"","693","html-keyboard-response","100","267215","0.0-3.0-1.69","<span style=""font-size:30px; font-family: monospace"">gosta</span>"," ","","exp-sent","gosta","","",""
"","696","html-keyboard-response","101","268163","0.0-3.0-1.70","<span style=""font-size:30px; font-family: monospace"">de</span>"," ","","exp-sent","de","","",""
"","472","html-keyboard-response","102","268886","0.0-3.0-1.71","<span style=""font-size:30px; font-family: monospace"">comida</span>"," ","","exp-sent","comida","","",""
"","645","html-keyboard-response","103","269782","0.0-3.0-1.72","<span style=""font-size:30px; font-family: monospace"">natural</span>"," ","","exp-sent","natural","","",""
"","616","html-keyboard-response","104","270649","0.0-3.0-1.73","<span style=""font-size:30px; font-family: monospace"">no</span>"," ","","exp-sent","no","","",""
"","615","html-keyboard-response","105","271516","0.0-3.0-1.74","<span style=""font-size:30px; font-family: monospace"">almoço.</span>"," ","","comp","almoço.","","",""
"","4655","html-keyboard-response","106","276422","0.0-3.0-2.74-0.74","<span style=""font-size:30px; font-family: monospace"">Ela gosta de comida natural no almoço?</span>","s","","comp","","Ela gosta de comida natural no almoço?","sim","false"
"","null","html-keyboard-response","107","277923","0.0-3.0-0.75-0.75","<span style= ""font-size:30px; font-family: monospace"">+</span>","null","fixation","","","","",""
"","993","html-keyboard-response","108","279168","0.0-3.0-1.75","<span style=""font-size:30px; font-family: monospace"">O</span>"," ","","exp-sent","O","","",""
"","492","html-keyboard-response","109","279911","0.0-3.0-1.76","<span style=""font-size:30px; font-family: monospace"">moço</span>"," ","","exp-sent","moço","","",""
"","446","html-keyboard-response","110","280609","0.0-3.0-1.77","<span style=""font-size:30px; font-family: monospace"">usou</span>"," ","","exp-sent","usou","","",""
"","400","html-keyboard-response","111","281260","0.0-3.0-1.78","<span style=""font-size:30px; font-family: monospace"">várias</span>"," ","","exp-sent","várias","","",""
"","396","html-keyboard-response","112","281907","0.0-3.0-1.79","<span style=""font-size:30px; font-family: monospace"">velas</span>"," ","","exp-sent","velas","","",""
"","537","html-keyboard-response","113","282696","0.0-3.0-1.80","<span style=""font-size:30px; font-family: monospace"">no</span>"," ","","exp-sent","no","","",""
"","646","html-keyboard-response","114","283593","0.0-3.0-1.81","<span style=""font-size:30px; font-family: monospace"">enfeite</span>"," ","","exp-sent","enfeite","","",""
"","738","html-keyboard-response","115","284583","0.0-3.0-1.82","<span style=""font-size:30px; font-family: monospace"">de</span>"," ","","exp-sent","de","","",""
"","574","html-keyboard-response","116","285409","0.0-3.0-1.83","<span style=""font-size:30px; font-family: monospace"">mesa.</span>"," ","","exp-sent","mesa.","","",""
"","null","html-keyboard-response","117","286661","0.0-3.0-0.84-0.84","<span style= ""font-size:30px; font-family: monospace"">+</span>","null","fixation","","","","",""
"","1793","html-keyboard-response","118","288706","0.0-3.0-1.84","<span style=""font-size:30px; font-family: monospace"">Gostamos</span>"," ","","exp-sent","Gostamos","","",""
"","529","html-keyboard-response","119","289486","0.0-3.0-1.85","<span style=""font-size:30px; font-family: monospace"">de</span>"," ","","exp-sent","de","","",""
"","518","html-keyboard-response","120","290255","0.0-3.0-1.86","<span style=""font-size:30px; font-family: monospace"">suco</span>"," ","","exp-sent","suco","","",""
"","569","html-keyboard-response","121","291076","0.0-3.0-1.87","<span style=""font-size:30px; font-family: monospace"">em</span>"," ","","exp-sent","em","","",""
"","706","html-keyboard-response","122","292033","0.0-3.0-1.88","<span style=""font-size:30px; font-family: monospace"">garrafa</span>"," ","","exp-sent","garrafa","","",""
"","652","html-keyboard-response","123","292937","0.0-3.0-1.89","<span style=""font-size:30px; font-family: monospace"">de</span>"," ","","exp-sent","de","","",""
"","1075","html-keyboard-response","124","294264","0.0-3.0-1.90","<span style=""font-size:30px; font-family: monospace"">tamanho</span>"," ","","exp-sent","tamanho","","",""
"","857","html-keyboard-response","125","295371","0.0-3.0-1.91","<span style=""font-size:30px; font-family: monospace"">pequeno.</span>"," ","","exp-sent","pequeno.","","",""
"","null","html-keyboard-response","126","296623","0.0-3.0-0.92-0.92","<span style= ""font-size:30px; font-family: monospace"">+</span>","null","fixation","","","","",""
"","605","html-keyboard-response","127","297480","0.0-3.0-1.92","<span style=""font-size:30px; font-family: monospace"">Sua</span>"," ","","exp-sent","Sua","","",""
"","722","html-keyboard-response","128","298453","0.0-3.0-1.93","<span style=""font-size:30px; font-family: monospace"">filha</span>"," ","","exp-sent","filha","","",""
"","753","html-keyboard-response","129","299458","0.0-3.0-1.94","<span style=""font-size:30px; font-family: monospace"">é</span>"," ","","exp-sent","é","","",""
"","850","html-keyboard-response","130","300560","0.0-3.0-1.95","<span style=""font-size:30px; font-family: monospace"">muito</span>"," ","","exp-sent","muito","","",""
"","969","html-keyboard-response","131","301780","0.0-3.0-1.96","<span style=""font-size:30px; font-family: monospace"">capaz</span>"," ","","exp-sent","capaz","","",""
"","907","html-keyboard-response","132","302939","0.0-3.0-1.97","<span style=""font-size:30px; font-family: monospace"">e</span>"," ","","exp-sent","e","","",""
"","1625","html-keyboard-response","133","304816","0.0-3.0-1.98","<span style=""font-size:30px; font-family: monospace"">esforçada.</span>"," ","","exp-sent","esforçada.","","",""
"","null","html-keyboard-response","134","306068","0.0-3.0-0.99-0.99","<span style= ""font-size:30px; font-family: monospace"">+</span>","null","fixation","","","","",""
"","809","html-keyboard-response","135","307128","0.0-3.0-1.99","<span style=""font-size:30px; font-family: monospace"">A</span>"," ","","exp-sent","A","","",""
"","904","html-keyboard-response","136","308283","0.0-3.0-1.100","<span style=""font-size:30px; font-family: monospace"">batida</span>"," ","","exp-sent","batida","","",""
"","758","html-keyboard-response","137","309292","0.0-3.0-1.101","<span style=""font-size:30px; font-family: monospace"">causou</span>"," ","","exp-sent","causou","","",""
"","764","html-keyboard-response","138","310308","0.0-3.0-1.102","<span style=""font-size:30px; font-family: monospace"">muita</span>"," ","","exp-sent","muita","","",""
"","727","html-keyboard-response","139","311287","0.0-3.0-1.103","<span style=""font-size:30px; font-family: monospace"">confusão</span>"," ","","exp-sent","confusão","","",""
"","681","html-keyboard-response","140","312220","0.0-3.0-1.104","<span style=""font-size:30px; font-family: monospace"">na</span>"," ","","exp-sent","na","","",""
"","933","html-keyboard-response","141","313404","0.0-3.0-1.105","<span style=""font-size:30px; font-family: monospace"">estrada.</span>"," ","","exp-sent","estrada.","","",""
"","null","html-keyboard-response","142","314656","0.0-3.0-0.106-0.106","<span style= ""font-size:30px; font-family: monospace"">+</span>","null","fixation","","","","",""
"","758","html-keyboard-response","143","315665","0.0-3.0-1.106","<span style=""font-size:30px; font-family: monospace"">Eu</span>"," ","","exp-sent","Eu","","",""
"","867","html-keyboard-response","144","316783","0.0-3.0-1.107","<span style=""font-size:30px; font-family: monospace"">cozinhei</span>"," ","","exp-sent","cozinhei","","",""
"","580","html-keyboard-response","145","317614","0.0-3.0-1.108","<span style=""font-size:30px; font-family: monospace"">um</span>"," ","","exp-sent","um","","",""
"","642","html-keyboard-response","146","318507","0.0-3.0-1.109","<span style=""font-size:30px; font-family: monospace"">almoço</span>"," ","","exp-sent","almoço","","",""
"","912","html-keyboard-response","147","319670","0.0-3.0-1.110","<span style=""font-size:30px; font-family: monospace"">nutritivo</span>"," ","","exp-sent","nutritivo","","",""
"","518","html-keyboard-response","148","320439","0.0-3.0-1.111","<span style=""font-size:30px; font-family: monospace"">para</span>"," ","","exp-sent","para","","",""
"","507","html-keyboard-response","149","321198","0.0-3.0-1.112","<span style=""font-size:30px; font-family: monospace"">hoje.</span>"," ","","comp","hoje.","","",""
"","3568","html-keyboard-response","150","325018","0.0-3.0-2.112-0.112","<span style=""font-size:30px; font-family: monospace"">O almoço era nutritivo?</span>","s","","comp","","O almoço era nutritivo?","sim","false"
"","null","html-keyboard-response","151","326519","0.0-3.0-0.113-0.113","<span style= ""font-size:30px; font-family: monospace"">+</span>","null","fixation","","","","",""
"","2285","html-keyboard-response","152","329056","0.0-3.0-1.113","<span style=""font-size:30px; font-family: monospace"">Ursos</span>"," ","","exp-sent","Ursos","","",""
"","574","html-keyboard-response","153","329881","0.0-3.0-1.114","<span style=""font-size:30px; font-family: monospace"">têm</span>"," ","","exp-sent","têm","","",""
"","794","html-keyboard-response","154","330928","0.0-3.0-1.115","<span style=""font-size:30px; font-family: monospace"">uma</span>"," ","","exp-sent","uma","","",""
"","2465","html-keyboard-response","155","333644","0.0-3.0-1.116","<span style=""font-size:30px; font-family: monospace"">patada</span>"," ","","exp-sent","patada","","",""
"","883","html-keyboard-response","156","334778","0.0-3.0-1.117","<span style=""font-size:30px; font-family: monospace"">brutal</span>"," ","","exp-sent","brutal","","",""
"","554","html-keyboard-response","157","335583","0.0-3.0-1.118","<span style=""font-size:30px; font-family: monospace"">e</span>"," ","","exp-sent","e","","",""
"","1025","html-keyboard-response","158","336859","0.0-3.0-1.119","<span style=""font-size:30px; font-family: monospace"">poderosa.</span>"," ","","exp-sent","poderosa.","","",""
"","null","html-keyboard-response","159","338111","0.0-3.0-0.120-0.120","<span style= ""font-size:30px; font-family: monospace"">+</span>","null","fixation","","","","",""
"","631","html-keyboard-response","160","338993","0.0-3.0-1.120","<span style=""font-size:30px; font-family: monospace"">Eu</span>"," ","","exp-sent","Eu","","",""
"","719","html-keyboard-response","161","339963","0.0-3.0-1.121","<span style=""font-size:30px; font-family: monospace"">fiz</span>"," ","","exp-sent","fiz","","",""
"","861","html-keyboard-response","162","341075","0.0-3.0-1.122","<span style=""font-size:30px; font-family: monospace"">aulas</span>"," ","","exp-sent","aulas","","",""
"","612","html-keyboard-response","163","341939","0.0-3.0-1.123","<span style=""font-size:30px; font-family: monospace"">de</span>"," ","","exp-sent","de","","",""
"","814","html-keyboard-response","164","343003","0.0-3.0-1.124","<span style=""font-size:30px; font-family: monospace"">espanhol</span>"," ","","exp-sent","espanhol","","",""
"","641","html-keyboard-response","165","343896","0.0-3.0-1.125","<span style=""font-size:30px; font-family: monospace"">nesta</span>"," ","","exp-sent","nesta","","",""
"","640","html-keyboard-response","166","344788","0.0-3.0-1.126","<span style=""font-size:30px; font-family: monospace"">cidade.</span>"," ","","exp-sent","cidade.","","",""
"","null","html-keyboard-response","167","346040","0.0-3.0-0.127-0.127","<span style= ""font-size:30px; font-family: monospace"">+</span>","null","fixation","","","","",""
"","584","html-keyboard-response","168","346875","0.0-3.0-1.127","<span style=""font-size:30px; font-family: monospace"">Ele</span>"," ","","exp-sent","Ele","","",""
"","641","html-keyboard-response","169","347768","0.0-3.0-1.128","<span style=""font-size:30px; font-family: monospace"">comprou</span>"," ","","exp-sent","comprou","","",""
"","569","html-keyboard-response","170","348588","0.0-3.0-1.129","<span style=""font-size:30px; font-family: monospace"">mais</span>"," ","","exp-sent","mais","","",""
"","646","html-keyboard-response","171","349486","0.0-3.0-1.130","<span style=""font-size:30px; font-family: monospace"">uma</span>"," ","","exp-sent","uma","","",""
"","872","html-keyboard-response","172","350609","0.0-3.0-1.131","<span style=""font-size:30px; font-family: monospace"">esponja</span>"," ","","exp-sent","esponja","","",""
"","538","html-keyboard-response","173","351399","0.0-3.0-1.132","<span style=""font-size:30px; font-family: monospace"">para</span>"," ","","exp-sent","para","","",""
"","666","html-keyboard-response","174","352317","0.0-3.0-1.133","<span style=""font-size:30px; font-family: monospace"">a</span>"," ","","exp-sent","a","","",""
"","934","html-keyboard-response","175","353501","0.0-3.0-1.134","<span style=""font-size:30px; font-family: monospace"">cozinha.</span>"," ","","exp-sent","cozinha.","","",""
"","null","html-keyboard-response","176","354753","0.0-3.0-0.135-0.135","<span style= ""font-size:30px; font-family: monospace"">+</span>","null","fixation","","","","",""
"","548","html-keyboard-response","177","355552","0.0-3.0-1.135","<span style=""font-size:30px; font-family: monospace"">Ele</span>"," ","","exp-sent","Ele","","",""
"","631","html-keyboard-response","178","356434","0.0-3.0-1.136","<span style=""font-size:30px; font-family: monospace"">teve</span>"," ","","exp-sent","teve","","",""
"","615","html-keyboard-response","179","357301","0.0-3.0-1.137","<span style=""font-size:30px; font-family: monospace"">um</span>"," ","","exp-sent","um","","",""
"","554","html-keyboard-response","180","358105","0.0-3.0-1.138","<span style=""font-size:30px; font-family: monospace"">sono</span>"," ","","exp-sent","sono","","",""
"","738","html-keyboard-response","181","359094","0.0-3.0-1.139","<span style=""font-size:30px; font-family: monospace"">bizarro</span>"," ","","exp-sent","bizarro","","",""
"","667","html-keyboard-response","182","360012","0.0-3.0-1.140","<span style=""font-size:30px; font-family: monospace"">sem</span>"," ","","exp-sent","sem","","",""
"","821","html-keyboard-response","183","361085","0.0-3.0-1.141","<span style=""font-size:30px; font-family: monospace"">nenhum</span>"," ","","exp-sent","nenhum","","",""
"","738","html-keyboard-response","184","362074","0.0-3.0-1.142","<span style=""font-size:30px; font-family: monospace"">motivo.</span>"," ","","exp-sent","motivo.","","",""
"","null","html-keyboard-response","185","363326","0.0-3.0-0.143-0.143","<span style= ""font-size:30px; font-family: monospace"">+</span>","null","fixation","","","","",""
"","584","html-keyboard-response","186","364161","0.0-3.0-1.143","<span style=""font-size:30px; font-family: monospace"">A</span>"," ","","exp-sent","A","","",""
"","569","html-keyboard-response","187","364981","0.0-3.0-1.144","<span style=""font-size:30px; font-family: monospace"">moça</span>"," ","","exp-sent","moça","","",""
"","621","html-keyboard-response","188","365853","0.0-3.0-1.145","<span style=""font-size:30px; font-family: monospace"">comprou</span>"," ","","exp-sent","comprou","","",""
"","535","html-keyboard-response","189","366639","0.0-3.0-1.146","<span style=""font-size:30px; font-family: monospace"">um</span>"," ","","exp-sent","um","","",""
"","1045","html-keyboard-response","190","367935","0.0-3.0-1.147","<span style=""font-size:30px; font-family: monospace"">diamante</span>"," ","","exp-sent","diamante","","",""
"","708","html-keyboard-response","191","368894","0.0-3.0-1.148","<span style=""font-size:30px; font-family: monospace"">para</span>"," ","","exp-sent","para","","",""
"","749","html-keyboard-response","192","369894","0.0-3.0-1.149","<span style=""font-size:30px; font-family: monospace"">sua</span>"," ","","exp-sent","sua","","",""
"","790","html-keyboard-response","193","370935","0.0-3.0-1.150","<span style=""font-size:30px; font-family: monospace"">prima.</span>"," ","","comp","prima.","","",""
"","10108","html-keyboard-response","194","381294","0.0-3.0-2.150-0.150","<span style=""font-size:30px; font-family: monospace"">A moça comprou um diamante?</span>","s","","comp","","A moça comprou um diamante?","sim","false"
"","null","html-keyboard-response","195","382796","0.0-3.0-0.151-0.151","<span style= ""font-size:30px; font-family: monospace"">+</span>","null","fixation","","","","",""
"","985","html-keyboard-response","196","384033","0.0-3.0-1.151","<span style=""font-size:30px; font-family: monospace"">Eu</span>"," ","","exp-sent","Eu","","",""
"","528","html-keyboard-response","197","384813","0.0-3.0-1.152","<span style=""font-size:30px; font-family: monospace"">gosto</span>"," ","","exp-sent","gosto","","",""
"","482","html-keyboard-response","198","385546","0.0-3.0-1.153","<span style=""font-size:30px; font-family: monospace"">de</span>"," ","","exp-sent","de","","",""
"","630","html-keyboard-response","199","386427","0.0-3.0-1.154","<span style=""font-size:30px; font-family: monospace"">molho</span>"," ","","exp-sent","molho","","",""
"","896","html-keyboard-response","200","387574","0.0-3.0-1.155","<span style=""font-size:30px; font-family: monospace"">picante</span>"," ","","exp-sent","picante","","",""
"","573","html-keyboard-response","201","388399","0.0-3.0-1.156","<span style=""font-size:30px; font-family: monospace"">nas</span>"," ","","exp-sent","nas","","",""
"","810","html-keyboard-response","202","389460","0.0-3.0-1.157","<span style=""font-size:30px; font-family: monospace"">batatas.</span>"," ","","exp-sent","batatas.","","",""
"","null","html-keyboard-response","203","390712","0.0-3.0-0.158-0.158","<span style= ""font-size:30px; font-family: monospace"">+</span>","null","fixation","","","","",""
"","822","html-keyboard-response","204","391785","0.0-3.0-1.158","<span style=""font-size:30px; font-family: monospace"">As</span>"," ","","exp-sent","As","","",""
"","738","html-keyboard-response","205","392774","0.0-3.0-1.159","<span style=""font-size:30px; font-family: monospace"">pessoas</span>"," ","","exp-sent","pessoas","","",""
"","708","html-keyboard-response","206","393733","0.0-3.0-1.160","<span style=""font-size:30px; font-family: monospace"">têm</span>"," ","","exp-sent","têm","","",""
"","579","html-keyboard-response","207","394564","0.0-3.0-1.161","<span style=""font-size:30px; font-family: monospace"">sua</span>"," ","","exp-sent","sua","","",""
"","805","html-keyboard-response","208","395620","0.0-3.0-1.162","<span style=""font-size:30px; font-family: monospace"">liberdade</span>"," ","","exp-sent","liberdade","","",""
"","816","html-keyboard-response","209","396687","0.0-3.0-1.163","<span style=""font-size:30px; font-family: monospace"">até</span>"," ","","exp-sent","até","","",""
"","759","html-keyboard-response","210","397697","0.0-3.0-1.164","<span style=""font-size:30px; font-family: monospace"">certo</span>"," ","","exp-sent","certo","","",""
"","652","html-keyboard-response","211","398600","0.0-3.0-1.165","<span style=""font-size:30px; font-family: monospace"">ponto.</span>"," ","","exp-sent","ponto.","","",""
"","null","html-keyboard-response","212","399864","0.0-3.0-0.166-0.166","<span style= ""font-size:30px; font-family: monospace"">+</span>","null","fixation","","","","",""
"","201","html-keyboard-response","213","400317","0.0-3.0-1.166","<span style=""font-size:30px; font-family: monospace"">A</span>"," ","","exp-sent","A","","",""
"","714","html-keyboard-response","214","401282","0.0-3.0-1.167","<span style=""font-size:30px; font-family: monospace"">empresa</span>"," ","","exp-sent","empresa","","",""
"","483","html-keyboard-response","215","402015","0.0-3.0-1.168","<span style=""font-size:30px; font-family: monospace"">enviou</span>"," ","","exp-sent","enviou","","",""
"","557","html-keyboard-response","216","402823","0.0-3.0-1.169","<span style=""font-size:30px; font-family: monospace"">o</span>"," ","","exp-sent","o","","",""
"","578","html-keyboard-response","217","403653","0.0-3.0-1.170","<span style=""font-size:30px; font-family: monospace"">aviso</span>"," ","","exp-sent","aviso","","",""
"","586","html-keyboard-response","218","404489","0.0-3.0-1.171","<span style=""font-size:30px; font-family: monospace"">hoje</span>"," ","","exp-sent","hoje","","",""
"","559","html-keyboard-response","219","405299","0.0-3.0-1.172","<span style=""font-size:30px; font-family: monospace"">de</span>"," ","","exp-sent","de","","",""
"","579","html-keyboard-response","220","406130","0.0-3.0-1.173","<span style=""font-size:30px; font-family: monospace"">tarde.</span>"," ","","exp-sent","tarde.","","",""
"","null","html-keyboard-response","221","407382","0.0-3.0-0.174-0.174","<span style= ""font-size:30px; font-family: monospace"">+</span>","null","fixation","","","","",""
"","856","html-keyboard-response","222","408489","0.0-3.0-1.174","<span style=""font-size:30px; font-family: monospace"">A</span>"," ","","exp-sent","A","","",""
"","784","html-keyboard-response","223","409526","0.0-3.0-1.175","<span style=""font-size:30px; font-family: monospace"">loja</span>"," ","","exp-sent","loja","","",""
"","692","html-keyboard-response","224","410470","0.0-3.0-1.176","<span style=""font-size:30px; font-family: monospace"">vende</span>"," ","","exp-sent","vende","","",""
"","563","html-keyboard-response","225","411285","0.0-3.0-1.177","<span style=""font-size:30px; font-family: monospace"">tanto</span>"," ","","exp-sent","tanto","","",""
"","2209","html-keyboard-response","226","413745","0.0-3.0-1.178","<span style=""font-size:30px; font-family: monospace"">frituras</span>"," ","","exp-sent","frituras","","",""
"","1255","html-keyboard-response","227","415251","0.0-3.0-1.179","<span style=""font-size:30px; font-family: monospace"">quanto</span>"," ","","exp-sent","quanto","","",""
"","954","html-keyboard-response","228","416456","0.0-3.0-1.180","<span style=""font-size:30px; font-family: monospace"">comidas</span>"," ","","exp-sent","comidas","","",""
"","728","html-keyboard-response","229","417435","0.0-3.0-1.181","<span style=""font-size:30px; font-family: monospace"">leves.</span>"," ","","exp-sent","leves.","","",""
"","null","html-keyboard-response","230","418687","0.0-3.0-0.182-0.182","<span style= ""font-size:30px; font-family: monospace"">+</span>","null","fixation","","","","",""
"","712","html-keyboard-response","231","419650","0.0-3.0-1.182","<span style=""font-size:30px; font-family: monospace"">As</span>"," ","","exp-sent","As","","",""
"","805","html-keyboard-response","232","420706","0.0-3.0-1.183","<span style=""font-size:30px; font-family: monospace"">cadeiras</span>"," ","","exp-sent","cadeiras","","",""
"","852","html-keyboard-response","233","421809","0.0-3.0-1.184","<span style=""font-size:30px; font-family: monospace"">azuis</span>"," ","","exp-sent","azuis","","",""
"","672","html-keyboard-response","234","422732","0.0-3.0-1.185","<span style=""font-size:30px; font-family: monospace"">da</span>"," ","","exp-sent","da","","",""
"","836","html-keyboard-response","235","423820","0.0-3.0-1.186","<span style=""font-size:30px; font-family: monospace"">sala</span>"," ","","exp-sent","sala","","",""
"","803","html-keyboard-response","236","424875","0.0-3.0-1.187","<span style=""font-size:30px; font-family: monospace"">eram</span>"," ","","exp-sent","eram","","",""
"","687","html-keyboard-response","237","425813","0.0-3.0-1.188","<span style=""font-size:30px; font-family: monospace"">da</span>"," ","","exp-sent","da","","",""
"","656","html-keyboard-response","238","426720","0.0-3.0-1.189","<span style=""font-size:30px; font-family: monospace"">minha</span>"," ","","exp-sent","minha","","",""
"","604","html-keyboard-response","239","427577","0.0-3.0-1.190","<span style=""font-size:30px; font-family: monospace"">vó.</span>"," ","","comp","vó.","","",""
"","3441","html-keyboard-response","240","431270","0.0-3.0-2.190-0.190","<span style=""font-size:30px; font-family: monospace"">As cadeiras eram da avó?</span>","s","","comp","","As cadeiras eram da avó?","sim","false"
"","null","html-keyboard-response","241","432771","0.0-3.0-0.191-0.191","<span style= ""font-size:30px; font-family: monospace"">+</span>","null","fixation","","","","",""
"","1747","html-keyboard-response","242","434770","0.0-3.0-1.191","<span style=""font-size:30px; font-family: monospace"">Ganhamos</span>"," ","","exp-sent","Ganhamos","","",""
"","348","html-keyboard-response","243","435370","0.0-3.0-1.192","<span style=""font-size:30px; font-family: monospace"">passagem</span>"," ","","exp-sent","passagem","","",""
"","436","html-keyboard-response","244","436057","0.0-3.0-1.193","<span style=""font-size:30px; font-family: monospace"">para</span>"," ","","exp-sent","para","","",""
"","390","html-keyboard-response","245","436698","0.0-3.0-1.194","<span style=""font-size:30px; font-family: monospace"">uma</span>"," ","","exp-sent","uma","","",""
"","498","html-keyboard-response","246","437446","0.0-3.0-1.195","<span style=""font-size:30px; font-family: monospace"">viagem</span>"," ","","exp-sent","viagem","","",""
"","594","html-keyboard-response","247","438292","0.0-3.0-1.196","<span style=""font-size:30px; font-family: monospace"">de</span>"," ","","exp-sent","de","","",""
"","898","html-keyboard-response","248","439440","0.0-3.0-1.197","<span style=""font-size:30px; font-family: monospace"">férias.</span>"," ","","exp-sent","férias.","","",""
"","null","html-keyboard-response","249","440693","0.0-3.0-0.198-0.198","<span style= ""font-size:30px; font-family: monospace"">+</span>","null","fixation","","","","",""
"","810","html-keyboard-response","250","441753","0.0-3.0-1.198","<span style=""font-size:30px; font-family: monospace"">Caiu</span>"," ","","exp-sent","Caiu","","",""
"","528","html-keyboard-response","251","442533","0.0-3.0-1.199","<span style=""font-size:30px; font-family: monospace"">algo</span>"," ","","exp-sent","algo","","",""
"","615","html-keyboard-response","252","443399","0.0-3.0-1.200","<span style=""font-size:30px; font-family: monospace"">no</span>"," ","","exp-sent","no","","",""
"","574","html-keyboard-response","253","444225","0.0-3.0-1.201","<span style=""font-size:30px; font-family: monospace"">meu</span>"," ","","exp-sent","meu","","",""
"","959","html-keyboard-response","254","445435","0.0-3.0-1.202","<span style=""font-size:30px; font-family: monospace"">olho</span>"," ","","exp-sent","olho","","",""
"","722","html-keyboard-response","255","446409","0.0-3.0-1.203","<span style=""font-size:30px; font-family: monospace"">ontem</span>"," ","","exp-sent","ontem","","",""
"","605","html-keyboard-response","256","447266","0.0-3.0-1.204","<span style=""font-size:30px; font-family: monospace"">de</span>"," ","","exp-sent","de","","",""
"","569","html-keyboard-response","257","448086","0.0-3.0-1.205","<span style=""font-size:30px; font-family: monospace"">tarde.</span>"," ","","exp-sent","tarde.","","",""
"","null","html-keyboard-response","258","449338","0.0-3.0-0.206-0.206","<span style= ""font-size:30px; font-family: monospace"">+</span>","null","fixation","","","","",""
"","768","html-keyboard-response","259","450358","0.0-3.0-1.206","<span style=""font-size:30px; font-family: monospace"">Não</span>"," ","","exp-sent","Não","","",""
"","836","html-keyboard-response","260","451444","0.0-3.0-1.207","<span style=""font-size:30px; font-family: monospace"">havia</span>"," ","","exp-sent","havia","","",""
"","564","html-keyboard-response","261","452260","0.0-3.0-1.208","<span style=""font-size:30px; font-family: monospace"">mais</span>"," ","","exp-sent","mais","","",""
"","606","html-keyboard-response","262","453116","0.0-3.0-1.209","<span style=""font-size:30px; font-family: monospace"">nenhum</span>"," ","","exp-sent","nenhum","","",""
"","734","html-keyboard-response","263","454102","0.0-3.0-1.210","<span style=""font-size:30px; font-family: monospace"">ingresso</span>"," ","","exp-sent","ingresso","","",""
"","512","html-keyboard-response","264","454865","0.0-3.0-1.211","<span style=""font-size:30px; font-family: monospace"">para</span>"," ","","exp-sent","para","","",""
"","614","html-keyboard-response","265","455731","0.0-3.0-1.212","<span style=""font-size:30px; font-family: monospace"">o</span>"," ","","exp-sent","o","","",""
"","594","html-keyboard-response","266","456577","0.0-3.0-1.213","<span style=""font-size:30px; font-family: monospace"">evento.</span>"," ","","exp-sent","evento.","","",""
"","null","html-keyboard-response","267","457828","0.0-3.0-0.214-0.214","<span style= ""font-size:30px; font-family: monospace"">+</span>","null","fixation","","","","",""
"","660","html-keyboard-response","268","458741","0.0-3.0-1.214","<span style=""font-size:30px; font-family: monospace"">A</span>"," ","","exp-sent","A","","",""
"","630","html-keyboard-response","269","459622","0.0-3.0-1.215","<span style=""font-size:30px; font-family: monospace"">médica</span>"," ","","exp-sent","médica","","",""
"","774","html-keyboard-response","270","460647","0.0-3.0-1.216","<span style=""font-size:30px; font-family: monospace"">descobriu</span>"," ","","exp-sent","descobriu","","",""
"","559","html-keyboard-response","271","461458","0.0-3.0-1.217","<span style=""font-size:30px; font-family: monospace"">uma</span>"," ","","exp-sent","uma","","",""
"","534","html-keyboard-response","272","462243","0.0-3.0-1.218","<span style=""font-size:30px; font-family: monospace"">cura</span>"," ","","exp-sent","cura","","",""
"","728","html-keyboard-response","273","463222","0.0-3.0-1.219","<span style=""font-size:30px; font-family: monospace"">para</span>"," ","","exp-sent","para","","",""
"","642","html-keyboard-response","274","464115","0.0-3.0-1.220","<span style=""font-size:30px; font-family: monospace"">a</span>"," ","","exp-sent","a","","",""
"","1148","html-keyboard-response","275","465514","0.0-3.0-1.221","<span style=""font-size:30px; font-family: monospace"">doença.</span>"," ","","exp-sent","doença.","","",""
"","null","html-keyboard-response","276","466766","0.0-3.0-0.222-0.222","<span style= ""font-size:30px; font-family: monospace"">+</span>","null","fixation","","","","",""
"","450","html-keyboard-response","277","467467","0.0-3.0-1.222","<span style=""font-size:30px; font-family: monospace"">O</span>"," ","","exp-sent","O","","",""
"","590","html-keyboard-response","278","468308","0.0-3.0-1.223","<span style=""font-size:30px; font-family: monospace"">menino</span>"," ","","exp-sent","menino","","",""
"","652","html-keyboard-response","279","469211","0.0-3.0-1.224","<span style=""font-size:30px; font-family: monospace"">riscou</span>"," ","","exp-sent","riscou","","",""
"","621","html-keyboard-response","280","470083","0.0-3.0-1.225","<span style=""font-size:30px; font-family: monospace"">o</span>"," ","","exp-sent","o","","",""
"","677","html-keyboard-response","281","471012","0.0-3.0-1.226","<span style=""font-size:30px; font-family: monospace"">caderno</span>"," ","","exp-sent","caderno","","",""
"","595","html-keyboard-response","282","471858","0.0-3.0-1.227","<span style=""font-size:30px; font-family: monospace"">com</span>"," ","","exp-sent","com","","",""
"","533","html-keyboard-response","283","472642","0.0-3.0-1.228","<span style=""font-size:30px; font-family: monospace"">a</span>"," ","","exp-sent","a","","",""
"","861","html-keyboard-response","284","473755","0.0-3.0-1.229","<span style=""font-size:30px; font-family: monospace"">caneta.</span>"," ","","comp","caneta.","","",""
"","14242","html-keyboard-response","285","488249","0.0-3.0-2.229-0.229","<span style=""font-size:30px; font-family: monospace"">O menino riscou a parede com a caneta?</span>","s","","comp","","O menino riscou a parede com a caneta?","não","false"
"","null","html-keyboard-response","286","489750","0.0-3.0-0.230-0.230","<span style= ""font-size:30px; font-family: monospace"">+</span>","null","fixation","","","","",""
"","1456","html-keyboard-response","287","491458","0.0-3.0-1.230","<span style=""font-size:30px; font-family: monospace"">As</span>"," ","","exp-sent","As","","",""
"","594","html-keyboard-response","288","492303","0.0-3.0-1.231","<span style=""font-size:30px; font-family: monospace"">crianças</span>"," ","","exp-sent","crianças","","",""
"","1477","html-keyboard-response","289","494030","0.0-3.0-1.232","<span style=""font-size:30px; font-family: monospace"">viram</span>"," ","","exp-sent","viram","","",""
"","596","html-keyboard-response","290","494877","0.0-3.0-1.233","<span style=""font-size:30px; font-family: monospace"">um</span>"," ","","exp-sent","um","","",""
"","1692","html-keyboard-response","291","496820","0.0-3.0-1.234","<span style=""font-size:30px; font-family: monospace"">vaga-lume</span>"," ","","exp-sent","vaga-lume","","",""
"","621","html-keyboard-response","292","497692","0.0-3.0-1.235","<span style=""font-size:30px; font-family: monospace"">nos</span>"," ","","exp-sent","nos","","",""
"","2170","html-keyboard-response","293","500113","0.0-3.0-1.236","<span style=""font-size:30px; font-family: monospace"">arbustos.</span>"," ","","exp-sent","arbustos.","","",""
"","null","html-keyboard-response","294","501365","0.0-3.0-0.237-0.237","<span style= ""font-size:30px; font-family: monospace"">+</span>","null","fixation","","","","",""
"","753","html-keyboard-response","295","502369","0.0-3.0-1.237","<span style=""font-size:30px; font-family: monospace"">Ontem</span>"," ","","exp-sent","Ontem","","",""
"","811","html-keyboard-response","296","503442","0.0-3.0-1.238","<span style=""font-size:30px; font-family: monospace"">o</span>"," ","","exp-sent","o","","",""
"","1077","html-keyboard-response","297","504769","0.0-3.0-1.239","<span style=""font-size:30px; font-family: monospace"">funcionário</span>"," ","","exp-sent","funcionário","","",""
"","616","html-keyboard-response","298","505636","0.0-3.0-1.240","<span style=""font-size:30px; font-family: monospace"">pediu</span>"," ","","exp-sent","pediu","","",""
"","1334","html-keyboard-response","299","507221","0.0-3.0-1.241","<span style=""font-size:30px; font-family: monospace"">autorização</span>"," ","","exp-sent","autorização","","",""
"","549","html-keyboard-response","300","508021","0.0-3.0-1.242","<span style=""font-size:30px; font-family: monospace"">para</span>"," ","","exp-sent","para","","",""
"","477","html-keyboard-response","301","508750","0.0-3.0-1.243","<span style=""font-size:30px; font-family: monospace"">a</span>"," ","","exp-sent","a","","",""
"","1051","html-keyboard-response","302","510053","0.0-3.0-1.244","<span style=""font-size:30px; font-family: monospace"">colega.</span>"," ","","exp-sent","colega.","","",""
"","null","html-keyboard-response","303","511304","0.0-3.0-0.245-0.245","<span style= ""font-size:30px; font-family: monospace"">+</span>","null","fixation","","","","",""
"","851","html-keyboard-response","304","512407","0.0-3.0-1.245","<span style=""font-size:30px; font-family: monospace"">Eu</span>"," ","","exp-sent","Eu","","",""
"","611","html-keyboard-response","305","513268","0.0-3.0-1.246","<span style=""font-size:30px; font-family: monospace"">sempre</span>"," ","","exp-sent","sempre","","",""
"","621","html-keyboard-response","306","514140","0.0-3.0-1.247","<span style=""font-size:30px; font-family: monospace"">fujo</span>"," ","","exp-sent","fujo","","",""
"","626","html-keyboard-response","307","515017","0.0-3.0-1.248","<span style=""font-size:30px; font-family: monospace"">de</span>"," ","","exp-sent","de","","",""
"","692","html-keyboard-response","308","515961","0.0-3.0-1.249","<span style=""font-size:30px; font-family: monospace"">conflito</span>"," ","","exp-sent","conflito","","",""
"","518","html-keyboard-response","309","516731","0.0-3.0-1.250","<span style=""font-size:30px; font-family: monospace"">com</span>"," ","","exp-sent","com","","",""
"","605","html-keyboard-response","310","517587","0.0-3.0-1.251","<span style=""font-size:30px; font-family: monospace"">as</span>"," ","","exp-sent","as","","",""
"","888","html-keyboard-response","311","518726","0.0-3.0-1.252","<span style=""font-size:30px; font-family: monospace"">pessoas.</span>"," ","","exp-sent","pessoas.","","",""
"","null","html-keyboard-response","312","519978","0.0-3.0-0.253-0.253","<span style= ""font-size:30px; font-family: monospace"">+</span>","null","fixation","","","","",""
"","564","html-keyboard-response","313","520793","0.0-3.0-1.253","<span style=""font-size:30px; font-family: monospace"">O</span>"," ","","exp-sent","O","","",""
"","497","html-keyboard-response","314","521541","0.0-3.0-1.254","<span style=""font-size:30px; font-family: monospace"">bolo</span>"," ","","exp-sent","bolo","","",""
"","425","html-keyboard-response","315","522217","0.0-3.0-1.255","<span style=""font-size:30px; font-family: monospace"">era</span>"," ","","exp-sent","era","","",""
"","421","html-keyboard-response","316","522890","0.0-3.0-1.256","<span style=""font-size:30px; font-family: monospace"">de</span>"," ","","exp-sent","de","","",""
"","763","html-keyboard-response","317","523904","0.0-3.0-1.257","<span style=""font-size:30px; font-family: monospace"">abacaxi</span>"," ","","exp-sent","abacaxi","","",""
"","779","html-keyboard-response","318","524934","0.0-3.0-1.258","<span style=""font-size:30px; font-family: monospace"">e</span>"," ","","exp-sent","e","","",""
"","636","html-keyboard-response","319","525821","0.0-3.0-1.259","<span style=""font-size:30px; font-family: monospace"">creme</span>"," ","","exp-sent","creme","","",""
"","580","html-keyboard-response","320","526652","0.0-3.0-1.260","<span style=""font-size:30px; font-family: monospace"">de</span>"," ","","exp-sent","de","","",""
"","657","html-keyboard-response","321","527560","0.0-3.0-1.261","<span style=""font-size:30px; font-family: monospace"">coco.</span>"," ","","exp-sent","coco.","","",""
"","null","html-keyboard-response","322","528812","0.0-3.0-0.262-0.262","<span style= ""font-size:30px; font-family: monospace"">+</span>","null","fixation","","","","",""
"","645","html-keyboard-response","323","529709","0.0-3.0-1.262","<span style=""font-size:30px; font-family: monospace"">As</span>"," ","","exp-sent","As","","",""
"","595","html-keyboard-response","324","530556","0.0-3.0-1.263","<span style=""font-size:30px; font-family: monospace"">crianças</span>"," ","","exp-sent","crianças","","",""
"","969","html-keyboard-response","325","531776","0.0-3.0-1.264","<span style=""font-size:30px; font-family: monospace"">brincaram</span>"," ","","exp-sent","brincaram","","",""
"","501","html-keyboard-response","326","532529","0.0-3.0-1.265","<span style=""font-size:30px; font-family: monospace"">com</span>"," ","","exp-sent","com","","",""
"","1272","html-keyboard-response","327","534053","0.0-3.0-1.266","<span style=""font-size:30px; font-family: monospace"">bolhas</span>"," ","","exp-sent","bolhas","","",""
"","502","html-keyboard-response","328","534807","0.0-3.0-1.267","<span style=""font-size:30px; font-family: monospace"">no</span>"," ","","exp-sent","no","","",""
"","615","html-keyboard-response","329","535674","0.0-3.0-1.268","<span style=""font-size:30px; font-family: monospace"">banho.</span>"," ","","comp","banho.","","",""
"","3797","html-keyboard-response","330","539722","0.0-3.0-2.268-0.268","<span style=""font-size:30px; font-family: monospace"">As crianças brincaram com bolhas?</span>","s","","comp","","As crianças brincaram com bolhas?","sim","false"
"","null","html-keyboard-response","331","541224","0.0-3.0-0.269-0.269","<span style= ""font-size:30px; font-family: monospace"">+</span>","null","fixation","","","","",""
"","6477","html-keyboard-response","332","547952","0.0-3.0-1.269","<span style=""font-size:30px; font-family: monospace"">A</span>"," ","","exp-sent","A","","",""
"","650","html-keyboard-response","333","548853","0.0-3.0-1.270","<span style=""font-size:30px; font-family: monospace"">força</span>"," ","","exp-sent","força","","",""
"","682","html-keyboard-response","334","549786","0.0-3.0-1.271","<span style=""font-size:30px; font-family: monospace"">d'água</span>"," ","","exp-sent","d'água","","",""
"","580","html-keyboard-response","335","550617","0.0-3.0-1.272","<span style=""font-size:30px; font-family: monospace"">estava</span>"," ","","exp-sent","estava","","",""
"","508","html-keyboard-response","336","551376","0.0-3.0-1.273","<span style=""font-size:30px; font-family: monospace"">normal</span>"," ","","exp-sent","normal","","",""
"","615","html-keyboard-response","337","552242","0.0-3.0-1.274","<span style=""font-size:30px; font-family: monospace"">naquele</span>"," ","","exp-sent","naquele","","",""
"","493","html-keyboard-response","338","552986","0.0-3.0-1.275","<span style=""font-size:30px; font-family: monospace"">dia.</span>"," ","","exp-sent","dia.","","",""
"","null","html-keyboard-response","339","554238","0.0-3.0-0.276-0.276","<span style= ""font-size:30px; font-family: monospace"">+</span>","null","fixation","","","","",""
"","702","html-keyboard-response","340","555191","0.0-3.0-1.276","<span style=""font-size:30px; font-family: monospace"">A</span>"," ","","exp-sent","A","","",""
"","800","html-keyboard-response","341","556242","0.0-3.0-1.277","<span style=""font-size:30px; font-family: monospace"">médica</span>"," ","","exp-sent","médica","","",""
"","549","html-keyboard-response","342","557042","0.0-3.0-1.278","<span style=""font-size:30px; font-family: monospace"">ofereceu</span>"," ","","exp-sent","ofereceu","","",""
"","635","html-keyboard-response","343","557928","0.0-3.0-1.279","<span style=""font-size:30px; font-family: monospace"">a</span>"," ","","exp-sent","a","","",""
"","970","html-keyboard-response","344","559150","0.0-3.0-1.280","<span style=""font-size:30px; font-family: monospace"">pomada</span>"," ","","exp-sent","pomada","","",""
"","594","html-keyboard-response","345","559995","0.0-3.0-1.281","<span style=""font-size:30px; font-family: monospace"">para</span>"," ","","exp-sent","para","","",""
"","569","html-keyboard-response","346","560816","0.0-3.0-1.282","<span style=""font-size:30px; font-family: monospace"">o</span>"," ","","exp-sent","o","","",""
"","595","html-keyboard-response","347","561662","0.0-3.0-1.283","<span style=""font-size:30px; font-family: monospace"">avô.</span>"," ","","exp-sent","avô.","","",""
"","null","html-keyboard-response","348","562914","0.0-3.0-0.284-0.284","<span style= ""font-size:30px; font-family: monospace"">+</span>","null","fixation","","","","",""
"","630","html-keyboard-response","349","563796","0.0-3.0-1.284","<span style=""font-size:30px; font-family: monospace"">Ele</span>"," ","","exp-sent","Ele","","",""
"","1502","html-keyboard-response","350","565549","0.0-3.0-1.285","<span style=""font-size:30px; font-family: monospace"">conversou</span>"," ","","exp-sent","conversou","","",""
"","483","html-keyboard-response","351","566284","0.0-3.0-1.286","<span style=""font-size:30px; font-family: monospace"">com</span>"," ","","exp-sent","com","","",""
"","430","html-keyboard-response","352","566965","0.0-3.0-1.287","<span style=""font-size:30px; font-family: monospace"">o</span>"," ","","exp-sent","o","","",""
"","702","html-keyboard-response","353","567919","0.0-3.0-1.288","<span style=""font-size:30px; font-family: monospace"">patrão</span>"," ","","exp-sent","patrão","","",""
"","610","html-keyboard-response","354","568780","0.0-3.0-1.289","<span style=""font-size:30px; font-family: monospace"">durante</span>"," ","","exp-sent","durante","","",""
"","519","html-keyboard-response","355","569551","0.0-3.0-1.290","<span style=""font-size:30px; font-family: monospace"">a</span>"," ","","exp-sent","a","","",""
"","569","html-keyboard-response","356","570371","0.0-3.0-1.291","<span style=""font-size:30px; font-family: monospace"">tarde.</span>"," ","","exp-sent","tarde.","","",""
"","null","html-keyboard-response","357","571623","0.0-3.0-0.292-0.292","<span style= ""font-size:30px; font-family: monospace"">+</span>","null","fixation","","","","",""
"","748","html-keyboard-response","358","572622","0.0-3.0-1.292","<span style=""font-size:30px; font-family: monospace"">Algumas</span>"," ","","exp-sent","Algumas","","",""
"","708","html-keyboard-response","359","573581","0.0-3.0-1.293","<span style=""font-size:30px; font-family: monospace"">pessoas</span>"," ","","exp-sent","pessoas","","",""
"","862","html-keyboard-response","360","574694","0.0-3.0-1.294","<span style=""font-size:30px; font-family: monospace"">acreditam</span>"," ","","exp-sent","acreditam","","",""
"","544","html-keyboard-response","361","575489","0.0-3.0-1.295","<span style=""font-size:30px; font-family: monospace"">em</span>"," ","","exp-sent","em","","",""
"","1241","html-keyboard-response","362","576981","0.0-3.0-1.296","<span style=""font-size:30px; font-family: monospace"">espíritos</span>"," ","","exp-sent","espíritos","","",""
"","542","html-keyboard-response","363","577776","0.0-3.0-1.297","<span style=""font-size:30px; font-family: monospace"">e</span>"," ","","exp-sent","e","","",""
"","456","html-keyboard-response","364","578483","0.0-3.0-1.298","<span style=""font-size:30px; font-family: monospace"">em</span>"," ","","exp-sent","em","","",""
"","687","html-keyboard-response","365","579422","0.0-3.0-1.299","<span style=""font-size:30px; font-family: monospace"">outras</span>"," ","","exp-sent","outras","","",""
"","862","html-keyboard-response","366","580536","0.0-3.0-1.300","<span style=""font-size:30px; font-family: monospace"">vidas.</span>"," ","","exp-sent","vidas.","","",""
"","null","html-keyboard-response","367","581788","0.0-3.0-0.301-0.301","<span style= ""font-size:30px; font-family: monospace"">+</span>","null","fixation","","","","",""
"","716","html-keyboard-response","368","582756","0.0-3.0-1.301","<span style=""font-size:30px; font-family: monospace"">Ela</span>"," ","","exp-sent","Ela","","",""
"","713","html-keyboard-response","369","583720","0.0-3.0-1.302","<span style=""font-size:30px; font-family: monospace"">gosta</span>"," ","","exp-sent","gosta","","",""
"","544","html-keyboard-response","370","584515","0.0-3.0-1.303","<span style=""font-size:30px; font-family: monospace"">de</span>"," ","","exp-sent","de","","",""
"","610","html-keyboard-response","371","585377","0.0-3.0-1.304","<span style=""font-size:30px; font-family: monospace"">estudar</span>"," ","","exp-sent","estudar","","",""
"","897","html-keyboard-response","372","586525","0.0-3.0-1.305","<span style=""font-size:30px; font-family: monospace"">matemática</span>"," ","","exp-sent","matemática","","",""
"","671","html-keyboard-response","373","587448","0.0-3.0-1.306","<span style=""font-size:30px; font-family: monospace"">com</span>"," ","","exp-sent","com","","",""
"","796","html-keyboard-response","374","588494","0.0-3.0-1.307","<span style=""font-size:30px; font-family: monospace"">colegas.</span>"," ","","comp","colegas.","","",""
"","6882","html-keyboard-response","375","595628","0.0-3.0-2.307-0.307","<span style=""font-size:30px; font-family: monospace"">Ela gosta de estudar física?</span>","n","","comp","","Ela gosta de estudar física?","não","false"
"","null","html-keyboard-response","376","597130","0.0-3.0-0.308-0.308","<span style= ""font-size:30px; font-family: monospace"">+</span>","null","fixation","","","","",""
"","2017","html-keyboard-response","377","599399","0.0-3.0-1.308","<span style=""font-size:30px; font-family: monospace"">O</span>"," ","","exp-sent","O","","",""
"","1277","html-keyboard-response","378","600927","0.0-3.0-1.309","<span style=""font-size:30px; font-family: monospace"">travesseiro</span>"," ","","exp-sent","travesseiro","","",""
"","319","html-keyboard-response","379","601496","0.0-3.0-1.310","<span style=""font-size:30px; font-family: monospace"">era</span>"," ","","exp-sent","era","","",""
"","420","html-keyboard-response","380","602168","0.0-3.0-1.311","<span style=""font-size:30px; font-family: monospace"">muito</span>"," ","","exp-sent","muito","","",""
"","369","html-keyboard-response","381","602789","0.0-3.0-1.312","<span style=""font-size:30px; font-family: monospace"">macio</span>"," ","","exp-sent","macio","","",""
"","734","html-keyboard-response","382","603774","0.0-3.0-1.313","<span style=""font-size:30px; font-family: monospace"">e</span>"," ","","exp-sent","e","","",""
"","785","html-keyboard-response","383","604810","0.0-3.0-1.314","<span style=""font-size:30px; font-family: monospace"">confortável.</span>"," ","","exp-sent","confortável.","","",""
"","null","html-keyboard-response","384","606062","0.0-3.0-0.315-0.315","<span style= ""font-size:30px; font-family: monospace"">+</span>","null","fixation","","","","",""
"","647","html-keyboard-response","385","606960","0.0-3.0-1.315","<span style=""font-size:30px; font-family: monospace"">Hoje</span>"," ","","exp-sent","Hoje","","",""
"","523","html-keyboard-response","386","607734","0.0-3.0-1.316","<span style=""font-size:30px; font-family: monospace"">a</span>"," ","","exp-sent","a","","",""
"","954","html-keyboard-response","387","608939","0.0-3.0-1.317","<span style=""font-size:30px; font-family: monospace"">atendente</span>"," ","","exp-sent","atendente","","",""
"","682","html-keyboard-response","388","609873","0.0-3.0-1.318","<span style=""font-size:30px; font-family: monospace"">estava</span>"," ","","exp-sent","estava","","",""
"","795","html-keyboard-response","389","610919","0.0-3.0-1.319","<span style=""font-size:30px; font-family: monospace"">furiosa</span>"," ","","exp-sent","furiosa","","",""
"","549","html-keyboard-response","390","611720","0.0-3.0-1.320","<span style=""font-size:30px; font-family: monospace"">com</span>"," ","","exp-sent","com","","",""
"","533","html-keyboard-response","391","612505","0.0-3.0-1.321","<span style=""font-size:30px; font-family: monospace"">o</span>"," ","","exp-sent","o","","",""
"","687","html-keyboard-response","392","613443","0.0-3.0-1.322","<span style=""font-size:30px; font-family: monospace"">cliente.</span>"," ","","exp-sent","cliente.","","",""
"","null","html-keyboard-response","393","614695","0.0-3.0-0.323-0.323","<span style= ""font-size:30px; font-family: monospace"">+</span>","null","fixation","","","","",""
"","497","html-keyboard-response","394","615443","0.0-3.0-1.323","<span style=""font-size:30px; font-family: monospace"">O</span>"," ","","exp-sent","O","","",""
"","764","html-keyboard-response","395","616459","0.0-3.0-1.324","<span style=""font-size:30px; font-family: monospace"">vizinho</span>"," ","","exp-sent","vizinho","","",""
"","960","html-keyboard-response","396","617670","0.0-3.0-1.325","<span style=""font-size:30px; font-family: monospace"">é</span>"," ","","exp-sent","é","","",""
"","983","html-keyboard-response","397","618904","0.0-3.0-1.326","<span style=""font-size:30px; font-family: monospace"">um</span>"," ","","exp-sent","um","","",""
"","1661","html-keyboard-response","398","620817","0.0-3.0-1.327","<span style=""font-size:30px; font-family: monospace"">arquiteto</span>"," ","","exp-sent","arquiteto","","",""
"","698","html-keyboard-response","399","621766","0.0-3.0-1.328","<span style=""font-size:30px; font-family: monospace"">muito</span>"," ","","exp-sent","muito","","",""
"","2425","html-keyboard-response","400","624442","0.0-3.0-1.329","<span style=""font-size:30px; font-family: monospace"">excêntrico.</span>"," ","","exp-sent","excêntrico.","","",""
"","null","html-keyboard-response","401","625694","0.0-3.0-0.330-0.330","<span style= ""font-size:30px; font-family: monospace"">+</span>","null","fixation","","","","",""
"","754","html-keyboard-response","402","626699","0.0-3.0-1.330","<span style=""font-size:30px; font-family: monospace"">A</span>"," ","","exp-sent","A","","",""
"","800","html-keyboard-response","403","627752","0.0-3.0-1.331","<span style=""font-size:30px; font-family: monospace"">nossa</span>"," ","","exp-sent","nossa","","",""
"","697","html-keyboard-response","404","628700","0.0-3.0-1.332","<span style=""font-size:30px; font-family: monospace"">colega</span>"," ","","exp-sent","colega","","",""
"","616","html-keyboard-response","405","629567","0.0-3.0-1.333","<span style=""font-size:30px; font-family: monospace"">foi</span>"," ","","exp-sent","foi","","",""
"","595","html-keyboard-response","406","630413","0.0-3.0-1.334","<span style=""font-size:30px; font-family: monospace"">má</span>"," ","","exp-sent","má","","",""
"","657","html-keyboard-response","407","631322","0.0-3.0-1.335","<span style=""font-size:30px; font-family: monospace"">com</span>"," ","","exp-sent","com","","",""
"","661","html-keyboard-response","408","632234","0.0-3.0-1.336","<span style=""font-size:30px; font-family: monospace"">as</span>"," ","","exp-sent","as","","",""
"","810","html-keyboard-response","409","633296","0.0-3.0-1.337","<span style=""font-size:30px; font-family: monospace"">crianças.</span>"," ","","exp-sent","crianças.","","",""
"","null","html-keyboard-response","410","634548","0.0-3.0-0.338-0.338","<span style= ""font-size:30px; font-family: monospace"">+</span>","null","fixation","","","","",""
"","1086","html-keyboard-response","411","635885","0.0-3.0-1.338","<span style=""font-size:30px; font-family: monospace"">Virtudes</span>"," ","","exp-sent","Virtudes","","",""
"","626","html-keyboard-response","412","636762","0.0-3.0-1.339","<span style=""font-size:30px; font-family: monospace"">não</span>"," ","","exp-sent","não","","",""
"","611","html-keyboard-response","413","637624","0.0-3.0-1.340","<span style=""font-size:30px; font-family: monospace"">são</span>"," ","","exp-sent","são","","",""
"","1483","html-keyboard-response","414","639359","0.0-3.0-1.341","<span style=""font-size:30px; font-family: monospace"">preguiça,</span>"," ","","exp-sent","preguiça,","","",""
"","1240","html-keyboard-response","415","640850","0.0-3.0-1.342","<span style=""font-size:30px; font-family: monospace"">gula</span>"," ","","exp-sent","gula","","",""
"","872","html-keyboard-response","416","641974","0.0-3.0-1.343","<span style=""font-size:30px; font-family: monospace"">nem</span>"," ","","exp-sent","nem","","",""
"","2687","html-keyboard-response","417","644912","0.0-3.0-1.344","<span style=""font-size:30px; font-family: monospace"">ganância.</span>"," ","","comp","ganância.","","",""
"","19370","html-keyboard-response","418","664534","0.0-3.0-2.344-0.344","<span style=""font-size:30px; font-family: monospace"">Preguiça é uma virtude?</span>","n","","comp","","Preguiça é uma virtude?","não","false"
"","null","html-keyboard-response","419","666036","0.0-3.0-0.345-0.345","<span style= ""font-size:30px; font-family: monospace"">+</span>","null","fixation","","","","",""
"","1370","html-keyboard-response","420","667656","0.0-3.0-1.345","<span style=""font-size:30px; font-family: monospace"">Minha</span>"," ","","exp-sent","Minha","","",""
"","729","html-keyboard-response","421","668637","0.0-3.0-1.346","<span style=""font-size:30px; font-family: monospace"">prima</span>"," ","","exp-sent","prima","","",""
"","779","html-keyboard-response","422","669667","0.0-3.0-1.347","<span style=""font-size:30px; font-family: monospace"">trocou</span>"," ","","exp-sent","trocou","","",""
"","528","html-keyboard-response","423","670446","0.0-3.0-1.348","<span style=""font-size:30px; font-family: monospace"">a</span>"," ","","exp-sent","a","","",""
"","713","html-keyboard-response","424","671410","0.0-3.0-1.349","<span style=""font-size:30px; font-family: monospace"">tela</span>"," ","","exp-sent","tela","","",""
"","482","html-keyboard-response","425","672144","0.0-3.0-1.350","<span style=""font-size:30px; font-family: monospace"">do</span>"," ","","exp-sent","do","","",""
"","1082","html-keyboard-response","426","673477","0.0-3.0-1.351","<span style=""font-size:30px; font-family: monospace"">celular</span>"," ","","exp-sent","celular","","",""
"","796","html-keyboard-response","427","674523","0.0-3.0-1.352","<span style=""font-size:30px; font-family: monospace"">duas</span>"," ","","exp-sent","duas","","",""
"","462","html-keyboard-response","428","675237","0.0-3.0-1.353","<span style=""font-size:30px; font-family: monospace"">vezes.</span>"," ","","exp-sent","vezes.","","",""
"","null","html-keyboard-response","429","676489","0.0-3.0-0.354-0.354","<span style= ""font-size:30px; font-family: monospace"">+</span>","null","fixation","","","","",""
"","716","html-keyboard-response","430","677457","0.0-3.0-1.354","<span style=""font-size:30px; font-family: monospace"">Agora</span>"," ","","exp-sent","Agora","","",""
"","523","html-keyboard-response","431","678231","0.0-3.0-1.355","<span style=""font-size:30px; font-family: monospace"">a</span>"," ","","exp-sent","a","","",""
"","513","html-keyboard-response","432","678995","0.0-3.0-1.356","<span style=""font-size:30px; font-family: monospace"">minha</span>"," ","","exp-sent","minha","","",""
"","927","html-keyboard-response","433","680183","0.0-3.0-1.357","<span style=""font-size:30px; font-family: monospace"">única</span>"," ","","exp-sent","única","","",""
"","836","html-keyboard-response","434","681270","0.0-3.0-1.358","<span style=""font-size:30px; font-family: monospace"">preocupação</span>"," ","","exp-sent","preocupação","","",""
"","564","html-keyboard-response","435","682086","0.0-3.0-1.359","<span style=""font-size:30px; font-family: monospace"">é</span>"," ","","exp-sent","é","","",""
"","517","html-keyboard-response","436","682855","0.0-3.0-1.360","<span style=""font-size:30px; font-family: monospace"">um</span>"," ","","exp-sent","um","","",""
"","1117","html-keyboard-response","437","684224","0.0-3.0-1.361","<span style=""font-size:30px; font-family: monospace"">descanso</span>"," ","","exp-sent","descanso","","",""
"","732","html-keyboard-response","438","685208","0.0-3.0-1.362","<span style=""font-size:30px; font-family: monospace"">tranquilo.</span>"," ","","exp-sent","tranquilo.","","",""
"","null","html-keyboard-response","439","686459","0.0-3.0-0.363-0.363","<span style= ""font-size:30px; font-family: monospace"">+</span>","null","fixation","","","","",""
"","595","html-keyboard-response","440","687306","0.0-3.0-1.363","<span style=""font-size:30px; font-family: monospace"">A</span>"," ","","exp-sent","A","","",""
"","740","html-keyboard-response","441","688296","0.0-3.0-1.364","<span style=""font-size:30px; font-family: monospace"">criança</span>"," ","","exp-sent","criança","","",""
"","593","html-keyboard-response","442","689141","0.0-3.0-1.365","<span style=""font-size:30px; font-family: monospace"">ganhou</span>"," ","","exp-sent","ganhou","","",""
"","546","html-keyboard-response","443","689937","0.0-3.0-1.366","<span style=""font-size:30px; font-family: monospace"">um</span>"," ","","exp-sent","um","","",""
"","968","html-keyboard-response","444","691157","0.0-3.0-1.367","<span style=""font-size:30px; font-family: monospace"">presente</span>"," ","","exp-sent","presente","","",""
"","1210","html-keyboard-response","445","692618","0.0-3.0-1.368","<span style=""font-size:30px; font-family: monospace"">maravilhoso.</span>"," ","","exp-sent","maravilhoso.","","",""
"","null","html-keyboard-response","446","693869","0.0-3.0-0.369-0.369","<span style= ""font-size:30px; font-family: monospace"">+</span>","null","fixation","","","","",""
"","569","html-keyboard-response","447","694689","0.0-3.0-1.369","<span style=""font-size:30px; font-family: monospace"">Os</span>"," ","","exp-sent","Os","","",""
"","575","html-keyboard-response","448","695515","0.0-3.0-1.370","<span style=""font-size:30px; font-family: monospace"">bichos</span>"," ","","exp-sent","bichos","","",""
"","554","html-keyboard-response","449","696321","0.0-3.0-1.371","<span style=""font-size:30px; font-family: monospace"">têm</span>"," ","","exp-sent","têm","","",""
"","455","html-keyboard-response","450","697028","0.0-3.0-1.372","<span style=""font-size:30px; font-family: monospace"">um</span>"," ","","exp-sent","um","","",""
"","2303","html-keyboard-response","451","699582","0.0-3.0-1.373","<span style=""font-size:30px; font-family: monospace"">instinto</span>"," ","","exp-sent","instinto","","",""
"","615","html-keyboard-response","452","700448","0.0-3.0-1.374","<span style=""font-size:30px; font-family: monospace"">de</span>"," ","","exp-sent","de","","",""
"","1749","html-keyboard-response","453","702448","0.0-3.0-1.375","<span style=""font-size:30px; font-family: monospace"">sobrevivência</span>"," ","","exp-sent","sobrevivência","","",""
"","708","html-keyboard-response","454","703408","0.0-3.0-1.376","<span style=""font-size:30px; font-family: monospace"">forte.</span>"," ","","exp-sent","forte.","","",""
"","null","html-keyboard-response","455","704660","0.0-3.0-0.377-0.377","<span style= ""font-size:30px; font-family: monospace"">+</span>","null","fixation","","","","",""
"","1056","html-keyboard-response","456","705968","0.0-3.0-1.377","<span style=""font-size:30px; font-family: monospace"">Aquele</span>"," ","","exp-sent","Aquele","","",""
"","717","html-keyboard-response","457","706936","0.0-3.0-1.378","<span style=""font-size:30px; font-family: monospace"">menino</span>"," ","","exp-sent","menino","","",""
"","600","html-keyboard-response","458","707787","0.0-3.0-1.379","<span style=""font-size:30px; font-family: monospace"">alto</span>"," ","","exp-sent","alto","","",""
"","815","html-keyboard-response","459","708854","0.0-3.0-1.380","<span style=""font-size:30px; font-family: monospace"">é</span>"," ","","exp-sent","é","","",""
"","995","html-keyboard-response","460","710100","0.0-3.0-1.381","<span style=""font-size:30px; font-family: monospace"">exibido</span>"," ","","exp-sent","exibido","","",""
"","774","html-keyboard-response","461","711125","0.0-3.0-1.382","<span style=""font-size:30px; font-family: monospace"">e</span>"," ","","exp-sent","e","","",""
"","1780","html-keyboard-response","462","713156","0.0-3.0-1.383","<span style=""font-size:30px; font-family: monospace"">sovina.</span>"," ","","comp","sovina.","","",""
"","6899","html-keyboard-response","463","720306","0.0-3.0-2.383-0.383","<span style=""font-size:30px; font-family: monospace"">Aquele menino é humilde?</span>","n","","comp","","Aquele menino é humilde?","não","false"
"","null","html-keyboard-response","464","721808","0.0-3.0-0.384-0.384","<span style= ""font-size:30px; font-family: monospace"">+</span>","null","fixation","","","","",""
"","1172","html-keyboard-response","465","723232","0.0-3.0-1.384","<span style=""font-size:30px; font-family: monospace"">Preciso</span>"," ","","exp-sent","Preciso","","",""
"","668","html-keyboard-response","466","724150","0.0-3.0-1.385","<span style=""font-size:30px; font-family: monospace"">de</span>"," ","","exp-sent","de","","",""
"","1189","html-keyboard-response","467","725591","0.0-3.0-1.386","<span style=""font-size:30px; font-family: monospace"">um</span>"," ","","exp-sent","um","","",""
"","892","html-keyboard-response","468","726734","0.0-3.0-1.387","<span style=""font-size:30px; font-family: monospace"">relatório</span>"," ","","exp-sent","relatório","","",""
"","431","html-keyboard-response","469","727417","0.0-3.0-1.388","<span style=""font-size:30px; font-family: monospace"">oficial</span>"," ","","exp-sent","oficial","","",""
"","488","html-keyboard-response","470","728155","0.0-3.0-1.389","<span style=""font-size:30px; font-family: monospace"">para</span>"," ","","exp-sent","para","","",""
"","723","html-keyboard-response","471","729129","0.0-3.0-1.390","<span style=""font-size:30px; font-family: monospace"">amanhã.</span>"," ","","exp-sent","amanhã.","","",""
"","null","html-keyboard-response","472","730381","0.0-3.0-0.391-0.391","<span style= ""font-size:30px; font-family: monospace"">+</span>","null","fixation","","","","",""
"","641","html-keyboard-response","473","731274","0.0-3.0-1.391","<span style=""font-size:30px; font-family: monospace"">Ele</span>"," ","","exp-sent","Ele","","",""
"","533","html-keyboard-response","474","732058","0.0-3.0-1.392","<span style=""font-size:30px; font-family: monospace"">viu</span>"," ","","exp-sent","viu","","",""
"","421","html-keyboard-response","475","732730","0.0-3.0-1.393","<span style=""font-size:30px; font-family: monospace"">um</span>"," ","","exp-sent","um","","",""
"","1036","html-keyboard-response","476","734017","0.0-3.0-1.394","<span style=""font-size:30px; font-family: monospace"">inseto</span>"," ","","exp-sent","inseto","","",""
"","1472","html-keyboard-response","477","735740","0.0-3.0-1.395","<span style=""font-size:30px; font-family: monospace"">marrom</span>"," ","","exp-sent","marrom","","",""
"","795","html-keyboard-response","478","736786","0.0-3.0-1.396","<span style=""font-size:30px; font-family: monospace"">na</span>"," ","","exp-sent","na","","",""
"","1246","html-keyboard-response","479","738283","0.0-3.0-1.397","<span style=""font-size:30px; font-family: monospace"">parede.</span>"," ","","exp-sent","parede.","","",""
"","null","html-keyboard-response","480","739535","0.0-3.0-0.398-0.398","<span style= ""font-size:30px; font-family: monospace"">+</span>","null","fixation","","","","",""
"","369","html-keyboard-response","481","740156","0.0-3.0-1.398","<span style=""font-size:30px; font-family: monospace"">O</span>"," ","","exp-sent","O","","",""
"","625","html-keyboard-response","482","741032","0.0-3.0-1.399","<span style=""font-size:30px; font-family: monospace"">avô</span>"," ","","exp-sent","avô","","",""
"","499","html-keyboard-response","483","741782","0.0-3.0-1.400","<span style=""font-size:30px; font-family: monospace"">fez</span>"," ","","exp-sent","fez","","",""
"","569","html-keyboard-response","484","742602","0.0-3.0-1.401","<span style=""font-size:30px; font-family: monospace"">uma</span>"," ","","exp-sent","uma","","",""
"","1097","html-keyboard-response","485","743950","0.0-3.0-1.402","<span style=""font-size:30px; font-family: monospace"">lista</span>"," ","","exp-sent","lista","","",""
"","488","html-keyboard-response","486","744689","0.0-3.0-1.403","<span style=""font-size:30px; font-family: monospace"">de</span>"," ","","exp-sent","de","","",""
"","805","html-keyboard-response","487","745745","0.0-3.0-1.404","<span style=""font-size:30px; font-family: monospace"">compras</span>"," ","","exp-sent","compras","","",""
"","657","html-keyboard-response","488","746653","0.0-3.0-1.405","<span style=""font-size:30px; font-family: monospace"">do</span>"," ","","exp-sent","do","","",""
"","1139","html-keyboard-response","489","748044","0.0-3.0-1.406","<span style=""font-size:30px; font-family: monospace"">mercado.</span>"," ","","exp-sent","mercado.","","",""
"","null","html-keyboard-response","490","749295","0.0-3.0-0.407-0.407","<span style= ""font-size:30px; font-family: monospace"">+</span>","null","fixation","","","","",""
"","76","html-keyboard-response","491","749623","0.0-3.0-1.407","<span style=""font-size:30px; font-family: monospace"">As</span>"," ","","exp-sent","As","","",""
"","624","html-keyboard-response","492","750499","0.0-3.0-1.408","<span style=""font-size:30px; font-family: monospace"">pessoas</span>"," ","","exp-sent","pessoas","","",""
"","374","html-keyboard-response","493","751125","0.0-3.0-1.409","<span style=""font-size:30px; font-family: monospace"">não</span>"," ","","exp-sent","não","","",""
"","467","html-keyboard-response","494","751843","0.0-3.0-1.410","<span style=""font-size:30px; font-family: monospace"">enviam</span>"," ","","exp-sent","enviam","","",""
"","876","html-keyboard-response","495","752971","0.0-3.0-1.411","<span style=""font-size:30px; font-family: monospace"">telegrama</span>"," ","","exp-sent","telegrama","","",""
"","529","html-keyboard-response","496","753751","0.0-3.0-1.412","<span style=""font-size:30px; font-family: monospace"">nos</span>"," ","","exp-sent","nos","","",""
"","487","html-keyboard-response","497","754489","0.0-3.0-1.413","<span style=""font-size:30px; font-family: monospace"">dias</span>"," ","","exp-sent","dias","","",""
"","565","html-keyboard-response","498","755304","0.0-3.0-1.414","<span style=""font-size:30px; font-family: monospace"">de</span>"," ","","exp-sent","de","","",""
"","703","html-keyboard-response","499","756258","0.0-3.0-1.415","<span style=""font-size:30px; font-family: monospace"">hoje.</span>"," ","","exp-sent","hoje.","","",""
"","null","html-keyboard-response","500","757511","0.0-3.0-0.416-0.416","<span style= ""font-size:30px; font-family: monospace"">+</span>","null","fixation","","","","",""
"","891","html-keyboard-response","501","758654","0.0-3.0-1.416","<span style=""font-size:30px; font-family: monospace"">Ele</span>"," ","","exp-sent","Ele","","",""
"","799","html-keyboard-response","502","759704","0.0-3.0-1.417","<span style=""font-size:30px; font-family: monospace"">não</span>"," ","","exp-sent","não","","",""
"","666","html-keyboard-response","503","760622","0.0-3.0-1.418","<span style=""font-size:30px; font-family: monospace"">gosta</span>"," ","","exp-sent","gosta","","",""
"","646","html-keyboard-response","504","761519","0.0-3.0-1.419","<span style=""font-size:30px; font-family: monospace"">de</span>"," ","","exp-sent","de","","",""
"","879","html-keyboard-response","505","762649","0.0-3.0-1.420","<span style=""font-size:30px; font-family: monospace"">tomate</span>"," ","","exp-sent","tomate","","",""
"","753","html-keyboard-response","506","763653","0.0-3.0-1.421","<span style=""font-size:30px; font-family: monospace"">misturado</span>"," ","","exp-sent","misturado","","",""
"","728","html-keyboard-response","507","764633","0.0-3.0-1.422","<span style=""font-size:30px; font-family: monospace"">na</span>"," ","","exp-sent","na","","",""
"","647","html-keyboard-response","508","765531","0.0-3.0-1.423","<span style=""font-size:30px; font-family: monospace"">comida.</span>"," ","","comp","comida.","","",""
"","4791","html-keyboard-response","509","770574","0.0-3.0-2.423-0.423","<span style=""font-size:30px; font-family: monospace"">Ele gosta de tomate na comida?</span>","n","","comp","","Ele gosta de tomate na comida?","não","false"
"","null","html-keyboard-response","510","772076","0.0-3.0-0.424-0.424","<span style= ""font-size:30px; font-family: monospace"">+</span>","null","fixation","","","","",""
"","380","html-keyboard-response","511","772708","0.0-3.0-1.424","<span style=""font-size:30px; font-family: monospace"">O</span>"," ","","exp-sent","O","","",""
"","512","html-keyboard-response","512","773471","0.0-3.0-1.425","<span style=""font-size:30px; font-family: monospace"">texto</span>"," ","","exp-sent","texto","","",""
"","692","html-keyboard-response","513","774414","0.0-3.0-1.426","<span style=""font-size:30px; font-family: monospace"">trazia</span>"," ","","exp-sent","trazia","","",""
"","471","html-keyboard-response","514","775137","0.0-3.0-1.427","<span style=""font-size:30px; font-family: monospace"">um</span>"," ","","exp-sent","um","","",""
"","867","html-keyboard-response","515","776255","0.0-3.0-1.428","<span style=""font-size:30px; font-family: monospace"">argumento</span>"," ","","exp-sent","argumento","","",""
"","717","html-keyboard-response","516","777224","0.0-3.0-1.429","<span style=""font-size:30px; font-family: monospace"">central</span>"," ","","exp-sent","central","","",""
"","543","html-keyboard-response","517","778019","0.0-3.0-1.430","<span style=""font-size:30px; font-family: monospace"">para</span>"," ","","exp-sent","para","","",""
"","724","html-keyboard-response","518","778994","0.0-3.0-1.431","<span style=""font-size:30px; font-family: monospace"">a</span>"," ","","exp-sent","a","","",""
"","1195","html-keyboard-response","519","780440","0.0-3.0-1.432","<span style=""font-size:30px; font-family: monospace"">conversa.</span>"," ","","exp-sent","conversa.","","",""
"","null","html-keyboard-response","520","781692","0.0-3.0-0.433-0.433","<span style= ""font-size:30px; font-family: monospace"">+</span>","null","fixation","","","","",""
"","707","html-keyboard-response","521","782650","0.0-3.0-1.433","<span style=""font-size:30px; font-family: monospace"">Ontem</span>"," ","","exp-sent","Ontem","","",""
"","575","html-keyboard-response","522","783477","0.0-3.0-1.434","<span style=""font-size:30px; font-family: monospace"">a</span>"," ","","exp-sent","a","","",""
"","799","html-keyboard-response","523","784527","0.0-3.0-1.435","<span style=""font-size:30px; font-family: monospace"">temperatura</span>"," ","","exp-sent","temperatura","","",""
"","590","html-keyboard-response","524","785368","0.0-3.0-1.436","<span style=""font-size:30px; font-family: monospace"">estava</span>"," ","","exp-sent","estava","","",""
"","1015","html-keyboard-response","525","786634","0.0-3.0-1.437","<span style=""font-size:30px; font-family: monospace"">amena</span>"," ","","exp-sent","amena","","",""
"","699","html-keyboard-response","526","787584","0.0-3.0-1.438","<span style=""font-size:30px; font-family: monospace"">durante</span>"," ","","exp-sent","durante","","",""
"","538","html-keyboard-response","527","788373","0.0-3.0-1.439","<span style=""font-size:30px; font-family: monospace"">o</span>"," ","","exp-sent","o","","",""
"","677","html-keyboard-response","528","789301","0.0-3.0-1.440","<span style=""font-size:30px; font-family: monospace"">dia.</span>"," ","","exp-sent","dia.","","",""
"","null","html-keyboard-response","529","790553","0.0-3.0-0.441-0.441","<span style= ""font-size:30px; font-family: monospace"">+</span>","null","fixation","","","","",""
"","3036","html-keyboard-response","530","793840","0.0-3.0-1.441","<span style=""font-size:30px; font-family: monospace"">Havia</span>"," ","","exp-sent","Havia","","",""
"","465","html-keyboard-response","531","794556","0.0-3.0-1.442","<span style=""font-size:30px; font-family: monospace"">um</span>"," ","","exp-sent","um","","",""
"","897","html-keyboard-response","532","795705","0.0-3.0-1.443","<span style=""font-size:30px; font-family: monospace"">machucado</span>"," ","","exp-sent","machucado","","",""
"","524","html-keyboard-response","533","796480","0.0-3.0-1.444","<span style=""font-size:30px; font-family: monospace"">no</span>"," ","","exp-sent","no","","",""
"","637","html-keyboard-response","534","797367","0.0-3.0-1.445","<span style=""font-size:30px; font-family: monospace"">dedo</span>"," ","","exp-sent","dedo","","",""
"","1600","html-keyboard-response","535","799219","0.0-3.0-1.446","<span style=""font-size:30px; font-family: monospace"">da</span>"," ","","exp-sent","da","","",""
"","784","html-keyboard-response","536","800254","0.0-3.0-1.447","<span style=""font-size:30px; font-family: monospace"">criança.</span>"," ","","exp-sent","criança.","","",""
"","null","html-keyboard-response","537","801506","0.0-3.0-0.448-0.448","<span style= ""font-size:30px; font-family: monospace"">+</span>","null","fixation","","","","",""
"","897","html-keyboard-response","538","802654","0.0-3.0-1.448","<span style=""font-size:30px; font-family: monospace"">A</span>"," ","","exp-sent","A","","",""
"","2020","html-keyboard-response","539","804927","0.0-3.0-1.449","<span style=""font-size:30px; font-family: monospace"">borboleta</span>"," ","","exp-sent","borboleta","","",""
"","917","html-keyboard-response","540","806095","0.0-3.0-1.450","<span style=""font-size:30px; font-family: monospace"">pousou</span>"," ","","exp-sent","pousou","","",""
"","1877","html-keyboard-response","541","808224","0.0-3.0-1.451","<span style=""font-size:30px; font-family: monospace"">no</span>"," ","","exp-sent","no","","",""
"","964","html-keyboard-response","542","809439","0.0-3.0-1.452","<span style=""font-size:30px; font-family: monospace"">ombro</span>"," ","","exp-sent","ombro","","",""
"","831","html-keyboard-response","543","810521","0.0-3.0-1.453","<span style=""font-size:30px; font-family: monospace"">daquela</span>"," ","","exp-sent","daquela","","",""
"","2070","html-keyboard-response","544","812844","0.0-3.0-1.454","<span style=""font-size:30px; font-family: monospace"">moça.</span>"," ","","exp-sent","moça.","","",""
"","null","html-keyboard-response","545","814096","0.0-3.0-0.455-0.455","<span style= ""font-size:30px; font-family: monospace"">+</span>","null","fixation","","","","",""
"","631","html-keyboard-response","546","814978","0.0-3.0-1.455","<span style=""font-size:30px; font-family: monospace"">Eu</span>"," ","","exp-sent","Eu","","",""
"","1020","html-keyboard-response","547","816249","0.0-3.0-1.456","<span style=""font-size:30px; font-family: monospace"">quero</span>"," ","","exp-sent","quero","","",""
"","1173","html-keyboard-response","548","817674","0.0-3.0-1.457","<span style=""font-size:30px; font-family: monospace"">um</span>"," ","","exp-sent","um","","",""
"","986","html-keyboard-response","549","818911","0.0-3.0-1.458","<span style=""font-size:30px; font-family: monospace"">namorado</span>"," ","","exp-sent","namorado","","",""
"","752","html-keyboard-response","550","819915","0.0-3.0-1.459","<span style=""font-size:30px; font-family: monospace"">honesto</span>"," ","","exp-sent","honesto","","",""
"","626","html-keyboard-response","551","820792","0.0-3.0-1.460","<span style=""font-size:30px; font-family: monospace"">e</span>"," ","","exp-sent","e","","",""
"","1287","html-keyboard-response","552","822331","0.0-3.0-1.461","<span style=""font-size:30px; font-family: monospace"">compreensivo.</span>"," ","","comp","compreensivo.","","",""
"","2910","html-keyboard-response","553","825492","0.0-3.0-2.461-0.461","<span style=""font-size:30px; font-family: monospace"">Eu quero um namorado honesto?</span>","s","","comp","","Eu quero um namorado honesto?","sim","false"
"","null","html-keyboard-response","554","826995","0.0-3.0-0.462-0.462","<span style= ""font-size:30px; font-family: monospace"">+</span>","null","fixation","","","","",""
"","932","html-keyboard-response","555","828178","0.0-3.0-1.462","<span style=""font-size:30px; font-family: monospace"">Barulho</span>"," ","","exp-sent","Barulho","","",""
"","441","html-keyboard-response","556","828870","0.0-3.0-1.463","<span style=""font-size:30px; font-family: monospace"">de</span>"," ","","exp-sent","de","","",""
"","492","html-keyboard-response","557","829614","0.0-3.0-1.464","<span style=""font-size:30px; font-family: monospace"">carros</span>"," ","","exp-sent","carros","","",""
"","467","html-keyboard-response","558","830333","0.0-3.0-1.465","<span style=""font-size:30px; font-family: monospace"">é</span>"," ","","exp-sent","é","","",""
"","594","html-keyboard-response","559","831178","0.0-3.0-1.466","<span style=""font-size:30px; font-family: monospace"">irritante</span>"," ","","exp-sent","irritante","","",""
"","847","html-keyboard-response","560","832277","0.0-3.0-1.467","<span style=""font-size:30px; font-family: monospace"">para</span>"," ","","exp-sent","para","","",""
"","472","html-keyboard-response","561","833001","0.0-3.0-1.468","<span style=""font-size:30px; font-family: monospace"">a</span>"," ","","exp-sent","a","","",""
"","472","html-keyboard-response","562","833723","0.0-3.0-1.469","<span style=""font-size:30px; font-family: monospace"">moça.</span>"," ","","exp-sent","moça.","","",""
"","null","html-keyboard-response","563","834975","0.0-3.0-0.470-0.470","<span style= ""font-size:30px; font-family: monospace"">+</span>","null","fixation","","","","",""
"","1175","html-keyboard-response","564","836401","0.0-3.0-1.470","<span style=""font-size:30px; font-family: monospace"">A</span>"," ","","exp-sent","A","","",""
"","553","html-keyboard-response","565","837205","0.0-3.0-1.471","<span style=""font-size:30px; font-family: monospace"">loja</span>"," ","","exp-sent","loja","","",""
"","569","html-keyboard-response","566","838026","0.0-3.0-1.472","<span style=""font-size:30px; font-family: monospace"">também</span>"," ","","exp-sent","também","","",""
"","519","html-keyboard-response","567","838795","0.0-3.0-1.473","<span style=""font-size:30px; font-family: monospace"">vende</span>"," ","","exp-sent","vende","","",""
"","543","html-keyboard-response","568","839590","0.0-3.0-1.474","<span style=""font-size:30px; font-family: monospace"">taça</span>"," ","","exp-sent","taça","","",""
"","472","html-keyboard-response","569","840314","0.0-3.0-1.475","<span style=""font-size:30px; font-family: monospace"">de</span>"," ","","exp-sent","de","","",""
"","573","html-keyboard-response","570","841139","0.0-3.0-1.476","<span style=""font-size:30px; font-family: monospace"">vinho</span>"," ","","exp-sent","vinho","","",""
"","513","html-keyboard-response","571","841903","0.0-3.0-1.477","<span style=""font-size:30px; font-family: monospace"">e</span>"," ","","exp-sent","e","","",""
"","1359","html-keyboard-response","572","843513","0.0-3.0-1.478","<span style=""font-size:30px; font-family: monospace"">espumante.</span>"," ","","exp-sent","espumante.","","",""
"","null","html-keyboard-response","573","844765","0.0-3.0-0.479-0.479","<span style= ""font-size:30px; font-family: monospace"">+</span>","null","fixation","","","","",""
"","1035","html-keyboard-response","574","846050","0.0-3.0-1.479","<span style=""font-size:30px; font-family: monospace"">A</span>"," ","","exp-sent","A","","",""
"","468","html-keyboard-response","575","846770","0.0-3.0-1.480","<span style=""font-size:30px; font-family: monospace"">bruxa</span>"," ","","exp-sent","bruxa","","",""
"","886","html-keyboard-response","576","847907","0.0-3.0-1.481","<span style=""font-size:30px; font-family: monospace"">tinha</span>"," ","","exp-sent","tinha","","",""
"","646","html-keyboard-response","577","848804","0.0-3.0-1.482","<span style=""font-size:30px; font-family: monospace"">uma</span>"," ","","exp-sent","uma","","",""
"","1267","html-keyboard-response","578","850322","0.0-3.0-1.483","<span style=""font-size:30px; font-family: monospace"">vassoura</span>"," ","","exp-sent","vassoura","","",""
"","431","html-keyboard-response","579","851004","0.0-3.0-1.484","<span style=""font-size:30px; font-family: monospace"">e</span>"," ","","exp-sent","e","","",""
"","432","html-keyboard-response","580","851686","0.0-3.0-1.485","<span style=""font-size:30px; font-family: monospace"">um</span>"," ","","exp-sent","um","","",""
"","693","html-keyboard-response","581","852630","0.0-3.0-1.486","<span style=""font-size:30px; font-family: monospace"">gato.</span>"," ","","exp-sent","gato.","","",""
"","null","html-keyboard-response","582","853882","0.0-3.0-0.487-0.487","<span style= ""font-size:30px; font-family: monospace"">+</span>","null","fixation","","","","",""
"","670","html-keyboard-response","583","854803","0.0-3.0-1.487","<span style=""font-size:30px; font-family: monospace"">Eu</span>"," ","","exp-sent","Eu","","",""
"","677","html-keyboard-response","584","855732","0.0-3.0-1.488","<span style=""font-size:30px; font-family: monospace"">me</span>"," ","","exp-sent","me","","",""
