"view_history","rt","trial_type","trial_index","time_elapsed","internal_node_id","stimulus","response","portuguese","kreyol"
"[{""page_index"":0,""viewing_time"":16868}]","16869","instructions","0","16872","0.0-0.0","","","",""
"","null","html-keyboard-response","1","17475","0.0-1.0-0.0","+","null","",""
"","3261","audio-keyboard-response","2","20906","0.0-1.0-1.0","../audio/teste-vocab--90.mp3","s","carniça","kanivò"
"","null","html-keyboard-response","3","21408","0.0-1.0-0.1","+","null","",""
"","9021","audio-keyboard-response","4","30586","0.0-1.0-1.1","../audio/teste-vocab--110.mp3","s","prodígio","pwodij"
"","null","html-keyboard-response","5","31087","0.0-1.0-0.2","+","null","",""
"","1299","audio-keyboard-response","6","32523","0.0-1.0-1.2","../audio/teste-vocab--59.mp3","s","par","pè"
"","null","html-keyboard-response","7","33025","0.0-1.0-0.3","+","null","",""
"","1720","audio-keyboard-response","8","34840","0.0-1.0-1.3","../audio/teste-vocab--23.mp3","s","acariciar","karese"
"","null","html-keyboard-response","9","35341","0.0-1.0-0.4","+","null","",""
"","2240","audio-keyboard-response","10","37758","0.0-1.0-1.4","../audio/teste-vocab--89.mp3","s","classificar","klasifika"
"","null","html-keyboard-response","11","38259","0.0-1.0-0.5","+","null","",""
"","1349","audio-keyboard-response","12","39747","0.0-1.0-1.5","../audio/teste-vocab--45.mp3","s","dentista","dantis"
"","null","html-keyboard-response","13","40248","0.0-1.0-0.6","+","null","",""
"","1741","audio-keyboard-response","14","42074","0.0-1.0-1.6","../audio/teste-vocab--03.mp3","s","balançar","balanse"
"","null","html-keyboard-response","15","42576","0.0-1.0-0.7","+","null","",""
"","1640","audio-keyboard-response","16","44371","0.0-1.0-1.7","../audio/teste-vocab--121.mp3","s","atônito","sezi"
"","null","html-keyboard-response","17","44872","0.0-1.0-0.8","+","null","",""
"","1811","audio-keyboard-response","18","46881","0.0-1.0-1.8","../audio/teste-vocab--91.mp3","s","bússola","bousòl"
"","null","html-keyboard-response","19","47382","0.0-1.0-0.9","+","null","",""
"","1920","audio-keyboard-response","20","49424","0.0-1.0-1.9","../audio/teste-vocab--14.mp3","s","ler","li"
"","null","html-keyboard-response","21","49925","0.0-1.0-0.10","+","null","",""
"","1411","audio-keyboard-response","22","51459","0.0-1.0-1.10","../audio/teste-vocab--64.mp3","s","colher","kiyè"
"","null","html-keyboard-response","23","51960","0.0-1.0-0.11","+","null","",""
"","1288","audio-keyboard-response","24","53403","0.0-1.0-1.11","../audio/teste-vocab--101.mp3","s","incandescente","enkandesan"
"","null","html-keyboard-response","25","53904","0.0-1.0-0.12","+","null","",""
"","1661","audio-keyboard-response","26","55679","0.0-1.0-1.12","../audio/teste-vocab--112.mp3","s","aparição","aparisyon"
"","null","html-keyboard-response","27","56181","0.0-1.0-0.13","+","null","",""
"","1829","audio-keyboard-response","28","58185","0.0-1.0-1.13","../audio/teste-vocab--81.mp3","s","judicial","jidisyè"
"","null","html-keyboard-response","29","58686","0.0-1.0-0.14","+","null","",""
"","1771","audio-keyboard-response","30","60630","0.0-1.0-1.14","../audio/teste-vocab--58.mp3","s","nutritivo","nourisan"
"","null","html-keyboard-response","31","61133","0.0-1.0-0.15","+","null","",""
"","1640","audio-keyboard-response","32","62906","0.0-1.0-1.15","../audio/teste-vocab--62.mp3","s","carretel","bobin"
"","null","html-keyboard-response","33","63408","0.0-1.0-0.16","+","null","",""
"","1251","audio-keyboard-response","34","64789","0.0-1.0-1.16","../audio/teste-vocab--108.mp3","s","moradia","kay"
"","null","html-keyboard-response","35","65290","0.0-1.0-0.17","+","null","",""
"","1349","audio-keyboard-response","36","66722","0.0-1.0-1.17","../audio/teste-vocab--15.mp3","s","flecha","flèch"
"","null","html-keyboard-response","37","67223","0.0-1.0-0.18","+","null","",""
"","1549","audio-keyboard-response","38","68849","0.0-1.0-1.18","../audio/teste-vocab--88.mp3","s","portátil","pòtab"
"","null","html-keyboard-response","39","69350","0.0-1.0-0.19","+","null","",""
"","1600","audio-keyboard-response","40","71125","0.0-1.0-1.19","../audio/teste-vocab--85.mp3","s","trio","trio"
"","null","html-keyboard-response","41","71626","0.0-1.0-0.20","+","null","",""
"","1749","audio-keyboard-response","42","73524","0.0-1.0-1.20","../audio/teste-vocab--09.mp3","s","vela","bouji"
"","null","html-keyboard-response","43","74025","0.0-1.0-0.21","+","null","",""
"","1579","audio-keyboard-response","44","75764","0.0-1.0-1.21","../audio/teste-vocab--96.mp3","s","árido","sechrès"
"","null","html-keyboard-response","45","76265","0.0-1.0-0.22","+","null","",""
"","1520","audio-keyboard-response","46","77958","0.0-1.0-1.22","../audio/teste-vocab--82.mp3","s","roer","ronje"
"","null","html-keyboard-response","47","78459","0.0-1.0-0.23","+","null","",""
"","1528","audio-keyboard-response","48","80127","0.0-1.0-1.23","../audio/teste-vocab--106.mp3","s","lubrificar","grese"
"","null","html-keyboard-response","49","80628","0.0-1.0-0.24","+","null","",""
"","1749","audio-keyboard-response","50","82568","0.0-1.0-1.24","../audio/teste-vocab--74.mp3","s","desilusão","dezilizyon"
"","null","html-keyboard-response","51","83069","0.0-1.0-0.25","+","null","",""
"","1429","audio-keyboard-response","52","84629","0.0-1.0-1.25","../audio/teste-vocab--49.mp3","s","humano","moun"
"","null","html-keyboard-response","53","85131","0.0-1.0-0.26","+","null","",""
"","1760","audio-keyboard-response","54","87065","0.0-1.0-1.26","../audio/teste-vocab--56.mp3","s","agricultura","agrikilti"
"","null","html-keyboard-response","55","87567","0.0-1.0-0.27","+","null","",""
"","1149","audio-keyboard-response","56","88865","0.0-1.0-1.27","../audio/teste-vocab--83.mp3","s","morsa","mòs"
"","null","html-keyboard-response","57","89366","0.0-1.0-0.28","+","null","",""
"","1389","audio-keyboard-response","58","90849","0.0-1.0-1.28","../audio/teste-vocab--92.mp3","s","esférico","won"
"","null","html-keyboard-response","59","91352","0.0-1.0-0.29","+","null","",""
"","1549","audio-keyboard-response","60","93023","0.0-1.0-1.29","../audio/teste-vocab--26.mp3","s","cotovelo","koud"
"","null","html-keyboard-response","61","93525","0.0-1.0-0.30","+","null","",""
"","1731","audio-keyboard-response","62","95413","0.0-1.0-1.30","../audio/teste-vocab--122.mp3","s","transeunte","pasajè"
"","null","html-keyboard-response","63","95915","0.0-1.0-0.31","+","null","",""
"","1829","audio-keyboard-response","64","97942","0.0-1.0-1.31","../audio/teste-vocab--111.mp3","s","jubilosa","rejwisans"
"","null","html-keyboard-response","65","98443","0.0-1.0-0.32","+","null","",""
"","1181","audio-keyboard-response","66","99783","0.0-1.0-1.32","../audio/teste-vocab--25.mp3","s","canguru","kanguwou"
"","null","html-keyboard-response","67","100284","0.0-1.0-0.33","+","null","",""
"","2072","audio-keyboard-response","68","102514","0.0-1.0-1.33","../audio/teste-vocab--109.mp3","s","anfíbio","anfibyen"
"","null","html-keyboard-response","69","103016","0.0-1.0-0.34","+","null","",""
"","1749","audio-keyboard-response","70","104895","0.0-1.0-1.34","../audio/teste-vocab--02.mp3","s","homem","gason"
"","null","html-keyboard-response","71","105397","0.0-1.0-0.35","+","null","",""
"","1301","audio-keyboard-response","72","106823","0.0-1.0-1.35","../audio/teste-vocab--07.mp3","s","abajur","lanp"
"","null","html-keyboard-response","73","107324","0.0-1.0-0.36","+","null","",""
"","1621","audio-keyboard-response","74","109039","0.0-1.0-1.36","../audio/teste-vocab--87.mp3","s","ave","zwazo"
"","null","html-keyboard-response","75","109540","0.0-1.0-0.37","+","null","",""
"","1451","audio-keyboard-response","76","111135","0.0-1.0-1.37","../audio/teste-vocab--46.mp3","s","ombro","zepòl"
"","null","html-keyboard-response","77","111637","0.0-1.0-0.38","+","null","",""
"","1448","audio-keyboard-response","78","113283","0.0-1.0-1.38","../audio/teste-vocab--129.mp3","s","elipse","elips"
"","null","html-keyboard-response","79","113784","0.0-1.0-0.39","+","null","",""
"","1720","audio-keyboard-response","80","115657","0.0-1.0-1.39","../audio/teste-vocab--98.mp3","s","instruir","enstwi"
"","null","html-keyboard-response","81","116158","0.0-1.0-0.40","+","null","",""
"","1800","audio-keyboard-response","82","118165","0.0-1.0-1.40","../audio/teste-vocab--38.mp3","s","cerimônia","seremoni"
"","null","html-keyboard-response","83","118667","0.0-1.0-0.41","+","null","",""
"","1291","audio-keyboard-response","84","120093","0.0-1.0-1.41","../audio/teste-vocab--13.mp3","s","ambulância","anbilans"
"","null","html-keyboard-response","85","120595","0.0-1.0-0.42","+","null","",""
"","1109","audio-keyboard-response","86","121841","0.0-1.0-1.42","../audio/teste-vocab--19.mp3","s","hora","è"
"","null","html-keyboard-response","87","122343","0.0-1.0-0.43","+","null","",""
"","1429","audio-keyboard-response","88","123860","0.0-1.0-1.43","../audio/teste-vocab--79.mp3","s","moldura"," chanbranl"
"","null","html-keyboard-response","89","124362","0.0-1.0-0.44","+","null","",""
"","1589","audio-keyboard-response","90","126096","0.0-1.0-1.44","../audio/teste-vocab--78.mp3","s","quarteto","qwatèt"
"","null","html-keyboard-response","91","126598","0.0-1.0-0.45","+","null","",""
"","1459","audio-keyboard-response","92","128172","0.0-1.0-1.45","../audio/teste-vocab--73.mp3","s","ângulo","ang"
"","null","html-keyboard-response","93","128674","0.0-1.0-0.46","+","null","",""
"","1760","audio-keyboard-response","94","130572","0.0-1.0-1.46","../audio/teste-vocab--114.mp3","s","fragmentar","dechire"
"","null","html-keyboard-response","95","131074","0.0-1.0-0.47","+","null","",""
"","1280","audio-keyboard-response","96","132519","0.0-1.0-1.47","../audio/teste-vocab--103.mp3","s","utensílio","istansil"
"","null","html-keyboard-response","97","133020","0.0-1.0-0.48","+","null","",""
"","1539","audio-keyboard-response","98","134653","0.0-1.0-1.48","../audio/teste-vocab--55.mp3","s","bosque","forè"
"","null","html-keyboard-response","99","135154","0.0-1.0-0.49","+","null","",""
"","1432","audio-keyboard-response","100","136710","0.0-1.0-1.49","../audio/teste-vocab--36.mp3","s","grupo","gwoup"
"","null","html-keyboard-response","101","137211","0.0-1.0-0.50","+","null","",""
"","1509","audio-keyboard-response","102","138894","0.0-1.0-1.50","../audio/teste-vocab--17.mp3","s","móvel","mobil"
"","null","html-keyboard-response","103","139395","0.0-1.0-0.51","+","null","",""
"","1811","audio-keyboard-response","104","141351","0.0-1.0-1.51","../audio/teste-vocab--94.mp3","s","paralelo","paralèl"
"","null","html-keyboard-response","105","141853","0.0-1.0-0.52","+","null","",""
"","1379","audio-keyboard-response","106","143365","0.0-1.0-1.52","../audio/teste-vocab--10.mp3","s","corneta","kòn"
"","null","html-keyboard-response","107","143867","0.0-1.0-0.53","+","null","",""
"","1600","audio-keyboard-response","108","145550","0.0-1.0-1.53","../audio/teste-vocab--06.mp3","s","barco","bato"
"","null","html-keyboard-response","109","146052","0.0-1.0-0.54","+","null","",""
"","1781","audio-keyboard-response","110","147985","0.0-1.0-1.54","../audio/teste-vocab--72.mp3","s","ilha","zile"
"","null","html-keyboard-response","111","148487","0.0-1.0-0.55","+","null","",""
"","800","audio-keyboard-response","112","149441","0.0-1.0-1.55","../audio/teste-vocab--124.mp3","s","obelisco","obelisk"
"","null","html-keyboard-response","113","149943","0.0-1.0-0.56","+","null","",""
"","1891","audio-keyboard-response","114","151913","0.0-1.0-1.56","../audio/teste-vocab--86.mp3","s","pensar","panse"
"","null","html-keyboard-response","115","152415","0.0-1.0-0.57","+","null","",""
"","1792","audio-keyboard-response","116","154352","0.0-1.0-1.57","../audio/teste-vocab--52.mp3","s","construção","konstriksyon"
"","null","html-keyboard-response","117","154853","0.0-1.0-0.58","+","null","",""
"","1640","audio-keyboard-response","118","156649","0.0-1.0-1.58","../audio/teste-vocab--77.mp3","s","comércio","komès"
"","null","html-keyboard-response","119","157150","0.0-1.0-0.59","+","null","",""
"","1261","audio-keyboard-response","120","158541","0.0-1.0-1.59","../audio/teste-vocab--04.mp3","s","roda","wonn"
"","null","html-keyboard-response","121","159042","0.0-1.0-0.60","+","null","",""
"","2368","audio-keyboard-response","122","161520","0.0-1.0-1.60","../audio/teste-vocab--61.mp3","s","iluminação","iliminasyon"
"","null","html-keyboard-response","123","162021","0.0-1.0-0.61","+","null","",""
"","1891","audio-keyboard-response","124","164048","0.0-1.0-1.61","../audio/teste-vocab--119.mp3","s","numeroso","anpil"
"","null","html-keyboard-response","125","164550","0.0-1.0-0.62","+","null","",""
"","1960","audio-keyboard-response","126","166669","0.0-1.0-1.62","../audio/teste-vocab--128.mp3","s","incisivo","ensisiv"
"","null","html-keyboard-response","127","167170","0.0-1.0-0.63","+","null","",""
"","1701","audio-keyboard-response","128","169027","0.0-1.0-1.63","../audio/teste-vocab--127.mp3","s","côncavo","konkav"
"","null","html-keyboard-response","129","169528","0.0-1.0-0.64","+","null","",""
"","2341","audio-keyboard-response","130","172028","0.0-1.0-1.64","../audio/teste-vocab--63.mp3","s","transparente","transparan"
"","null","html-keyboard-response","131","172530","0.0-1.0-0.65","+","null","",""
"","2139","audio-keyboard-response","132","174817","0.0-1.0-1.65","../audio/teste-vocab--80.mp3","s","binóculo","longvi"
"","null","html-keyboard-response","133","175319","0.0-1.0-0.66","+","null","",""
"","1731","audio-keyboard-response","134","177179","0.0-1.0-1.66","../audio/teste-vocab--22.mp3","s","quebrado","kraze"
"","null","html-keyboard-response","135","177681","0.0-1.0-0.67","+","null","",""
"","2251","audio-keyboard-response","136","180076","0.0-1.0-1.67","../audio/teste-vocab--43.mp3","s","mecânico","mekanisyen"
"","null","html-keyboard-response","137","180577","0.0-1.0-0.68","+","null","",""
"","1709","audio-keyboard-response","138","182414","0.0-1.0-1.68","../audio/teste-vocab--104.mp3","s","ira","pwal"
"","null","html-keyboard-response","139","182916","0.0-1.0-0.69","+","null","",""
"","1491","audio-keyboard-response","140","184552","0.0-1.0-1.69","../audio/teste-vocab--95.mp3","s","submergir","plonje"
"","null","html-keyboard-response","141","185053","0.0-1.0-0.70","+","null","",""
"","1920","audio-keyboard-response","142","187121","0.0-1.0-1.70","../audio/teste-vocab--93.mp3","s","felino","leopa"
"","null","html-keyboard-response","143","187623","0.0-1.0-0.71","+","null","",""
"","1499","audio-keyboard-response","144","189238","0.0-1.0-1.71","../audio/teste-vocab--117.mp3","s","córnea","kòn"
"","null","html-keyboard-response","145","189739","0.0-1.0-0.72","+","null","",""
"","1560","audio-keyboard-response","146","191431","0.0-1.0-1.72","../audio/teste-vocab--12.mp3","s","jaula","kaj"
"","null","html-keyboard-response","147","191932","0.0-1.0-0.73","+","null","",""
"","1640","audio-keyboard-response","148","193700","0.0-1.0-1.73","../audio/teste-vocab--39.mp3","s","cobra","koulèv"
"","null","html-keyboard-response","149","194201","0.0-1.0-0.74","+","null","",""
"","1509","audio-keyboard-response","150","195856","0.0-1.0-1.74","../audio/teste-vocab--105.mp3","s","cítrico","sitrik"
"","null","html-keyboard-response","151","196358","0.0-1.0-0.75","+","null","",""
"","2229","audio-keyboard-response","152","198742","0.0-1.0-1.75","../audio/teste-vocab--75.mp3","s","carpinteiro","chapantye"
"","null","html-keyboard-response","153","199243","0.0-1.0-0.76","+","null","",""
"","1501","audio-keyboard-response","154","200910","0.0-1.0-1.76","../audio/teste-vocab--30.mp3","s","pintor","pent"
"","null","html-keyboard-response","155","201412","0.0-1.0-0.77","+","null","",""
"","1941","audio-keyboard-response","156","203504","0.0-1.0-1.77","../audio/teste-vocab--20.mp3","s","medir","mezire"
"","null","html-keyboard-response","157","204006","0.0-1.0-0.78","+","null","",""
"","1800","audio-keyboard-response","158","205935","0.0-1.0-1.78","../audio/teste-vocab--53.mp3","s","orientar","oryante"
"","null","html-keyboard-response","159","206436","0.0-1.0-0.79","+","null","",""
"","1680","audio-keyboard-response","160","208252","0.0-1.0-1.79","../audio/teste-vocab--33.mp3","s","uniforme","inifòm"
"","null","html-keyboard-response","161","208753","0.0-1.0-0.80","+","null","",""
"","1779","audio-keyboard-response","162","210679","0.0-1.0-1.80","../audio/teste-vocab--27.mp3","s","rio","rivyè"
"","null","html-keyboard-response","163","211181","0.0-1.0-0.81","+","null","",""
"","1661","audio-keyboard-response","164","213031","0.0-1.0-1.81","../audio/teste-vocab--76.mp3","s","arquivar","achive"
"","null","html-keyboard-response","165","213532","0.0-1.0-0.82","+","null","",""
"","1411","audio-keyboard-response","166","215067","0.0-1.0-1.82","../audio/teste-vocab--48.mp3","s","joia","bijou"
"","null","html-keyboard-response","167","215568","0.0-1.0-0.83","+","null","",""
"","1760","audio-keyboard-response","168","217415","0.0-1.0-1.83","../audio/teste-vocab--102.mp3","s","arrogante","arogan"
"","null","html-keyboard-response","169","217917","0.0-1.0-0.84","+","null","",""
"","1640","audio-keyboard-response","170","219732","0.0-1.0-1.84","../audio/teste-vocab--99.mp3","s","arqueólogo","akeyológ"
"","null","html-keyboard-response","171","220233","0.0-1.0-0.85","+","null","",""
"","1589","audio-keyboard-response","172","221983","0.0-1.0-1.85","../audio/teste-vocab--37.mp3","s","músico","mizisyen"
"","null","html-keyboard-response","173","222485","0.0-1.0-0.86","+","null","",""
"","1888","audio-keyboard-response","174","224525","0.0-1.0-1.86","../audio/teste-vocab--50.mp3","s","artista","atis"
"","null","html-keyboard-response","175","225026","0.0-1.0-0.87","+","null","",""
"","1731","audio-keyboard-response","176","226889","0.0-1.0-1.87","../audio/teste-vocab--113.mp3","s","ascender","limen"
"","null","html-keyboard-response","177","227391","0.0-1.0-0.88","+","null","",""
"","1760","audio-keyboard-response","178","229313","0.0-1.0-1.88","../audio/teste-vocab--123.mp3","s","emissão","emisyon"
"","null","html-keyboard-response","179","229814","0.0-1.0-0.89","+","null","",""
"","1600","audio-keyboard-response","180","231564","0.0-1.0-1.89","../audio/teste-vocab--54.mp3","s","arbusto","raje"
"","null","html-keyboard-response","181","232066","0.0-1.0-0.90","+","null","",""
"","1280","audio-keyboard-response","182","233472","0.0-1.0-1.90","../audio/teste-vocab--34.mp3","s","tronco","twon"
"","null","html-keyboard-response","183","233974","0.0-1.0-0.91","+","null","",""
"","1819","audio-keyboard-response","184","235876","0.0-1.0-1.91","../audio/teste-vocab--35.mp3","s","líquido","likid"
"","null","html-keyboard-response","185","236378","0.0-1.0-0.92","+","null","",""
"","1488","audio-keyboard-response","186","238035","0.0-1.0-1.92","../audio/teste-vocab--107.mp3","s","elo","emay"
"","null","html-keyboard-response","187","238537","0.0-1.0-0.93","+","null","",""
"","1661","audio-keyboard-response","188","240336","0.0-1.0-1.93","../audio/teste-vocab--41.mp3","s","médico","doktè,"
"","null","html-keyboard-response","189","240838","0.0-1.0-0.94","+","null","",""
"","1389","audio-keyboard-response","190","242397","0.0-1.0-1.94","../audio/teste-vocab--21.mp3","s","baleia","balèn"
"","null","html-keyboard-response","191","242898","0.0-1.0-0.95","+","null","",""
"","1632","audio-keyboard-response","192","244710","0.0-1.0-1.95","../audio/teste-vocab--47.mp3","s","envelope","anvlope"
"","null","html-keyboard-response","193","245211","0.0-1.0-0.96","+","null","",""
"","1699","audio-keyboard-response","194","247047","0.0-1.0-1.96","../audio/teste-vocab--60.mp3","s","secretaria","sekretè"
"","null","html-keyboard-response","195","247548","0.0-1.0-0.97","+","null","",""
"","1691","audio-keyboard-response","196","249381","0.0-1.0-1.97","../audio/teste-vocab--120.mp3","s","induzir","pwovoke"
"","null","html-keyboard-response","197","249882","0.0-1.0-0.98","+","null","",""
"","1440","audio-keyboard-response","198","251519","0.0-1.0-1.98","../audio/teste-vocab--18.mp3","s","abelha","myèl"
"","null","html-keyboard-response","199","252020","0.0-1.0-0.99","+","null","",""
"","2349","audio-keyboard-response","200","254554","0.0-1.0-1.99","../audio/teste-vocab--08.mp3","s","vaca","vach"
"","null","html-keyboard-response","201","255055","0.0-1.0-0.100","+","null","",""
"","1979","audio-keyboard-response","202","257159","0.0-1.0-1.100","../audio/teste-vocab--126.mp3","s","ambulante","promennen"
"","null","html-keyboard-response","203","257661","0.0-1.0-0.101","+","null","",""
"","2109","audio-keyboard-response","204","259895","0.0-1.0-1.101","../audio/teste-vocab--32.mp3","s","descascar","dekale"
"","null","html-keyboard-response","205","260397","0.0-1.0-0.102","+","null","",""
"","2051","audio-keyboard-response","206","262582","0.0-1.0-1.102","../audio/teste-vocab--05.mp3","s","limpar","netwaye"
"","null","html-keyboard-response","207","263084","0.0-1.0-0.103","+","null","",""
"","1829","audio-keyboard-response","208","265047","0.0-1.0-1.103","../audio/teste-vocab--84.mp3","s","confiar","konfye"
"","null","html-keyboard-response","209","265549","0.0-1.0-0.104","+","null","",""
"","2160","audio-keyboard-response","210","267981","0.0-1.0-1.104","../audio/teste-vocab--44.mp3","s","premiar","rekonpanse"
"","null","html-keyboard-response","211","268482","0.0-1.0-0.105","+","null","",""
"","1579","audio-keyboard-response","212","270203","0.0-1.0-1.105","../audio/teste-vocab--97.mp3","s","frágil","frajil"
"","null","html-keyboard-response","213","270704","0.0-1.0-0.106","+","null","",""
"","1760","audio-keyboard-response","214","272603","0.0-1.0-1.106","../audio/teste-vocab--70.mp3","s","funil","antónwa"
"","null","html-keyboard-response","215","273105","0.0-1.0-0.107","+","null","",""
"","1581","audio-keyboard-response","216","274828","0.0-1.0-1.107","../audio/teste-vocab--130.mp3","s","gentil","dou"
"","null","html-keyboard-response","217","275329","0.0-1.0-0.108","+","null","",""
"","1469","audio-keyboard-response","218","276926","0.0-1.0-1.108","../audio/teste-vocab--42.mp3","s","isolamento","izòlman"
"","null","html-keyboard-response","219","277427","0.0-1.0-0.109","+","null","",""
"","1549","audio-keyboard-response","220","279126","0.0-1.0-1.109","../audio/teste-vocab--71.mp3","s","caule","tij"
"","null","html-keyboard-response","221","279628","0.0-1.0-0.110","+","null","",""
"","1752","audio-keyboard-response","222","281505","0.0-1.0-1.110","../audio/teste-vocab--67.mp3","s","corrimão","ranp"
"","null","html-keyboard-response","223","282006","0.0-1.0-0.111","+","null","",""
"","1371","audio-keyboard-response","224","283530","0.0-1.0-1.111","../audio/teste-vocab--16.mp3","s","pescoço","kou"
"","null","html-keyboard-response","225","284032","0.0-1.0-0.112","+","null","",""
"","1832","audio-keyboard-response","226","285945","0.0-1.0-1.112","../audio/teste-vocab--24.mp3","s","acidente","aksidan"
"","null","html-keyboard-response","227","286447","0.0-1.0-0.113","+","null","",""
"","1960","audio-keyboard-response","228","288562","0.0-1.0-1.113","../audio/teste-vocab--125.mp3","s","lamaçal","labou"
"","null","html-keyboard-response","229","289064","0.0-1.0-0.114","+","null","",""
"","2349","audio-keyboard-response","230","291577","0.0-1.0-1.114","../audio/teste-vocab--115.mp3","s","perpendicular","pèpandikilè"
"","null","html-keyboard-response","231","292078","0.0-1.0-0.115","+","null","",""
"","1552","audio-keyboard-response","232","293753","0.0-1.0-1.115","../audio/teste-vocab--28.mp3","s","águia","èg"
"","null","html-keyboard-response","233","294255","0.0-1.0-0.116","+","null","",""
"","1640","audio-keyboard-response","234","296024","0.0-1.0-1.116","../audio/teste-vocab--11.mp3","s","joelho","jenou"
"","null","html-keyboard-response","235","296525","0.0-1.0-0.117","+","null","",""
"","1651","audio-keyboard-response","236","298306","0.0-1.0-1.117","../audio/teste-vocab--40.mp3","s","bebida","bwason"
"","null","html-keyboard-response","237","298807","0.0-1.0-0.118","+","null","",""
"","1608","audio-keyboard-response","238","300557","0.0-1.0-1.118","../audio/teste-vocab--29.mp3","s","rasgar","chire"
"","null","html-keyboard-response","239","301058","0.0-1.0-0.119","+","null","",""
"","2859","audio-keyboard-response","240","304089","0.0-1.0-1.119","../audio/teste-vocab--118.mp3","s","paralelogramo","paralelogram"
"","null","html-keyboard-response","241","304590","0.0-1.0-0.120","+","null","",""
"","2520","audio-keyboard-response","242","307277","0.0-1.0-1.120","../audio/teste-vocab--66.mp3","s","cooperação","koperasyon"
"","null","html-keyboard-response","243","307778","0.0-1.0-0.121","+","null","",""
"","1920","audio-keyboard-response","244","309876","0.0-1.0-1.121","../audio/teste-vocab--116.mp3","s","vestuário","vestyè"
"","null","html-keyboard-response","245","310377","0.0-1.0-0.122","+","null","",""
"","2208","audio-keyboard-response","246","312803","0.0-1.0-1.122","../audio/teste-vocab--65.mp3","s","discussão","diskisyon"
"","null","html-keyboard-response","247","313304","0.0-1.0-0.123","+","null","",""
"","1800","audio-keyboard-response","248","315249","0.0-1.0-1.123","../audio/teste-vocab--68.mp3","s","surpreendido","sezi"
"","null","html-keyboard-response","249","315750","0.0-1.0-0.124","+","null","",""
"","1661","audio-keyboard-response","250","317535","0.0-1.0-1.124","../audio/teste-vocab--57.mp3","s","raiz","rasin"
"","null","html-keyboard-response","251","318036","0.0-1.0-0.125","+","null","",""
"","1661","audio-keyboard-response","252","319832","0.0-1.0-1.125","../audio/teste-vocab--31.mp3","s","vazio","vid"
"","null","html-keyboard-response","253","320333","0.0-1.0-0.126","+","null","",""
"","1760","audio-keyboard-response","254","322223","0.0-1.0-1.126","../audio/teste-vocab--01.mp3","s","boneca","pope"
"","null","html-keyboard-response","255","322724","0.0-1.0-0.127","+","null","",""
"","2000","audio-keyboard-response","256","324870","0.0-1.0-1.127","../audio/teste-vocab--100.mp3","s","consumir","konsome"
"","null","html-keyboard-response","257","325371","0.0-1.0-0.128","+","null","",""
"","2048","audio-keyboard-response","258","327562","0.0-1.0-1.128","../audio/teste-vocab--51.mp3","s","recolher","kolekte"
"","null","html-keyboard-response","259","328063","0.0-1.0-0.129","+","null","",""
"","2171","audio-keyboard-response","260","330365","0.0-1.0-1.129","../audio/teste-vocab--69.mp3","s","pingar","degoute"
