[
	{
		"view_history": [
			{
				"page_index": 0,
				"viewing_time": 46280
			},
			{
				"page_index": 1,
				"viewing_time": 11700
			}
		],
		"rt": 57980,
		"trial_type": "instructions",
		"trial_index": 0,
		"time_elapsed": 57986,
		"internal_node_id": "0.0-0.0"
	},
	{
		"rt": null,
		"stimulus": "<span style= \"font-size:30px; font-family: monospace\">+</span>",
		"response": null,
		"trial_part": "fixation",
		"trial_type": "html-keyboard-response",
		"trial_index": 1,
		"time_elapsed": 59090,
		"internal_node_id": "0.0-1.0-0.0-0.0"
	},
	{
		"rt": 8851,
		"stimulus": "../audio/prac-question-1-1.mp3",
		"response": " ",
		"word": "O",
		"trial_type": "audio-keyboard-response",
		"trial_index": 2,
		"time_elapsed": 68737,
		"internal_node_id": "0.0-1.0-1.0"
	},
	{
		"rt": 4651,
		"stimulus": "../audio/prac-question-1-2.mp3",
		"response": " ",
		"word": "dia",
		"trial_type": "audio-keyboard-response",
		"trial_index": 3,
		"time_elapsed": 73738,
		"internal_node_id": "0.0-1.0-1.1"
	},
	{
		"rt": 3880,
		"stimulus": "../audio/prac-question-1-3.mp3",
		"response": " ",
		"word": "estará",
		"trial_type": "audio-keyboard-response",
		"trial_index": 4,
		"time_elapsed": 78008,
		"internal_node_id": "0.0-1.0-1.2"
	},
	{
		"rt": 1171,
		"stimulus": "../audio/prac-question-1-4.mp3",
		"response": " ",
		"word": "cheio",
		"trial_type": "audio-keyboard-response",
		"trial_index": 5,
		"time_elapsed": 79515,
		"internal_node_id": "0.0-1.0-1.3"
	},
	{
		"rt": 891,
		"stimulus": "../audio/prac-question-1-5.mp3",
		"response": " ",
		"word": "de",
		"trial_type": "audio-keyboard-response",
		"trial_index": 6,
		"time_elapsed": 80693,
		"internal_node_id": "0.0-1.0-1.4"
	},
	{
		"rt": 1381,
		"stimulus": "../audio/prac-question-1-6.mp3",
		"response": " ",
		"word": "nuvens",
		"trial_type": "audio-keyboard-response",
		"trial_index": 7,
		"time_elapsed": 82396,
		"internal_node_id": "0.0-1.0-1.5"
	},
	{
		"rt": 1829,
		"stimulus": "../audio/prac-question-1-7.mp3",
		"response": " ",
		"word": "hoje.",
		"trial_type": "audio-keyboard-response",
		"trial_index": 8,
		"time_elapsed": 84529,
		"internal_node_id": "0.0-1.0-1.6"
	},
	{
		"rt": null,
		"stimulus": "<span style= \"font-size:30px; font-family: monospace\">+</span>",
		"response": null,
		"trial_part": "fixation",
		"trial_type": "html-keyboard-response",
		"trial_index": 9,
		"time_elapsed": 85781,
		"internal_node_id": "0.0-1.0-0.7-0.7"
	},
	{
		"rt": 1880,
		"stimulus": "../audio/prac-question-2-1.mp3",
		"response": " ",
		"word": "A",
		"trial_type": "audio-keyboard-response",
		"trial_index": 10,
		"time_elapsed": 88092,
		"internal_node_id": "0.0-1.0-1.7"
	},
	{
		"rt": 1360,
		"stimulus": "../audio/prac-question-2-2.mp3",
		"response": " ",
		"word": "caneca",
		"trial_type": "audio-keyboard-response",
		"trial_index": 11,
		"time_elapsed": 89841,
		"internal_node_id": "0.0-1.0-1.8"
	},
	{
		"rt": 1331,
		"stimulus": "../audio/prac-question-2-3.mp3",
		"response": " ",
		"word": "colorida",
		"trial_type": "audio-keyboard-response",
		"trial_index": 12,
		"time_elapsed": 91496,
		"internal_node_id": "0.0-1.0-1.9"
	},
	{
		"rt": 1088,
		"stimulus": "../audio/prac-question-2-4.mp3",
		"response": " ",
		"word": "caiu",
		"trial_type": "audio-keyboard-response",
		"trial_index": 13,
		"time_elapsed": 92891,
		"internal_node_id": "0.0-1.0-1.10"
	},
	{
		"rt": 1211,
		"stimulus": "../audio/prac-question-2-5.mp3",
		"response": " ",
		"word": "da",
		"trial_type": "audio-keyboard-response",
		"trial_index": 14,
		"time_elapsed": 94429,
		"internal_node_id": "0.0-1.0-1.11"
	},
	{
		"rt": 1069,
		"stimulus": "../audio/prac-question-2-6.mp3",
		"response": " ",
		"word": "mesa",
		"trial_type": "audio-keyboard-response",
		"trial_index": 15,
		"time_elapsed": 95819,
		"internal_node_id": "0.0-1.0-1.12"
	},
	{
		"rt": 912,
		"stimulus": "../audio/prac-question-2-7.mp3",
		"response": " ",
		"word": "de",
		"trial_type": "audio-keyboard-response",
		"trial_index": 16,
		"time_elapsed": 97039,
		"internal_node_id": "0.0-1.0-1.13"
	},
	{
		"rt": 1091,
		"stimulus": "../audio/prac-question-2-8.mp3",
		"response": " ",
		"word": "jantar.",
		"trial_type": "audio-keyboard-response",
		"trial_index": 17,
		"time_elapsed": 98475,
		"internal_node_id": "0.0-1.0-1.14"
	},
	{
		"rt": 4784,
		"stimulus": "<span style=\"font-size:25px; font-family: monospace\">A caneca era colorida?</span>",
		"response": "s",
		"question": "A caneca era colorida?",
		"answer": "null",
		"trial": "prac-sent",
		"trial_type": "html-keyboard-response",
		"trial_index": 18,
		"time_elapsed": 103510,
		"internal_node_id": "0.0-1.0-2.14-0.14",
		"accuracy": false
	},
	{
		"view_history": [
			{
				"page_index": 0,
				"viewing_time": 10847
			}
		],
		"rt": 10847,
		"trial_type": "instructions",
		"trial_index": 19,
		"time_elapsed": 114859,
		"internal_node_id": "0.0-2.0"
	},
	{
		"rt": null,
		"stimulus": "<span style= \"font-size:30px; font-family: monospace\">+</span>",
		"response": null,
		"trial_part": "fixation",
		"trial_type": "html-keyboard-response",
		"trial_index": 20,
		"time_elapsed": 115961,
		"internal_node_id": "0.0-3.0-0.0-0.0"
	},
	{
		"rt": 251,
		"stimulus": "../audio/12-1-masc.mp3",
		"response": " ",
		"word": "O",
		"trial_type": "audio-keyboard-response",
		"trial_index": 21,
		"time_elapsed": 116555,
		"internal_node_id": "0.0-3.0-1.0"
	},
	{
		"rt": 4651,
		"stimulus": "../audio/12-2-masc.mp3",
		"response": " ",
		"word": "dia",
		"trial_type": "audio-keyboard-response",
		"trial_index": 22,
		"time_elapsed": 121501,
		"internal_node_id": "0.0-3.0-1.1"
	},
	{
		"rt": 1080,
		"stimulus": "../audio/12-3-masc.mp3",
		"response": " ",
		"word": "estava",
		"trial_type": "audio-keyboard-response",
		"trial_index": 23,
		"time_elapsed": 122958,
		"internal_node_id": "0.0-3.0-1.2"
	},
	{
		"rt": 1269,
		"stimulus": "../audio/12-4-masc.mp3",
		"response": " ",
		"word": "quente,",
		"trial_type": "audio-keyboard-response",
		"trial_index": 24,
		"time_elapsed": 124604,
		"internal_node_id": "0.0-3.0-1.3"
	},
	{
		"rt": 1288,
		"stimulus": "../audio/12-5-masc.mp3",
		"response": " ",
		"word": "tranquilo",
		"trial_type": "audio-keyboard-response",
		"trial_index": 25,
		"time_elapsed": 126210,
		"internal_node_id": "0.0-3.0-1.4"
	},
	{
		"rt": 709,
		"stimulus": "../audio/12-6-masc.mp3",
		"response": " ",
		"word": "e",
		"trial_type": "audio-keyboard-response",
		"trial_index": 26,
		"time_elapsed": 127217,
		"internal_node_id": "0.0-3.0-1.5"
	},
	{
		"rt": 1960,
		"stimulus": "../audio/12-7-masc.mp3",
		"response": " ",
		"word": "ensolarado.",
		"trial_type": "audio-keyboard-response",
		"trial_index": 27,
		"time_elapsed": 129494,
		"internal_node_id": "0.0-3.0-1.6"
	},
	{
		"rt": null,
		"stimulus": "<span style= \"font-size:30px; font-family: monospace\">+</span>",
		"response": null,
		"trial_part": "fixation",
		"trial_type": "html-keyboard-response",
		"trial_index": 28,
		"time_elapsed": 130746,
		"internal_node_id": "0.0-3.0-0.7-0.7"
	},
	{
		"rt": 2299,
		"stimulus": "../audio/11-1-masc.mp3",
		"response": " ",
		"word": "Elas",
		"trial_type": "audio-keyboard-response",
		"trial_index": 29,
		"time_elapsed": 133446,
		"internal_node_id": "0.0-3.0-1.7"
	},
	{
		"rt": 1008,
		"stimulus": "../audio/11-2-masc.mp3",
		"response": " ",
		"word": "gostam",
		"trial_type": "audio-keyboard-response",
		"trial_index": 30,
		"time_elapsed": 134805,
		"internal_node_id": "0.0-3.0-1.8"
	},
	{
		"rt": 952,
		"stimulus": "../audio/11-3-masc.mp3",
		"response": " ",
		"word": "muito",
		"trial_type": "audio-keyboard-response",
		"trial_index": 31,
		"time_elapsed": 136077,
		"internal_node_id": "0.0-3.0-1.9"
	},
	{
		"rt": 829,
		"stimulus": "../audio/11-4-masc.mp3",
		"response": " ",
		"word": "de",
		"trial_type": "audio-keyboard-response",
		"trial_index": 32,
		"time_elapsed": 137216,
		"internal_node_id": "0.0-3.0-1.10"
	},
	{
		"rt": 2971,
		"stimulus": "../audio/11-5-masc.mp3",
		"response": " ",
		"word": "aritmética",
		"trial_type": "audio-keyboard-response",
		"trial_index": 33,
		"time_elapsed": 140517,
		"internal_node_id": "0.0-3.0-1.11"
	},
	{
		"rt": 1269,
		"stimulus": "../audio/11-6-masc.mp3",
		"response": " ",
		"word": "e",
		"trial_type": "audio-keyboard-response",
		"trial_index": 34,
		"time_elapsed": 142132,
		"internal_node_id": "0.0-3.0-1.12"
	},
	{
		"rt": 731,
		"stimulus": "../audio/11-7-masc.mp3",
		"response": " ",
		"word": "de",
		"trial_type": "audio-keyboard-response",
		"trial_index": 35,
		"time_elapsed": 143178,
		"internal_node_id": "0.0-3.0-1.13"
	},
	{
		"rt": 2280,
		"stimulus": "../audio/11-8-masc.mp3",
		"response": " ",
		"word": "leitura.",
		"trial_type": "audio-keyboard-response",
		"trial_index": 36,
		"time_elapsed": 145823,
		"internal_node_id": "0.0-3.0-1.14"
	},
	{
		"rt": null,
		"stimulus": "<span style= \"font-size:30px; font-family: monospace\">+</span>",
		"response": null,
		"trial_part": "fixation",
		"trial_type": "html-keyboard-response",
		"trial_index": 37,
		"time_elapsed": 147075,
		"internal_node_id": "0.0-3.0-0.15-0.15"
	},
	{
		"rt": 771,
		"stimulus": "../audio/14-1-masc.mp3",
		"response": " ",
		"word": "O",
		"trial_type": "audio-keyboard-response",
		"trial_index": 38,
		"time_elapsed": 148192,
		"internal_node_id": "0.0-3.0-1.15"
	},
	{
		"rt": 1091,
		"stimulus": "../audio/14-2-masc.mp3",
		"response": " ",
		"word": "cachorro",
		"trial_type": "audio-keyboard-response",
		"trial_index": 39,
		"time_elapsed": 149586,
		"internal_node_id": "0.0-3.0-1.16"
	},
	{
		"rt": 971,
		"stimulus": "../audio/14-3-masc.mp3",
		"response": " ",
		"word": "é",
		"trial_type": "audio-keyboard-response",
		"trial_index": 40,
		"time_elapsed": 150858,
		"internal_node_id": "0.0-3.0-1.17"
	},
	{
		"rt": 1131,
		"stimulus": "../audio/14-4-masc.mp3",
		"response": " ",
		"word": "muito",
		"trial_type": "audio-keyboard-response",
		"trial_index": 41,
		"time_elapsed": 152309,
		"internal_node_id": "0.0-3.0-1.18"
	},
	{
		"rt": 1000,
		"stimulus": "../audio/14-5-masc.mp3",
		"response": " ",
		"word": "fiel",
		"trial_type": "audio-keyboard-response",
		"trial_index": 42,
		"time_elapsed": 153600,
		"internal_node_id": "0.0-3.0-1.19"
	},
	{
		"rt": 779,
		"stimulus": "../audio/14-6-masc.mp3",
		"response": " ",
		"word": "a",
		"trial_type": "audio-keyboard-response",
		"trial_index": 43,
		"time_elapsed": 154728,
		"internal_node_id": "0.0-3.0-1.20"
	},
	{
		"rt": 1109,
		"stimulus": "../audio/14-7-masc.mp3",
		"response": " ",
		"word": "seus",
		"trial_type": "audio-keyboard-response",
		"trial_index": 44,
		"time_elapsed": 156143,
		"internal_node_id": "0.0-3.0-1.21"
	},
	{
		"rt": 1440,
		"stimulus": "../audio/14-8-masc.mp3",
		"response": " ",
		"word": "donos.",
		"trial_type": "audio-keyboard-response",
		"trial_index": 45,
		"time_elapsed": 157880,
		"internal_node_id": "0.0-3.0-1.22"
	},
	{
		"rt": null,
		"stimulus": "<span style= \"font-size:30px; font-family: monospace\">+</span>",
		"response": null,
		"trial_part": "fixation",
		"trial_type": "html-keyboard-response",
		"trial_index": 46,
		"time_elapsed": 159132,
		"internal_node_id": "0.0-3.0-0.23-0.23"
	},
	{
		"rt": 152,
		"stimulus": "../audio/13-1-masc.mp3",
		"response": " ",
		"word": "Para",
		"trial_type": "audio-keyboard-response",
		"trial_index": 47,
		"time_elapsed": 159634,
		"internal_node_id": "0.0-3.0-1.23"
	},
	{
		"rt": 1869,
		"stimulus": "../audio/13-2-masc.mp3",
		"response": " ",
		"word": "mim",
		"trial_type": "audio-keyboard-response",
		"trial_index": 48,
		"time_elapsed": 161802,
		"internal_node_id": "0.0-3.0-1.24"
	},
	{
		"rt": 880,
		"stimulus": "../audio/13-3-masc.mp3",
		"response": " ",
		"word": "é",
		"trial_type": "audio-keyboard-response",
		"trial_index": 49,
		"time_elapsed": 163032,
		"internal_node_id": "0.0-3.0-1.25"
	},
	{
		"rt": 1069,
		"stimulus": "../audio/13-4-masc.mp3",
		"response": " ",
		"word": "muito",
		"trial_type": "audio-keyboard-response",
		"trial_index": 50,
		"time_elapsed": 164454,
		"internal_node_id": "0.0-3.0-1.26"
	},
	{
		"rt": 1099,
		"stimulus": "../audio/13-5-masc.mp3",
		"response": " ",
		"word": "difícil",
		"trial_type": "audio-keyboard-response",
		"trial_index": 51,
		"time_elapsed": 165882,
		"internal_node_id": "0.0-3.0-1.27"
	},
	{
		"rt": 1221,
		"stimulus": "../audio/13-6-masc.mp3",
		"response": " ",
		"word": "acordar",
		"trial_type": "audio-keyboard-response",
		"trial_index": 52,
		"time_elapsed": 167432,
		"internal_node_id": "0.0-3.0-1.28"
	},
	{
		"rt": 1509,
		"stimulus": "../audio/13-7-masc.mp3",
		"response": " ",
		"word": "cedo.",
		"trial_type": "audio-keyboard-response",
		"trial_index": 53,
		"time_elapsed": 169247,
		"internal_node_id": "0.0-3.0-1.29"
	},
	{
		"rt": null,
		"stimulus": "<span style= \"font-size:30px; font-family: monospace\">+</span>",
		"response": null,
		"trial_part": "fixation",
		"trial_type": "html-keyboard-response",
		"trial_index": 54,
		"time_elapsed": 170498,
		"internal_node_id": "0.0-3.0-0.30-0.30"
	},
	{
		"rt": 1291,
		"stimulus": "../audio/15-1-masc.mp3",
		"response": " ",
		"word": "Meu",
		"trial_type": "audio-keyboard-response",
		"trial_index": 55,
		"time_elapsed": 172227,
		"internal_node_id": "0.0-3.0-1.30"
	},
	{
		"rt": 800,
		"stimulus": "../audio/15-2-masc.mp3",
		"response": " ",
		"word": "primo",
		"trial_type": "audio-keyboard-response",
		"trial_index": 56,
		"time_elapsed": 173312,
		"internal_node_id": "0.0-3.0-1.31"
	},
	{
		"rt": 731,
		"stimulus": "../audio/15-3-masc.mp3",
		"response": " ",
		"word": "é",
		"trial_type": "audio-keyboard-response",
		"trial_index": 57,
		"time_elapsed": 174383,
		"internal_node_id": "0.0-3.0-1.32"
	},
	{
		"rt": 688,
		"stimulus": "../audio/15-4-masc.mp3",
		"response": " ",
		"word": "um",
		"trial_type": "audio-keyboard-response",
		"trial_index": 58,
		"time_elapsed": 175362,
		"internal_node_id": "0.0-3.0-1.33"
	},
	{
		"rt": 1211,
		"stimulus": "../audio/15-5-masc.mp3",
		"response": " ",
		"word": "grande",
		"trial_type": "audio-keyboard-response",
		"trial_index": 59,
		"time_elapsed": 176874,
		"internal_node_id": "0.0-3.0-1.34"
	},
	{
		"rt": 1280,
		"stimulus": "../audio/15-6-masc.mp3",
		"response": " ",
		"word": "vendedor",
		"trial_type": "audio-keyboard-response",
		"trial_index": 60,
		"time_elapsed": 178489,
		"internal_node_id": "0.0-3.0-1.35"
	},
	{
		"rt": 779,
		"stimulus": "../audio/15-7-masc.mp3",
		"response": " ",
		"word": "de",
		"trial_type": "audio-keyboard-response",
		"trial_index": 61,
		"time_elapsed": 179571,
		"internal_node_id": "0.0-3.0-1.36"
	},
	{
		"rt": 1128,
		"stimulus": "../audio/15-8-masc.mp3",
		"response": " ",
		"word": "carros.",
		"trial_type": "audio-keyboard-response",
		"trial_index": 62,
		"time_elapsed": 181001,
		"internal_node_id": "0.0-3.0-1.37"
	},
	{
		"rt": 5794,
		"stimulus": "<span style=\"font-size:25px; font-family: monospace\">O primo é um vendedor de carros?</span>",
		"response": "s",
		"question": "O primo é um vendedor de carros?",
		"answer": "null",
		"trial": "exp-sent",
		"trial_type": "html-keyboard-response",
		"trial_index": 63,
		"time_elapsed": 187046,
		"internal_node_id": "0.0-3.0-2.37-0.37",
		"accuracy": false
	},
	{
		"rt": null,
		"stimulus": "<span style= \"font-size:30px; font-family: monospace\">+</span>",
		"response": null,
		"trial_part": "fixation",
		"trial_type": "html-keyboard-response",
		"trial_index": 64,
		"time_elapsed": 188548,
		"internal_node_id": "0.0-3.0-0.38-0.38"
	},
	{
		"rt": 1592,
		"stimulus": "../audio/06-1-fem.mp3",
		"response": " ",
		"word": "Ouvimos",
		"trial_type": "audio-keyboard-response",
		"trial_index": 65,
		"time_elapsed": 190511,
		"internal_node_id": "0.0-3.0-1.38"
	},
	{
		"rt": 829,
		"stimulus": "../audio/06-2-fem.mp3",
		"response": " ",
		"word": "a",
		"trial_type": "audio-keyboard-response",
		"trial_index": 66,
		"time_elapsed": 191649,
		"internal_node_id": "0.0-3.0-1.39"
	},
	{
		"rt": 920,
		"stimulus": "../audio/06-3-fem.mp3",
		"response": " ",
		"word": "fala",
		"trial_type": "audio-keyboard-response",
		"trial_index": 67,
		"time_elapsed": 192876,
		"internal_node_id": "0.0-3.0-1.40"
	},
	{
		"rt": 880,
		"stimulus": "../audio/06-4-fem.mp3",
		"response": " ",
		"word": "do",
		"trial_type": "audio-keyboard-response",
		"trial_index": 68,
		"time_elapsed": 194065,
		"internal_node_id": "0.0-3.0-1.41"
	},
	{
		"rt": 1069,
		"stimulus": "../audio/06-5-fem.mp3",
		"response": " ",
		"word": "profeta",
		"trial_type": "audio-keyboard-response",
		"trial_index": 69,
		"time_elapsed": 195465,
		"internal_node_id": "0.0-3.0-1.42"
	},
	{
		"rt": 1021,
		"stimulus": "../audio/06-6-fem.mp3",
		"response": " ",
		"word": "no",
		"trial_type": "audio-keyboard-response",
		"trial_index": 70,
		"time_elapsed": 196782,
		"internal_node_id": "0.0-3.0-1.43"
	},
	{
		"rt": 1192,
		"stimulus": "../audio/06-7-fem.mp3",
		"response": " ",
		"word": "púlpito",
		"trial_type": "audio-keyboard-response",
		"trial_index": 71,
		"time_elapsed": 198276,
		"internal_node_id": "0.0-3.0-1.44"
	},
	{
		"rt": 901,
		"stimulus": "../audio/06-8-fem.mp3",
		"response": " ",
		"word": "da",
		"trial_type": "audio-keyboard-response",
		"trial_index": 72,
		"time_elapsed": 199469,
		"internal_node_id": "0.0-3.0-1.45"
	},
	{
		"rt": 1808,
		"stimulus": "../audio/06-9-fem.mp3",
		"response": " ",
		"word": "igreja.",
		"trial_type": "audio-keyboard-response",
		"trial_index": 73,
		"time_elapsed": 201606,
		"internal_node_id": "0.0-3.0-1.46"
	},
	{
		"rt": null,
		"stimulus": "<span style= \"font-size:30px; font-family: monospace\">+</span>",
		"response": null,
		"trial_part": "fixation",
		"trial_type": "html-keyboard-response",
		"trial_index": 74,
		"time_elapsed": 202858,
		"internal_node_id": "0.0-3.0-0.47-0.47"
	},
	{
		"rt": 949,
		"stimulus": "../audio/09-1-masc.mp3",
		"response": " ",
		"word": "O",
		"trial_type": "audio-keyboard-response",
		"trial_index": 75,
		"time_elapsed": 204176,
		"internal_node_id": "0.0-3.0-1.47"
	},
	{
		"rt": 1531,
		"stimulus": "../audio/09-2-masc.mp3",
		"response": " ",
		"word": "rapaz",
		"trial_type": "audio-keyboard-response",
		"trial_index": 76,
		"time_elapsed": 206038,
		"internal_node_id": "0.0-3.0-1.48"
	},
	{
		"rt": 1251,
		"stimulus": "../audio/09-3-masc.mp3",
		"response": " ",
		"word": "limpou",
		"trial_type": "audio-keyboard-response",
		"trial_index": 77,
		"time_elapsed": 207595,
		"internal_node_id": "0.0-3.0-1.49"
	},
	{
		"rt": 760,
		"stimulus": "../audio/09-4-masc.mp3",
		"response": " ",
		"word": "o",
		"trial_type": "audio-keyboard-response",
		"trial_index": 78,
		"time_elapsed": 208666,
		"internal_node_id": "0.0-3.0-1.50"
	},
	{
		"rt": 1099,
		"stimulus": "../audio/09-5-masc.mp3",
		"response": " ",
		"word": "terreno",
		"trial_type": "audio-keyboard-response",
		"trial_index": 79,
		"time_elapsed": 210081,
		"internal_node_id": "0.0-3.0-1.51"
	},
	{
		"rt": 880,
		"stimulus": "../audio/09-6-masc.mp3",
		"response": " ",
		"word": "com",
		"trial_type": "audio-keyboard-response",
		"trial_index": 80,
		"time_elapsed": 211275,
		"internal_node_id": "0.0-3.0-1.52"
	},
	{
		"rt": 979,
		"stimulus": "../audio/09-7-masc.mp3",
		"response": " ",
		"word": "uma",
		"trial_type": "audio-keyboard-response",
		"trial_index": 81,
		"time_elapsed": 212567,
		"internal_node_id": "0.0-3.0-1.53"
	},
	{
		"rt": 1579,
		"stimulus": "../audio/09-8-masc.mp3",
		"response": " ",
		"word": "pá.",
		"trial_type": "audio-keyboard-response",
		"trial_index": 82,
		"time_elapsed": 214454,
		"internal_node_id": "0.0-3.0-1.54"
	},
	{
		"rt": null,
		"stimulus": "<span style= \"font-size:30px; font-family: monospace\">+</span>",
		"response": null,
		"trial_part": "fixation",
		"trial_type": "html-keyboard-response",
		"trial_index": 83,
		"time_elapsed": 215705,
		"internal_node_id": "0.0-3.0-0.55-0.55"
	},
	{
		"rt": 1181,
		"stimulus": "../audio/08-1-fem.mp3",
		"response": " ",
		"word": "A",
		"trial_type": "audio-keyboard-response",
		"trial_index": 84,
		"time_elapsed": 217228,
		"internal_node_id": "0.0-3.0-1.55"
	},
	{
		"rt": 1131,
		"stimulus": "../audio/08-2-fem.mp3",
		"response": " ",
		"word": "receita",
		"trial_type": "audio-keyboard-response",
		"trial_index": 85,
		"time_elapsed": 218690,
		"internal_node_id": "0.0-3.0-1.56"
	},
	{
		"rt": 979,
		"stimulus": "../audio/08-3-fem.mp3",
		"response": " ",
		"word": "pede",
		"trial_type": "audio-keyboard-response",
		"trial_index": 86,
		"time_elapsed": 219966,
		"internal_node_id": "0.0-3.0-1.57"
	},
	{
		"rt": 989,
		"stimulus": "../audio/08-4-fem.mp3",
		"response": " ",
		"word": "um",
		"trial_type": "audio-keyboard-response",
		"trial_index": 87,
		"time_elapsed": 221248,
		"internal_node_id": "0.0-3.0-1.58"
	},
	{
		"rt": 1229,
		"stimulus": "../audio/08-5-fem.mp3",
		"response": " ",
		"word": "litro",
		"trial_type": "audio-keyboard-response",
		"trial_index": 88,
		"time_elapsed": 222781,
		"internal_node_id": "0.0-3.0-1.59"
	},
	{
		"rt": 1259,
		"stimulus": "../audio/08-6-fem.mp3",
		"response": " ",
		"word": "de",
		"trial_type": "audio-keyboard-response",
		"trial_index": 89,
		"time_elapsed": 224335,
		"internal_node_id": "0.0-3.0-1.60"
	},
	{
		"rt": 1469,
		"stimulus": "../audio/08-7-fem.mp3",
		"response": " ",
		"word": "leite",
		"trial_type": "audio-keyboard-response",
		"trial_index": 90,
		"time_elapsed": 226175,
		"internal_node_id": "0.0-3.0-1.61"
	},
	{
		"rt": 1579,
		"stimulus": "../audio/08-8-fem.mp3",
		"response": " ",
		"word": "integral.",
		"trial_type": "audio-keyboard-response",
		"trial_index": 91,
		"time_elapsed": 228083,
		"internal_node_id": "0.0-3.0-1.62"
	},
	{
		"rt": null,
		"stimulus": "<span style= \"font-size:30px; font-family: monospace\">+</span>",
		"response": null,
		"trial_part": "fixation",
		"trial_type": "html-keyboard-response",
		"trial_index": 92,
		"time_elapsed": 229335,
		"internal_node_id": "0.0-3.0-0.63-0.63"
	},
	{
		"rt": 1091,
		"stimulus": "../audio/07-1-masc.mp3",
		"response": " ",
		"word": "Meu",
		"trial_type": "audio-keyboard-response",
		"trial_index": 93,
		"time_elapsed": 230781,
		"internal_node_id": "0.0-3.0-1.63"
	},
	{
		"rt": 949,
		"stimulus": "../audio/07-2-masc.mp3",
		"response": " ",
		"word": "filho",
		"trial_type": "audio-keyboard-response",
		"trial_index": 94,
		"time_elapsed": 232021,
		"internal_node_id": "0.0-3.0-1.64"
	},
	{
		"rt": 672,
		"stimulus": "../audio/07-3-masc.mp3",
		"response": " ",
		"word": "é",
		"trial_type": "audio-keyboard-response",
		"trial_index": 95,
		"time_elapsed": 232997,
		"internal_node_id": "0.0-3.0-1.65"
	},
	{
		"rt": 979,
		"stimulus": "../audio/07-4-masc.mp3",
		"response": " ",
		"word": "muito",
		"trial_type": "audio-keyboard-response",
		"trial_index": 96,
		"time_elapsed": 234336,
		"internal_node_id": "0.0-3.0-1.66"
	},
	{
		"rt": 1739,
		"stimulus": "../audio/07-5-masc.mp3",
		"response": " ",
		"word": "responsável",
		"trial_type": "audio-keyboard-response",
		"trial_index": 97,
		"time_elapsed": 236416,
		"internal_node_id": "0.0-3.0-1.67"
	},
	{
		"rt": 872,
		"stimulus": "../audio/07-6-masc.mp3",
		"response": " ",
		"word": "nos",
		"trial_type": "audio-keyboard-response",
		"trial_index": 98,
		"time_elapsed": 237635,
		"internal_node_id": "0.0-3.0-1.68"
	},
	{
		"rt": 1291,
		"stimulus": "../audio/07-7-masc.mp3",
		"response": " ",
		"word": "estudos.",
		"trial_type": "audio-keyboard-response",
		"trial_index": 99,
		"time_elapsed": 239256,
		"internal_node_id": "0.0-3.0-1.69"
	},
	{
		"rt": null,
		"stimulus": "<span style= \"font-size:30px; font-family: monospace\">+</span>",
		"response": null,
		"trial_part": "fixation",
		"trial_type": "html-keyboard-response",
		"trial_index": 100,
		"time_elapsed": 240508,
		"internal_node_id": "0.0-3.0-0.70-0.70"
	},
	{
		"rt": 1000,
		"stimulus": "../audio/10-1-fem.mp3",
		"response": " ",
		"word": "O",
		"trial_type": "audio-keyboard-response",
		"trial_index": 101,
		"time_elapsed": 241841,
		"internal_node_id": "0.0-3.0-1.70"
	},
	{
		"rt": 1280,
		"stimulus": "../audio/10-2-fem.mp3",
		"response": " ",
		"word": "pássaro",
		"trial_type": "audio-keyboard-response",
		"trial_index": 102,
		"time_elapsed": 243445,
		"internal_node_id": "0.0-3.0-1.71"
	},
	{
		"rt": 1160,
		"stimulus": "../audio/10-3-fem.mp3",
		"response": " ",
		"word": "azul",
		"trial_type": "audio-keyboard-response",
		"trial_index": 103,
		"time_elapsed": 244947,
		"internal_node_id": "0.0-3.0-1.72"
	},
	{
		"rt": 971,
		"stimulus": "../audio/10-4-fem.mp3",
		"response": " ",
		"word": "estava",
		"trial_type": "audio-keyboard-response",
		"trial_index": 104,
		"time_elapsed": 246260,
		"internal_node_id": "0.0-3.0-1.73"
	},
	{
		"rt": 1101,
		"stimulus": "../audio/10-5-fem.mp3",
		"response": " ",
		"word": "vivo",
		"trial_type": "audio-keyboard-response",
		"trial_index": 105,
		"time_elapsed": 247660,
		"internal_node_id": "0.0-3.0-1.74"
	},
	{
		"rt": 912,
		"stimulus": "../audio/10-6-fem.mp3",
		"response": " ",
		"word": "e",
		"trial_type": "audio-keyboard-response",
		"trial_index": 106,
		"time_elapsed": 248870,
		"internal_node_id": "0.0-3.0-1.75"
	},
	{
		"rt": 851,
		"stimulus": "../audio/10-7-fem.mp3",
		"response": " ",
		"word": "em",
		"trial_type": "audio-keyboard-response",
		"trial_index": 107,
		"time_elapsed": 250009,
		"internal_node_id": "0.0-3.0-1.76"
	},
	{
		"rt": 1360,
		"stimulus": "../audio/10-8-fem.mp3",
		"response": " ",
		"word": "segurança.",
		"trial_type": "audio-keyboard-response",
		"trial_index": 108,
		"time_elapsed": 251697,
		"internal_node_id": "0.0-3.0-1.77"
	},
	{
		"rt": 19586,
		"stimulus": "<span style=\"font-size:25px; font-family: monospace\">O pássaro vermelho estava em segurança?</span>",
		"response": "s",
		"question": "O pássaro vermelho estava em segurança?",
		"answer": "null",
		"trial": "exp-sent",
		"trial_type": "html-keyboard-response",
		"trial_index": 109,
		"time_elapsed": 271534,
		"internal_node_id": "0.0-3.0-2.77-0.77",
		"accuracy": false
	},
	{
		"rt": null,
		"stimulus": "<span style= \"font-size:30px; font-family: monospace\">+</span>",
		"response": null,
		"trial_part": "fixation",
		"trial_type": "html-keyboard-response",
		"trial_index": 110,
		"time_elapsed": 273036,
		"internal_node_id": "0.0-3.0-0.78-0.78"
	},
	{
		"rt": 128,
		"stimulus": "../audio/32-1-fem.mp3",
		"response": " ",
		"word": "A",
		"trial_type": "audio-keyboard-response",
		"trial_index": 111,
		"time_elapsed": 273521,
		"internal_node_id": "0.0-3.0-1.78"
	},
	{
		"rt": 941,
		"stimulus": "../audio/32-2-fem.mp3",
		"response": " ",
		"word": "tia",
		"trial_type": "audio-keyboard-response",
		"trial_index": 112,
		"time_elapsed": 274777,
		"internal_node_id": "0.0-3.0-1.79"
	},
	{
		"rt": 808,
		"stimulus": "../audio/32-3-fem.mp3",
		"response": " ",
		"word": "comprou",
		"trial_type": "audio-keyboard-response",
		"trial_index": 113,
		"time_elapsed": 275880,
		"internal_node_id": "0.0-3.0-1.80"
	},
	{
		"rt": 539,
		"stimulus": "../audio/32-4-fem.mp3",
		"response": " ",
		"word": "um",
		"trial_type": "audio-keyboard-response",
		"trial_index": 114,
		"time_elapsed": 276715,
		"internal_node_id": "0.0-3.0-1.81"
	},
	{
		"rt": 488,
		"stimulus": "../audio/32-5-fem.mp3",
		"response": " ",
		"word": "pilão",
		"trial_type": "audio-keyboard-response",
		"trial_index": 115,
		"time_elapsed": 277515,
		"internal_node_id": "0.0-3.0-1.82"
	},
	{
		"rt": 501,
		"stimulus": "../audio/32-6-fem.mp3",
		"response": " ",
		"word": "para",
		"trial_type": "audio-keyboard-response",
		"trial_index": 116,
		"time_elapsed": 278305,
		"internal_node_id": "0.0-3.0-1.83"
	},
	{
		"rt": 621,
		"stimulus": "../audio/32-7-fem.mp3",
		"response": " ",
		"word": "a",
		"trial_type": "audio-keyboard-response",
		"trial_index": 117,
		"time_elapsed": 279217,
		"internal_node_id": "0.0-3.0-1.84"
	},
	{
		"rt": 960,
		"stimulus": "../audio/32-8-fem.mp3",
		"response": " ",
		"word": "cozinha.",
		"trial_type": "audio-keyboard-response",
		"trial_index": 118,
		"time_elapsed": 280505,
		"internal_node_id": "0.0-3.0-1.85"
	},
	{
		"rt": null,
		"stimulus": "<span style= \"font-size:30px; font-family: monospace\">+</span>",
		"response": null,
		"trial_part": "fixation",
		"trial_type": "html-keyboard-response",
		"trial_index": 119,
		"time_elapsed": 281756,
		"internal_node_id": "0.0-3.0-0.86-0.86"
	},
	{
		"rt": 760,
		"stimulus": "../audio/34-1-fem.mp3",
		"response": " ",
		"word": "Cobrança",
		"trial_type": "audio-keyboard-response",
		"trial_index": 120,
		"time_elapsed": 282889,
		"internal_node_id": "0.0-3.0-1.86"
	},
	{
		"rt": 1411,
		"stimulus": "../audio/34-2-fem.mp3",
		"response": " ",
		"word": "excessiva",
		"trial_type": "audio-keyboard-response",
		"trial_index": 121,
		"time_elapsed": 284627,
		"internal_node_id": "0.0-3.0-1.87"
	},
	{
		"rt": 691,
		"stimulus": "../audio/34-3-fem.mp3",
		"response": " ",
		"word": "é",
		"trial_type": "audio-keyboard-response",
		"trial_index": 122,
		"time_elapsed": 285610,
		"internal_node_id": "0.0-3.0-1.88"
	},
	{
		"rt": 859,
		"stimulus": "../audio/34-4-fem.mp3",
		"response": " ",
		"word": "um",
		"trial_type": "audio-keyboard-response",
		"trial_index": 123,
		"time_elapsed": 286767,
		"internal_node_id": "0.0-3.0-1.89"
	},
	{
		"rt": 1069,
		"stimulus": "../audio/34-5-fem.mp3",
		"response": " ",
		"word": "fardo",
		"trial_type": "audio-keyboard-response",
		"trial_index": 124,
		"time_elapsed": 288162,
		"internal_node_id": "0.0-3.0-1.90"
	},
	{
		"rt": 771,
		"stimulus": "../audio/34-6-fem.mp3",
		"response": " ",
		"word": "para",
		"trial_type": "audio-keyboard-response",
		"trial_index": 125,
		"time_elapsed": 289229,
		"internal_node_id": "0.0-3.0-1.91"
	},
	{
		"rt": 821,
		"stimulus": "../audio/34-7-fem.mp3",
		"response": " ",
		"word": "a",
		"trial_type": "audio-keyboard-response",
		"trial_index": 126,
		"time_elapsed": 290337,
		"internal_node_id": "0.0-3.0-1.92"
	},
	{
		"rt": 1251,
		"stimulus": "../audio/34-8-fem.mp3",
		"response": " ",
		"word": "cabeça.",
		"trial_type": "audio-keyboard-response",
		"trial_index": 127,
		"time_elapsed": 291912,
		"internal_node_id": "0.0-3.0-1.93"
	},
	{
		"rt": null,
		"stimulus": "<span style= \"font-size:30px; font-family: monospace\">+</span>",
		"response": null,
		"trial_part": "fixation",
		"trial_type": "html-keyboard-response",
		"trial_index": 128,
		"time_elapsed": 293164,
		"internal_node_id": "0.0-3.0-0.94-0.94"
	},
	{
		"rt": 1229,
		"stimulus": "../audio/33-1-masc.mp3",
		"response": " ",
		"word": "Eles",
		"trial_type": "audio-keyboard-response",
		"trial_index": 129,
		"time_elapsed": 294762,
		"internal_node_id": "0.0-3.0-1.94"
	},
	{
		"rt": 960,
		"stimulus": "../audio/33-2-masc.mp3",
		"response": " ",
		"word": "sabem",
		"trial_type": "audio-keyboard-response",
		"trial_index": 130,
		"time_elapsed": 296023,
		"internal_node_id": "0.0-3.0-1.95"
	},
	{
		"rt": 771,
		"stimulus": "../audio/33-3-masc.mp3",
		"response": " ",
		"word": "do",
		"trial_type": "audio-keyboard-response",
		"trial_index": 131,
		"time_elapsed": 297090,
		"internal_node_id": "0.0-3.0-1.96"
	},
	{
		"rt": 888,
		"stimulus": "../audio/33-4-masc.mp3",
		"response": " ",
		"word": "seu",
		"trial_type": "audio-keyboard-response",
		"trial_index": 132,
		"time_elapsed": 298279,
		"internal_node_id": "0.0-3.0-1.97"
	},
	{
		"rt": 1288,
		"stimulus": "../audio/33-5-masc.mp3",
		"response": " ",
		"word": "privilégio",
		"trial_type": "audio-keyboard-response",
		"trial_index": 133,
		"time_elapsed": 299884,
		"internal_node_id": "0.0-3.0-1.98"
	},
	{
		"rt": 760,
		"stimulus": "../audio/33-6-masc.mp3",
		"response": " ",
		"word": "nessa",
		"trial_type": "audio-keyboard-response",
		"trial_index": 134,
		"time_elapsed": 300945,
		"internal_node_id": "0.0-3.0-1.99"
	},
	{
		"rt": 1000,
		"stimulus": "../audio/33-7-masc.mp3",
		"response": " ",
		"word": "confusão.",
		"trial_type": "audio-keyboard-response",
		"trial_index": 135,
		"time_elapsed": 302268,
		"internal_node_id": "0.0-3.0-1.100"
	},
	{
		"rt": null,
		"stimulus": "<span style= \"font-size:30px; font-family: monospace\">+</span>",
		"response": null,
		"trial_part": "fixation",
		"trial_type": "html-keyboard-response",
		"trial_index": 136,
		"time_elapsed": 303520,
		"internal_node_id": "0.0-3.0-0.101-0.101"
	},
	{
		"rt": 739,
		"stimulus": "../audio/31-1-masc.mp3",
		"response": " ",
		"word": "O",
		"trial_type": "audio-keyboard-response",
		"trial_index": 137,
		"time_elapsed": 304599,
		"internal_node_id": "0.0-3.0-1.101"
	},
	{
		"rt": 1061,
		"stimulus": "../audio/31-2-masc.mp3",
		"response": " ",
		"word": "padeiro",
		"trial_type": "audio-keyboard-response",
		"trial_index": 138,
		"time_elapsed": 305984,
		"internal_node_id": "0.0-3.0-1.102"
	},
	{
		"rt": 861,
		"stimulus": "../audio/31-3-masc.mp3",
		"response": " ",
		"word": "usou",
		"trial_type": "audio-keyboard-response",
		"trial_index": 139,
		"time_elapsed": 307137,
		"internal_node_id": "0.0-3.0-1.103"
	},
	{
		"rt": 771,
		"stimulus": "../audio/31-4-masc.mp3",
		"response": " ",
		"word": "a",
		"trial_type": "audio-keyboard-response",
		"trial_index": 140,
		"time_elapsed": 308224,
		"internal_node_id": "0.0-3.0-1.104"
	},
	{
		"rt": 819,
		"stimulus": "../audio/31-5-masc.mp3",
		"response": " ",
		"word": "balança",
		"trial_type": "audio-keyboard-response",
		"trial_index": 141,
		"time_elapsed": 309367,
		"internal_node_id": "0.0-3.0-1.105"
	},
	{
		"rt": 760,
		"stimulus": "../audio/31-6-masc.mp3",
		"response": " ",
		"word": "o",
		"trial_type": "audio-keyboard-response",
		"trial_index": 142,
		"time_elapsed": 310429,
		"internal_node_id": "0.0-3.0-1.106"
	},
	{
		"rt": 760,
		"stimulus": "../audio/31-7-masc.mp3",
		"response": " ",
		"word": "dia",
		"trial_type": "audio-keyboard-response",
		"trial_index": 143,
		"time_elapsed": 311495,
		"internal_node_id": "0.0-3.0-1.107"
	},
	{
		"rt": 1091,
		"stimulus": "../audio/31-8-masc.mp3",
		"response": " ",
		"word": "inteiro.",
		"trial_type": "audio-keyboard-response",
		"trial_index": 144,
		"time_elapsed": 312885,
		"internal_node_id": "0.0-3.0-1.108"
	},
	{
		"rt": null,
		"stimulus": "<span style= \"font-size:30px; font-family: monospace\">+</span>",
		"response": null,
		"trial_part": "fixation",
		"trial_type": "html-keyboard-response",
		"trial_index": 145,
		"time_elapsed": 314137,
		"internal_node_id": "0.0-3.0-0.109-0.109"
	},
	{
		"rt": 768,
		"stimulus": "../audio/35-1-masc.mp3",
		"response": " ",
		"word": "A",
		"trial_type": "audio-keyboard-response",
		"trial_index": 146,
		"time_elapsed": 315279,
		"internal_node_id": "0.0-3.0-1.109"
	},
	{
		"rt": 1000,
		"stimulus": "../audio/35-2-masc.mp3",
		"response": " ",
		"word": "receita",
		"trial_type": "audio-keyboard-response",
		"trial_index": 147,
		"time_elapsed": 316612,
		"internal_node_id": "0.0-3.0-1.110"
	},
	{
		"rt": 739,
		"stimulus": "../audio/35-3-masc.mp3",
		"response": " ",
		"word": "para",
		"trial_type": "audio-keyboard-response",
		"trial_index": 148,
		"time_elapsed": 317654,
		"internal_node_id": "0.0-3.0-1.111"
	},
	{
		"rt": 720,
		"stimulus": "../audio/35-4-masc.mp3",
		"response": " ",
		"word": "a",
		"trial_type": "audio-keyboard-response",
		"trial_index": 149,
		"time_elapsed": 318679,
		"internal_node_id": "0.0-3.0-1.112"
	},
	{
		"rt": 971,
		"stimulus": "../audio/35-5-masc.mp3",
		"response": " ",
		"word": "preparação",
		"trial_type": "audio-keyboard-response",
		"trial_index": 150,
		"time_elapsed": 319976,
		"internal_node_id": "0.0-3.0-1.113"
	},
	{
		"rt": 792,
		"stimulus": "../audio/35-6-masc.mp3",
		"response": " ",
		"word": "do",
		"trial_type": "audio-keyboard-response",
		"trial_index": 151,
		"time_elapsed": 321073,
		"internal_node_id": "0.0-3.0-1.114"
	},
	{
		"rt": 920,
		"stimulus": "../audio/35-7-masc.mp3",
		"response": " ",
		"word": "bolo",
		"trial_type": "audio-keyboard-response",
		"trial_index": 152,
		"time_elapsed": 322295,
		"internal_node_id": "0.0-3.0-1.115"
	},
	{
		"rt": 680,
		"stimulus": "../audio/35-8-masc.mp3",
		"response": " ",
		"word": "é",
		"trial_type": "audio-keyboard-response",
		"trial_index": 153,
		"time_elapsed": 323274,
		"internal_node_id": "0.0-3.0-1.116"
	},
	{
		"rt": 1040,
		"stimulus": "../audio/35-9-masc.mp3",
		"response": " ",
		"word": "leve.",
		"trial_type": "audio-keyboard-response",
		"trial_index": 154,
		"time_elapsed": 324673,
		"internal_node_id": "0.0-3.0-1.117"
	},
	{
		"rt": 5414,
		"stimulus": "<span style=\"font-size:25px; font-family: monospace\">A receita do bolo é pesada?</span>",
		"response": "n",
		"question": "A receita do bolo é pesada?",
		"answer": "null",
		"trial": "exp-sent",
		"trial_type": "html-keyboard-response",
		"trial_index": 155,
		"time_elapsed": 330339,
		"internal_node_id": "0.0-3.0-2.117-0.117",
		"accuracy": false
	},
	{
		"rt": null,
		"stimulus": "<span style= \"font-size:30px; font-family: monospace\">+</span>",
		"response": null,
		"trial_part": "fixation",
		"trial_type": "html-keyboard-response",
		"trial_index": 156,
		"time_elapsed": 331841,
		"internal_node_id": "0.0-3.0-0.118-0.118"
	},
	{
		"rt": 1771,
		"stimulus": "../audio/23-1-fem.mp3",
		"response": " ",
		"word": "Português",
		"trial_type": "audio-keyboard-response",
		"trial_index": 157,
		"time_elapsed": 333984,
		"internal_node_id": "0.0-3.0-1.118"
	},
	{
		"rt": 781,
		"stimulus": "../audio/23-2-fem.mp3",
		"response": " ",
		"word": "é",
		"trial_type": "audio-keyboard-response",
		"trial_index": 158,
		"time_elapsed": 335111,
		"internal_node_id": "0.0-3.0-1.119"
	},
	{
		"rt": 699,
		"stimulus": "../audio/23-3-fem.mp3",
		"response": " ",
		"word": "um",
		"trial_type": "audio-keyboard-response",
		"trial_index": 159,
		"time_elapsed": 336132,
		"internal_node_id": "0.0-3.0-1.120"
	},
	{
		"rt": 960,
		"stimulus": "../audio/23-4-fem.mp3",
		"response": " ",
		"word": "assunto",
		"trial_type": "audio-keyboard-response",
		"trial_index": 160,
		"time_elapsed": 337414,
		"internal_node_id": "0.0-3.0-1.121"
	},
	{
		"rt": 1080,
		"stimulus": "../audio/23-5-fem.mp3",
		"response": " ",
		"word": "elementar",
		"trial_type": "audio-keyboard-response",
		"trial_index": 161,
		"time_elapsed": 338813,
		"internal_node_id": "0.0-3.0-1.122"
	},
	{
		"rt": 920,
		"stimulus": "../audio/23-6-fem.mp3",
		"response": " ",
		"word": "para",
		"trial_type": "audio-keyboard-response",
		"trial_index": 162,
		"time_elapsed": 340023,
		"internal_node_id": "0.0-3.0-1.123"
	},
	{
		"rt": 829,
		"stimulus": "../audio/23-7-fem.mp3",
		"response": " ",
		"word": "os",
		"trial_type": "audio-keyboard-response",
		"trial_index": 163,
		"time_elapsed": 341161,
		"internal_node_id": "0.0-3.0-1.124"
	},
	{
		"rt": 1491,
		"stimulus": "../audio/23-8-fem.mp3",
		"response": " ",
		"word": "alunos.",
		"trial_type": "audio-keyboard-response",
		"trial_index": 164,
		"time_elapsed": 342975,
		"internal_node_id": "0.0-3.0-1.125"
	},
	{
		"rt": null,
		"stimulus": "<span style= \"font-size:30px; font-family: monospace\">+</span>",
		"response": null,
		"trial_part": "fixation",
		"trial_type": "html-keyboard-response",
		"trial_index": 165,
		"time_elapsed": 344226,
		"internal_node_id": "0.0-3.0-0.126-0.126"
	},
	{
		"rt": 1080,
		"stimulus": "../audio/21-1-fem.mp3",
		"response": " ",
		"word": "Precisamos",
		"trial_type": "audio-keyboard-response",
		"trial_index": 166,
		"time_elapsed": 345695,
		"internal_node_id": "0.0-3.0-1.126"
	},
	{
		"rt": 819,
		"stimulus": "../audio/21-2-fem.mp3",
		"response": " ",
		"word": "de",
		"trial_type": "audio-keyboard-response",
		"trial_index": 167,
		"time_elapsed": 346842,
		"internal_node_id": "0.0-3.0-1.127"
	},
	{
		"rt": 1429,
		"stimulus": "../audio/21-3-fem.mp3",
		"response": " ",
		"word": "paciência",
		"trial_type": "audio-keyboard-response",
		"trial_index": 168,
		"time_elapsed": 348610,
		"internal_node_id": "0.0-3.0-1.128"
	},
	{
		"rt": 659,
		"stimulus": "../audio/21-4-fem.mp3",
		"response": " ",
		"word": "e",
		"trial_type": "audio-keyboard-response",
		"trial_index": 169,
		"time_elapsed": 349564,
		"internal_node_id": "0.0-3.0-1.129"
	},
	{
		"rt": 1160,
		"stimulus": "../audio/21-5-fem.mp3",
		"response": " ",
		"word": "bondade",
		"trial_type": "audio-keyboard-response",
		"trial_index": 170,
		"time_elapsed": 351056,
		"internal_node_id": "0.0-3.0-1.130"
	},
	{
		"rt": 901,
		"stimulus": "../audio/21-6-fem.mp3",
		"response": " ",
		"word": "para",
		"trial_type": "audio-keyboard-response",
		"trial_index": 171,
		"time_elapsed": 352255,
		"internal_node_id": "0.0-3.0-1.131"
	},
	{
		"rt": 989,
		"stimulus": "../audio/21-7-fem.mp3",
		"response": " ",
		"word": "um",
		"trial_type": "audio-keyboard-response",
		"trial_index": 172,
		"time_elapsed": 353542,
		"internal_node_id": "0.0-3.0-1.132"
	},
	{
		"rt": 1011,
		"stimulus": "../audio/21-8-fem.mp3",
		"response": " ",
		"word": "mundo",
		"trial_type": "audio-keyboard-response",
		"trial_index": 173,
		"time_elapsed": 354905,
		"internal_node_id": "0.0-3.0-1.133"
	},
	{
		"rt": 1101,
		"stimulus": "../audio/21-9-fem.mp3",
		"response": " ",
		"word": "melhor.",
		"trial_type": "audio-keyboard-response",
		"trial_index": 174,
		"time_elapsed": 356341,
		"internal_node_id": "0.0-3.0-1.134"
	},
	{
		"rt": null,
		"stimulus": "<span style= \"font-size:30px; font-family: monospace\">+</span>",
		"response": null,
		"trial_part": "fixation",
		"trial_type": "html-keyboard-response",
		"trial_index": 175,
		"time_elapsed": 357593,
		"internal_node_id": "0.0-3.0-0.135-0.135"
	},
	{
		"rt": 851,
		"stimulus": "../audio/22-1-masc.mp3",
		"response": " ",
		"word": "Eu",
		"trial_type": "audio-keyboard-response",
		"trial_index": 176,
		"time_elapsed": 358786,
		"internal_node_id": "0.0-3.0-1.135"
	},
	{
		"rt": 1171,
		"stimulus": "../audio/22-2-masc.mp3",
		"response": " ",
		"word": "detesto",
		"trial_type": "audio-keyboard-response",
		"trial_index": 177,
		"time_elapsed": 360289,
		"internal_node_id": "0.0-3.0-1.136"
	},
	{
		"rt": 920,
		"stimulus": "../audio/22-3-masc.mp3",
		"response": " ",
		"word": "fumaça",
		"trial_type": "audio-keyboard-response",
		"trial_index": 178,
		"time_elapsed": 361541,
		"internal_node_id": "0.0-3.0-1.137"
	},
	{
		"rt": 800,
		"stimulus": "../audio/22-4-masc.mp3",
		"response": " ",
		"word": "de",
		"trial_type": "audio-keyboard-response",
		"trial_index": 179,
		"time_elapsed": 362642,
		"internal_node_id": "0.0-3.0-1.138"
	},
	{
		"rt": 1149,
		"stimulus": "../audio/22-5-masc.mp3",
		"response": " ",
		"word": "cachimbo",
		"trial_type": "audio-keyboard-response",
		"trial_index": 180,
		"time_elapsed": 364114,
		"internal_node_id": "0.0-3.0-1.139"
	},
	{
		"rt": 768,
		"stimulus": "../audio/22-6-masc.mp3",
		"response": " ",
		"word": "e",
		"trial_type": "audio-keyboard-response",
		"trial_index": 181,
		"time_elapsed": 365237,
		"internal_node_id": "0.0-3.0-1.140"
	},
	{
		"rt": 880,
		"stimulus": "../audio/22-7-masc.mp3",
		"response": " ",
		"word": "de",
		"trial_type": "audio-keyboard-response",
		"trial_index": 182,
		"time_elapsed": 366420,
		"internal_node_id": "0.0-3.0-1.141"
	},
	{
		"rt": 1240,
		"stimulus": "../audio/22-8-masc.mp3",
		"response": " ",
		"word": "cigarro.",
		"trial_type": "audio-keyboard-response",
		"trial_index": 183,
		"time_elapsed": 367968,
		"internal_node_id": "0.0-3.0-1.142"
	},
	{
		"rt": null,
		"stimulus": "<span style= \"font-size:30px; font-family: monospace\">+</span>",
		"response": null,
		"trial_part": "fixation",
		"trial_type": "html-keyboard-response",
		"trial_index": 184,
		"time_elapsed": 369220,
		"internal_node_id": "0.0-3.0-0.143-0.143"
	},
	{
		"rt": 1048,
		"stimulus": "../audio/24-1-masc.mp3",
		"response": " ",
		"word": "As",
		"trial_type": "audio-keyboard-response",
		"trial_index": 185,
		"time_elapsed": 370639,
		"internal_node_id": "0.0-3.0-1.143"
	},
	{
		"rt": 741,
		"stimulus": "../audio/24-2-masc.mp3",
		"response": " ",
		"word": "crianças",
		"trial_type": "audio-keyboard-response",
		"trial_index": 186,
		"time_elapsed": 371699,
		"internal_node_id": "0.0-3.0-1.144"
	},
	{
		"rt": 829,
		"stimulus": "../audio/24-3-masc.mp3",
		"response": " ",
		"word": "vão",
		"trial_type": "audio-keyboard-response",
		"trial_index": 187,
		"time_elapsed": 372817,
		"internal_node_id": "0.0-3.0-1.145"
	},
	{
		"rt": 771,
		"stimulus": "../audio/24-4-masc.mp3",
		"response": " ",
		"word": "ao",
		"trial_type": "audio-keyboard-response",
		"trial_index": 188,
		"time_elapsed": 373888,
		"internal_node_id": "0.0-3.0-1.146"
	},
	{
		"rt": 989,
		"stimulus": "../audio/24-5-masc.mp3",
		"response": " ",
		"word": "cinema",
		"trial_type": "audio-keyboard-response",
		"trial_index": 189,
		"time_elapsed": 375272,
		"internal_node_id": "0.0-3.0-1.147"
	},
	{
		"rt": 981,
		"stimulus": "../audio/24-6-masc.mp3",
		"response": " ",
		"word": "mais",
		"trial_type": "audio-keyboard-response",
		"trial_index": 190,
		"time_elapsed": 376543,
		"internal_node_id": "0.0-3.0-1.148"
	},
	{
		"rt": 1040,
		"stimulus": "../audio/24-7-masc.mp3",
		"response": " ",
		"word": "tarde.",
		"trial_type": "audio-keyboard-response",
		"trial_index": 191,
		"time_elapsed": 377886,
		"internal_node_id": "0.0-3.0-1.149"
	},
	{
		"rt": null,
		"stimulus": "<span style= \"font-size:30px; font-family: monospace\">+</span>",
		"response": null,
		"trial_part": "fixation",
		"trial_type": "html-keyboard-response",
		"trial_index": 192,
		"time_elapsed": 379139,
		"internal_node_id": "0.0-3.0-0.150-0.150"
	},
	{
		"rt": 920,
		"stimulus": "../audio/25-1-fem.mp3",
		"response": " ",
		"word": "Ela",
		"trial_type": "audio-keyboard-response",
		"trial_index": 193,
		"time_elapsed": 380404,
		"internal_node_id": "0.0-3.0-1.150"
	},
	{
		"rt": 1069,
		"stimulus": "../audio/25-2-fem.mp3",
		"response": " ",
		"word": "faz",
		"trial_type": "audio-keyboard-response",
		"trial_index": 194,
		"time_elapsed": 381798,
		"internal_node_id": "0.0-3.0-1.151"
	},
	{
		"rt": 899,
		"stimulus": "../audio/25-3-fem.mp3",
		"response": " ",
		"word": "tanto",
		"trial_type": "audio-keyboard-response",
		"trial_index": 195,
		"time_elapsed": 383009,
		"internal_node_id": "0.0-3.0-1.152"
	},
	{
		"rt": 1160,
		"stimulus": "../audio/25-4-fem.mp3",
		"response": " ",
		"word": "cabelo",
		"trial_type": "audio-keyboard-response",
		"trial_index": 196,
		"time_elapsed": 384547,
		"internal_node_id": "0.0-3.0-1.153"
	},
	{
		"rt": 1088,
		"stimulus": "../audio/25-5-fem.mp3",
		"response": " ",
		"word": "liso",
		"trial_type": "audio-keyboard-response",
		"trial_index": 197,
		"time_elapsed": 385958,
		"internal_node_id": "0.0-3.0-1.154"
	},
	{
		"rt": 979,
		"stimulus": "../audio/25-6-fem.mp3",
		"response": " ",
		"word": "quanto",
		"trial_type": "audio-keyboard-response",
		"trial_index": 198,
		"time_elapsed": 387233,
		"internal_node_id": "0.0-3.0-1.155"
	},
	{
		"rt": 1112,
		"stimulus": "../audio/25-7-fem.mp3",
		"response": " ",
		"word": "cacheado.",
		"trial_type": "audio-keyboard-response",
		"trial_index": 199,
		"time_elapsed": 388669,
		"internal_node_id": "0.0-3.0-1.156"
	},
	{
		"rt": 7870,
		"stimulus": "<span style=\"font-size:25px; font-family: monospace\">Ela só faz cabelo cacheado?</span>",
		"response": "n",
		"question": "Ela só faz cabelo cacheado?",
		"answer": "null",
		"trial": "exp-sent",
		"trial_type": "html-keyboard-response",
		"trial_index": 200,
		"time_elapsed": 396791,
		"internal_node_id": "0.0-3.0-2.156-0.156",
		"accuracy": false
	},
	{
		"rt": null,
		"stimulus": "<span style= \"font-size:30px; font-family: monospace\">+</span>",
		"response": null,
		"trial_part": "fixation",
		"trial_type": "html-keyboard-response",
		"trial_index": 201,
		"time_elapsed": 398293,
		"internal_node_id": "0.0-3.0-0.157-0.157"
	},
	{
		"rt": 1189,
		"stimulus": "../audio/54-1-fem.mp3",
		"response": " ",
		"word": "Estou",
		"trial_type": "audio-keyboard-response",
		"trial_index": 202,
		"time_elapsed": 399887,
		"internal_node_id": "0.0-3.0-1.157"
	},
	{
		"rt": 7299,
		"stimulus": "../audio/54-2-fem.mp3",
		"response": " ",
		"word": "com",
		"trial_type": "audio-keyboard-response",
		"trial_index": 203,
		"time_elapsed": 407485,
		"internal_node_id": "0.0-3.0-1.158"
	},
	{
		"rt": 1869,
		"stimulus": "../audio/54-3-fem.mp3",
		"response": " ",
		"word": "medo",
		"trial_type": "audio-keyboard-response",
		"trial_index": 204,
		"time_elapsed": 409756,
		"internal_node_id": "0.0-3.0-1.159"
	},
	{
		"rt": 752,
		"stimulus": "../audio/54-4-fem.mp3",
		"response": " ",
		"word": "da",
		"trial_type": "audio-keyboard-response",
		"trial_index": 205,
		"time_elapsed": 410864,
		"internal_node_id": "0.0-3.0-1.160"
	},
	{
		"rt": 1051,
		"stimulus": "../audio/54-5-fem.mp3",
		"response": " ",
		"word": "atual",
		"trial_type": "audio-keyboard-response",
		"trial_index": 206,
		"time_elapsed": 412248,
		"internal_node_id": "0.0-3.0-1.161"
	},
	{
		"rt": 1419,
		"stimulus": "../audio/54-6-fem.mp3",
		"response": " ",
		"word": "organização",
		"trial_type": "audio-keyboard-response",
		"trial_index": 207,
		"time_elapsed": 414007,
		"internal_node_id": "0.0-3.0-1.162"
	},
	{
		"rt": 632,
		"stimulus": "../audio/54-7-fem.mp3",
		"response": " ",
		"word": "do",
		"trial_type": "audio-keyboard-response",
		"trial_index": 208,
		"time_elapsed": 414981,
		"internal_node_id": "0.0-3.0-1.163"
	},
	{
		"rt": 909,
		"stimulus": "../audio/54-8-fem.mp3",
		"response": " ",
		"word": "país.",
		"trial_type": "audio-keyboard-response",
		"trial_index": 209,
		"time_elapsed": 416196,
		"internal_node_id": "0.0-3.0-1.164"
	},
	{
		"rt": null,
		"stimulus": "<span style= \"font-size:30px; font-family: monospace\">+</span>",
		"response": null,
		"trial_part": "fixation",
		"trial_type": "html-keyboard-response",
		"trial_index": 210,
		"time_elapsed": 417448,
		"internal_node_id": "0.0-3.0-0.165-0.165"
	},
	{
		"rt": 781,
		"stimulus": "../audio/52-1-fem.mp3",
		"response": " ",
		"word": "Às",
		"trial_type": "audio-keyboard-response",
		"trial_index": 211,
		"time_elapsed": 418575,
		"internal_node_id": "0.0-3.0-1.165"
	},
	{
		"rt": 941,
		"stimulus": "../audio/52-2-fem.mp3",
		"response": " ",
		"word": "vezes",
		"trial_type": "audio-keyboard-response",
		"trial_index": 212,
		"time_elapsed": 419825,
		"internal_node_id": "0.0-3.0-1.166"
	},
	{
		"rt": 611,
		"stimulus": "../audio/52-3-fem.mp3",
		"response": " ",
		"word": "eu",
		"trial_type": "audio-keyboard-response",
		"trial_index": 213,
		"time_elapsed": 420732,
		"internal_node_id": "0.0-3.0-1.167"
	},
	{
		"rt": 632,
		"stimulus": "../audio/52-4-fem.mp3",
		"response": " ",
		"word": "tenho",
		"trial_type": "audio-keyboard-response",
		"trial_index": 214,
		"time_elapsed": 421665,
		"internal_node_id": "0.0-3.0-1.168"
	},
	{
		"rt": 488,
		"stimulus": "../audio/52-5-fem.mp3",
		"response": " ",
		"word": "azia",
		"trial_type": "audio-keyboard-response",
		"trial_index": 215,
		"time_elapsed": 422471,
		"internal_node_id": "0.0-3.0-1.169"
	},
	{
		"rt": 1120,
		"stimulus": "../audio/52-6-fem.mp3",
		"response": " ",
		"word": "depois",
		"trial_type": "audio-keyboard-response",
		"trial_index": 216,
		"time_elapsed": 423882,
		"internal_node_id": "0.0-3.0-1.170"
	},
	{
		"rt": 701,
		"stimulus": "../audio/52-7-fem.mp3",
		"response": " ",
		"word": "da",
		"trial_type": "audio-keyboard-response",
		"trial_index": 217,
		"time_elapsed": 424937,
		"internal_node_id": "0.0-3.0-1.171"
	},
	{
		"rt": 728,
		"stimulus": "../audio/52-8-fem.mp3",
		"response": " ",
		"word": "janta.",
		"trial_type": "audio-keyboard-response",
		"trial_index": 218,
		"time_elapsed": 425998,
		"internal_node_id": "0.0-3.0-1.172"
	},
	{
		"rt": null,
		"stimulus": "<span style= \"font-size:30px; font-family: monospace\">+</span>",
		"response": null,
		"trial_part": "fixation",
		"trial_type": "html-keyboard-response",
		"trial_index": 219,
		"time_elapsed": 427250,
		"internal_node_id": "0.0-3.0-0.173-0.173"
	},
	{
		"rt": 792,
		"stimulus": "../audio/53-1-fem.mp3",
		"response": " ",
		"word": "O",
		"trial_type": "audio-keyboard-response",
		"trial_index": 220,
		"time_elapsed": 428382,
		"internal_node_id": "0.0-3.0-1.173"
	},
	{
		"rt": 861,
		"stimulus": "../audio/53-2-fem.mp3",
		"response": " ",
		"word": "médico",
		"trial_type": "audio-keyboard-response",
		"trial_index": 221,
		"time_elapsed": 429542,
		"internal_node_id": "0.0-3.0-1.174"
	},
	{
		"rt": 869,
		"stimulus": "../audio/53-3-fem.mp3",
		"response": " ",
		"word": "foi",
		"trial_type": "audio-keyboard-response",
		"trial_index": 222,
		"time_elapsed": 430714,
		"internal_node_id": "0.0-3.0-1.175"
	},
	{
		"rt": 989,
		"stimulus": "../audio/53-4-fem.mp3",
		"response": " ",
		"word": "bastante",
		"trial_type": "audio-keyboard-response",
		"trial_index": 223,
		"time_elapsed": 432030,
		"internal_node_id": "0.0-3.0-1.176"
	},
	{
		"rt": 1051,
		"stimulus": "../audio/53-5-fem.mp3",
		"response": " ",
		"word": "preciso",
		"trial_type": "audio-keyboard-response",
		"trial_index": 224,
		"time_elapsed": 433404,
		"internal_node_id": "0.0-3.0-1.177"
	},
	{
		"rt": 1131,
		"stimulus": "../audio/53-6-fem.mp3",
		"response": " ",
		"word": "durante",
		"trial_type": "audio-keyboard-response",
		"trial_index": 225,
		"time_elapsed": 434880,
		"internal_node_id": "0.0-3.0-1.178"
	},
	{
		"rt": 720,
		"stimulus": "../audio/53-7-fem.mp3",
		"response": " ",
		"word": "a",
		"trial_type": "audio-keyboard-response",
		"trial_index": 226,
		"time_elapsed": 435890,
		"internal_node_id": "0.0-3.0-1.179"
	},
	{
		"rt": 1349,
		"stimulus": "../audio/53-8-fem.mp3",
		"response": " ",
		"word": "cirurgia.",
		"trial_type": "audio-keyboard-response",
		"trial_index": 227,
		"time_elapsed": 437577,
		"internal_node_id": "0.0-3.0-1.180"
	},
	{
		"rt": null,
		"stimulus": "<span style= \"font-size:30px; font-family: monospace\">+</span>",
		"response": null,
		"trial_part": "fixation",
		"trial_type": "html-keyboard-response",
		"trial_index": 228,
		"time_elapsed": 438829,
		"internal_node_id": "0.0-3.0-0.181-0.181"
	},
	{
		"rt": 949,
		"stimulus": "../audio/51-1-masc.mp3",
		"response": " ",
		"word": "Suco",
		"trial_type": "audio-keyboard-response",
		"trial_index": 229,
		"time_elapsed": 440136,
		"internal_node_id": "0.0-3.0-1.181"
	},
	{
		"rt": 872,
		"stimulus": "../audio/51-2-masc.mp3",
		"response": " ",
		"word": "de",
		"trial_type": "audio-keyboard-response",
		"trial_index": 230,
		"time_elapsed": 441304,
		"internal_node_id": "0.0-3.0-1.182"
	},
	{
		"rt": 1181,
		"stimulus": "../audio/51-3-masc.mp3",
		"response": " ",
		"word": "acerola",
		"trial_type": "audio-keyboard-response",
		"trial_index": 231,
		"time_elapsed": 442817,
		"internal_node_id": "0.0-3.0-1.183"
	},
	{
		"rt": 720,
		"stimulus": "../audio/51-4-masc.mp3",
		"response": " ",
		"word": "é",
		"trial_type": "audio-keyboard-response",
		"trial_index": 232,
		"time_elapsed": 443832,
		"internal_node_id": "0.0-3.0-1.184"
	},
	{
		"rt": 1189,
		"stimulus": "../audio/51-5-masc.mp3",
		"response": " ",
		"word": "azedo",
		"trial_type": "audio-keyboard-response",
		"trial_index": 233,
		"time_elapsed": 445375,
		"internal_node_id": "0.0-3.0-1.185"
	},
	{
		"rt": 691,
		"stimulus": "../audio/51-6-masc.mp3",
		"response": " ",
		"word": "e",
		"trial_type": "audio-keyboard-response",
		"trial_index": 234,
		"time_elapsed": 446360,
		"internal_node_id": "0.0-3.0-1.186"
	},
	{
		"rt": 1109,
		"stimulus": "../audio/51-7-masc.mp3",
		"response": " ",
		"word": "até",
		"trial_type": "audio-keyboard-response",
		"trial_index": 235,
		"time_elapsed": 447775,
		"internal_node_id": "0.0-3.0-1.187"
	},
	{
		"rt": 1272,
		"stimulus": "../audio/51-8-masc.mp3",
		"response": " ",
		"word": "barato.",
		"trial_type": "audio-keyboard-response",
		"trial_index": 236,
		"time_elapsed": 449344,
		"internal_node_id": "0.0-3.0-1.188"
	},
	{
		"rt": null,
		"stimulus": "<span style= \"font-size:30px; font-family: monospace\">+</span>",
		"response": null,
		"trial_part": "fixation",
		"trial_type": "html-keyboard-response",
		"trial_index": 237,
		"time_elapsed": 450596,
		"internal_node_id": "0.0-3.0-0.189-0.189"
	},
	{
		"rt": 728,
		"stimulus": "../audio/55-1-fem.mp3",
		"response": " ",
		"word": "O",
		"trial_type": "audio-keyboard-response",
		"trial_index": 238,
		"time_elapsed": 451677,
		"internal_node_id": "0.0-3.0-1.189"
	},
	{
		"rt": 1189,
		"stimulus": "../audio/55-2-fem.mp3",
		"response": " ",
		"word": "insulto",
		"trial_type": "audio-keyboard-response",
		"trial_index": 239,
		"time_elapsed": 453204,
		"internal_node_id": "0.0-3.0-1.190"
	},
	{
		"rt": 1301,
		"stimulus": "../audio/55-3-fem.mp3",
		"response": " ",
		"word": "recente",
		"trial_type": "audio-keyboard-response",
		"trial_index": 240,
		"time_elapsed": 454860,
		"internal_node_id": "0.0-3.0-1.191"
	},
	{
		"rt": 1000,
		"stimulus": "../audio/55-4-fem.mp3",
		"response": " ",
		"word": "causou",
		"trial_type": "audio-keyboard-response",
		"trial_index": 241,
		"time_elapsed": 456163,
		"internal_node_id": "0.0-3.0-1.192"
	},
	{
		"rt": 1331,
		"stimulus": "../audio/55-5-fem.mp3",
		"response": " ",
		"word": "indignação",
		"trial_type": "audio-keyboard-response",
		"trial_index": 242,
		"time_elapsed": 457824,
		"internal_node_id": "0.0-3.0-1.193"
	},
	{
		"rt": 861,
		"stimulus": "../audio/55-6-fem.mp3",
		"response": " ",
		"word": "em",
		"trial_type": "audio-keyboard-response",
		"trial_index": 243,
		"time_elapsed": 458983,
		"internal_node_id": "0.0-3.0-1.194"
	},
	{
		"rt": 891,
		"stimulus": "../audio/55-7-fem.mp3",
		"response": " ",
		"word": "todos.",
		"trial_type": "audio-keyboard-response",
		"trial_index": 244,
		"time_elapsed": 460172,
		"internal_node_id": "0.0-3.0-1.195"
	},
	{
		"rt": 7033,
		"stimulus": "<span style=\"font-size:25px; font-family: monospace\">O insulto causou calmaria?</span>",
		"response": "n",
		"question": "O insulto causou calmaria?",
		"answer": "null",
		"trial": "exp-sent",
		"trial_type": "html-keyboard-response",
		"trial_index": 245,
		"time_elapsed": 467460,
		"internal_node_id": "0.0-3.0-2.195-0.195",
		"accuracy": false
	},
	{
		"rt": null,
		"stimulus": "<span style= \"font-size:30px; font-family: monospace\">+</span>",
		"response": null,
		"trial_part": "fixation",
		"trial_type": "html-keyboard-response",
		"trial_index": 246,
		"time_elapsed": 468963,
		"internal_node_id": "0.0-3.0-0.196-0.196"
	},
	{
		"rt": 1080,
		"stimulus": "../audio/57-1-masc.mp3",
		"response": " ",
		"word": "O",
		"trial_type": "audio-keyboard-response",
		"trial_index": 247,
		"time_elapsed": 470381,
		"internal_node_id": "0.0-3.0-1.196"
	},
	{
		"rt": 1059,
		"stimulus": "../audio/57-2-masc.mp3",
		"response": " ",
		"word": "capitão",
		"trial_type": "audio-keyboard-response",
		"trial_index": 248,
		"time_elapsed": 471765,
		"internal_node_id": "0.0-3.0-1.197"
	},
	{
		"rt": 619,
		"stimulus": "../audio/57-3-masc.mp3",
		"response": " ",
		"word": "deu",
		"trial_type": "audio-keyboard-response",
		"trial_index": 249,
		"time_elapsed": 472687,
		"internal_node_id": "0.0-3.0-1.198"
	},
	{
		"rt": 819,
		"stimulus": "../audio/57-4-masc.mp3",
		"response": " ",
		"word": "uma",
		"trial_type": "audio-keyboard-response",
		"trial_index": 250,
		"time_elapsed": 473798,
		"internal_node_id": "0.0-3.0-1.199"
	},
	{
		"rt": 1091,
		"stimulus": "../audio/57-5-masc.mp3",
		"response": " ",
		"word": "instrução",
		"trial_type": "audio-keyboard-response",
		"trial_index": 251,
		"time_elapsed": 475249,
		"internal_node_id": "0.0-3.0-1.200"
	},
	{
		"rt": 659,
		"stimulus": "../audio/57-6-masc.mp3",
		"response": " ",
		"word": "para",
		"trial_type": "audio-keyboard-response",
		"trial_index": 252,
		"time_elapsed": 476203,
		"internal_node_id": "0.0-3.0-1.201"
	},
	{
		"rt": 699,
		"stimulus": "../audio/57-7-masc.mp3",
		"response": " ",
		"word": "as",
		"trial_type": "audio-keyboard-response",
		"trial_index": 253,
		"time_elapsed": 477208,
		"internal_node_id": "0.0-3.0-1.202"
	},
	{
		"rt": 891,
		"stimulus": "../audio/57-8-masc.mp3",
		"response": " ",
		"word": "pessoas.",
		"trial_type": "audio-keyboard-response",
		"trial_index": 254,
		"time_elapsed": 478424,
		"internal_node_id": "0.0-3.0-1.203"
	},
	{
		"rt": null,
		"stimulus": "<span style= \"font-size:30px; font-family: monospace\">+</span>",
		"response": null,
		"trial_part": "fixation",
		"trial_type": "html-keyboard-response",
		"trial_index": 255,
		"time_elapsed": 479676,
		"internal_node_id": "0.0-3.0-0.204-0.204"
	},
	{
		"rt": 851,
		"stimulus": "../audio/59-1-fem.mp3",
		"response": " ",
		"word": "O",
		"trial_type": "audio-keyboard-response",
		"trial_index": 256,
		"time_elapsed": 480894,
		"internal_node_id": "0.0-3.0-1.204"
	},
	{
		"rt": 1179,
		"stimulus": "../audio/59-2-fem.mp3",
		"response": " ",
		"word": "carteiro",
		"trial_type": "audio-keyboard-response",
		"trial_index": 257,
		"time_elapsed": 482401,
		"internal_node_id": "0.0-3.0-1.205"
	},
	{
		"rt": 848,
		"stimulus": "../audio/59-3-fem.mp3",
		"response": " ",
		"word": "fez",
		"trial_type": "audio-keyboard-response",
		"trial_index": 258,
		"time_elapsed": 483550,
		"internal_node_id": "0.0-3.0-1.206"
	},
	{
		"rt": 851,
		"stimulus": "../audio/59-4-fem.mp3",
		"response": " ",
		"word": "uma",
		"trial_type": "audio-keyboard-response",
		"trial_index": 259,
		"time_elapsed": 484787,
		"internal_node_id": "0.0-3.0-1.207"
	},
	{
		"rt": 832,
		"stimulus": "../audio/59-5-fem.mp3",
		"response": " ",
		"word": "tentativa",
		"trial_type": "audio-keyboard-response",
		"trial_index": 260,
		"time_elapsed": 485945,
		"internal_node_id": "0.0-3.0-1.208"
	},
	{
		"rt": 779,
		"stimulus": "../audio/59-6-fem.mp3",
		"response": " ",
		"word": "de",
		"trial_type": "audio-keyboard-response",
		"trial_index": 261,
		"time_elapsed": 487031,
		"internal_node_id": "0.0-3.0-1.209"
	},
	{
		"rt": 1040,
		"stimulus": "../audio/59-7-fem.mp3",
		"response": " ",
		"word": "entrega.",
		"trial_type": "audio-keyboard-response",
		"trial_index": 262,
		"time_elapsed": 488380,
		"internal_node_id": "0.0-3.0-1.210"
	},
	{
		"rt": null,
		"stimulus": "<span style= \"font-size:30px; font-family: monospace\">+</span>",
		"response": null,
		"trial_part": "fixation",
		"trial_type": "html-keyboard-response",
		"trial_index": 263,
		"time_elapsed": 489632,
		"internal_node_id": "0.0-3.0-0.211-0.211"
	},
	{
		"rt": 989,
		"stimulus": "../audio/58-1-masc.mp3",
		"response": " ",
		"word": "Havia",
		"trial_type": "audio-keyboard-response",
		"trial_index": 264,
		"time_elapsed": 490968,
		"internal_node_id": "0.0-3.0-1.211"
	},
	{
		"rt": 880,
		"stimulus": "../audio/58-2-masc.mp3",
		"response": " ",
		"word": "apenas",
		"trial_type": "audio-keyboard-response",
		"trial_index": 265,
		"time_elapsed": 492173,
		"internal_node_id": "0.0-3.0-1.212"
	},
	{
		"rt": 771,
		"stimulus": "../audio/58-3-masc.mp3",
		"response": " ",
		"word": "um",
		"trial_type": "audio-keyboard-response",
		"trial_index": 266,
		"time_elapsed": 493239,
		"internal_node_id": "0.0-3.0-1.213"
	},
	{
		"rt": 1160,
		"stimulus": "../audio/58-4-masc.mp3",
		"response": " ",
		"word": "último",
		"trial_type": "audio-keyboard-response",
		"trial_index": 267,
		"time_elapsed": 494752,
		"internal_node_id": "0.0-3.0-1.214"
	},
	{
		"rt": 1208,
		"stimulus": "../audio/58-5-masc.mp3",
		"response": " ",
		"word": "herdeiro",
		"trial_type": "audio-keyboard-response",
		"trial_index": 268,
		"time_elapsed": 496275,
		"internal_node_id": "0.0-3.0-1.215"
	},
	{
		"rt": 800,
		"stimulus": "../audio/58-6-masc.mp3",
		"response": " ",
		"word": "do",
		"trial_type": "audio-keyboard-response",
		"trial_index": 269,
		"time_elapsed": 497369,
		"internal_node_id": "0.0-3.0-1.216"
	},
	{
		"rt": 1240,
		"stimulus": "../audio/58-7-masc.mp3",
		"response": " ",
		"word": "dinheiro.",
		"trial_type": "audio-keyboard-response",
		"trial_index": 270,
		"time_elapsed": 498915,
		"internal_node_id": "0.0-3.0-1.217"
	},
	{
		"rt": null,
		"stimulus": "<span style= \"font-size:30px; font-family: monospace\">+</span>",
		"response": null,
		"trial_part": "fixation",
		"trial_type": "html-keyboard-response",
		"trial_index": 271,
		"time_elapsed": 500167,
		"internal_node_id": "0.0-3.0-0.218-0.218"
	},
	{
		"rt": 771,
		"stimulus": "../audio/56-1-fem.mp3",
		"response": " ",
		"word": "A",
		"trial_type": "audio-keyboard-response",
		"trial_index": 272,
		"time_elapsed": 501284,
		"internal_node_id": "0.0-3.0-1.218"
	},
	{
		"rt": 939,
		"stimulus": "../audio/56-2-fem.mp3",
		"response": " ",
		"word": "moça",
		"trial_type": "audio-keyboard-response",
		"trial_index": 273,
		"time_elapsed": 502525,
		"internal_node_id": "0.0-3.0-1.219"
	},
	{
		"rt": 832,
		"stimulus": "../audio/56-3-fem.mp3",
		"response": " ",
		"word": "foi",
		"trial_type": "audio-keyboard-response",
		"trial_index": 274,
		"time_elapsed": 503662,
		"internal_node_id": "0.0-3.0-1.220"
	},
	{
		"rt": 789,
		"stimulus": "../audio/56-4-fem.mp3",
		"response": " ",
		"word": "à",
		"trial_type": "audio-keyboard-response",
		"trial_index": 275,
		"time_elapsed": 504816,
		"internal_node_id": "0.0-3.0-1.221"
	},
	{
		"rt": 1309,
		"stimulus": "../audio/56-5-fem.mp3",
		"response": " ",
		"word": "agência",
		"trial_type": "audio-keyboard-response",
		"trial_index": 276,
		"time_elapsed": 506467,
		"internal_node_id": "0.0-3.0-1.222"
	},
	{
		"rt": 1440,
		"stimulus": "../audio/56-6-fem.mp3",
		"response": " ",
		"word": "bancária",
		"trial_type": "audio-keyboard-response",
		"trial_index": 277,
		"time_elapsed": 508241,
		"internal_node_id": "0.0-3.0-1.223"
	},
	{
		"rt": 1280,
		"stimulus": "../audio/56-7-fem.mp3",
		"response": " ",
		"word": "ontem",
		"trial_type": "audio-keyboard-response",
		"trial_index": 278,
		"time_elapsed": 509825,
		"internal_node_id": "0.0-3.0-1.224"
	},
	{
		"rt": 1000,
		"stimulus": "../audio/56-8-fem.mp3",
		"response": " ",
		"word": "de",
		"trial_type": "audio-keyboard-response",
		"trial_index": 279,
		"time_elapsed": 511123,
		"internal_node_id": "0.0-3.0-1.225"
	},
	{
		"rt": 1131,
		"stimulus": "../audio/56-9-fem.mp3",
		"response": " ",
		"word": "tarde.",
		"trial_type": "audio-keyboard-response",
		"trial_index": 280,
		"time_elapsed": 512558,
		"internal_node_id": "0.0-3.0-1.226"
	},
	{
		"rt": null,
		"stimulus": "<span style= \"font-size:30px; font-family: monospace\">+</span>",
		"response": null,
		"trial_part": "fixation",
		"trial_type": "html-keyboard-response",
		"trial_index": 281,
		"time_elapsed": 513811,
		"internal_node_id": "0.0-3.0-0.227-0.227"
	},
	{
		"rt": 1109,
		"stimulus": "../audio/60-1-masc.mp3",
		"response": " ",
		"word": "Ondas",
		"trial_type": "audio-keyboard-response",
		"trial_index": 282,
		"time_elapsed": 515276,
		"internal_node_id": "0.0-3.0-1.227"
	},
	{
		"rt": 829,
		"stimulus": "../audio/60-2-masc.mp3",
		"response": " ",
		"word": "têm",
		"trial_type": "audio-keyboard-response",
		"trial_index": 283,
		"time_elapsed": 516404,
		"internal_node_id": "0.0-3.0-1.228"
	},
	{
		"rt": 888,
		"stimulus": "../audio/60-3-masc.mp3",
		"response": " ",
		"word": "um",
		"trial_type": "audio-keyboard-response",
		"trial_index": 284,
		"time_elapsed": 517594,
		"internal_node_id": "0.0-3.0-1.229"
	},
	{
		"rt": 1451,
		"stimulus": "../audio/60-4-masc.mp3",
		"response": " ",
		"word": "impacto",
		"trial_type": "audio-keyboard-response",
		"trial_index": 285,
		"time_elapsed": 519373,
		"internal_node_id": "0.0-3.0-1.230"
	},
	{
		"rt": 1560,
		"stimulus": "../audio/60-5-masc.mp3",
		"response": " ",
		"word": "destrutivo",
		"trial_type": "audio-keyboard-response",
		"trial_index": 286,
		"time_elapsed": 521256,
		"internal_node_id": "0.0-3.0-1.231"
	},
	{
		"rt": 840,
		"stimulus": "../audio/60-6-masc.mp3",
		"response": " ",
		"word": "no",
		"trial_type": "audio-keyboard-response",
		"trial_index": 287,
		"time_elapsed": 522414,
		"internal_node_id": "0.0-3.0-1.232"
	},
	{
		"rt": 1619,
		"stimulus": "../audio/60-7-masc.mp3",
		"response": " ",
		"word": "litoral.",
		"trial_type": "audio-keyboard-response",
		"trial_index": 288,
		"time_elapsed": 524358,
		"internal_node_id": "0.0-3.0-1.233"
	},
	{
		"rt": 5401,
		"stimulus": "<span style=\"font-size:25px; font-family: monospace\">Ondas têm um impacto destrutivo?</span>",
		"response": "s",
		"question": "Ondas têm um impacto destrutivo?",
		"answer": "null",
		"trial": "exp-sent",
		"trial_type": "html-keyboard-response",
		"trial_index": 289,
		"time_elapsed": 530012,
		"internal_node_id": "0.0-3.0-2.233-0.233",
		"accuracy": false
	},
	{
		"rt": null,
		"stimulus": "<span style= \"font-size:30px; font-family: monospace\">+</span>",
		"response": null,
		"trial_part": "fixation",
		"trial_type": "html-keyboard-response",
		"trial_index": 290,
		"time_elapsed": 531513,
		"internal_node_id": "0.0-3.0-0.234-0.234"
	},
	{
		"rt": 139,
		"stimulus": "../audio/39-1-masc.mp3",
		"response": " ",
		"word": "O",
		"trial_type": "audio-keyboard-response",
		"trial_index": 291,
		"time_elapsed": 532000,
		"internal_node_id": "0.0-3.0-1.234"
	},
	{
		"rt": 1101,
		"stimulus": "../audio/39-2-masc.mp3",
		"response": " ",
		"word": "conselho",
		"trial_type": "audio-keyboard-response",
		"trial_index": 292,
		"time_elapsed": 533419,
		"internal_node_id": "0.0-3.0-1.235"
	},
	{
		"rt": 771,
		"stimulus": "../audio/39-3-masc.mp3",
		"response": " ",
		"word": "foi",
		"trial_type": "audio-keyboard-response",
		"trial_index": 293,
		"time_elapsed": 534531,
		"internal_node_id": "0.0-3.0-1.236"
	},
	{
		"rt": 989,
		"stimulus": "../audio/39-4-masc.mp3",
		"response": " ",
		"word": "muito",
		"trial_type": "audio-keyboard-response",
		"trial_index": 294,
		"time_elapsed": 535837,
		"internal_node_id": "0.0-3.0-1.237"
	},
	{
		"rt": 1019,
		"stimulus": "../audio/39-5-masc.mp3",
		"response": " ",
		"word": "útil",
		"trial_type": "audio-keyboard-response",
		"trial_index": 295,
		"time_elapsed": 537165,
		"internal_node_id": "0.0-3.0-1.238"
	},
	{
		"rt": 819,
		"stimulus": "../audio/39-6-masc.mp3",
		"response": " ",
		"word": "para",
		"trial_type": "audio-keyboard-response",
		"trial_index": 296,
		"time_elapsed": 538272,
		"internal_node_id": "0.0-3.0-1.239"
	},
	{
		"rt": 869,
		"stimulus": "../audio/39-7-masc.mp3",
		"response": " ",
		"word": "minha",
		"trial_type": "audio-keyboard-response",
		"trial_index": 297,
		"time_elapsed": 539446,
		"internal_node_id": "0.0-3.0-1.240"
	},
	{
		"rt": 1019,
		"stimulus": "../audio/39-8-masc.mp3",
		"response": " ",
		"word": "tia.",
		"trial_type": "audio-keyboard-response",
		"trial_index": 298,
		"time_elapsed": 540763,
		"internal_node_id": "0.0-3.0-1.241"
	},
	{
		"rt": null,
		"stimulus": "<span style= \"font-size:30px; font-family: monospace\">+</span>",
		"response": null,
		"trial_part": "fixation",
		"trial_type": "html-keyboard-response",
		"trial_index": 299,
		"time_elapsed": 542015,
		"internal_node_id": "0.0-3.0-0.242-0.242"
	},
	{
		"rt": 891,
		"stimulus": "../audio/37-1-fem.mp3",
		"response": " ",
		"word": "Eu",
		"trial_type": "audio-keyboard-response",
		"trial_index": 300,
		"time_elapsed": 543251,
		"internal_node_id": "0.0-3.0-1.242"
	},
	{
		"rt": 1160,
		"stimulus": "../audio/37-2-fem.mp3",
		"response": " ",
		"word": "adoro",
		"trial_type": "audio-keyboard-response",
		"trial_index": 301,
		"time_elapsed": 544787,
		"internal_node_id": "0.0-3.0-1.243"
	},
	{
		"rt": 1331,
		"stimulus": "../audio/37-3-fem.mp3",
		"response": " ",
		"word": "suco",
		"trial_type": "audio-keyboard-response",
		"trial_index": 302,
		"time_elapsed": 546448,
		"internal_node_id": "0.0-3.0-1.244"
	},
	{
		"rt": 741,
		"stimulus": "../audio/37-4-fem.mp3",
		"response": " ",
		"word": "de",
		"trial_type": "audio-keyboard-response",
		"trial_index": 303,
		"time_elapsed": 547494,
		"internal_node_id": "0.0-3.0-1.245"
	},
	{
		"rt": 1251,
		"stimulus": "../audio/37-5-fem.mp3",
		"response": " ",
		"word": "manga",
		"trial_type": "audio-keyboard-response",
		"trial_index": 304,
		"time_elapsed": 549053,
		"internal_node_id": "0.0-3.0-1.246"
	},
	{
		"rt": 811,
		"stimulus": "../audio/37-6-fem.mp3",
		"response": " ",
		"word": "com",
		"trial_type": "audio-keyboard-response",
		"trial_index": 305,
		"time_elapsed": 550160,
		"internal_node_id": "0.0-3.0-1.247"
	},
	{
		"rt": 1360,
		"stimulus": "../audio/37-7-fem.mp3",
		"response": " ",
		"word": "hortelã.",
		"trial_type": "audio-keyboard-response",
		"trial_index": 306,
		"time_elapsed": 551841,
		"internal_node_id": "0.0-3.0-1.248"
	},
	{
		"rt": null,
		"stimulus": "<span style= \"font-size:30px; font-family: monospace\">+</span>",
		"response": null,
		"trial_part": "fixation",
		"trial_type": "html-keyboard-response",
		"trial_index": 307,
		"time_elapsed": 553093,
		"internal_node_id": "0.0-3.0-0.249-0.249"
	},
	{
		"rt": 720,
		"stimulus": "../audio/38-1-fem.mp3",
		"response": " ",
		"word": "A",
		"trial_type": "audio-keyboard-response",
		"trial_index": 308,
		"time_elapsed": 554175,
		"internal_node_id": "0.0-3.0-1.249"
	},
	{
		"rt": 1240,
		"stimulus": "../audio/38-2-fem.mp3",
		"response": " ",
		"word": "empresa",
		"trial_type": "audio-keyboard-response",
		"trial_index": 309,
		"time_elapsed": 555748,
		"internal_node_id": "0.0-3.0-1.250"
	},
	{
		"rt": 949,
		"stimulus": "../audio/38-3-fem.mp3",
		"response": " ",
		"word": "criou",
		"trial_type": "audio-keyboard-response",
		"trial_index": 310,
		"time_elapsed": 557004,
		"internal_node_id": "0.0-3.0-1.251"
	},
	{
		"rt": 760,
		"stimulus": "../audio/38-4-fem.mp3",
		"response": " ",
		"word": "a",
		"trial_type": "audio-keyboard-response",
		"trial_index": 311,
		"time_elapsed": 558066,
		"internal_node_id": "0.0-3.0-1.252"
	},
	{
		"rt": 1240,
		"stimulus": "../audio/38-5-fem.mp3",
		"response": " ",
		"word": "patente",
		"trial_type": "audio-keyboard-response",
		"trial_index": 312,
		"time_elapsed": 559630,
		"internal_node_id": "0.0-3.0-1.253"
	},
	{
		"rt": 749,
		"stimulus": "../audio/38-6-fem.mp3",
		"response": " ",
		"word": "da",
		"trial_type": "audio-keyboard-response",
		"trial_index": 313,
		"time_elapsed": 560691,
		"internal_node_id": "0.0-3.0-1.254"
	},
	{
		"rt": 1080,
		"stimulus": "../audio/38-7-fem.mp3",
		"response": " ",
		"word": "frigideira.",
		"trial_type": "audio-keyboard-response",
		"trial_index": 314,
		"time_elapsed": 562096,
		"internal_node_id": "0.0-3.0-1.255"
	},
	{
		"rt": null,
		"stimulus": "<span style= \"font-size:30px; font-family: monospace\">+</span>",
		"response": null,
		"trial_part": "fixation",
		"trial_type": "html-keyboard-response",
		"trial_index": 315,
		"time_elapsed": 563348,
		"internal_node_id": "0.0-3.0-0.256-0.256"
	},
	{
		"rt": 800,
		"stimulus": "../audio/36-1-fem.mp3",
		"response": " ",
		"word": "Meu",
		"trial_type": "audio-keyboard-response",
		"trial_index": 316,
		"time_elapsed": 564501,
		"internal_node_id": "0.0-3.0-1.256"
	},
	{
		"rt": 861,
		"stimulus": "../audio/36-2-fem.mp3",
		"response": " ",
		"word": "tio",
		"trial_type": "audio-keyboard-response",
		"trial_index": 317,
		"time_elapsed": 565664,
		"internal_node_id": "0.0-3.0-1.257"
	},
	{
		"rt": 621,
		"stimulus": "../audio/36-3-fem.mp3",
		"response": " ",
		"word": "comprou",
		"trial_type": "audio-keyboard-response",
		"trial_index": 318,
		"time_elapsed": 566607,
		"internal_node_id": "0.0-3.0-1.258"
	},
	{
		"rt": 939,
		"stimulus": "../audio/36-4-fem.mp3",
		"response": " ",
		"word": "um",
		"trial_type": "audio-keyboard-response",
		"trial_index": 319,
		"time_elapsed": 567843,
		"internal_node_id": "0.0-3.0-1.259"
	},
	{
		"rt": 1331,
		"stimulus": "../audio/36-5-fem.mp3",
		"response": " ",
		"word": "filtro",
		"trial_type": "audio-keyboard-response",
		"trial_index": 320,
		"time_elapsed": 569484,
		"internal_node_id": "0.0-3.0-1.260"
	},
	{
		"rt": 840,
		"stimulus": "../audio/36-6-fem.mp3",
		"response": " ",
		"word": "de",
		"trial_type": "audio-keyboard-response",
		"trial_index": 321,
		"time_elapsed": 570632,
		"internal_node_id": "0.0-3.0-1.261"
	},
	{
		"rt": 709,
		"stimulus": "../audio/36-7-fem.mp3",
		"response": " ",
		"word": "água",
		"trial_type": "audio-keyboard-response",
		"trial_index": 322,
		"time_elapsed": 571652,
		"internal_node_id": "0.0-3.0-1.262"
	},
	{
		"rt": 1181,
		"stimulus": "../audio/36-8-fem.mp3",
		"response": " ",
		"word": "hoje",
		"trial_type": "audio-keyboard-response",
		"trial_index": 323,
		"time_elapsed": 573139,
		"internal_node_id": "0.0-3.0-1.263"
	},
	{
		"rt": 1141,
		"stimulus": "../audio/36-9-fem.mp3",
		"response": " ",
		"word": "cedo.",
		"trial_type": "audio-keyboard-response",
		"trial_index": 324,
		"time_elapsed": 574653,
		"internal_node_id": "0.0-3.0-1.264"
	},
	{
		"rt": null,
		"stimulus": "<span style= \"font-size:30px; font-family: monospace\">+</span>",
		"response": null,
		"trial_part": "fixation",
		"trial_type": "html-keyboard-response",
		"trial_index": 325,
		"time_elapsed": 575905,
		"internal_node_id": "0.0-3.0-0.265-0.265"
	},
	{
		"rt": 2069,
		"stimulus": "../audio/40-1-fem.mp3",
		"response": " ",
		"word": "O",
		"trial_type": "audio-keyboard-response",
		"trial_index": 326,
		"time_elapsed": 578323,
		"internal_node_id": "0.0-3.0-1.265"
	},
	{
		"rt": 1171,
		"stimulus": "../audio/40-2-fem.mp3",
		"response": " ",
		"word": "jogo",
		"trial_type": "audio-keyboard-response",
		"trial_index": 327,
		"time_elapsed": 579846,
		"internal_node_id": "0.0-3.0-1.266"
	},
	{
		"rt": 1088,
		"stimulus": "../audio/40-3-fem.mp3",
		"response": " ",
		"word": "falava",
		"trial_type": "audio-keyboard-response",
		"trial_index": 328,
		"time_elapsed": 581266,
		"internal_node_id": "0.0-3.0-1.267"
	},
	{
		"rt": 800,
		"stimulus": "../audio/40-4-fem.mp3",
		"response": " ",
		"word": "de",
		"trial_type": "audio-keyboard-response",
		"trial_index": 329,
		"time_elapsed": 582368,
		"internal_node_id": "0.0-3.0-1.268"
	},
	{
		"rt": 1619,
		"stimulus": "../audio/40-5-fem.mp3",
		"response": " ",
		"word": "fantasia",
		"trial_type": "audio-keyboard-response",
		"trial_index": 330,
		"time_elapsed": 584322,
		"internal_node_id": "0.0-3.0-1.269"
	},
	{
		"rt": 741,
		"stimulus": "../audio/40-6-fem.mp3",
		"response": " ",
		"word": "e",
		"trial_type": "audio-keyboard-response",
		"trial_index": 331,
		"time_elapsed": 585405,
		"internal_node_id": "0.0-3.0-1.270"
	},
	{
		"rt": 960,
		"stimulus": "../audio/40-7-fem.mp3",
		"response": " ",
		"word": "de",
		"trial_type": "audio-keyboard-response",
		"trial_index": 332,
		"time_elapsed": 586670,
		"internal_node_id": "0.0-3.0-1.271"
	},
	{
		"rt": 1629,
		"stimulus": "../audio/40-8-fem.mp3",
		"response": " ",
		"word": "aventura.",
		"trial_type": "audio-keyboard-response",
		"trial_index": 333,
		"time_elapsed": 588624,
		"internal_node_id": "0.0-3.0-1.272"
	},
	{
		"rt": 6290,
		"stimulus": "<span style=\"font-size:25px; font-family: monospace\">O jogo tinha fantasia e aventura?</span>",
		"response": "s",
		"question": "O jogo tinha fantasia e aventura?",
		"answer": "null",
		"trial": "exp-sent",
		"trial_type": "html-keyboard-response",
		"trial_index": 334,
		"time_elapsed": 595166,
		"internal_node_id": "0.0-3.0-2.272-0.272",
		"accuracy": false
	},
	{
		"rt": null,
		"stimulus": "<span style= \"font-size:30px; font-family: monospace\">+</span>",
		"response": null,
		"trial_part": "fixation",
		"trial_type": "html-keyboard-response",
		"trial_index": 335,
		"time_elapsed": 596667,
		"internal_node_id": "0.0-3.0-0.273-0.273"
	},
	{
		"rt": 960,
		"stimulus": "../audio/48-1-fem.mp3",
		"response": " ",
		"word": "Ela",
		"trial_type": "audio-keyboard-response",
		"trial_index": 336,
		"time_elapsed": 598001,
		"internal_node_id": "0.0-3.0-1.273"
	},
	{
		"rt": 1040,
		"stimulus": "../audio/48-2-fem.mp3",
		"response": " ",
		"word": "come",
		"trial_type": "audio-keyboard-response",
		"trial_index": 337,
		"time_elapsed": 599350,
		"internal_node_id": "0.0-3.0-1.274"
	},
	{
		"rt": 1160,
		"stimulus": "../audio/48-3-fem.mp3",
		"response": " ",
		"word": "feijão",
		"trial_type": "audio-keyboard-response",
		"trial_index": 338,
		"time_elapsed": 600825,
		"internal_node_id": "0.0-3.0-1.275"
	},
	{
		"rt": 859,
		"stimulus": "../audio/48-4-fem.mp3",
		"response": " ",
		"word": "com",
		"trial_type": "audio-keyboard-response",
		"trial_index": 339,
		"time_elapsed": 601993,
		"internal_node_id": "0.0-3.0-1.276"
	},
	{
		"rt": 981,
		"stimulus": "../audio/48-5-fem.mp3",
		"response": " ",
		"word": "arroz",
		"trial_type": "audio-keyboard-response",
		"trial_index": 340,
		"time_elapsed": 603295,
		"internal_node_id": "0.0-3.0-1.277"
	},
	{
		"rt": 909,
		"stimulus": "../audio/48-6-fem.mp3",
		"response": " ",
		"word": "todos",
		"trial_type": "audio-keyboard-response",
		"trial_index": 341,
		"time_elapsed": 604561,
		"internal_node_id": "0.0-3.0-1.278"
	},
	{
		"rt": 800,
		"stimulus": "../audio/48-7-fem.mp3",
		"response": " ",
		"word": "os",
		"trial_type": "audio-keyboard-response",
		"trial_index": 342,
		"time_elapsed": 605658,
		"internal_node_id": "0.0-3.0-1.279"
	},
	{
		"rt": 1379,
		"stimulus": "../audio/48-8-fem.mp3",
		"response": " ",
		"word": "dias.",
		"trial_type": "audio-keyboard-response",
		"trial_index": 343,
		"time_elapsed": 607361,
		"internal_node_id": "0.0-3.0-1.280"
	},
	{
		"rt": null,
		"stimulus": "<span style= \"font-size:30px; font-family: monospace\">+</span>",
		"response": null,
		"trial_part": "fixation",
		"trial_type": "html-keyboard-response",
		"trial_index": 344,
		"time_elapsed": 608613,
		"internal_node_id": "0.0-3.0-0.281-0.281"
	},
	{
		"rt": 621,
		"stimulus": "../audio/47-1-fem.mp3",
		"response": " ",
		"word": "O",
		"trial_type": "audio-keyboard-response",
		"trial_index": 345,
		"time_elapsed": 609570,
		"internal_node_id": "0.0-3.0-1.281"
	},
	{
		"rt": 920,
		"stimulus": "../audio/47-2-fem.mp3",
		"response": " ",
		"word": "tio",
		"trial_type": "audio-keyboard-response",
		"trial_index": 346,
		"time_elapsed": 610785,
		"internal_node_id": "0.0-3.0-1.282"
	},
	{
		"rt": 1381,
		"stimulus": "../audio/47-3-fem.mp3",
		"response": " ",
		"word": "recusou",
		"trial_type": "audio-keyboard-response",
		"trial_index": 347,
		"time_elapsed": 612487,
		"internal_node_id": "0.0-3.0-1.283"
	},
	{
		"rt": 1451,
		"stimulus": "../audio/47-4-fem.mp3",
		"response": " ",
		"word": "a",
		"trial_type": "audio-keyboard-response",
		"trial_index": 348,
		"time_elapsed": 614241,
		"internal_node_id": "0.0-3.0-1.284"
	},
	{
		"rt": 2939,
		"stimulus": "../audio/47-5-fem.mp3",
		"response": " ",
		"word": "sobremesa",
		"trial_type": "audio-keyboard-response",
		"trial_index": 349,
		"time_elapsed": 617584,
		"internal_node_id": "0.0-3.0-1.285"
	},
	{
		"rt": 880,
		"stimulus": "../audio/47-6-fem.mp3",
		"response": " ",
		"word": "no",
		"trial_type": "audio-keyboard-response",
		"trial_index": 350,
		"time_elapsed": 618819,
		"internal_node_id": "0.0-3.0-1.286"
	},
	{
		"rt": 1251,
		"stimulus": "../audio/47-7-fem.mp3",
		"response": " ",
		"word": "almoço.",
		"trial_type": "audio-keyboard-response",
		"trial_index": 351,
		"time_elapsed": 620401,
		"internal_node_id": "0.0-3.0-1.287"
	},
	{
		"rt": null,
		"stimulus": "<span style= \"font-size:30px; font-family: monospace\">+</span>",
		"response": null,
		"trial_part": "fixation",
		"trial_type": "html-keyboard-response",
		"trial_index": 352,
		"time_elapsed": 621652,
		"internal_node_id": "0.0-3.0-0.288-0.288"
	},
	{
		"rt": 800,
		"stimulus": "../audio/46-1-masc.mp3",
		"response": " ",
		"word": "Meu",
		"trial_type": "audio-keyboard-response",
		"trial_index": 353,
		"time_elapsed": 622800,
		"internal_node_id": "0.0-3.0-1.288"
	},
	{
		"rt": 848,
		"stimulus": "../audio/46-2-masc.mp3",
		"response": " ",
		"word": "primo",
		"trial_type": "audio-keyboard-response",
		"trial_index": 354,
		"time_elapsed": 623949,
		"internal_node_id": "0.0-3.0-1.289"
	},
	{
		"rt": 861,
		"stimulus": "../audio/46-3-masc.mp3",
		"response": " ",
		"word": "estava",
		"trial_type": "audio-keyboard-response",
		"trial_index": 355,
		"time_elapsed": 625180,
		"internal_node_id": "0.0-3.0-1.290"
	},
	{
		"rt": 1000,
		"stimulus": "../audio/46-4-masc.mp3",
		"response": " ",
		"word": "muito",
		"trial_type": "audio-keyboard-response",
		"trial_index": 356,
		"time_elapsed": 626482,
		"internal_node_id": "0.0-3.0-1.291"
	},
	{
		"rt": 1269,
		"stimulus": "../audio/46-5-masc.mp3",
		"response": " ",
		"word": "deprimido",
		"trial_type": "audio-keyboard-response",
		"trial_index": 357,
		"time_elapsed": 628073,
		"internal_node_id": "0.0-3.0-1.292"
	},
	{
		"rt": 779,
		"stimulus": "../audio/46-6-masc.mp3",
		"response": " ",
		"word": "no",
		"trial_type": "audio-keyboard-response",
		"trial_index": 358,
		"time_elapsed": 629144,
		"internal_node_id": "0.0-3.0-1.293"
	},
	{
		"rt": 1080,
		"stimulus": "../audio/46-7-masc.mp3",
		"response": " ",
		"word": "inverno.",
		"trial_type": "audio-keyboard-response",
		"trial_index": 359,
		"time_elapsed": 630513,
		"internal_node_id": "0.0-3.0-1.294"
	},
	{
		"rt": null,
		"stimulus": "<span style= \"font-size:30px; font-family: monospace\">+</span>",
		"response": null,
		"trial_part": "fixation",
		"trial_type": "html-keyboard-response",
		"trial_index": 360,
		"time_elapsed": 631765,
		"internal_node_id": "0.0-3.0-0.295-0.295"
	},
	{
		"rt": 861,
		"stimulus": "../audio/49-1-masc.mp3",
		"response": " ",
		"word": "Eu",
		"trial_type": "audio-keyboard-response",
		"trial_index": 361,
		"time_elapsed": 633010,
		"internal_node_id": "0.0-3.0-1.295"
	},
	{
		"rt": 861,
		"stimulus": "../audio/49-2-masc.mp3",
		"response": " ",
		"word": "quero",
		"trial_type": "audio-keyboard-response",
		"trial_index": 362,
		"time_elapsed": 634210,
		"internal_node_id": "0.0-3.0-1.296"
	},
	{
		"rt": 829,
		"stimulus": "../audio/49-3-masc.mp3",
		"response": " ",
		"word": "um",
		"trial_type": "audio-keyboard-response",
		"trial_index": 363,
		"time_elapsed": 635348,
		"internal_node_id": "0.0-3.0-1.297"
	},
	{
		"rt": 971,
		"stimulus": "../audio/49-4-masc.mp3",
		"response": " ",
		"word": "lanche",
		"trial_type": "audio-keyboard-response",
		"trial_index": 364,
		"time_elapsed": 636614,
		"internal_node_id": "0.0-3.0-1.298"
	},
	{
		"rt": 1269,
		"stimulus": "../audio/49-5-masc.mp3",
		"response": " ",
		"word": "duplo",
		"trial_type": "audio-keyboard-response",
		"trial_index": 365,
		"time_elapsed": 638189,
		"internal_node_id": "0.0-3.0-1.299"
	},
	{
		"rt": 880,
		"stimulus": "../audio/49-6-masc.mp3",
		"response": " ",
		"word": "e",
		"trial_type": "audio-keyboard-response",
		"trial_index": 366,
		"time_elapsed": 639380,
		"internal_node_id": "0.0-3.0-1.300"
	},
	{
		"rt": 901,
		"stimulus": "../audio/49-7-masc.mp3",
		"response": " ",
		"word": "um",
		"trial_type": "audio-keyboard-response",
		"trial_index": 367,
		"time_elapsed": 640579,
		"internal_node_id": "0.0-3.0-1.301"
	},
	{
		"rt": 1339,
		"stimulus": "../audio/49-8-masc.mp3",
		"response": " ",
		"word": "suco.",
		"trial_type": "audio-keyboard-response",
		"trial_index": 368,
		"time_elapsed": 642225,
		"internal_node_id": "0.0-3.0-1.302"
	},
	{
		"rt": null,
		"stimulus": "<span style= \"font-size:30px; font-family: monospace\">+</span>",
		"response": null,
		"trial_part": "fixation",
		"trial_type": "html-keyboard-response",
		"trial_index": 369,
		"time_elapsed": 643476,
		"internal_node_id": "0.0-3.0-0.303-0.303"
	},
	{
		"rt": 928,
		"stimulus": "../audio/50-1-fem.mp3",
		"response": " ",
		"word": "O",
		"trial_type": "audio-keyboard-response",
		"trial_index": 370,
		"time_elapsed": 644742,
		"internal_node_id": "0.0-3.0-1.303"
	},
	{
		"rt": 1421,
		"stimulus": "../audio/50-2-fem.mp3",
		"response": " ",
		"word": "pássaro",
		"trial_type": "audio-keyboard-response",
		"trial_index": 371,
		"time_elapsed": 646491,
		"internal_node_id": "0.0-3.0-1.304"
	},
	{
		"rt": 1749,
		"stimulus": "../audio/50-3-fem.mp3",
		"response": " ",
		"word": "fugiu",
		"trial_type": "audio-keyboard-response",
		"trial_index": 372,
		"time_elapsed": 648547,
		"internal_node_id": "0.0-3.0-1.305"
	},
	{
		"rt": 880,
		"stimulus": "../audio/50-4-fem.mp3",
		"response": " ",
		"word": "da",
		"trial_type": "audio-keyboard-response",
		"trial_index": 373,
		"time_elapsed": 649774,
		"internal_node_id": "0.0-3.0-1.306"
	},
	{
		"rt": 1160,
		"stimulus": "../audio/50-5-fem.mp3",
		"response": " ",
		"word": "gaiola",
		"trial_type": "audio-keyboard-response",
		"trial_index": 374,
		"time_elapsed": 651265,
		"internal_node_id": "0.0-3.0-1.307"
	},
	{
		"rt": 1040,
		"stimulus": "../audio/50-6-fem.mp3",
		"response": " ",
		"word": "pela",
		"trial_type": "audio-keyboard-response",
		"trial_index": 375,
		"time_elapsed": 652604,
		"internal_node_id": "0.0-3.0-1.308"
	},
	{
		"rt": 3419,
		"stimulus": "../audio/50-7-fem.mp3",
		"response": " ",
		"word": "portinhola.",
		"trial_type": "audio-keyboard-response",
		"trial_index": 376,
		"time_elapsed": 656357,
		"internal_node_id": "0.0-3.0-1.309"
	},
	{
		"rt": 3305,
		"stimulus": "<span style=\"font-size:25px; font-family: monospace\">O pássaro fugiu da gaiola?</span>",
		"response": "s",
		"question": "O pássaro fugiu da gaiola?",
		"answer": "null",
		"trial": "exp-sent",
		"trial_type": "html-keyboard-response",
		"trial_index": 377,
		"time_elapsed": 659913,
		"internal_node_id": "0.0-3.0-2.309-0.309",
		"accuracy": false
	},
	{
		"rt": null,
		"stimulus": "<span style= \"font-size:30px; font-family: monospace\">+</span>",
		"response": null,
		"trial_part": "fixation",
		"trial_type": "html-keyboard-response",
		"trial_index": 378,
		"time_elapsed": 661415,
		"internal_node_id": "0.0-3.0-0.310-0.310"
	},
	{
		"rt": 400,
		"stimulus": "../audio/69-1-fem.mp3",
		"response": " ",
		"word": "A",
		"trial_type": "audio-keyboard-response",
		"trial_index": 379,
		"time_elapsed": 662176,
		"internal_node_id": "0.0-3.0-1.310"
	},
	{
		"rt": 1040,
		"stimulus": "../audio/69-2-fem.mp3",
		"response": " ",
		"word": "loja",
		"trial_type": "audio-keyboard-response",
		"trial_index": 380,
		"time_elapsed": 663539,
		"internal_node_id": "0.0-3.0-1.311"
	},
	{
		"rt": 1120,
		"stimulus": "../audio/69-3-fem.mp3",
		"response": " ",
		"word": "recebeu",
		"trial_type": "audio-keyboard-response",
		"trial_index": 381,
		"time_elapsed": 665036,
		"internal_node_id": "0.0-3.0-1.312"
	},
	{
		"rt": 880,
		"stimulus": "../audio/69-4-fem.mp3",
		"response": " ",
		"word": "uma",
		"trial_type": "audio-keyboard-response",
		"trial_index": 382,
		"time_elapsed": 666221,
		"internal_node_id": "0.0-3.0-1.313"
	},
	{
		"rt": 1040,
		"stimulus": "../audio/69-5-fem.mp3",
		"response": " ",
		"word": "poltrona",
		"trial_type": "audio-keyboard-response",
		"trial_index": 383,
		"time_elapsed": 667589,
		"internal_node_id": "0.0-3.0-1.314"
	},
	{
		"rt": 909,
		"stimulus": "../audio/69-6-fem.mp3",
		"response": " ",
		"word": "de",
		"trial_type": "audio-keyboard-response",
		"trial_index": 384,
		"time_elapsed": 668795,
		"internal_node_id": "0.0-3.0-1.315"
	},
	{
		"rt": 1008,
		"stimulus": "../audio/69-7-fem.mp3",
		"response": " ",
		"word": "couro",
		"trial_type": "audio-keyboard-response",
		"trial_index": 385,
		"time_elapsed": 670103,
		"internal_node_id": "0.0-3.0-1.316"
	},
	{
		"rt": 1091,
		"stimulus": "../audio/69-8-fem.mp3",
		"response": " ",
		"word": "preto.",
		"trial_type": "audio-keyboard-response",
		"trial_index": 386,
		"time_elapsed": 671486,
		"internal_node_id": "0.0-3.0-1.317"
	},
	{
		"rt": null,
		"stimulus": "<span style= \"font-size:30px; font-family: monospace\">+</span>",
		"response": null,
		"trial_part": "fixation",
		"trial_type": "html-keyboard-response",
		"trial_index": 387,
		"time_elapsed": 672737,
		"internal_node_id": "0.0-3.0-0.318-0.318"
	},
	{
		"rt": 1181,
		"stimulus": "../audio/67-1-fem.mp3",
		"response": " ",
		"word": "Minha",
		"trial_type": "audio-keyboard-response",
		"trial_index": 388,
		"time_elapsed": 674258,
		"internal_node_id": "0.0-3.0-1.318"
	},
	{
		"rt": 1131,
		"stimulus": "../audio/67-2-fem.mp3",
		"response": " ",
		"word": "tia",
		"trial_type": "audio-keyboard-response",
		"trial_index": 389,
		"time_elapsed": 675734,
		"internal_node_id": "0.0-3.0-1.319"
	},
	{
		"rt": 1251,
		"stimulus": "../audio/67-3-fem.mp3",
		"response": " ",
		"word": "comprou",
		"trial_type": "audio-keyboard-response",
		"trial_index": 390,
		"time_elapsed": 677293,
		"internal_node_id": "0.0-3.0-1.320"
	},
	{
		"rt": 952,
		"stimulus": "../audio/67-4-fem.mp3",
		"response": " ",
		"word": "um",
		"trial_type": "audio-keyboard-response",
		"trial_index": 391,
		"time_elapsed": 678533,
		"internal_node_id": "0.0-3.0-1.321"
	},
	{
		"rt": 1248,
		"stimulus": "../audio/67-5-fem.mp3",
		"response": " ",
		"word": "cordão",
		"trial_type": "audio-keyboard-response",
		"trial_index": 392,
		"time_elapsed": 680104,
		"internal_node_id": "0.0-3.0-1.322"
	},
	{
		"rt": 920,
		"stimulus": "../audio/67-6-fem.mp3",
		"response": " ",
		"word": "para",
		"trial_type": "audio-keyboard-response",
		"trial_index": 393,
		"time_elapsed": 681328,
		"internal_node_id": "0.0-3.0-1.323"
	},
	{
		"rt": 979,
		"stimulus": "../audio/67-7-fem.mp3",
		"response": " ",
		"word": "o",
		"trial_type": "audio-keyboard-response",
		"trial_index": 394,
		"time_elapsed": 682591,
		"internal_node_id": "0.0-3.0-1.324"
	},
	{
		"rt": 989,
		"stimulus": "../audio/67-8-fem.mp3",
		"response": " ",
		"word": "varal.",
		"trial_type": "audio-keyboard-response",
		"trial_index": 395,
		"time_elapsed": 683907,
		"internal_node_id": "0.0-3.0-1.325"
	},
	{
		"rt": null,
		"stimulus": "<span style= \"font-size:30px; font-family: monospace\">+</span>",
		"response": null,
		"trial_part": "fixation",
		"trial_type": "html-keyboard-response",
		"trial_index": 396,
		"time_elapsed": 685159,
		"internal_node_id": "0.0-3.0-0.326-0.326"
	},
	{
		"rt": 1051,
		"stimulus": "../audio/68-1-fem.mp3",
		"response": " ",
		"word": "Meu",
		"trial_type": "audio-keyboard-response",
		"trial_index": 397,
		"time_elapsed": 686551,
		"internal_node_id": "0.0-3.0-1.326"
	},
	{
		"rt": 1109,
		"stimulus": "../audio/68-2-fem.mp3",
		"response": " ",
		"word": "irmão",
		"trial_type": "audio-keyboard-response",
		"trial_index": 398,
		"time_elapsed": 687966,
		"internal_node_id": "0.0-3.0-1.327"
	},
	{
		"rt": 851,
		"stimulus": "../audio/68-3-fem.mp3",
		"response": " ",
		"word": "teve",
		"trial_type": "audio-keyboard-response",
		"trial_index": 399,
		"time_elapsed": 689129,
		"internal_node_id": "0.0-3.0-1.328"
	},
	{
		"rt": 931,
		"stimulus": "../audio/68-4-fem.mp3",
		"response": " ",
		"word": "um",
		"trial_type": "audio-keyboard-response",
		"trial_index": 400,
		"time_elapsed": 690355,
		"internal_node_id": "0.0-3.0-1.329"
	},
	{
		"rt": 1451,
		"stimulus": "../audio/68-5-fem.mp3",
		"response": " ",
		"word": "noivado",
		"trial_type": "audio-keyboard-response",
		"trial_index": 401,
		"time_elapsed": 692130,
		"internal_node_id": "0.0-3.0-1.330"
	},
	{
		"rt": 1000,
		"stimulus": "../audio/68-6-fem.mp3",
		"response": " ",
		"word": "longo",
		"trial_type": "audio-keyboard-response",
		"trial_index": 402,
		"time_elapsed": 693436,
		"internal_node_id": "0.0-3.0-1.331"
	},
	{
		"rt": 829,
		"stimulus": "../audio/68-7-fem.mp3",
		"response": " ",
		"word": "e",
		"trial_type": "audio-keyboard-response",
		"trial_index": 403,
		"time_elapsed": 694601,
		"internal_node_id": "0.0-3.0-1.332"
	},
	{
		"rt": 1651,
		"stimulus": "../audio/68-8-fem.mp3",
		"response": " ",
		"word": "maravilhoso.",
		"trial_type": "audio-keyboard-response",
		"trial_index": 404,
		"time_elapsed": 696579,
		"internal_node_id": "0.0-3.0-1.333"
	},
	{
		"rt": null,
		"stimulus": "<span style= \"font-size:30px; font-family: monospace\">+</span>",
		"response": null,
		"trial_part": "fixation",
		"trial_type": "html-keyboard-response",
		"trial_index": 405,
		"time_elapsed": 697831,
		"internal_node_id": "0.0-3.0-0.334-0.334"
	},
	{
		"rt": 840,
		"stimulus": "../audio/66-1-fem.mp3",
		"response": " ",
		"word": "Não",
		"trial_type": "audio-keyboard-response",
		"trial_index": 406,
		"time_elapsed": 699009,
		"internal_node_id": "0.0-3.0-1.334"
	},
	{
		"rt": 1099,
		"stimulus": "../audio/66-2-fem.mp3",
		"response": " ",
		"word": "gosto",
		"trial_type": "audio-keyboard-response",
		"trial_index": 407,
		"time_elapsed": 700428,
		"internal_node_id": "0.0-3.0-1.335"
	},
	{
		"rt": 781,
		"stimulus": "../audio/66-3-fem.mp3",
		"response": " ",
		"word": "de",
		"trial_type": "audio-keyboard-response",
		"trial_index": 408,
		"time_elapsed": 701495,
		"internal_node_id": "0.0-3.0-1.336"
	},
	{
		"rt": 1259,
		"stimulus": "../audio/66-4-fem.mp3",
		"response": " ",
		"word": "gente",
		"trial_type": "audio-keyboard-response",
		"trial_index": 409,
		"time_elapsed": 703069,
		"internal_node_id": "0.0-3.0-1.337"
	},
	{
		"rt": 1549,
		"stimulus": "../audio/66-5-fem.mp3",
		"response": " ",
		"word": "egoísta",
		"trial_type": "audio-keyboard-response",
		"trial_index": 410,
		"time_elapsed": 705007,
		"internal_node_id": "0.0-3.0-1.338"
	},
	{
		"rt": 939,
		"stimulus": "../audio/66-6-fem.mp3",
		"response": " ",
		"word": "nem",
		"trial_type": "audio-keyboard-response",
		"trial_index": 411,
		"time_elapsed": 706263,
		"internal_node_id": "0.0-3.0-1.339"
	},
	{
		"rt": 1061,
		"stimulus": "../audio/66-7-fem.mp3",
		"response": " ",
		"word": "chata.",
		"trial_type": "audio-keyboard-response",
		"trial_index": 412,
		"time_elapsed": 707658,
		"internal_node_id": "0.0-3.0-1.340"
	},
	{
		"rt": null,
		"stimulus": "<span style= \"font-size:30px; font-family: monospace\">+</span>",
		"response": null,
		"trial_part": "fixation",
		"trial_type": "html-keyboard-response",
		"trial_index": 413,
		"time_elapsed": 708910,
		"internal_node_id": "0.0-3.0-0.341-0.341"
	},
	{
		"rt": 880,
		"stimulus": "../audio/70-1-masc.mp3",
		"response": " ",
		"word": "O",
		"trial_type": "audio-keyboard-response",
		"trial_index": 414,
		"time_elapsed": 710136,
		"internal_node_id": "0.0-3.0-1.341"
	},
	{
		"rt": 869,
		"stimulus": "../audio/70-2-masc.mp3",
		"response": " ",
		"word": "meu",
		"trial_type": "audio-keyboard-response",
		"trial_index": 415,
		"time_elapsed": 711305,
		"internal_node_id": "0.0-3.0-1.342"
	},
	{
		"rt": 840,
		"stimulus": "../audio/70-3-masc.mp3",
		"response": " ",
		"word": "filho",
		"trial_type": "audio-keyboard-response",
		"trial_index": 416,
		"time_elapsed": 712443,
		"internal_node_id": "0.0-3.0-1.343"
	},
	{
		"rt": 731,
		"stimulus": "../audio/70-4-masc.mp3",
		"response": " ",
		"word": "tem",
		"trial_type": "audio-keyboard-response",
		"trial_index": 417,
		"time_elapsed": 713473,
		"internal_node_id": "0.0-3.0-1.344"
	},
	{
		"rt": 840,
		"stimulus": "../audio/70-5-masc.mp3",
		"response": " ",
		"word": "medo",
		"trial_type": "audio-keyboard-response",
		"trial_index": 418,
		"time_elapsed": 714657,
		"internal_node_id": "0.0-3.0-1.345"
	},
	{
		"rt": 691,
		"stimulus": "../audio/70-6-masc.mp3",
		"response": " ",
		"word": "de",
		"trial_type": "audio-keyboard-response",
		"trial_index": 419,
		"time_elapsed": 715642,
		"internal_node_id": "0.0-3.0-1.346"
	},
	{
		"rt": 1069,
		"stimulus": "../audio/70-7-masc.mp3",
		"response": " ",
		"word": "enguia",
		"trial_type": "audio-keyboard-response",
		"trial_index": 420,
		"time_elapsed": 717032,
		"internal_node_id": "0.0-3.0-1.347"
	},
	{
		"rt": 819,
		"stimulus": "../audio/70-8-masc.mp3",
		"response": " ",
		"word": "e",
		"trial_type": "audio-keyboard-response",
		"trial_index": 421,
		"time_elapsed": 718160,
		"internal_node_id": "0.0-3.0-1.348"
	},
	{
		"rt": 1280,
		"stimulus": "../audio/70-9-masc.mp3",
		"response": " ",
		"word": "beija-flor.",
		"trial_type": "audio-keyboard-response",
		"trial_index": 422,
		"time_elapsed": 719770,
		"internal_node_id": "0.0-3.0-1.349"
	},
	{
		"rt": 8492,
