"view_history","rt","trial_type","trial_index","time_elapsed","internal_node_id","stimulus","response","class","status","answer","correct","trial","letters"
"[{""page_index"":0,""viewing_time"":25369}]","25369","instructions","0","25370","0.0-0.0","","","","","","","",""
"","null","html-keyboard-response","1","25974","0.0-1.0-0.0","+","null","","","","","",""
"","3654","html-keyboard-response","2","29629","0.0-1.0-1.0","chassi","s","null","cog","word","S","prac","null"
"","null","html-keyboard-response","3","30131","0.0-1.0-0.1","+","null","","","","","",""
"","2475","html-keyboard-response","4","32607","0.0-1.0-1.1","daja","n","null","noncog","pseudo","N","prac","null"
"","null","html-keyboard-response","5","33109","0.0-1.0-0.2","+","null","","","","","",""
"","5784","html-keyboard-response","6","38894","0.0-1.0-1.2","plibar","n","null","noncog","pseudo","N","prac","null"
"","null","html-keyboard-response","7","39396","0.0-1.0-0.3","+","null","","","","","",""
"","1516","html-keyboard-response","8","40913","0.0-1.0-1.3","oliva","s","null","cog","word","S","prac","null"
"","null","html-keyboard-response","9","41415","0.0-1.0-0.4","+","null","","","","","",""
"","2215","html-keyboard-response","10","43631","0.0-1.0-1.4","calmaria","s","null","noncog","word","S","prac","null"
"","null","html-keyboard-response","11","44132","0.0-1.0-0.5","+","null","","","","","",""
"","1209","html-keyboard-response","12","45342","0.0-1.0-1.5","órgão","s","null","noncog","word","S","prac","null"
"","null","html-keyboard-response","13","45843","0.0-1.0-0.6","+","null","","","","","",""
"","2488","html-keyboard-response","14","48332","0.0-1.0-1.6","crante","n","null","noncog","pseudo","N","prac","null"
"[{""page_index"":0,""viewing_time"":3497}]","3497","instructions","15","51830","0.0-2.0","","","","","","","",""
"","null","html-keyboard-response","16","52431","0.0-3.0-0.0","+","null","","","","","",""
"","2531","html-keyboard-response","17","54963","0.0-3.0-1.0","salpicado","s","a","noncog","word","S","exp","9"
"","null","html-keyboard-response","18","55464","0.0-3.0-0.1","+","null","","","","","",""
"","30106","html-keyboard-response","19","85572","0.0-3.0-1.1","ejerro","n","null","noncog","pseudo","N","exp","null"
"","null","html-keyboard-response","20","86074","0.0-3.0-0.2","+","null","","","","","",""
"","1456","html-keyboard-response","21","87530","0.0-3.0-1.2","sustentar","s","v","noncog","word","S","exp","9"
"","null","html-keyboard-response","22","88032","0.0-3.0-0.3","+","null","","","","","",""
"","17399","html-keyboard-response","23","105432","0.0-3.0-1.3","prenas","n","null","noncog","pseudo","N","exp","null"
"","null","html-keyboard-response","24","105934","0.0-3.0-0.4","+","null","","","","","",""
"","1180","html-keyboard-response","25","107114","0.0-3.0-1.4","memória","s","n","cog","word","S","exp","7"
"","null","html-keyboard-response","26","107616","0.0-3.0-0.5","+","null","","","","","",""
"","3419","html-keyboard-response","27","111036","0.0-3.0-1.5","enxerido","s","a","noncog","word","S","exp","8"
"","null","html-keyboard-response","28","111537","0.0-3.0-0.6","+","null","","","","","",""
"","3064","html-keyboard-response","29","114602","0.0-3.0-1.6","ofreta","n","null","noncog","pseudo","N","exp","null"
"","null","html-keyboard-response","30","115103","0.0-3.0-0.7","+","null","","","","","",""
"","1180","html-keyboard-response","31","116284","0.0-3.0-1.7","pedaço","s","n","noncog","word","S","exp","6"
"","null","html-keyboard-response","32","116785","0.0-3.0-0.8","+","null","","","","","",""
"","12101","html-keyboard-response","33","128887","0.0-3.0-1.8","trair","n","v","cog","word","S","exp","5"
"","null","html-keyboard-response","34","129389","0.0-3.0-0.9","+","null","","","","","",""
"","1441","html-keyboard-response","35","130830","0.0-3.0-1.9","esperar","s","v","cog","word","S","exp","7"
"","null","html-keyboard-response","36","131332","0.0-3.0-0.10","+","null","","","","","",""
"","1605","html-keyboard-response","37","132938","0.0-3.0-1.10","especial","s","a","cog","word","S","exp","8"
"","null","html-keyboard-response","38","133439","0.0-3.0-0.11","+","null","","","","","",""
"","2472","html-keyboard-response","39","135914","0.0-3.0-1.11","adoçar","s","v","noncog","word","S","exp","6"
"","null","html-keyboard-response","40","136416","0.0-3.0-0.12","+","null","","","","","",""
"","1978","html-keyboard-response","41","138395","0.0-3.0-1.12","bagunceira","s","a","noncog","word","S","exp","10"
"","null","html-keyboard-response","42","138896","0.0-3.0-0.13","+","null","","","","","",""
"","773","html-keyboard-response","43","139670","0.0-3.0-1.13","país","s","n","noncog","word","S","exp","4"
"","null","html-keyboard-response","44","140172","0.0-3.0-0.14","+","null","","","","","",""
"","3261","html-keyboard-response","45","143434","0.0-3.0-1.14","irratinte","n","null","noncog","pseudo","N","exp","null"
"","null","html-keyboard-response","46","143936","0.0-3.0-0.15","+","null","","","","","",""
"","3834","html-keyboard-response","47","147771","0.0-3.0-1.15","civil","s","a","cog","word","S","exp","5"
"","null","html-keyboard-response","48","148272","0.0-3.0-0.16","+","null","","","","","",""
"","6019","html-keyboard-response","49","154292","0.0-3.0-1.16","fratos","n","null","noncog","pseudo","N","exp","null"
"","null","html-keyboard-response","50","154794","0.0-3.0-0.17","+","null","","","","","",""
"","1173","html-keyboard-response","51","155968","0.0-3.0-1.17","fino","s","a","cog","word","S","exp","4"
"","null","html-keyboard-response","52","156470","0.0-3.0-0.18","+","null","","","","","",""
"","4952","html-keyboard-response","53","161422","0.0-3.0-1.18","parceter","n","null","noncog","pseudo","N","exp","null"
"","null","html-keyboard-response","54","161924","0.0-3.0-0.19","+","null","","","","","",""
"","1286","html-keyboard-response","55","163211","0.0-3.0-1.19","mudança","s","n","noncog","word","S","exp","7"
"","null","html-keyboard-response","56","163712","0.0-3.0-0.20","+","null","","","","","",""
"","945","html-keyboard-response","57","164658","0.0-3.0-1.20","reduzir","s","v","cog","word","S","exp","7"
"","null","html-keyboard-response","58","165160","0.0-3.0-0.21","+","null","","","","","",""
"","840","html-keyboard-response","59","166001","0.0-3.0-1.21","barco","s","n","cog","word","S","exp","5"
"","null","html-keyboard-response","60","166503","0.0-3.0-0.22","+","null","","","","","",""
"","10980","html-keyboard-response","61","177484","0.0-3.0-1.22","tatear","s","v","cog","word","S","exp","6"
"","null","html-keyboard-response","62","177985","0.0-3.0-0.23","+","null","","","","","",""
"","17354","html-keyboard-response","63","195341","0.0-3.0-1.23","aemaça","n","null","noncog","pseudo","N","exp","null"
"","null","html-keyboard-response","64","195842","0.0-3.0-0.24","+","null","","","","","",""
"","12623","html-keyboard-response","65","208466","0.0-3.0-1.24","usfiga","n","null","noncog","pseudo","N","exp","null"
"","null","html-keyboard-response","66","208968","0.0-3.0-0.25","+","null","","","","","",""
"","1235","html-keyboard-response","67","210204","0.0-3.0-1.25","gordo","s","a","noncog","word","S","exp","5"
"","null","html-keyboard-response","68","210706","0.0-3.0-0.26","+","null","","","","","",""
"","876","html-keyboard-response","69","211583","0.0-3.0-1.26","arranjar","s","v","cog","word","S","exp","8"
"","null","html-keyboard-response","70","212085","0.0-3.0-0.27","+","null","","","","","",""
"","672","html-keyboard-response","71","212758","0.0-3.0-1.27","mal","s","a","cog","word","S","exp","3"
"","null","html-keyboard-response","72","213260","0.0-3.0-0.28","+","null","","","","","",""
"","1963","html-keyboard-response","73","215224","0.0-3.0-1.28","prantal","s","null","noncog","pseudo","N","exp","null"
"","null","html-keyboard-response","74","215725","0.0-3.0-0.29","+","null","","","","","",""
"","2255","html-keyboard-response","75","217981","0.0-3.0-1.29","dacada","n","null","noncog","pseudo","N","exp","null"
"","null","html-keyboard-response","76","218482","0.0-3.0-0.30","+","null","","","","","",""
"","6178","html-keyboard-response","77","224661","0.0-3.0-1.30","detative","n","null","noncog","pseudo","N","exp","null"
"","null","html-keyboard-response","78","225162","0.0-3.0-0.31","+","null","","","","","",""
"","4152","html-keyboard-response","79","229315","0.0-3.0-1.31","pneucania","s","null","noncog","pseudo","N","exp","null"
"","null","html-keyboard-response","80","229817","0.0-3.0-0.32","+","null","","","","","",""
"","1609","html-keyboard-response","81","231427","0.0-3.0-1.32","revear","s","null","noncog","pseudo","N","exp","null"
"","null","html-keyboard-response","82","231929","0.0-3.0-0.33","+","null","","","","","",""
"","995","html-keyboard-response","83","232924","0.0-3.0-1.33","drama","s","n","cog","word","S","exp","5"
"","null","html-keyboard-response","84","233426","0.0-3.0-0.34","+","null","","","","","",""
"","795","html-keyboard-response","85","234222","0.0-3.0-1.34","selir","s","null","noncog","pseudo","N","exp","null"
"","null","html-keyboard-response","86","234723","0.0-3.0-0.35","+","null","","","","","",""
"","1253","html-keyboard-response","87","235976","0.0-3.0-1.35","francês","s","a","cog","word","S","exp","7"
"","null","html-keyboard-response","88","236478","0.0-3.0-0.36","+","null","","","","","",""
"","968","html-keyboard-response","89","237447","0.0-3.0-1.36","tronca","s","null","noncog","pseudo","N","exp","null"
"","null","html-keyboard-response","90","237948","0.0-3.0-0.37","+","null","","","","","",""
"","841","html-keyboard-response","91","238790","0.0-3.0-1.37","areia","s","n","noncog","word","S","exp","5"
"","null","html-keyboard-response","92","239292","0.0-3.0-0.38","+","null","","","","","",""
"","1666","html-keyboard-response","93","240959","0.0-3.0-1.38","cirado","s","null","noncog","pseudo","N","exp","null"
"","null","html-keyboard-response","94","241460","0.0-3.0-0.39","+","null","","","","","",""
"","3768","html-keyboard-response","95","245229","0.0-3.0-1.39","ideisa","n","null","noncog","pseudo","N","exp","null"
"","null","html-keyboard-response","96","245729","0.0-3.0-0.40","+","null","","","","","",""
"","1063","html-keyboard-response","97","246793","0.0-3.0-1.40","tímido","s","a","cog","word","S","exp","6"
"","null","html-keyboard-response","98","247294","0.0-3.0-0.41","+","null","","","","","",""
"","717","html-keyboard-response","99","248012","0.0-3.0-1.41","filme","s","n","cog","word","S","exp","5"
"","null","html-keyboard-response","100","248514","0.0-3.0-0.42","+","null","","","","","",""
"","1440","html-keyboard-response","101","249955","0.0-3.0-1.42","rovaz","n","null","noncog","pseudo","N","exp","null"
"","null","html-keyboard-response","102","250457","0.0-3.0-0.43","+","null","","","","","",""
"","1224","html-keyboard-response","103","251681","0.0-3.0-1.43","perdão","s","n","noncog","word","S","exp","6"
"","null","html-keyboard-response","104","252183","0.0-3.0-0.44","+","null","","","","","",""
"","2312","html-keyboard-response","105","254495","0.0-3.0-1.44","ênclio","n","null","noncog","pseudo","N","exp","null"
"","null","html-keyboard-response","106","254997","0.0-3.0-0.45","+","null","","","","","",""
"","2532","html-keyboard-response","107","257530","0.0-3.0-1.45","dencosto","n","null","noncog","pseudo","N","exp","null"
"","null","html-keyboard-response","108","258031","0.0-3.0-0.46","+","null","","","","","",""
"","1045","html-keyboard-response","109","259077","0.0-3.0-1.46","matinal","s","a","cog","word","S","exp","7"
"","null","html-keyboard-response","110","259578","0.0-3.0-0.47","+","null","","","","","",""
"","3333","html-keyboard-response","111","262912","0.0-3.0-1.47","nevela","n","null","noncog","pseudo","N","exp","null"
"","null","html-keyboard-response","112","263413","0.0-3.0-0.48","+","null","","","","","",""
"","2041","html-keyboard-response","113","265455","0.0-3.0-1.48","mania","s","n","cog","word","S","exp","5"
"","null","html-keyboard-response","114","265956","0.0-3.0-0.49","+","null","","","","","",""
"","2528","html-keyboard-response","115","268485","0.0-3.0-1.49","quenzina","s","null","noncog","pseudo","N","exp","null"
"","null","html-keyboard-response","116","268986","0.0-3.0-0.50","+","null","","","","","",""
"","3277","html-keyboard-response","117","272265","0.0-3.0-1.50","suipestar","n","null","noncog","pseudo","N","exp","null"
"","null","html-keyboard-response","118","272767","0.0-3.0-0.51","+","null","","","","","",""
"","1376","html-keyboard-response","119","274144","0.0-3.0-1.51","morija","s","null","noncog","pseudo","N","exp","null"
"","null","html-keyboard-response","120","274646","0.0-3.0-0.52","+","null","","","","","",""
"","1881","html-keyboard-response","121","276528","0.0-3.0-1.52","aivões","n","null","noncog","pseudo","N","exp","null"
"","null","html-keyboard-response","122","277030","0.0-3.0-0.53","+","null","","","","","",""
"","1214","html-keyboard-response","123","278246","0.0-3.0-1.53","carro","s","n","noncog","word","S","exp","5"
"","null","html-keyboard-response","124","278747","0.0-3.0-0.54","+","null","","","","","",""
"","2420","html-keyboard-response","125","281168","0.0-3.0-1.54","euorpa","n","null","noncog","pseudo","N","exp","null"
"","null","html-keyboard-response","126","281669","0.0-3.0-0.55","+","null","","","","","",""
"","12252","html-keyboard-response","127","293923","0.0-3.0-1.55","ensuas","n","null","noncog","pseudo","N","exp","null"
"","null","html-keyboard-response","128","294425","0.0-3.0-0.56","+","null","","","","","",""
"","2085","html-keyboard-response","129","296510","0.0-3.0-1.56","instruído","s","a","noncog","word","S","exp","9"
"","null","html-keyboard-response","130","297012","0.0-3.0-0.57","+","null","","","","","",""
"","759","html-keyboard-response","131","297771","0.0-3.0-1.57","liso","s","n","noncog","word","S","exp","4"
"","null","html-keyboard-response","132","298273","0.0-3.0-0.58","+","null","","","","","",""
"","823","html-keyboard-response","133","299097","0.0-3.0-1.58","cápsula","s","n","noncog","word","S","exp","7"
"","null","html-keyboard-response","134","299598","0.0-3.0-0.59","+","null","","","","","",""
"","4184","html-keyboard-response","135","303783","0.0-3.0-1.59","âgnulo","n","null","noncog","pseudo","N","exp","null"
"","null","html-keyboard-response","136","304284","0.0-3.0-0.60","+","null","","","","","",""
"","2260","html-keyboard-response","137","306545","0.0-3.0-1.60","carregar","s","v","noncog","word","S","exp","8"
"","null","html-keyboard-response","138","307046","0.0-3.0-0.61","+","null","","","","","",""
"","5143","html-keyboard-response","139","312191","0.0-3.0-1.61","tinta","s","n","cog","word","S","exp","5"
"","null","html-keyboard-response","140","312692","0.0-3.0-0.62","+","null","","","","","",""
"","1578","html-keyboard-response","141","314270","0.0-3.0-1.62","traduzir","s","v","cog","word","S","exp","8"
"","null","html-keyboard-response","142","314772","0.0-3.0-0.63","+","null","","","","","",""
"","2436","html-keyboard-response","143","317208","0.0-3.0-1.63","dipata","n","null","noncog","pseudo","N","exp","null"
"","null","html-keyboard-response","144","317710","0.0-3.0-0.64","+","null","","","","","",""
"","1275","html-keyboard-response","145","318986","0.0-3.0-1.64","prever","s","v","cog","word","S","exp","6"
"","null","html-keyboard-response","146","319488","0.0-3.0-0.65","+","null","","","","","",""
"","2753","html-keyboard-response","147","322241","0.0-3.0-1.65","bancada","s","n","noncog","word","S","exp","7"
"","null","html-keyboard-response","148","322742","0.0-3.0-0.66","+","null","","","","","",""
"","800","html-keyboard-response","149","323543","0.0-3.0-1.66","agressivo","s","a","cog","word","S","exp","9"
"","null","html-keyboard-response","150","324044","0.0-3.0-0.67","+","null","","","","","",""
"","765","html-keyboard-response","151","324810","0.0-3.0-1.67","multiplicar","s","v","cog","word","S","exp","11"
"","null","html-keyboard-response","152","325311","0.0-3.0-0.68","+","null","","","","","",""
"","620","html-keyboard-response","153","325932","0.0-3.0-1.68","trabalhar","s","v","noncog","word","S","exp","9"
"","null","html-keyboard-response","154","326433","0.0-3.0-0.69","+","null","","","","","",""
"","1769","html-keyboard-response","155","328204","0.0-3.0-1.69","terdia","n","null","noncog","pseudo","N","exp","null"
"","null","html-keyboard-response","156","328705","0.0-3.0-0.70","+","null","","","","","",""
"","1225","html-keyboard-response","157","329931","0.0-3.0-1.70","destino","s","n","cog","word","S","exp","7"
"","null","html-keyboard-response","158","330433","0.0-3.0-0.71","+","null","","","","","",""
"","1486","html-keyboard-response","159","331920","0.0-3.0-1.71","enedro","n","null","noncog","pseudo","N","exp","null"
"","null","html-keyboard-response","160","332421","0.0-3.0-0.72","+","null","","","","","",""
"","913","html-keyboard-response","161","333335","0.0-3.0-1.72","nacional","s","a","cog","word","S","exp","8"
"","null","html-keyboard-response","162","333837","0.0-3.0-0.73","+","null","","","","","",""
"","763","html-keyboard-response","163","334601","0.0-3.0-1.73","cravo","s","n","noncog","word","S","exp","5"
"","null","html-keyboard-response","164","335104","0.0-3.0-0.74","+","null","","","","","",""
"","16456","html-keyboard-response","165","351562","0.0-3.0-1.74","mabras","s","null","noncog","pseudo","N","exp","null"
"","null","html-keyboard-response","166","352063","0.0-3.0-0.75","+","null","","","","","",""
"","1393","html-keyboard-response","167","353457","0.0-3.0-1.75","escumo","s","null","noncog","pseudo","N","exp","null"
"","null","html-keyboard-response","168","353959","0.0-3.0-0.76","+","null","","","","","",""
"","10692","html-keyboard-response","169","364652","0.0-3.0-1.76","loaco","n","null","noncog","pseudo","N","exp","null"
"","null","html-keyboard-response","170","365153","0.0-3.0-0.77","+","null","","","","","",""
"","2455","html-keyboard-response","171","367609","0.0-3.0-1.77","delomir","n","null","noncog","pseudo","N","exp","null"
"","null","html-keyboard-response","172","368111","0.0-3.0-0.78","+","null","","","","","",""
"","1046","html-keyboard-response","173","369158","0.0-3.0-1.78","azul","s","n","noncog","word","S","exp","4"
"","null","html-keyboard-response","174","369659","0.0-3.0-0.79","+","null","","","","","",""
"","815","html-keyboard-response","175","370475","0.0-3.0-1.79","nervoso","s","a","noncog","word","S","exp","7"
"","null","html-keyboard-response","176","370976","0.0-3.0-0.80","+","null","","","","","",""
"","1020","html-keyboard-response","177","371997","0.0-3.0-1.80","convidado","s","n","noncog","word","S","exp","9"
"","null","html-keyboard-response","178","372499","0.0-3.0-0.81","+","null","","","","","",""
"","2158","html-keyboard-response","179","374658","0.0-3.0-1.81","usnado","n","null","noncog","pseudo","N","exp","null"
"","null","html-keyboard-response","180","375159","0.0-3.0-0.82","+","null","","","","","",""
"","1702","html-keyboard-response","181","376862","0.0-3.0-1.82","delirar","s","v","noncog","word","S","exp","7"
"","null","html-keyboard-response","182","377364","0.0-3.0-0.83","+","null","","","","","",""
"","1821","html-keyboard-response","183","379185","0.0-3.0-1.83","distraído","s","a","cog","word","S","exp","9"
"","null","html-keyboard-response","184","379700","0.0-3.0-0.84","+","null","","","","","",""
"","1161","html-keyboard-response","185","380861","0.0-3.0-1.84","frotes","s","null","noncog","pseudo","N","exp","null"
"","null","html-keyboard-response","186","381363","0.0-3.0-0.85","+","null","","","","","",""
"","722","html-keyboard-response","187","382086","0.0-3.0-1.85","animado","s","a","noncog","word","S","exp","7"
"","null","html-keyboard-response","188","382588","0.0-3.0-0.86","+","null","","","","","",""
"","702","html-keyboard-response","189","383291","0.0-3.0-1.86","filosofia","s","n","cog","word","S","exp","9"
"","null","html-keyboard-response","190","383792","0.0-3.0-0.87","+","null","","","","","",""
"","667","html-keyboard-response","191","384460","0.0-3.0-1.87","nome","s","n","cog","word","S","exp","4"
"","null","html-keyboard-response","192","384961","0.0-3.0-0.88","+","null","","","","","",""
"","2128","html-keyboard-response","193","387090","0.0-3.0-1.88","berquesa","n","null","noncog","pseudo","N","exp","null"
"","null","html-keyboard-response","194","387591","0.0-3.0-0.89","+","null","","","","","",""
"","1081","html-keyboard-response","195","388673","0.0-3.0-1.89","espionar","s","v","cog","word","S","exp","8"
"","null","html-keyboard-response","196","389174","0.0-3.0-0.90","+","null","","","","","",""
"","2282","html-keyboard-response","197","391457","0.0-3.0-1.90","dilheira","n","null","noncog","pseudo","N","exp","null"
"","null","html-keyboard-response","198","391958","0.0-3.0-0.91","+","null","","","","","",""
"","980","html-keyboard-response","199","392939","0.0-3.0-1.91","preferir","s","v","cog","word","S","exp","8"
"","null","html-keyboard-response","200","393440","0.0-3.0-0.92","+","null","","","","","",""
"","15102","html-keyboard-response","201","408543","0.0-3.0-1.92","farcas","n","null","noncog","pseudo","N","exp","null"
"","null","html-keyboard-response","202","409044","0.0-3.0-0.93","+","null","","","","","",""
"","1256","html-keyboard-response","203","410301","0.0-3.0-1.93","apontar","s","v","noncog","word","S","exp","7"
"","null","html-keyboard-response","204","410803","0.0-3.0-0.94","+","null","","","","","",""
"","1899","html-keyboard-response","205","412704","0.0-3.0-1.94","macras","s","null","noncog","pseudo","N","exp","null"
"","null","html-keyboard-response","206","413205","0.0-3.0-0.95","+","null","","","","","",""
"","1291","html-keyboard-response","207","414497","0.0-3.0-1.95","manfa","s","null","noncog","pseudo","N","exp","null"
"","null","html-keyboard-response","208","414998","0.0-3.0-0.96","+","null","","","","","",""
"","852","html-keyboard-response","209","415850","0.0-3.0-1.96","melão","s","n","cog","word","S","exp","5"
"","null","html-keyboard-response","210","416352","0.0-3.0-0.97","+","null","","","","","",""
"","1262","html-keyboard-response","211","417615","0.0-3.0-1.97","atitro","s","null","noncog","pseudo","N","exp","null"
"","null","html-keyboard-response","212","418116","0.0-3.0-0.98","+","null","","","","","",""
"","3845","html-keyboard-response","213","421961","0.0-3.0-1.98","oper","s","null","noncog","pseudo","N","exp","null"
"","null","html-keyboard-response","214","422463","0.0-3.0-0.99","+","null","","","","","",""
"","1595","html-keyboard-response","215","424059","0.0-3.0-1.99","rédesa","n","null","noncog","pseudo","N","exp","null"
"","null","html-keyboard-response","216","424561","0.0-3.0-0.100","+","null","","","","","",""
"","14965","html-keyboard-response","217","439527","0.0-3.0-1.100","esprotiar","n","null","noncog","pseudo","N","exp","null"
"","null","html-keyboard-response","218","440029","0.0-3.0-0.101","+","null","","","","","",""
"","1178","html-keyboard-response","219","441207","0.0-3.0-1.101","brincar","s","v","noncog","word","S","exp","7"
"","null","html-keyboard-response","220","441709","0.0-3.0-0.102","+","null","","","","","",""
"","15346","html-keyboard-response","221","457055","0.0-3.0-1.102","deselegante","s","a","noncog","word","S","exp","11"
"","null","html-keyboard-response","222","457556","0.0-3.0-0.103","+","null","","","","","",""
"","12802","html-keyboard-response","223","470360","0.0-3.0-1.103","ronronar","s","v","cog","word","S","exp","8"
"","null","html-keyboard-response","224","470862","0.0-3.0-0.104","+","null","","","","","",""
"","1894","html-keyboard-response","225","472757","0.0-3.0-1.104","burtos","n","null","noncog","pseudo","N","exp","null"
"","null","html-keyboard-response","226","473259","0.0-3.0-0.105","+","null","","","","","",""
"","12620","html-keyboard-response","227","485880","0.0-3.0-1.105","afonher","n","null","noncog","pseudo","N","exp","null"
"","null","html-keyboard-response","228","486382","0.0-3.0-0.106","+","null","","","","","",""
"","2310","html-keyboard-response","229","488693","0.0-3.0-1.106","braras","n","null","noncog","pseudo","N","exp","null"
"","null","html-keyboard-response","230","489195","0.0-3.0-0.107","+","null","","","","","",""
"","14401","html-keyboard-response","231","503597","0.0-3.0-1.107","beima","s","null","noncog","pseudo","N","exp","null"
"","null","html-keyboard-response","232","504098","0.0-3.0-0.108","+","null","","","","","",""
"","1879","html-keyboard-response","233","505979","0.0-3.0-1.108","motre","n","null","noncog","pseudo","N","exp","null"
"","null","html-keyboard-response","234","506480","0.0-3.0-0.109","+","null","","","","","",""
"","3229","html-keyboard-response","235","509710","0.0-3.0-1.109","uchães","s","null","noncog","pseudo","N","exp","null"
"","null","html-keyboard-response","236","510211","0.0-3.0-0.110","+","null","","","","","",""
"","3610","html-keyboard-response","237","513821","0.0-3.0-1.110","cenada","n","null","noncog","pseudo","N","exp","null"
"","null","html-keyboard-response","238","514322","0.0-3.0-0.111","+","null","","","","","",""
"","3266","html-keyboard-response","239","517589","0.0-3.0-1.111","grave","s","a","cog","word","S","exp","5"
"","null","html-keyboard-response","240","518090","0.0-3.0-0.112","+","null","","","","","",""
"","1620","html-keyboard-response","241","519711","0.0-3.0-1.112","jastor","s","null","noncog","pseudo","N","exp","null"
"","null","html-keyboard-response","242","520212","0.0-3.0-0.113","+","null","","","","","",""
"","1564","html-keyboard-response","243","521778","0.0-3.0-1.113","pimada","s","null","noncog","pseudo","N","exp","null"
"","null","html-keyboard-response","244","522279","0.0-3.0-0.114","+","null","","","","","",""
"","1020","html-keyboard-response","245","523300","0.0-3.0-1.114","incomodar","s","v","noncog","word","S","exp","9"
"","null","html-keyboard-response","246","523801","0.0-3.0-0.115","+","null","","","","","",""
"","2718","html-keyboard-response","247","526520","0.0-3.0-1.115","aparme","n","null","noncog","pseudo","N","exp","null"
"","null","html-keyboard-response","248","527021","0.0-3.0-0.116","+","null","","","","","",""
"","1323","html-keyboard-response","249","528345","0.0-3.0-1.116","espaço","s","n","cog","word","S","exp","6"
"","null","html-keyboard-response","250","528847","0.0-3.0-0.117","+","null","","","","","",""
"","2051","html-keyboard-response","251","530899","0.0-3.0-1.117","ocinto","n","null","noncog","pseudo","N","exp","null"
"","null","html-keyboard-response","252","531400","0.0-3.0-0.118","+","null","","","","","",""
"","2916","html-keyboard-response","253","534317","0.0-3.0-1.118","pitada","s","n","noncog","word","S","exp","6"
"","null","html-keyboard-response","254","534819","0.0-3.0-0.119","+","null","","","","","",""
"","2097","html-keyboard-response","255","536917","0.0-3.0-1.119","fasdas","n","null","noncog","pseudo","N","exp","null"
"","null","html-keyboard-response","256","537419","0.0-3.0-0.120","+","null","","","","","",""
"","1677","html-keyboard-response","257","539097","0.0-3.0-1.120","pega-pega","s","n","noncog","word","S","exp","8"
"","null","html-keyboard-response","258","539598","0.0-3.0-0.121","+","null","","","","","",""
"","2373","html-keyboard-response","259","541972","0.0-3.0-1.121","bachir","s","null","noncog","pseudo","N","exp","null"
"","null","html-keyboard-response","260","542474","0.0-3.0-0.122","+","null","","","","","",""
"","619","html-keyboard-response","261","543094","0.0-3.0-1.122","anjo","s","n","cog","word","S","exp","4"
"","null","html-keyboard-response","262","543595","0.0-3.0-0.123","+","null","","","","","",""
"","1790","html-keyboard-response","263","545386","0.0-3.0-1.123","fusbão","s","null","noncog","pseudo","N","exp","null"
"","null","html-keyboard-response","264","545887","0.0-3.0-0.124","+","null","","","","","",""
"","810","html-keyboard-response","265","546698","0.0-3.0-1.124","grátis","s","a","cog","word","S","exp","6"
"","null","html-keyboard-response","266","547199","0.0-3.0-0.125","+","null","","","","","",""
"","2116","html-keyboard-response","267","549316","0.0-3.0-1.125","ilhure","n","null","noncog","pseudo","N","exp","null"
"","null","html-keyboard-response","268","549817","0.0-3.0-0.126","+","null","","","","","",""
"","1364","html-keyboard-response","269","551182","0.0-3.0-1.126","aperor","n","null","noncog","pseudo","N","exp","null"
"","null","html-keyboard-response","270","551683","0.0-3.0-0.127","+","null","","","","","",""
"","4694","html-keyboard-response","271","556378","0.0-3.0-1.127","telafonir","n","null","noncog","pseudo","N","exp","null"
"","null","html-keyboard-response","272","556880","0.0-3.0-0.128","+","null","","","","","",""
"","2551","html-keyboard-response","273","559431","0.0-3.0-1.128","promeção","n","null","noncog","pseudo","N","exp","null"
"","null","html-keyboard-response","274","559933","0.0-3.0-0.129","+","null","","","","","",""
"","2207","html-keyboard-response","275","562140","0.0-3.0-1.129","garastia","n","null","noncog","pseudo","N","exp","null"
"","null","html-keyboard-response","276","562642","0.0-3.0-0.130","+","null","","","","","",""
"","3994","html-keyboard-response","277","566637","0.0-3.0-1.130","orupas","s","null","noncog","pseudo","N","exp","null"
"","null","html-keyboard-response","278","567139","0.0-3.0-0.131","+","null","","","","","",""
"","1137","html-keyboard-response","279","568277","0.0-3.0-1.131","gilha","s","null","noncog","pseudo","N","exp","null"
"","null","html-keyboard-response","280","568779","0.0-3.0-0.132","+","null","","","","","",""
"","1071","html-keyboard-response","281","569851","0.0-3.0-1.132","oecano","s","null","noncog","pseudo","N","exp","null"
"","null","html-keyboard-response","282","570353","0.0-3.0-0.133","+","null","","","","","",""
"","1101","html-keyboard-response","283","571456","0.0-3.0-1.133","alpica","s","null","noncog","pseudo","N","exp","null"
"","null","html-keyboard-response","284","571957","0.0-3.0-0.134","+","null","","","","","",""
"","3184","html-keyboard-response","285","575142","0.0-3.0-1.134","pangos","s","null","noncog","pseudo","N","exp","null"
"","null","html-keyboard-response","286","575643","0.0-3.0-0.135","+","null","","","","","",""
"","15232","html-keyboard-response","287","590876","0.0-3.0-1.135","vitrive","n","null","noncog","pseudo","N","exp","null"
"","null","html-keyboard-response","288","591378","0.0-3.0-0.136","+","null","","","","","",""
"","1508","html-keyboard-response","289","592887","0.0-3.0-1.136","agravar","s","v","cog","word","S","exp","7"
"","null","html-keyboard-response","290","593388","0.0-3.0-0.137","+","null","","","","","",""
"","1565","html-keyboard-response","291","594954","0.0-3.0-1.137","hipócrita","s","a","noncog","word","S","exp","9"
"","null","html-keyboard-response","292","595455","0.0-3.0-0.138","+","null","","","","","",""
"","624","html-keyboard-response","293","596080","0.0-3.0-1.138","tênis","s","n","cog","word","S","exp","5"
"","null","html-keyboard-response","294","596582","0.0-3.0-0.139","+","null","","","","","",""
"","3988","html-keyboard-response","295","600571","0.0-3.0-1.139","lorfaz","n","null","noncog","pseudo","N","exp","null"
"","null","html-keyboard-response","296","601072","0.0-3.0-0.140","+","null","","","","","",""
"","1092","html-keyboard-response","297","602165","0.0-3.0-1.140","liberal","s","a","cog","word","S","exp","7"
"","null","html-keyboard-response","298","602666","0.0-3.0-0.141","+","null","","","","","",""
"","1277","html-keyboard-response","299","603944","0.0-3.0-1.141","lagoa","s","n","cog","word","S","exp","5"
"","null","html-keyboard-response","300","604446","0.0-3.0-0.142","+","null","","","","","",""
"","779","html-keyboard-response","301","605227","0.0-3.0-1.142","sábio","s","n","noncog","word","S","exp","5"
"","null","html-keyboard-response","302","605729","0.0-3.0-0.143","+","null","","","","","",""
"","3085","html-keyboard-response","303","608815","0.0-3.0-1.143","crolatário","n","null","noncog","pseudo","N","exp","null"
"","null","html-keyboard-response","304","609317","0.0-3.0-0.144","+","null","","","","","",""
"","3757","html-keyboard-response","305","613075","0.0-3.0-1.144","bracos","n","null","noncog","pseudo","N","exp","null"
"","null","html-keyboard-response","306","613577","0.0-3.0-0.145","+","null","","","","","",""
"","3446","html-keyboard-response","307","617024","0.0-3.0-1.145","undivídio","n","null","noncog","pseudo","N","exp","null"
"","null","html-keyboard-response","308","617525","0.0-3.0-0.146","+","null","","","","","",""
"","1583","html-keyboard-response","309","619109","0.0-3.0-1.146","chato","s","n","noncog","word","S","exp","5"
"","null","html-keyboard-response","310","619611","0.0-3.0-0.147","+","null","","","","","",""
"","876","html-keyboard-response","311","620488","0.0-3.0-1.147","chorão","s","a","noncog","word","S","exp","6"
"","null","html-keyboard-response","312","620990","0.0-3.0-0.148","+","null","","","","","",""
"","1128","html-keyboard-response","313","622119","0.0-3.0-1.148","socorro","s","n","noncog","word","S","exp","7"
"","null","html-keyboard-response","314","622620","0.0-3.0-0.149","+","null","","","","","",""
"","5081","html-keyboard-response","315","627702","0.0-3.0-1.149","disbrituir","n","null","noncog","pseudo","N","exp","null"
"","null","html-keyboard-response","316","628204","0.0-3.0-0.150","+","null","","","","","",""
"","3992","html-keyboard-response","317","632196","0.0-3.0-1.150","vervas","n","null","noncog","pseudo","N","exp","null"
"","null","html-keyboard-response","318","632698","0.0-3.0-0.151","+","null","","","","","",""
"","1154","html-keyboard-response","319","633852","0.0-3.0-1.151","cinema","s","n","cog","word","S","exp","6"
"","null","html-keyboard-response","320","634354","0.0-3.0-0.152","+","null","","","","","",""
"","5144","html-keyboard-response","321","639499","0.0-3.0-1.152","candifência","s","null","noncog","pseudo","N","exp","null"
"","null","html-keyboard-response","322","640000","0.0-3.0-0.153","+","null","","","","","",""
"","1491","html-keyboard-response","323","641492","0.0-3.0-1.153","costra","s","null","noncog","pseudo","N","exp","null"
"","null","html-keyboard-response","324","641993","0.0-3.0-0.154","+","null","","","","","",""
"","1000","html-keyboard-response","325","642994","0.0-3.0-1.154","tartos","s","null","noncog","pseudo","N","exp","null"
"","null","html-keyboard-response","326","643495","0.0-3.0-0.155","+","null","","","","","",""
"","728","html-keyboard-response","327","644224","0.0-3.0-1.155","jantar","s","v","noncog","word","S","exp","6"
"","null","html-keyboard-response","328","644725","0.0-3.0-0.156","+","null","","","","","",""
"","595","html-keyboard-response","329","645321","0.0-3.0-1.156","fofo","s","a","noncog","word","S","exp","4"
"","null","html-keyboard-response","330","645822","0.0-3.0-0.157","+","null","","","","","",""
"","733","html-keyboard-response","331","646556","0.0-3.0-1.157","comércio","s","n","noncog","word","S","exp","8"
"","null","html-keyboard-response","332","647057","0.0-3.0-0.158","+","null","","","","","",""
"","14085","html-keyboard-response","333","661144","0.0-3.0-1.158","lapestra","n","null","noncog","pseudo","N","exp","null"
"","null","html-keyboard-response","334","661645","0.0-3.0-0.159","+","null","","","","","",""
"","3882","html-keyboard-response","335","665527","0.0-3.0-1.159","crutas","n","null","noncog","pseudo","N","exp","null"
"","null","html-keyboard-response","336","666029","0.0-3.0-0.160","+","null","","","","","",""
"","1153","html-keyboard-response","337","667182","0.0-3.0-1.160","independente","s","a","noncog","word","S","exp","12"
"","null","html-keyboard-response","338","667684","0.0-3.0-0.161","+","null","","","","","",""
"","1225","html-keyboard-response","339","668910","0.0-3.0-1.161","raspar","s","v","noncog","word","S","exp","6"
"","null","html-keyboard-response","340","669412","0.0-3.0-0.162","+","null","","","","","",""
"","9346","html-keyboard-response","341","678759","0.0-3.0-1.162","mua","n","null","noncog","pseudo","N","exp","null"
"","null","html-keyboard-response","342","679260","0.0-3.0-0.163","+","null","","","","","",""
"","2593","html-keyboard-response","343","681855","0.0-3.0-1.163","sanque","n","null","noncog","pseudo","N","exp","null"
"","null","html-keyboard-response","344","682357","0.0-3.0-0.164","+","null","","","","","",""
"","1271","html-keyboard-response","345","683629","0.0-3.0-1.164","temperar","s","v","noncog","word","S","exp","8"
"","null","html-keyboard-response","346","684131","0.0-3.0-0.165","+","null","","","","","",""
"","706","html-keyboard-response","347","684838","0.0-3.0-1.165","bandido","s","n","cog","word","S","exp","7"
"","null","html-keyboard-response","348","685340","0.0-3.0-0.166","+","null","","","","","",""
"","2701","html-keyboard-response","349","688042","0.0-3.0-1.166","conjerto","n","null","noncog","pseudo","N","exp","null"
"","null","html-keyboard-response","350","688543","0.0-3.0-0.167","+","null","","","","","",""
"","1836","html-keyboard-response","351","690380","0.0-3.0-1.167","carona","s","n","noncog","word","S","exp","6"
"","null","html-keyboard-response","352","690881","0.0-3.0-0.168","+","null","","","","","",""
"","637","html-keyboard-response","353","691518","0.0-3.0-1.168","cristal","s","n","cog","word","S","exp","7"
"","null","html-keyboard-response","354","692020","0.0-3.0-0.169","+","null","","","","","",""
"","871","html-keyboard-response","355","692892","0.0-3.0-1.169","árovre","s","null","noncog","pseudo","N","exp","null"
"","null","html-keyboard-response","356","693394","0.0-3.0-0.170","+","null","","","","","",""
"","8383","html-keyboard-response","357","701778","0.0-3.0-1.170","esfoce","n","null","noncog","pseudo","N","exp","null"
"","null","html-keyboard-response","358","702279","0.0-3.0-0.171","+","null","","","","","",""
"","1966","html-keyboard-response","359","704246","0.0-3.0-1.171","franda","n","null","noncog","pseudo","N","exp","null"
"","null","html-keyboard-response","360","704749","0.0-3.0-0.172","+","null","","","","","",""
"","1306","html-keyboard-response","361","706055","0.0-3.0-1.172","espinho","s","n","noncog","word","S","exp","7"
"","null","html-keyboard-response","362","706556","0.0-3.0-0.173","+","null","","","","","",""
"","1062","html-keyboard-response","363","707619","0.0-3.0-1.173","sintonizar","s","v","noncog","word","S","exp","10"
"","null","html-keyboard-response","364","708120","0.0-3.0-0.174","+","null","","","","","",""
"","1149","html-keyboard-response","365","709269","0.0-3.0-1.174","bibarconato","s","null","noncog","pseudo","N","exp","null"
"","null","html-keyboard-response","366","709771","0.0-3.0-0.175","+","null","","","","","",""
"","1415","html-keyboard-response","367","711187","0.0-3.0-1.175","pantufa","s","n","cog","word","S","exp","7"
"","null","html-keyboard-response","368","711688","0.0-3.0-0.176","+","null","","","","","",""
"","1636","html-keyboard-response","369","713325","0.0-3.0-1.176","protas","n","null","noncog","pseudo","N","exp","null"
"","null","html-keyboard-response","370","713827","0.0-3.0-0.177","+","null","","","","","",""
"","1024","html-keyboard-response","371","714852","0.0-3.0-1.177","casuas","n","null","noncog","pseudo","N","exp","null"
"","null","html-keyboard-response","372","715354","0.0-3.0-0.178","+","null","","","","","",""
"","1122","html-keyboard-response","373","716477","0.0-3.0-1.178","alfabeto","s","n","cog","word","S","exp","8"
"","null","html-keyboard-response","374","716978","0.0-3.0-0.179","+","null","","","","","",""
"","1277","html-keyboard-response","375","718256","0.0-3.0-1.179","uçar","s","null","noncog","pseudo","N","exp","null"
"","null","html-keyboard-response","376","718757","0.0-3.0-0.180","+","null","","","","","",""
"","871","html-keyboard-response","377","719630","0.0-3.0-1.180","refletir","s","v","cog","word","S","exp","8"
"","null","html-keyboard-response","378","720131","0.0-3.0-0.181","+","null","","","","","",""
"","1748","html-keyboard-response","379","721880","0.0-3.0-1.181","senareta","n","null","noncog","pseudo","N","exp","null"
"","null","html-keyboard-response","380","722381","0.0-3.0-0.182","+","null","","","","","",""
"","881","html-keyboard-response","381","723263","0.0-3.0-1.182","telefone","s","n","cog","word","S","exp","8"
"","null","html-keyboard-response","382","723765","0.0-3.0-0.183","+","null","","","","","",""
"","867","html-keyboard-response","383","724633","0.0-3.0-1.183","planalto","s","n","cog","word","S","exp","8"
"","null","html-keyboard-response","384","725135","0.0-3.0-0.184","+","null","","","","","",""
"","3259","html-keyboard-response","385","728395","0.0-3.0-1.184","podilo","n","null","noncog","pseudo","N","exp","null"
"","null","html-keyboard-response","386","728897","0.0-3.0-0.185","+","null","","","","","",""
"","1634","html-keyboard-response","387","730532","0.0-3.0-1.185","taberia","n","null","noncog","pseudo","N","exp","null"
"","null","html-keyboard-response","388","731034","0.0-3.0-0.186","+","null","","","","","",""
"","1194","html-keyboard-response","389","732229","0.0-3.0-1.186","dia","s","n","noncog","word","S","exp","3"
"","null","html-keyboard-response","390","732731","0.0-3.0-0.187","+","null","","","","","",""
"","1609","html-keyboard-response","391","734341","0.0-3.0-1.187","perbas","n","null","noncog","pseudo","N","exp","null"
"","null","html-keyboard-response","392","734842","0.0-3.0-0.188","+","null","","","","","",""
"","1057","html-keyboard-response","393","735900","0.0-3.0-1.188","revista","s","n","cog","word","S","exp","7"
"","null","html-keyboard-response","394","736401","0.0-3.0-0.189","+","null","","","","","",""
"","1886","html-keyboard-response","395","738288","0.0-3.0-1.189","hedoru","n","null","noncog","pseudo","N","exp","null"
"","null","html-keyboard-response","396","738789","0.0-3.0-0.190","+","null","","","","","",""
"","1364","html-keyboard-response","397","740154","0.0-3.0-1.190","grótis","s","null","noncog","pseudo","N","exp","null"
"","null","html-keyboard-response","398","740656","0.0-3.0-0.191","+","null","","","","","",""
"","1178","html-keyboard-response","399","741836","0.0-3.0-1.191","aitrou","n","null","noncog","pseudo","N","exp","null"
"","null","html-keyboard-response","400","742337","0.0-3.0-0.192","+","null","","","","","",""
"","1231","html-keyboard-response","401","743570","0.0-3.0-1.192","motros","s","null","noncog","pseudo","N","exp","null"
"","null","html-keyboard-response","402","744071","0.0-3.0-0.193","+","null","","","","","",""
"","778","html-keyboard-response","403","744850","0.0-3.0-1.193","viver","s","v","cog","word","S","exp","5"
"","null","html-keyboard-response","404","745351","0.0-3.0-0.194","+","null","","","","","",""
"","924","html-keyboard-response","405","746276","0.0-3.0-1.194","verde","s","a","noncog","word","S","exp","5"
"","null","html-keyboard-response","406","746777","0.0-3.0-0.195","+","null","","","","","",""
"","1522","html-keyboard-response","407","748301","0.0-3.0-1.195","verceja","n","null","noncog","pseudo","N","exp","null"
"","null","html-keyboard-response","408","748802","0.0-3.0-0.196","+","null","","","","","",""
"","1318","html-keyboard-response","409","750122","0.0-3.0-1.196","nivelado","s","a","cog","word","S","exp","8"
"","null","html-keyboard-response","410","750624","0.0-3.0-0.197","+","null","","","","","",""
"","855","html-keyboard-response","411","751480","0.0-3.0-1.197","cerca","s","n","noncog","word","S","exp","5"
"","null","html-keyboard-response","412","751981","0.0-3.0-0.198","+","null","","","","","",""
"","647","html-keyboard-response","413","752628","0.0-3.0-1.198","livro","s","n","cog","word","S","exp","5"
"","null","html-keyboard-response","414","753130","0.0-3.0-0.199","+","null","","","","","",""
"","2020","html-keyboard-response","415","755151","0.0-3.0-1.199","extravagante","s","a","cog","word","S","exp","12"
"","null","html-keyboard-response","416","755653","0.0-3.0-0.200","+","null","","","","","",""
"","2339","html-keyboard-response","417","757992","0.0-3.0-1.200","atapdar","n","null","noncog","pseudo","N","exp","null"
"","null","html-keyboard-response","418","758494","0.0-3.0-0.201","+","null","","","","","",""
"","979","html-keyboard-response","419","759474","0.0-3.0-1.201","abieso","n","null","noncog","pseudo","N","exp","null"
"","null","html-keyboard-response","420","759975","0.0-3.0-0.202","+","null","","","","","",""
"","1118","html-keyboard-response","421","761094","0.0-3.0-1.202","propaganda","s","n","cog","word","S","exp","10"
"","null","html-keyboard-response","422","761595","0.0-3.0-0.203","+","null","","","","","",""
"","1400","html-keyboard-response","423","762996","0.0-3.0-1.203","afual","n","null","noncog","pseudo","N","exp","null"
"","null","html-keyboard-response","424","763498","0.0-3.0-0.204","+","null","","","","","",""
"","1261","html-keyboard-response","425","764760","0.0-3.0-1.204","bambu","s","n","cog","word","S","exp","5"
"","null","html-keyboard-response","426","765263","0.0-3.0-0.205","+","null","","","","","",""
"","644","html-keyboard-response","427","765908","0.0-3.0-1.205","tela","s","n","noncog","word","S","exp","4"
"","null","html-keyboard-response","428","766410","0.0-3.0-0.206","+","null","","","","","",""
"","599","html-keyboard-response","429","767011","0.0-3.0-1.206","morar","s","v","noncog","word","S","exp","5"
"","null","html-keyboard-response","430","767512","0.0-3.0-0.207","+","null","","","","","",""
"","662","html-keyboard-response","431","768175","0.0-3.0-1.207","ótimo","s","a","noncog","word","S","exp","5"
"","null","html-keyboard-response","432","768676","0.0-3.0-0.208","+","null","","","","","",""
"","2553","html-keyboard-response","433","771230","0.0-3.0-1.208","resmungar","n","v","noncog","word","S","exp","9"
"","null","html-keyboard-response","434","771731","0.0-3.0-0.209","+","null","","","","","",""
"","5127","html-keyboard-response","435","776859","0.0-3.0-1.209","lagras","n","null","noncog","pseudo","N","exp","null"
"","null","html-keyboard-response","436","777361","0.0-3.0-0.210","+","null","","","","","",""
"","2908","html-keyboard-response","437","780269","0.0-3.0-1.210","avenas","s","null","noncog","pseudo","N","exp","null"
"","null","html-keyboard-response","438","780770","0.0-3.0-0.211","+","null","","","","","",""
"","825","html-keyboard-response","439","781596","0.0-3.0-1.211","pulmão","s","n","noncog","word","S","exp","6"
"","null","html-keyboard-response","440","782097","0.0-3.0-0.212","+","null","","","","","",""
"","810","html-keyboard-response","441","782908","0.0-3.0-1.212","promessa","s","n","noncog","word","S","exp","8"
"","null","html-keyboard-response","442","783409","0.0-3.0-0.213","+","null","","","","","",""
"","646","html-keyboard-response","443","784056","0.0-3.0-1.213","imitar","s","v","cog","word","S","exp","6"
"","null","html-keyboard-response","444","784557","0.0-3.0-0.214","+","null","","","","","",""
"","2543","html-keyboard-response","445","787102","0.0-3.0-1.214","dobradiça","s","n","noncog","word","S","exp","9"
"","null","html-keyboard-response","446","787603","0.0-3.0-0.215","+","null","","","","","",""
"","1368","html-keyboard-response","447","788973","0.0-3.0-1.215","hébies","n","null","noncog","pseudo","N","exp","null"
"","null","html-keyboard-response","448","789475","0.0-3.0-0.216","+","null","","","","","",""
"","1067","html-keyboard-response","449","790542","0.0-3.0-1.216","morno","s","a","noncog","word","S","exp","5"
"","null","html-keyboard-response","450","791044","0.0-3.0-0.217","+","null","","","","","",""
"","1153","html-keyboard-response","451","792197","0.0-3.0-1.217","faínas","n","null","noncog","pseudo","N","exp","null"
"","null","html-keyboard-response","452","792698","0.0-3.0-0.218","+","null","","","","","",""
"","4046","html-keyboard-response","453","796745","0.0-3.0-1.218","encelhor","n","null","noncog","pseudo","N","exp","null"
"","null","html-keyboard-response","454","797247","0.0-3.0-0.219","+","null","","","","","",""
"","1272","html-keyboard-response","455","798519","0.0-3.0-1.219","montanha","s","n","cog","word","S","exp","8"
"","null","html-keyboard-response","456","799021","0.0-3.0-0.220","+","null","","","","","",""
"","738","html-keyboard-response","457","799760","0.0-3.0-1.220","cascata","s","n","noncog","word","S","exp","7"
"","null","html-keyboard-response","458","800262","0.0-3.0-0.221","+","null","","","","","",""
"","949","html-keyboard-response","459","801212","0.0-3.0-1.221","aletiê","n","null","noncog","pseudo","N","exp","null"
"","null","html-keyboard-response","460","801713","0.0-3.0-0.222","+","null","","","","","",""
"","4076","html-keyboard-response","461","805790","0.0-3.0-1.222","enxarto","n","null","noncog","pseudo","N","exp","null"
"","null","html-keyboard-response","462","806291","0.0-3.0-0.223","+","null","","","","","",""
"","764","html-keyboard-response","463","807056","0.0-3.0-1.223","atrasar","s","v","noncog","word","S","exp","7"
"","null","html-keyboard-response","464","807557","0.0-3.0-0.224","+","null","","","","","",""
"","687","html-keyboard-response","465","808245","0.0-3.0-1.224","papai","s","n","cog","word","S","exp","5"
"","null","html-keyboard-response","466","808747","0.0-3.0-0.225","+","null","","","","","",""
"","698","html-keyboard-response","467","809446","0.0-3.0-1.225","verdade","s","n","cog","word","S","exp","7"
"","null","html-keyboard-response","468","809947","0.0-3.0-0.226","+","null","","","","","",""
"","748","html-keyboard-response","469","810696","0.0-3.0-1.226","glória","s","n","cog","word","S","exp","6"
"","null","html-keyboard-response","470","811197","0.0-3.0-0.227","+","null","","","","","",""
"","1513","html-keyboard-response","471","812712","0.0-3.0-1.227","trenos","s","null","noncog","pseudo","N","exp","null"
"","null","html-keyboard-response","472","813214","0.0-3.0-0.228","+","null","","","","","",""
"","805","html-keyboard-response","473","814019","0.0-3.0-1.228","manais","s","null","noncog","pseudo","N","exp","null"
"","null","html-keyboard-response","474","814521","0.0-3.0-0.229","+","null","","","","","",""
"","702","html-keyboard-response","475","815224","0.0-3.0-1.229","açúcar","s","n","noncog","word","S","exp","6"
"","null","html-keyboard-response","476","815726","0.0-3.0-0.230","+","null","","","","","",""
"","636","html-keyboard-response","477","816362","0.0-3.0-1.230","tio","s","n","noncog","word","S","exp","3"
"","null","html-keyboard-response","478","816864","0.0-3.0-0.231","+","null","","","","","",""
"","1097","html-keyboard-response","479","817962","0.0-3.0-1.231","plinta","n","null","noncog","pseudo","N","exp","null"
"","null","html-keyboard-response","480","818464","0.0-3.0-0.232","+","null","","","","","",""
"","1440","html-keyboard-response","481","819905","0.0-3.0-1.232","gruja","s","null","noncog","pseudo","N","exp","null"
"","null","html-keyboard-response","482","820407","0.0-3.0-0.233","+","null","","","","","",""
"","2071","html-keyboard-response","483","822479","0.0-3.0-1.233","boreta","n","null","noncog","pseudo","N","exp","null"
"","null","html-keyboard-response","484","822981","0.0-3.0-0.234","+","null","","","","","",""
"","2826","html-keyboard-response","485","825833","0.0-3.0-1.234","oricia","n","null","noncog","pseudo","N","exp","null"
"","null","html-keyboard-response","486","826334","0.0-3.0-0.235","+","null","","","","","",""
"","799","html-keyboard-response","487","827134","0.0-3.0-1.235","fogão","s","n","noncog","word","S","exp","5"
"","null","html-keyboard-response","488","827635","0.0-3.0-0.236","+","null","","","","","",""
"","2810","html-keyboard-response","489","830446","0.0-3.0-1.236","risbos","n","null","noncog","pseudo","N","exp","null"
"","null","html-keyboard-response","490","830947","0.0-3.0-0.237","+","null","","","","","",""
"","1944","html-keyboard-response","491","832892","0.0-3.0-1.237","gertas","n","null","noncog","pseudo","N","exp","null"
"","null","html-keyboard-response","492","833394","0.0-3.0-0.238","+","null","","","","","",""
"","1261","html-keyboard-response","493","834656","0.0-3.0-1.238","medalha","s","n","cog","word","S","exp","7"
"","null","html-keyboard-response","494","835157","0.0-3.0-0.239","+","null","","","","","",""
"","1687","html-keyboard-response","495","836845","0.0-3.0-1.239","pritas","s","null","noncog","pseudo","N","exp","null"
