[
	{
		"view_history": [
			{
				"page_index": 0,
				"viewing_time": 4241
			}
		],
		"rt": 4242,
		"trial_type": "instructions",
		"trial_index": 0,
		"time_elapsed": 4247,
		"internal_node_id": "0.0-0.0"
	},
	{
		"rt": 14763,
		"response": {
			"age": "35"
		},
		"trial_type": "survey-text",
		"trial_index": 1,
		"time_elapsed": 19135,
		"internal_node_id": "0.0-1.0"
	},
	{
		"rt": 5348,
		"response": {
			"sex": "Feminino"
		},
		"question_order": [
			0
		],
		"trial_type": "survey-multi-choice",
		"trial_index": 2,
		"time_elapsed": 24605,
		"internal_node_id": "0.0-2.0"
	},
	{
		"rt": 9982,
		"response": {
			"own_schooling": "Ensino Superior completo"
		},
		"question_order": [
			0
		],
		"trial_type": "survey-multi-choice",
		"trial_index": 3,
		"time_elapsed": 34702,
		"internal_node_id": "0.0-3.0"
	},
	{
		"rt": 44950,
		"response": {
			"mother_schooling": "Educação infantil"
		},
		"question_order": [
			0
		],
		"trial_type": "survey-multi-choice",
		"trial_index": 4,
		"time_elapsed": 79766,
		"internal_node_id": "0.0-4.0"
	},
	{
		"rt": 8698,
		"response": {
			"father_schooling": "Ensino Fundamental"
		},
		"question_order": [
			0
		],
		"trial_type": "survey-multi-choice",
		"trial_index": 5,
		"time_elapsed": 88579,
		"internal_node_id": "0.0-5.0"
	},
	{
		"rt": 239247,
		"response": {
			"language_0": "crioulo h",
			"listening_0": "1",
			"speaking_0": "3",
			"reading_0": "6",
			"writing_0": "6",
			"language_1": "port",
			"listening_1": "29",
			"speaking_1": "30",
			"reading_1": "30",
			"writing_1": "30",
			"language_2": "fran",
			"listening_2": "9",
			"speaking_2": "9",
			"reading_2": "9",
			"writing_2": "9",
			"language_3": "ing",
			"listening_3": "13",
			"speaking_3": "13",
			"reading_3": "13",
			"writing_3": "13"
		},
		"trial_type": "survey-html-form",
		"trial_index": 6,
		"time_elapsed": 327941,
		"internal_node_id": "0.0-6.0"
	},
	{
		"rt": 303398,
		"response": {
			"language_3": "ing",
			"listening_3": "3",
			"speaking_3": "4",
			"reading_3": "2",
			"writing_3": "2",
			"language_1": "port",
			"listening_1": "5",
			"speaking_1": "4",
			"reading_1": "2",
			"writing_1": "3",
			"language_2": "fran",
			"listening_2": "2",
			"speaking_2": "1",
			"reading_2": "1,5",
			"writing_2": "2"
		},
		"trial_type": "survey-html-form",
		"trial_index": 7,
		"time_elapsed": 631449,
		"internal_node_id": "0.0-7.0"
	},
	{
		"rt": 5837,
		"response": {
			"country_of_origin": "Haiti"
		},
		"trial_type": "survey-text",
		"trial_index": 8,
		"time_elapsed": 637408,
		"internal_node_id": "0.0-8.0"
	},
	{
		"rt": 13223,
		"response": {
			"country_of_residence": "Brasil 2013"
		},
		"trial_type": "survey-text",
		"trial_index": 9,
		"time_elapsed": 650756,
		"internal_node_id": "0.0-9.0"
	},
	{
		"rt": 13429,
		"response": {
			"country_0": "",
			"duration_0": "",
			"language_0": "",
			"frequency_0": "",
			"country_1": "",
			"duration_1": "",
			"language_1": "",
			"frequency_1": "",
			"country_2": "",
			"duration_2": "",
			"language_2": "",
			"frequency_2": "",
			"country_3": "",
			"duration_3": "",
			"language_3": "",
			"frequency_3": ""
		},
		"trial_type": "survey-html-form",
		"trial_index": 10,
		"time_elapsed": 664302,
		"internal_node_id": "0.0-10.0"
	},
	{
		"rt": 116317,
		"response": {
			"language_0": "port",
			"context_0": "1, 2, 3",
			"language_1": "fran",
			"context_1": "2",
			"language_2": "ing",
			"context_2": "2",
			"language_3": "esp",
			"context_3": "2"
		},
		"trial_type": "survey-html-form",
		"trial_index": 11,
		"time_elapsed": 780732,
		"internal_node_id": "0.0-11.0"
	},
	{
		"rt": 316727,
		"response": {
			"language_0": "cr",
			"home_0": "1",
			"friends_0": "6",
			"school_0": "6",
			"work_0": "23",
			"computer_0": "-",
			"games_0": "-",
			"language_1": "port",
			"home_1": "29",
			"friends_1": "29",
			"school_1": "31",
			"work_1": "30",
			"computer_1": "29",
			"games_1": "35",
			"language_2": "fran",
			"home_2": "6",
			"friends_2": "6",
			"school_2": "6",
			"work_2": "23",
			"computer_2": "-",
			"games_2": "-",
			"language_3": "ing",
			"home_3": "-",
			"friends_3": "13",
			"school_3": "13",
			"work_3": "-",
			"computer_3": "-",
			"games_3": "-"
		},
		"trial_type": "survey-html-form",
		"trial_index": 12,
		"time_elapsed": 1097574,
		"internal_node_id": "0.0-12.0"
	},
	{
		"rt": 34053,
		"response": {
			"new_languages": 4
		},
		"question_order": [
			0
		],
		"trial_type": "survey-likert",
		"trial_index": 13,
		"time_elapsed": 1131741,
		"internal_node_id": "0.0-13.0"
	},
	{
		"rt": 100508,
		"response": {
			"language_0": "cr",
			"listen_0": "7",
			"talk_0": "7",
			"read_0": "7",
			"write_0": "7",
			"language_1": "port",
			"listen_1": "5",
			"talk_1": "5",
			"read_1": "6",
			"write_1": "5",
			"language_2": "fran",
			"listen_2": "7",
			"talk_2": "6",
			"read_2": "7",
			"write_2": "7",
			"language_3": "ing",
			"listen_3": "5",
			"talk_3": "4",
			"read_3": "4",
			"write_3": "4"
		},
		"trial_type": "survey-html-form",
		"trial_index": 14,
		"time_elapsed": 1232361,
		"internal_node_id": "0.0-14.0"
	},
	{
		"rt": 271463,
		"response": {
			"language_0": "cr",
			"tv_0": "10",
			"radio_0": "-",
			"read_fun_0": "-",
			"read_work_0": "-",
			"write_0": "-",
			"social_nets_0": "-",
			"language_1": "port",
			"tv_1": "1",
			"radio_1": "9",
			"read_fun_1": "-",
			"read_work_1": "1",
			"write_1": "0,5",
			"social_nets_1": "8",
			"language_2": "fran",
			"tv_2": "2",
			"radio_2": "-",
			"read_fun_2": "-",
			"read_work_2": "-",
			"write_2": "-",
			"social_nets_2": "-",
			"language_3": "ing",
			"tv_3": "1",
			"radio_3": "-",
			"read_fun_3": "-",
			"read_work_3": "-",
			"write_3": "-",
			"social_nets_3": "-"
		},
		"trial_type": "survey-html-form",
		"trial_index": 15,
		"time_elapsed": 1503938,
		"internal_node_id": "0.0-15.0"
	},
	{
		"rt": 210425,
		"response": {
			"language_0": "cr",
			"family_0": "9",
			"friends_0": "2",
			"work_0": "-",
			"school_0": "5",
			"language_1": "port",
			"family_1": "10",
			"friends_1": "19",
			"work_1": "9",
			"school_1": "3",
			"language_2": "fran",
			"family_2": "2",
			"friends_2": "1",
			"work_2": "-",
			"school_2": "5",
			"language_3": "ing",
			"family_3": "0,5",
			"friends_3": "-",
			"work_3": "1",
			"school_3": "1"
		},
		"trial_type": "survey-html-form",
		"trial_index": 16,
		"time_elapsed": 1714477,
		"internal_node_id": "0.0-16.0"
	},
	{
		"rt": 132862,
		"response": {
			"language_0_0": "C, P ",
			"language_0_1": "C",
			"language_0_2": "F, P",
			"language_0_3": "F, P, C",
			"language_1_0": "P",
			"language_1_1": "P",
			"language_1_2": "P",
			"language_1_3": "P, F, C",
			"language_2_0": "P",
			"language_2_1": "P",
			"language_2_2": "P",
			"language_2_3": "P",
			"language_3_0": "P",
			"language_3_1": "P",
			"language_3_2": "P",
			"language_3_3": "P"
		},
		"trial_type": "survey-html-form",
		"trial_index": 17,
		"time_elapsed": 1847452,
		"internal_node_id": "0.0-17.0"
	},
	{
		"rt": 206684,
		"response": {
			"language_2": "fran",
			"think_2": "7",
			"selftalk_2": "7",
			"emotions_2": "4",
			"dream_2": "6",
			"math_2": "6",
			"remember_2": "5",
			"pray_2": "7",
			"language_1": "port",
			"think_1": "5",
			"selftalk_1": "6",
			"emotions_1": "4",
			"dream_1": "6",
			"math_1": "7",
			"remember_1": "7",
			"pray_1": "7",
			"language_3": "ing",
			"think_3": "4",
			"selftalk_3": "3",
			"emotions_3": "4",
			"dream_3": "3",
			"math_3": "3",
			"remember_3": "4",
			"pray_3": "3"
		},
		"trial_type": "survey-html-form",
		"trial_index": 18,
		"time_elapsed": 2054252,
		"internal_node_id": "0.0-18.0"
	},
	{
		"rt": 11811,
		"response": {
			"dificuldade_visao_ou_audicao": "Não"
		},
		"question_order": [
			0
		],
		"trial_type": "survey-multi-choice",
		"trial_index": 19,
		"time_elapsed": 2066183,
		"internal_node_id": "0.0-19.0"
	},
	{
		"rt": 1963,
		"response": {
			"detalhes_dificuldades_audicao_ou_visao": ""
		},
		"trial_type": "survey-text",
		"trial_index": 20,
		"time_elapsed": 2068271,
		"internal_node_id": "0.0-20.0"
	},
	{
		"rt": 38068,
		"response": {
			"additional_info": "vontade de aprender alemão"
		},
		"trial_type": "survey-text",
		"trial_index": 21,
		"time_elapsed": 2106450,
		"internal_node_id": "0.0-21.0"
	}
]