"view_history","rt","trial_type","trial_index","time_elapsed","internal_node_id","stimulus","response","class","status","answer","correct","trial","letters"
"[{""page_index"":0,""viewing_time"":51112}]","51112","instructions","0","51117","0.0-0.0","","","","","","","",""
"","null","html-keyboard-response","1","51735","0.0-1.0-0.0","+","null","","","","","",""
"","5383","html-keyboard-response","2","57121","0.0-1.0-1.0","órgão","s","null","noncog","word","S","prac","null"
"","null","html-keyboard-response","3","57629","0.0-1.0-0.1","+","null","","","","","",""
"","3431","html-keyboard-response","4","61061","0.0-1.0-1.1","crante","n","null","noncog","pseudo","N","prac","null"
"","null","html-keyboard-response","5","61563","0.0-1.0-0.2","+","null","","","","","",""
"","7724","html-keyboard-response","6","69289","0.0-1.0-1.2","chassi","n","null","cog","word","S","prac","null"
"","null","html-keyboard-response","7","69793","0.0-1.0-0.3","+","null","","","","","",""
"","3439","html-keyboard-response","8","73235","0.0-1.0-1.3","plibar","n","null","noncog","pseudo","N","prac","null"
"","null","html-keyboard-response","9","73744","0.0-1.0-0.4","+","null","","","","","",""
"","1156","html-keyboard-response","10","74901","0.0-1.0-1.4","daja","n","null","noncog","pseudo","N","prac","null"
"","null","html-keyboard-response","11","75407","0.0-1.0-0.5","+","null","","","","","",""
"","2297","html-keyboard-response","12","77705","0.0-1.0-1.5","calmaria","s","null","noncog","word","S","prac","null"
"","null","html-keyboard-response","13","78211","0.0-1.0-0.6","+","null","","","","","",""
"","1220","html-keyboard-response","14","79434","0.0-1.0-1.6","oliva","s","null","cog","word","S","prac","null"
"[{""page_index"":0,""viewing_time"":40014}]","40014","instructions","15","119450","0.0-2.0","","","","","","","",""
"","null","html-keyboard-response","16","120069","0.0-3.0-0.0","+","null","","","","","",""
"","4476","html-keyboard-response","17","124549","0.0-3.0-1.0","promeção","s","null","noncog","pseudo","N","exp","null"
"","null","html-keyboard-response","18","125059","0.0-3.0-0.1","+","null","","","","","",""
"","1201","html-keyboard-response","19","126263","0.0-3.0-1.1","podilo","n","null","noncog","pseudo","N","exp","null"
"","null","html-keyboard-response","20","126771","0.0-3.0-0.2","+","null","","","","","",""
"","1056","html-keyboard-response","21","127828","0.0-3.0-1.2","pedaço","s","n","noncog","word","S","exp","6"
"","null","html-keyboard-response","22","128330","0.0-3.0-0.3","+","null","","","","","",""
"","1137","html-keyboard-response","23","129470","0.0-3.0-1.3","carregar","s","v","noncog","word","S","exp","8"
"","null","html-keyboard-response","24","129983","0.0-3.0-0.4","+","null","","","","","",""
"","1151","html-keyboard-response","25","131135","0.0-3.0-1.4","lagras","s","null","noncog","pseudo","N","exp","null"
"","null","html-keyboard-response","26","131646","0.0-3.0-0.5","+","null","","","","","",""
"","1198","html-keyboard-response","27","132846","0.0-3.0-1.5","hébies","n","null","noncog","pseudo","N","exp","null"
"","null","html-keyboard-response","28","133358","0.0-3.0-0.6","+","null","","","","","",""
"","783","html-keyboard-response","29","134142","0.0-3.0-1.6","perdão","s","n","noncog","word","S","exp","6"
"","null","html-keyboard-response","30","134657","0.0-3.0-0.7","+","null","","","","","",""
"","1326","html-keyboard-response","31","135986","0.0-3.0-1.7","esfoce","s","null","noncog","pseudo","N","exp","null"
"","null","html-keyboard-response","32","136496","0.0-3.0-0.8","+","null","","","","","",""
"","2191","html-keyboard-response","33","138689","0.0-3.0-1.8","loaco","s","null","noncog","pseudo","N","exp","null"
"","null","html-keyboard-response","34","139192","0.0-3.0-0.9","+","null","","","","","",""
"","1146","html-keyboard-response","35","140338","0.0-3.0-1.9","aletiê","n","null","noncog","pseudo","N","exp","null"
"","null","html-keyboard-response","36","140850","0.0-3.0-0.10","+","null","","","","","",""
"","998","html-keyboard-response","37","141849","0.0-3.0-1.10","burtos","s","null","noncog","pseudo","N","exp","null"
"","null","html-keyboard-response","38","142365","0.0-3.0-0.11","+","null","","","","","",""
"","5091","html-keyboard-response","39","147456","0.0-3.0-1.11","euorpa","n","null","noncog","pseudo","N","exp","null"
"","null","html-keyboard-response","40","147970","0.0-3.0-0.12","+","null","","","","","",""
"","2028","html-keyboard-response","41","149998","0.0-3.0-1.12","garastia","s","null","noncog","pseudo","N","exp","null"
"","null","html-keyboard-response","42","150509","0.0-3.0-0.13","+","null","","","","","",""
"","2967","html-keyboard-response","43","153477","0.0-3.0-1.13","lapestra","s","null","noncog","pseudo","N","exp","null"
"","null","html-keyboard-response","44","153989","0.0-3.0-0.14","+","null","","","","","",""
"","781","html-keyboard-response","45","154772","0.0-3.0-1.14","mal","s","a","cog","word","S","exp","3"
"","null","html-keyboard-response","46","155278","0.0-3.0-0.15","+","null","","","","","",""
"","941","html-keyboard-response","47","156220","0.0-3.0-1.15","morar","s","v","noncog","word","S","exp","5"
"","null","html-keyboard-response","48","156724","0.0-3.0-0.16","+","null","","","","","",""
"","1142","html-keyboard-response","49","157867","0.0-3.0-1.16","fusbão","s","null","noncog","pseudo","N","exp","null"
"","null","html-keyboard-response","50","158371","0.0-3.0-0.17","+","null","","","","","",""
"","2391","html-keyboard-response","51","160764","0.0-3.0-1.17","dacada","n","null","noncog","pseudo","N","exp","null"
"","null","html-keyboard-response","52","161269","0.0-3.0-0.18","+","null","","","","","",""
"","2745","html-keyboard-response","53","164015","0.0-3.0-1.18","taberia","s","null","noncog","pseudo","N","exp","null"
"","null","html-keyboard-response","54","164529","0.0-3.0-0.19","+","null","","","","","",""
"","3418","html-keyboard-response","55","167948","0.0-3.0-1.19","uchães","n","null","noncog","pseudo","N","exp","null"
"","null","html-keyboard-response","56","168450","0.0-3.0-0.20","+","null","","","","","",""
"","782","html-keyboard-response","57","169233","0.0-3.0-1.20","viver","s","v","cog","word","S","exp","5"
"","null","html-keyboard-response","58","169746","0.0-3.0-0.21","+","null","","","","","",""
"","748","html-keyboard-response","59","170494","0.0-3.0-1.21","cinema","s","n","cog","word","S","exp","6"
"","null","html-keyboard-response","60","170999","0.0-3.0-0.22","+","null","","","","","",""
"","955","html-keyboard-response","61","171955","0.0-3.0-1.22","liberal","s","a","cog","word","S","exp","7"
"","null","html-keyboard-response","62","172461","0.0-3.0-0.23","+","null","","","","","",""
"","1882","html-keyboard-response","63","174344","0.0-3.0-1.23","nevela","s","null","noncog","pseudo","N","exp","null"
"","null","html-keyboard-response","64","174858","0.0-3.0-0.24","+","null","","","","","",""
"","1423","html-keyboard-response","65","176282","0.0-3.0-1.24","farcas","s","null","noncog","pseudo","N","exp","null"
"","null","html-keyboard-response","66","176794","0.0-3.0-0.25","+","null","","","","","",""
"","1140","html-keyboard-response","67","177934","0.0-3.0-1.25","abieso","n","null","noncog","pseudo","N","exp","null"
"","null","html-keyboard-response","68","178438","0.0-3.0-0.26","+","null","","","","","",""
"","1312","html-keyboard-response","69","179752","0.0-3.0-1.26","trenos","s","null","noncog","pseudo","N","exp","null"
"","null","html-keyboard-response","70","180261","0.0-3.0-0.27","+","null","","","","","",""
"","1421","html-keyboard-response","71","181683","0.0-3.0-1.27","dencosto","s","null","noncog","pseudo","N","exp","null"
"","null","html-keyboard-response","72","182188","0.0-3.0-0.28","+","null","","","","","",""
"","1168","html-keyboard-response","73","183356","0.0-3.0-1.28","pantufa","n","n","cog","word","S","exp","7"
"","null","html-keyboard-response","74","183861","0.0-3.0-0.29","+","null","","","","","",""
"","1884","html-keyboard-response","75","185746","0.0-3.0-1.29","crutas","s","null","noncog","pseudo","N","exp","null"
"","null","html-keyboard-response","76","186257","0.0-3.0-0.30","+","null","","","","","",""
"","4185","html-keyboard-response","77","190443","0.0-3.0-1.30","oper","n","null","noncog","pseudo","N","exp","null"
"","null","html-keyboard-response","78","190951","0.0-3.0-0.31","+","null","","","","","",""
"","764","html-keyboard-response","79","191715","0.0-3.0-1.31","fogão","s","n","noncog","word","S","exp","5"
"","null","html-keyboard-response","80","192218","0.0-3.0-0.32","+","null","","","","","",""
"","3901","html-keyboard-response","81","196118","0.0-3.0-1.32","protas","n","null","noncog","pseudo","N","exp","null"
"","null","html-keyboard-response","82","196621","0.0-3.0-0.33","+","null","","","","","",""
"","2562","html-keyboard-response","83","199184","0.0-3.0-1.33","boreta","s","null","noncog","pseudo","N","exp","null"
"","null","html-keyboard-response","84","199694","0.0-3.0-0.34","+","null","","","","","",""
"","1182","html-keyboard-response","85","200877","0.0-3.0-1.34","distraído","s","a","cog","word","S","exp","9"
"","null","html-keyboard-response","86","201384","0.0-3.0-0.35","+","null","","","","","",""
"","1147","html-keyboard-response","87","202531","0.0-3.0-1.35","espionar","s","v","cog","word","S","exp","8"
"","null","html-keyboard-response","88","203047","0.0-3.0-0.36","+","null","","","","","",""
"","1949","html-keyboard-response","89","204998","0.0-3.0-1.36","prantal","n","null","noncog","pseudo","N","exp","null"
"","null","html-keyboard-response","90","205500","0.0-3.0-0.37","+","null","","","","","",""
"","2546","html-keyboard-response","91","208046","0.0-3.0-1.37","costra","n","null","noncog","pseudo","N","exp","null"
"","null","html-keyboard-response","92","208548","0.0-3.0-0.38","+","null","","","","","",""
"","1468","html-keyboard-response","93","210016","0.0-3.0-1.38","usfiga","n","null","noncog","pseudo","N","exp","null"
"","null","html-keyboard-response","94","210533","0.0-3.0-0.39","+","null","","","","","",""
"","1122","html-keyboard-response","95","211655","0.0-3.0-1.39","mania","n","n","cog","word","S","exp","5"
"","null","html-keyboard-response","96","212163","0.0-3.0-0.40","+","null","","","","","",""
"","2909","html-keyboard-response","97","215074","0.0-3.0-1.40","mua","n","null","noncog","pseudo","N","exp","null"
"","null","html-keyboard-response","98","215576","0.0-3.0-0.41","+","null","","","","","",""
"","3210","html-keyboard-response","99","218788","0.0-3.0-1.41","telafonir","n","null","noncog","pseudo","N","exp","null"
"","null","html-keyboard-response","100","219296","0.0-3.0-0.42","+","null","","","","","",""
"","3463","html-keyboard-response","101","222760","0.0-3.0-1.42","tatear","n","v","cog","word","S","exp","6"
"","null","html-keyboard-response","102","223265","0.0-3.0-0.43","+","null","","","","","",""
"","1157","html-keyboard-response","103","224423","0.0-3.0-1.43","franda","n","null","noncog","pseudo","N","exp","null"
"","null","html-keyboard-response","104","224926","0.0-3.0-0.44","+","null","","","","","",""
"","1556","html-keyboard-response","105","226484","0.0-3.0-1.44","aperor","n","null","noncog","pseudo","N","exp","null"
"","null","html-keyboard-response","106","226996","0.0-3.0-0.45","+","null","","","","","",""
"","807","html-keyboard-response","107","227805","0.0-3.0-1.45","cerca","s","n","noncog","word","S","exp","5"
"","null","html-keyboard-response","108","228316","0.0-3.0-0.46","+","null","","","","","",""
"","1587","html-keyboard-response","109","229903","0.0-3.0-1.46","delomir","n","null","noncog","pseudo","N","exp","null"
"","null","html-keyboard-response","110","230411","0.0-3.0-0.47","+","null","","","","","",""
"","1808","html-keyboard-response","111","232220","0.0-3.0-1.47","beima","n","null","noncog","pseudo","N","exp","null"
"","null","html-keyboard-response","112","232731","0.0-3.0-0.48","+","null","","","","","",""
"","940","html-keyboard-response","113","233673","0.0-3.0-1.48","agravar","s","v","cog","word","S","exp","7"
"","null","html-keyboard-response","114","234176","0.0-3.0-0.49","+","null","","","","","",""
"","2982","html-keyboard-response","115","237161","0.0-3.0-1.49","bibarconato","n","null","noncog","pseudo","N","exp","null"
"","null","html-keyboard-response","116","237671","0.0-3.0-0.50","+","null","","","","","",""
"","1082","html-keyboard-response","117","238754","0.0-3.0-1.50","frotes","n","null","noncog","pseudo","N","exp","null"
"","null","html-keyboard-response","118","239256","0.0-3.0-0.51","+","null","","","","","",""
"","647","html-keyboard-response","119","239904","0.0-3.0-1.51","livro","s","n","cog","word","S","exp","5"
"","null","html-keyboard-response","120","240409","0.0-3.0-0.52","+","null","","","","","",""
"","1163","html-keyboard-response","121","241572","0.0-3.0-1.52","planalto","n","n","cog","word","S","exp","8"
"","null","html-keyboard-response","122","242082","0.0-3.0-0.53","+","null","","","","","",""
"","1097","html-keyboard-response","123","243179","0.0-3.0-1.53","espinho","s","n","noncog","word","S","exp","7"
"","null","html-keyboard-response","124","243682","0.0-3.0-0.54","+","null","","","","","",""
"","884","html-keyboard-response","125","244566","0.0-3.0-1.54","raspar","s","v","noncog","word","S","exp","6"
"","null","html-keyboard-response","126","245072","0.0-3.0-0.55","+","null","","","","","",""
"","1117","html-keyboard-response","127","246190","0.0-3.0-1.55","motros","n","null","noncog","pseudo","N","exp","null"
"","null","html-keyboard-response","128","246693","0.0-3.0-0.56","+","null","","","","","",""
"","2287","html-keyboard-response","129","248981","0.0-3.0-1.56","gordo","s","a","noncog","word","S","exp","5"
"","null","html-keyboard-response","130","249485","0.0-3.0-0.57","+","null","","","","","",""
"","900","html-keyboard-response","131","250386","0.0-3.0-1.57","pangos","n","null","noncog","pseudo","N","exp","null"
"","null","html-keyboard-response","132","250897","0.0-3.0-0.58","+","null","","","","","",""
"","1040","html-keyboard-response","133","251938","0.0-3.0-1.58","alfabeto","s","n","cog","word","S","exp","8"
"","null","html-keyboard-response","134","252443","0.0-3.0-0.59","+","null","","","","","",""
"","779","html-keyboard-response","135","253223","0.0-3.0-1.59","memória","s","n","cog","word","S","exp","7"
"","null","html-keyboard-response","136","253727","0.0-3.0-0.60","+","null","","","","","",""
"","1286","html-keyboard-response","137","255014","0.0-3.0-1.60","bagunceira","s","a","noncog","word","S","exp","10"
"","null","html-keyboard-response","138","255517","0.0-3.0-0.61","+","null","","","","","",""
"","965","html-keyboard-response","139","256483","0.0-3.0-1.61","jastor","s","null","noncog","pseudo","N","exp","null"
"","null","html-keyboard-response","140","256997","0.0-3.0-0.62","+","null","","","","","",""
"","1225","html-keyboard-response","141","258224","0.0-3.0-1.62","lorfaz","n","null","noncog","pseudo","N","exp","null"
"","null","html-keyboard-response","142","258727","0.0-3.0-0.63","+","null","","","","","",""
"","793","html-keyboard-response","143","259521","0.0-3.0-1.63","selir","n","null","noncog","pseudo","N","exp","null"
"","null","html-keyboard-response","144","260024","0.0-3.0-0.64","+","null","","","","","",""
"","1412","html-keyboard-response","145","261438","0.0-3.0-1.64","plinta","n","null","noncog","pseudo","N","exp","null"
"","null","html-keyboard-response","146","261952","0.0-3.0-0.65","+","null","","","","","",""
"","762","html-keyboard-response","147","262714","0.0-3.0-1.65","papai","s","n","cog","word","S","exp","5"
"","null","html-keyboard-response","148","263219","0.0-3.0-0.66","+","null","","","","","",""
"","829","html-keyboard-response","149","264049","0.0-3.0-1.66","filme","s","n","cog","word","S","exp","5"
"","null","html-keyboard-response","150","264566","0.0-3.0-0.67","+","null","","","","","",""
"","2484","html-keyboard-response","151","267050","0.0-3.0-1.67","cirado","n","null","noncog","pseudo","N","exp","null"
"","null","html-keyboard-response","152","267553","0.0-3.0-0.68","+","null","","","","","",""
"","1695","html-keyboard-response","153","269248","0.0-3.0-1.68","vervas","n","null","noncog","pseudo","N","exp","null"
"","null","html-keyboard-response","154","269754","0.0-3.0-0.69","+","null","","","","","",""
"","821","html-keyboard-response","155","270576","0.0-3.0-1.69","fino","s","a","cog","word","S","exp","4"
"","null","html-keyboard-response","156","271085","0.0-3.0-0.70","+","null","","","","","",""
"","698","html-keyboard-response","157","271783","0.0-3.0-1.70","tela","s","n","noncog","word","S","exp","4"
"","null","html-keyboard-response","158","272289","0.0-3.0-0.71","+","null","","","","","",""
"","612","html-keyboard-response","159","272902","0.0-3.0-1.71","dia","s","n","noncog","word","S","exp","3"
"","null","html-keyboard-response","160","273404","0.0-3.0-0.72","+","null","","","","","",""
"","1410","html-keyboard-response","161","274817","0.0-3.0-1.72","conjerto","s","null","noncog","pseudo","N","exp","null"
"","null","html-keyboard-response","162","275327","0.0-3.0-0.73","+","null","","","","","",""
"","705","html-keyboard-response","163","276033","0.0-3.0-1.73","esperar","s","v","cog","word","S","exp","7"
"","null","html-keyboard-response","164","276549","0.0-3.0-0.74","+","null","","","","","",""
"","665","html-keyboard-response","165","277215","0.0-3.0-1.74","jantar","s","v","noncog","word","S","exp","6"
"","null","html-keyboard-response","166","277725","0.0-3.0-0.75","+","null","","","","","",""
"","768","html-keyboard-response","167","278494","0.0-3.0-1.75","destino","s","n","cog","word","S","exp","7"
"","null","html-keyboard-response","168","279009","0.0-3.0-0.76","+","null","","","","","",""
"","3296","html-keyboard-response","169","282306","0.0-3.0-1.76","dilheira","n","null","noncog","pseudo","N","exp","null"
"","null","html-keyboard-response","170","282821","0.0-3.0-0.77","+","null","","","","","",""
"","671","html-keyboard-response","171","283493","0.0-3.0-1.77","telefone","s","n","cog","word","S","exp","8"
"","null","html-keyboard-response","172","284005","0.0-3.0-0.78","+","null","","","","","",""
"","1323","html-keyboard-response","173","285329","0.0-3.0-1.78","prenas","n","null","noncog","pseudo","N","exp","null"
"","null","html-keyboard-response","174","285836","0.0-3.0-0.79","+","null","","","","","",""
"","2151","html-keyboard-response","175","287988","0.0-3.0-1.79","arranjar","n","v","cog","word","S","exp","8"
"","null","html-keyboard-response","176","288495","0.0-3.0-0.80","+","null","","","","","",""
"","1122","html-keyboard-response","177","289617","0.0-3.0-1.80","rédesa","n","null","noncog","pseudo","N","exp","null"
"","null","html-keyboard-response","178","290128","0.0-3.0-0.81","+","null","","","","","",""
"","1516","html-keyboard-response","179","291644","0.0-3.0-1.81","suipestar","n","null","noncog","pseudo","N","exp","null"
"","null","html-keyboard-response","180","292163","0.0-3.0-0.82","+","null","","","","","",""
"","2088","html-keyboard-response","181","294254","0.0-3.0-1.82","comércio","s","n","noncog","word","S","exp","8"
"","null","html-keyboard-response","182","294770","0.0-3.0-0.83","+","null","","","","","",""
"","1636","html-keyboard-response","183","296407","0.0-3.0-1.83","resmungar","s","v","noncog","word","S","exp","9"
"","null","html-keyboard-response","184","296918","0.0-3.0-0.84","+","null","","","","","",""
"","630","html-keyboard-response","185","297550","0.0-3.0-1.84","anjo","s","n","cog","word","S","exp","4"
"","null","html-keyboard-response","186","298057","0.0-3.0-0.85","+","null","","","","","",""
"","643","html-keyboard-response","187","298701","0.0-3.0-1.85","civil","s","a","cog","word","S","exp","5"
"","null","html-keyboard-response","188","299214","0.0-3.0-0.86","+","null","","","","","",""
"","1354","html-keyboard-response","189","300569","0.0-3.0-1.86","enedro","n","null","noncog","pseudo","N","exp","null"
"","null","html-keyboard-response","190","301071","0.0-3.0-0.87","+","null","","","","","",""
"","1091","html-keyboard-response","191","302163","0.0-3.0-1.87","gruja","n","null","noncog","pseudo","N","exp","null"
"","null","html-keyboard-response","192","302689","0.0-3.0-0.88","+","null","","","","","",""
"","1039","html-keyboard-response","193","303728","0.0-3.0-1.88","lagoa","s","n","cog","word","S","exp","5"
"","null","html-keyboard-response","194","304232","0.0-3.0-0.89","+","null","","","","","",""
"","2430","html-keyboard-response","195","306663","0.0-3.0-1.89","terdia","n","null","noncog","pseudo","N","exp","null"
"","null","html-keyboard-response","196","307165","0.0-3.0-0.90","+","null","","","","","",""
"","3406","html-keyboard-response","197","310572","0.0-3.0-1.90","oecano","n","null","noncog","pseudo","N","exp","null"
"","null","html-keyboard-response","198","311082","0.0-3.0-0.91","+","null","","","","","",""
"","864","html-keyboard-response","199","311947","0.0-3.0-1.91","mudança","s","n","noncog","word","S","exp","7"
"","null","html-keyboard-response","200","312457","0.0-3.0-0.92","+","null","","","","","",""
"","675","html-keyboard-response","201","313133","0.0-3.0-1.92","sábio","s","n","noncog","word","S","exp","5"
"","null","html-keyboard-response","202","313636","0.0-3.0-0.93","+","null","","","","","",""
"","868","html-keyboard-response","203","314505","0.0-3.0-1.93","morno","s","a","noncog","word","S","exp","5"
"","null","html-keyboard-response","204","315022","0.0-3.0-0.94","+","null","","","","","",""
"","2253","html-keyboard-response","205","317278","0.0-3.0-1.94","senareta","n","null","noncog","pseudo","N","exp","null"
"","null","html-keyboard-response","206","317793","0.0-3.0-0.95","+","null","","","","","",""
"","937","html-keyboard-response","207","318731","0.0-3.0-1.95","disbrituir","s","null","noncog","pseudo","N","exp","null"
"","null","html-keyboard-response","208","319242","0.0-3.0-0.96","+","null","","","","","",""
"","1157","html-keyboard-response","209","320399","0.0-3.0-1.96","medalha","s","n","cog","word","S","exp","7"
"","null","html-keyboard-response","210","320907","0.0-3.0-0.97","+","null","","","","","",""
"","2360","html-keyboard-response","211","323268","0.0-3.0-1.97","dobradiça","s","n","noncog","word","S","exp","9"
"","null","html-keyboard-response","212","323778","0.0-3.0-0.98","+","null","","","","","",""
"","880","html-keyboard-response","213","324659","0.0-3.0-1.98","animado","s","a","noncog","word","S","exp","7"
"","null","html-keyboard-response","214","325175","0.0-3.0-0.99","+","null","","","","","",""
"","691","html-keyboard-response","215","325867","0.0-3.0-1.99","tênis","s","n","cog","word","S","exp","5"
"","null","html-keyboard-response","216","326381","0.0-3.0-0.100","+","null","","","","","",""
"","1453","html-keyboard-response","217","327836","0.0-3.0-1.100","afonher","n","null","noncog","pseudo","N","exp","null"
"","null","html-keyboard-response","218","328341","0.0-3.0-0.101","+","null","","","","","",""
"","1542","html-keyboard-response","219","329884","0.0-3.0-1.101","enxarto","n","null","noncog","pseudo","N","exp","null"
"","null","html-keyboard-response","220","330394","0.0-3.0-0.102","+","null","","","","","",""
"","727","html-keyboard-response","221","331121","0.0-3.0-1.102","barco","s","n","cog","word","S","exp","5"
"","null","html-keyboard-response","222","331634","0.0-3.0-0.103","+","null","","","","","",""
"","2909","html-keyboard-response","223","334544","0.0-3.0-1.103","candifência","n","null","noncog","pseudo","N","exp","null"
"","null","html-keyboard-response","224","335057","0.0-3.0-0.104","+","null","","","","","",""
"","1036","html-keyboard-response","225","336094","0.0-3.0-1.104","bandido","s","n","cog","word","S","exp","7"
"","null","html-keyboard-response","226","336608","0.0-3.0-0.105","+","null","","","","","",""
"","1469","html-keyboard-response","227","338078","0.0-3.0-1.105","alpica","n","null","noncog","pseudo","N","exp","null"
"","null","html-keyboard-response","228","338583","0.0-3.0-0.106","+","null","","","","","",""
"","1853","html-keyboard-response","229","340437","0.0-3.0-1.106","fasdas","n","null","noncog","pseudo","N","exp","null"
"","null","html-keyboard-response","230","340938","0.0-3.0-0.107","+","null","","","","","",""
"","1316","html-keyboard-response","231","342256","0.0-3.0-1.107","risbos","n","null","noncog","pseudo","N","exp","null"
"","null","html-keyboard-response","232","342763","0.0-3.0-0.108","+","null","","","","","",""
"","1826","html-keyboard-response","233","344589","0.0-3.0-1.108","esprotiar","n","null","noncog","pseudo","N","exp","null"
"","null","html-keyboard-response","234","345104","0.0-3.0-0.109","+","null","","","","","",""
"","701","html-keyboard-response","235","345806","0.0-3.0-1.109","grave","s","a","cog","word","S","exp","5"
"","null","html-keyboard-response","236","346313","0.0-3.0-0.110","+","null","","","","","",""
"","2035","html-keyboard-response","237","348349","0.0-3.0-1.110","braras","n","null","noncog","pseudo","N","exp","null"
"","null","html-keyboard-response","238","348850","0.0-3.0-0.111","+","null","","","","","",""
"","4588","html-keyboard-response","239","353439","0.0-3.0-1.111","enxerido","s","a","noncog","word","S","exp","8"
"","null","html-keyboard-response","240","353953","0.0-3.0-0.112","+","null","","","","","",""
"","2861","html-keyboard-response","241","356815","0.0-3.0-1.112","salpicado","n","a","noncog","word","S","exp","9"
"","null","html-keyboard-response","242","357323","0.0-3.0-0.113","+","null","","","","","",""
"","1346","html-keyboard-response","243","358671","0.0-3.0-1.113","ronronar","n","v","cog","word","S","exp","8"
"","null","html-keyboard-response","244","359172","0.0-3.0-0.114","+","null","","","","","",""
"","1600","html-keyboard-response","245","360774","0.0-3.0-1.114","irratinte","n","null","noncog","pseudo","N","exp","null"
"","null","html-keyboard-response","246","361281","0.0-3.0-0.115","+","null","","","","","",""
"","1409","html-keyboard-response","247","362691","0.0-3.0-1.115","oricia","n","null","noncog","pseudo","N","exp","null"
"","null","html-keyboard-response","248","363195","0.0-3.0-0.116","+","null","","","","","",""
"","855","html-keyboard-response","249","364051","0.0-3.0-1.116","trabalhar","s","v","noncog","word","S","exp","9"
"","null","html-keyboard-response","250","364564","0.0-3.0-0.117","+","null","","","","","",""
"","707","html-keyboard-response","251","365273","0.0-3.0-1.117","drama","s","n","cog","word","S","exp","5"
"","null","html-keyboard-response","252","365774","0.0-3.0-0.118","+","null","","","","","",""
"","687","html-keyboard-response","253","366462","0.0-3.0-1.118","glória","s","n","cog","word","S","exp","6"
"","null","html-keyboard-response","254","366974","0.0-3.0-0.119","+","null","","","","","",""
"","720","html-keyboard-response","255","367695","0.0-3.0-1.119","especial","s","a","cog","word","S","exp","8"
"","null","html-keyboard-response","256","368208","0.0-3.0-0.120","+","null","","","","","",""
"","1223","html-keyboard-response","257","369433","0.0-3.0-1.120","atitro","s","null","noncog","pseudo","N","exp","null"
"","null","html-keyboard-response","258","369941","0.0-3.0-0.121","+","null","","","","","",""
"","1405","html-keyboard-response","259","371346","0.0-3.0-1.121","cenada","n","null","noncog","pseudo","N","exp","null"
"","null","html-keyboard-response","260","371862","0.0-3.0-0.122","+","null","","","","","",""
"","946","html-keyboard-response","261","372809","0.0-3.0-1.122","pritas","n","null","noncog","pseudo","N","exp","null"
"","null","html-keyboard-response","262","373324","0.0-3.0-0.123","+","null","","","","","",""
"","1726","html-keyboard-response","263","375050","0.0-3.0-1.123","chorão","s","a","noncog","word","S","exp","6"
"","null","html-keyboard-response","264","375563","0.0-3.0-0.124","+","null","","","","","",""
"","815","html-keyboard-response","265","376379","0.0-3.0-1.124","nome","s","n","cog","word","S","exp","4"
"","null","html-keyboard-response","266","376890","0.0-3.0-0.125","+","null","","","","","",""
"","4429","html-keyboard-response","267","381320","0.0-3.0-1.125","aemaça","s","null","noncog","pseudo","N","exp","null"
"","null","html-keyboard-response","268","381833","0.0-3.0-0.126","+","null","","","","","",""
"","2160","html-keyboard-response","269","383994","0.0-3.0-1.126","usnado","n","null","noncog","pseudo","N","exp","null"
"","null","html-keyboard-response","270","384503","0.0-3.0-0.127","+","null","","","","","",""
"","1357","html-keyboard-response","271","385862","0.0-3.0-1.127","casuas","n","null","noncog","pseudo","N","exp","null"
"","null","html-keyboard-response","272","386381","0.0-3.0-0.128","+","null","","","","","",""
"","805","html-keyboard-response","273","387187","0.0-3.0-1.128","bracos","s","null","noncog","pseudo","N","exp","null"
"","null","html-keyboard-response","274","387703","0.0-3.0-0.129","+","null","","","","","",""
"","1249","html-keyboard-response","275","388952","0.0-3.0-1.129","instruído","s","a","noncog","word","S","exp","9"
"","null","html-keyboard-response","276","389461","0.0-3.0-0.130","+","null","","","","","",""
"","658","html-keyboard-response","277","390119","0.0-3.0-1.130","fratos","s","null","noncog","pseudo","N","exp","null"
"","null","html-keyboard-response","278","390632","0.0-3.0-0.131","+","null","","","","","",""
"","1304","html-keyboard-response","279","391935","0.0-3.0-1.131","faínas","n","null","noncog","pseudo","N","exp","null"
"","null","html-keyboard-response","280","392437","0.0-3.0-0.132","+","null","","","","","",""
"","830","html-keyboard-response","281","393269","0.0-3.0-1.132","ilhure","n","null","noncog","pseudo","N","exp","null"
"","null","html-keyboard-response","282","393778","0.0-3.0-0.133","+","null","","","","","",""
"","4425","html-keyboard-response","283","398204","0.0-3.0-1.133","pitada","s","n","noncog","word","S","exp","6"
"","null","html-keyboard-response","284","398710","0.0-3.0-0.134","+","null","","","","","",""
"","1279","html-keyboard-response","285","399990","0.0-3.0-1.134","aitrou","n","null","noncog","pseudo","N","exp","null"
"","null","html-keyboard-response","286","400494","0.0-3.0-0.135","+","null","","","","","",""
"","702","html-keyboard-response","287","401197","0.0-3.0-1.135","açúcar","s","n","noncog","word","S","exp","6"
"","null","html-keyboard-response","288","401701","0.0-3.0-0.136","+","null","","","","","",""
"","651","html-keyboard-response","289","402352","0.0-3.0-1.136","carro","s","n","noncog","word","S","exp","5"
"","null","html-keyboard-response","290","402855","0.0-3.0-0.137","+","null","","","","","",""
"","1037","html-keyboard-response","291","403894","0.0-3.0-1.137","bachir","n","null","noncog","pseudo","N","exp","null"
"","null","html-keyboard-response","292","404400","0.0-3.0-0.138","+","null","","","","","",""
"","920","html-keyboard-response","293","405321","0.0-3.0-1.138","tinta","s","n","cog","word","S","exp","5"
"","null","html-keyboard-response","294","405829","0.0-3.0-0.139","+","null","","","","","",""
"","1054","html-keyboard-response","295","406885","0.0-3.0-1.139","tartos","n","null","noncog","pseudo","N","exp","null"
"","null","html-keyboard-response","296","407394","0.0-3.0-0.140","+","null","","","","","",""
"","1494","html-keyboard-response","297","408890","0.0-3.0-1.140","sintonizar","s","v","noncog","word","S","exp","10"
"","null","html-keyboard-response","298","409395","0.0-3.0-0.141","+","null","","","","","",""
"","719","html-keyboard-response","299","410116","0.0-3.0-1.141","imitar","s","v","cog","word","S","exp","6"
"","null","html-keyboard-response","300","410624","0.0-3.0-0.142","+","null","","","","","",""
"","785","html-keyboard-response","301","411411","0.0-3.0-1.142","cristal","s","n","cog","word","S","exp","7"
"","null","html-keyboard-response","302","411922","0.0-3.0-0.143","+","null","","","","","",""
"","753","html-keyboard-response","303","412676","0.0-3.0-1.143","nervoso","s","a","noncog","word","S","exp","7"
"","null","html-keyboard-response","304","413180","0.0-3.0-0.144","+","null","","","","","",""
"","2396","html-keyboard-response","305","415578","0.0-3.0-1.144","morija","n","null","noncog","pseudo","N","exp","null"
"","null","html-keyboard-response","306","416082","0.0-3.0-0.145","+","null","","","","","",""
"","861","html-keyboard-response","307","416944","0.0-3.0-1.145","socorro","s","n","noncog","word","S","exp","7"
"","null","html-keyboard-response","308","417458","0.0-3.0-0.146","+","null","","","","","",""
"","878","html-keyboard-response","309","418337","0.0-3.0-1.146","gertas","n","null","noncog","pseudo","N","exp","null"
"","null","html-keyboard-response","310","418851","0.0-3.0-0.147","+","null","","","","","",""
"","660","html-keyboard-response","311","419513","0.0-3.0-1.147","verdade","s","n","cog","word","S","exp","7"
"","null","html-keyboard-response","312","420019","0.0-3.0-0.148","+","null","","","","","",""
"","919","html-keyboard-response","313","420938","0.0-3.0-1.148","grótis","n","null","noncog","pseudo","N","exp","null"
"","null","html-keyboard-response","314","421450","0.0-3.0-0.149","+","null","","","","","",""
"","1034","html-keyboard-response","315","422485","0.0-3.0-1.149","pega-pega","s","n","noncog","word","S","exp","8"
"","null","html-keyboard-response","316","422994","0.0-3.0-0.150","+","null","","","","","",""
"","662","html-keyboard-response","317","423657","0.0-3.0-1.150","promessa","s","n","noncog","word","S","exp","8"
"","null","html-keyboard-response","318","424169","0.0-3.0-0.151","+","null","","","","","",""
"","584","html-keyboard-response","319","424755","0.0-3.0-1.151","brincar","s","v","noncog","word","S","exp","7"
"","null","html-keyboard-response","320","425257","0.0-3.0-0.152","+","null","","","","","",""
"","881","html-keyboard-response","321","426137","0.0-3.0-1.152","tronca","s","null","noncog","pseudo","N","exp","null"
"","null","html-keyboard-response","322","426651","0.0-3.0-0.153","+","null","","","","","",""
"","539","html-keyboard-response","323","427192","0.0-3.0-1.153","verde","s","a","noncog","word","S","exp","5"
"","null","html-keyboard-response","324","427695","0.0-3.0-0.154","+","null","","","","","",""
"","954","html-keyboard-response","325","428650","0.0-3.0-1.154","cravo","s","n","noncog","word","S","exp","5"
"","null","html-keyboard-response","326","429155","0.0-3.0-0.155","+","null","","","","","",""
"","1518","html-keyboard-response","327","430674","0.0-3.0-1.155","revear","n","null","noncog","pseudo","N","exp","null"
"","null","html-keyboard-response","328","431181","0.0-3.0-0.156","+","null","","","","","",""
"","1786","html-keyboard-response","329","432969","0.0-3.0-1.156","ocinto","n","null","noncog","pseudo","N","exp","null"
"","null","html-keyboard-response","330","433478","0.0-3.0-0.157","+","null","","","","","",""
"","1206","html-keyboard-response","331","434684","0.0-3.0-1.157","ensuas","n","null","noncog","pseudo","N","exp","null"
"","null","html-keyboard-response","332","435198","0.0-3.0-0.158","+","null","","","","","",""
"","1399","html-keyboard-response","333","436598","0.0-3.0-1.158","crolatário","s","null","noncog","pseudo","N","exp","null"
"","null","html-keyboard-response","334","437114","0.0-3.0-0.159","+","null","","","","","",""
"","800","html-keyboard-response","335","437914","0.0-3.0-1.159","revista","s","n","cog","word","S","exp","7"
"","null","html-keyboard-response","336","438424","0.0-3.0-0.160","+","null","","","","","",""
"","1095","html-keyboard-response","337","439519","0.0-3.0-1.160","ênclio","n","null","noncog","pseudo","N","exp","null"
"","null","html-keyboard-response","338","440028","0.0-3.0-0.161","+","null","","","","","",""
"","665","html-keyboard-response","339","440694","0.0-3.0-1.161","reduzir","s","v","cog","word","S","exp","7"
"","null","html-keyboard-response","340","441205","0.0-3.0-0.162","+","null","","","","","",""
"","1294","html-keyboard-response","341","442500","0.0-3.0-1.162","extravagante","s","a","cog","word","S","exp","12"
"","null","html-keyboard-response","342","443005","0.0-3.0-0.163","+","null","","","","","",""
"","827","html-keyboard-response","343","443834","0.0-3.0-1.163","areia","s","n","noncog","word","S","exp","5"
"","null","html-keyboard-response","344","444339","0.0-3.0-0.164","+","null","","","","","",""
"","1092","html-keyboard-response","345","445433","0.0-3.0-1.164","escumo","n","null","noncog","pseudo","N","exp","null"
"","null","html-keyboard-response","346","445939","0.0-3.0-0.165","+","null","","","","","",""
"","1750","html-keyboard-response","347","447690","0.0-3.0-1.165","vitrive","n","null","noncog","pseudo","N","exp","null"
"","null","html-keyboard-response","348","448194","0.0-3.0-0.166","+","null","","","","","",""
"","817","html-keyboard-response","349","449012","0.0-3.0-1.166","tímido","s","a","cog","word","S","exp","6"
"","null","html-keyboard-response","350","449521","0.0-3.0-0.167","+","null","","","","","",""
"","637","html-keyboard-response","351","450157","0.0-3.0-1.167","ofreta","s","null","noncog","pseudo","N","exp","null"
"","null","html-keyboard-response","352","450670","0.0-3.0-0.168","+","null","","","","","",""
"","664","html-keyboard-response","353","451335","0.0-3.0-1.168","macras","s","null","noncog","pseudo","N","exp","null"
"","null","html-keyboard-response","354","451839","0.0-3.0-0.169","+","null","","","","","",""
"","1463","html-keyboard-response","355","453301","0.0-3.0-1.169","perbas","n","null","noncog","pseudo","N","exp","null"
"","null","html-keyboard-response","356","453813","0.0-3.0-0.170","+","null","","","","","",""
"","1585","html-keyboard-response","357","455399","0.0-3.0-1.170","avenas","n","null","noncog","pseudo","N","exp","null"
"","null","html-keyboard-response","358","455907","0.0-3.0-0.171","+","null","","","","","",""
"","686","html-keyboard-response","359","456595","0.0-3.0-1.171","refletir","s","v","cog","word","S","exp","8"
"","null","html-keyboard-response","360","457107","0.0-3.0-0.172","+","null","","","","","",""
"","1003","html-keyboard-response","361","458110","0.0-3.0-1.172","filosofia","s","n","cog","word","S","exp","9"
"","null","html-keyboard-response","362","458622","0.0-3.0-0.173","+","null","","","","","",""
"","1499","html-keyboard-response","363","460121","0.0-3.0-1.173","encelhor","n","null","noncog","pseudo","N","exp","null"
"","null","html-keyboard-response","364","460631","0.0-3.0-0.174","+","null","","","","","",""
"","1505","html-keyboard-response","365","462136","0.0-3.0-1.174","uçar","s","null","noncog","pseudo","N","exp","null"
"","null","html-keyboard-response","366","462642","0.0-3.0-0.175","+","null","","","","","",""
"","735","html-keyboard-response","367","463380","0.0-3.0-1.175","agressivo","s","a","cog","word","S","exp","9"
"","null","html-keyboard-response","368","463890","0.0-3.0-0.176","+","null","","","","","",""
"","1905","html-keyboard-response","369","465797","0.0-3.0-1.176","pneucania","n","null","noncog","pseudo","N","exp","null"
"","null","html-keyboard-response","370","466302","0.0-3.0-0.177","+","null","","","","","",""
"","4636","html-keyboard-response","371","470941","0.0-3.0-1.177","verceja","n","null","noncog","pseudo","N","exp","null"
"","null","html-keyboard-response","372","471452","0.0-3.0-0.178","+","null","","","","","",""
"","1152","html-keyboard-response","373","472605","0.0-3.0-1.178","independente","s","a","noncog","word","S","exp","12"
"","null","html-keyboard-response","374","473113","0.0-3.0-0.179","+","null","","","","","",""
"","894","html-keyboard-response","375","474009","0.0-3.0-1.179","pulmão","s","n","noncog","word","S","exp","6"
"","null","html-keyboard-response","376","474513","0.0-3.0-0.180","+","null","","","","","",""
"","1851","html-keyboard-response","377","476366","0.0-3.0-1.180","adoçar","s","v","noncog","word","S","exp","6"
"","null","html-keyboard-response","378","476889","0.0-3.0-0.181","+","null","","","","","",""
"","1049","html-keyboard-response","379","477939","0.0-3.0-1.181","carona","s","n","noncog","word","S","exp","6"
"","null","html-keyboard-response","380","478447","0.0-3.0-0.182","+","null","","","","","",""
"","1687","html-keyboard-response","381","480135","0.0-3.0-1.182","orupas","n","null","noncog","pseudo","N","exp","null"
"","null","html-keyboard-response","382","480648","0.0-3.0-0.183","+","null","","","","","",""
"","5088","html-keyboard-response","383","485737","0.0-3.0-1.183","ideisa","n","null","noncog","pseudo","N","exp","null"
"","null","html-keyboard-response","384","486251","0.0-3.0-0.184","+","null","","","","","",""
"","1162","html-keyboard-response","385","487412","0.0-3.0-1.184","detative","s","null","noncog","pseudo","N","exp","null"
"","null","html-keyboard-response","386","487923","0.0-3.0-0.185","+","null","","","","","",""
"","1722","html-keyboard-response","387","489647","0.0-3.0-1.185","berquesa","n","null","noncog","pseudo","N","exp","null"
"","null","html-keyboard-response","388","490156","0.0-3.0-0.186","+","null","","","","","",""
"","960","html-keyboard-response","389","491120","0.0-3.0-1.186","afual","n","null","noncog","pseudo","N","exp","null"
"","null","html-keyboard-response","390","491631","0.0-3.0-0.187","+","null","","","","","",""
"","1864","html-keyboard-response","391","493497","0.0-3.0-1.187","cascata","n","n","noncog","word","S","exp","7"
"","null","html-keyboard-response","392","494006","0.0-3.0-0.188","+","null","","","","","",""
"","794","html-keyboard-response","393","494801","0.0-3.0-1.188","manfa","n","null","noncog","pseudo","N","exp","null"
"","null","html-keyboard-response","394","495308","0.0-3.0-0.189","+","null","","","","","",""
"","677","html-keyboard-response","395","495987","0.0-3.0-1.189","tio","s","n","noncog","word","S","exp","3"
"","null","html-keyboard-response","396","496492","0.0-3.0-0.190","+","null","","","","","",""
"","1779","html-keyboard-response","397","498273","0.0-3.0-1.190","motre","n","null","noncog","pseudo","N","exp","null"
"","null","html-keyboard-response","398","498793","0.0-3.0-0.191","+","null","","","","","",""
"","611","html-keyboard-response","399","499405","0.0-3.0-1.191","grátis","s","a","cog","word","S","exp","6"
"","null","html-keyboard-response","400","499920","0.0-3.0-0.192","+","null","","","","","",""
"","1584","html-keyboard-response","401","501505","0.0-3.0-1.192","aivões","s","null","noncog","pseudo","N","exp","null"
"","null","html-keyboard-response","402","502014","0.0-3.0-0.193","+","null","","","","","",""
"","1447","html-keyboard-response","403","503462","0.0-3.0-1.193","preferir","s","v","cog","word","S","exp","8"
"","null","html-keyboard-response","404","503969","0.0-3.0-0.194","+","null","","","","","",""
"","1175","html-keyboard-response","405","505144","0.0-3.0-1.194","gilha","s","null","noncog","pseudo","N","exp","null"
"","null","html-keyboard-response","406","505654","0.0-3.0-0.195","+","null","","","","","",""
"","657","html-keyboard-response","407","506312","0.0-3.0-1.195","liso","s","n","noncog","word","S","exp","4"
"","null","html-keyboard-response","408","506813","0.0-3.0-0.196","+","null","","","","","",""
"","1262","html-keyboard-response","409","508076","0.0-3.0-1.196","temperar","s","v","noncog","word","S","exp","8"
"","null","html-keyboard-response","410","508587","0.0-3.0-0.197","+","null","","","","","",""
"","637","html-keyboard-response","411","509225","0.0-3.0-1.197","nacional","s","a","cog","word","S","exp","8"
"","null","html-keyboard-response","412","509730","0.0-3.0-0.198","+","null","","","","","",""
"","1137","html-keyboard-response","413","510868","0.0-3.0-1.198","âgnulo","n","null","noncog","pseudo","N","exp","null"
"","null","html-keyboard-response","414","511386","0.0-3.0-0.199","+","null","","","","","",""
"","709","html-keyboard-response","415","512096","0.0-3.0-1.199","azul","s","n","noncog","word","S","exp","4"
"","null","html-keyboard-response","416","512598","0.0-3.0-0.200","+","null","","","","","",""
"","980","html-keyboard-response","417","513581","0.0-3.0-1.200","cápsula","s","n","noncog","word","S","exp","7"
"","null","html-keyboard-response","418","514095","0.0-3.0-0.201","+","null","","","","","",""
"","1907","html-keyboard-response","419","516004","0.0-3.0-1.201","hedoru","n","null","noncog","pseudo","N","exp","null"
"","null","html-keyboard-response","420","516510","0.0-3.0-0.202","+","null","","","","","",""
"","1002","html-keyboard-response","421","517514","0.0-3.0-1.202","prever","n","v","cog","word","S","exp","6"
"","null","html-keyboard-response","422","518025","0.0-3.0-0.203","+","null","","","","","",""
"","1179","html-keyboard-response","423","519206","0.0-3.0-1.203","nivelado","n","a","cog","word","S","exp","8"
"","null","html-keyboard-response","424","519711","0.0-3.0-0.204","+","null","","","","","",""
"","608","html-keyboard-response","425","520319","0.0-3.0-1.204","país","s","n","noncog","word","S","exp","4"
"","null","html-keyboard-response","426","520821","0.0-3.0-0.205","+","null","","","","","",""
"","960","html-keyboard-response","427","521782","0.0-3.0-1.205","rovaz","n","null","noncog","pseudo","N","exp","null"
"","null","html-keyboard-response","428","522289","0.0-3.0-0.206","+","null","","","","","",""
"","1119","html-keyboard-response","429","523409","0.0-3.0-1.206","aparme","n","null","noncog","pseudo","N","exp","null"
"","null","html-keyboard-response","430","523915","0.0-3.0-0.207","+","null","","","","","",""
"","1825","html-keyboard-response","431","525741","0.0-3.0-1.207","atapdar","n","null","noncog","pseudo","N","exp","null"
"","null","html-keyboard-response","432","526254","0.0-3.0-0.208","+","null","","","","","",""
"","2515","html-keyboard-response","433","528770","0.0-3.0-1.208","dipata","n","null","noncog","pseudo","N","exp","null"
"","null","html-keyboard-response","434","529277","0.0-3.0-0.209","+","null","","","","","",""
"","657","html-keyboard-response","435","529936","0.0-3.0-1.209","espaço","s","n","cog","word","S","exp","6"
"","null","html-keyboard-response","436","530451","0.0-3.0-0.210","+","null","","","","","",""
"","1020","html-keyboard-response","437","531473","0.0-3.0-1.210","hipócrita","s","a","noncog","word","S","exp","9"
"","null","html-keyboard-response","438","531981","0.0-3.0-0.211","+","null","","","","","",""
"","1604","html-keyboard-response","439","533586","0.0-3.0-1.211","undivídio","s","null","noncog","pseudo","N","exp","null"
"","null","html-keyboard-response","440","534099","0.0-3.0-0.212","+","null","","","","","",""
"","1290","html-keyboard-response","441","535389","0.0-3.0-1.212","mabras","n","null","noncog","pseudo","N","exp","null"
"","null","html-keyboard-response","442","535896","0.0-3.0-0.213","+","null","","","","","",""
"","790","html-keyboard-response","443","536688","0.0-3.0-1.213","matinal","s","a","cog","word","S","exp","7"
"","null","html-keyboard-response","444","537204","0.0-3.0-0.214","+","null","","","","","",""
"","900","html-keyboard-response","445","538105","0.0-3.0-1.214","apontar","s","v","noncog","word","S","exp","7"
"","null","html-keyboard-response","446","538616","0.0-3.0-0.215","+","null","","","","","",""
"","3003","html-keyboard-response","447","541622","0.0-3.0-1.215","parceter","n","null","noncog","pseudo","N","exp","null"
"","null","html-keyboard-response","448","542136","0.0-3.0-0.216","+","null","","","","","",""
"","1975","html-keyboard-response","449","544112","0.0-3.0-1.216","pimada","n","null","noncog","pseudo","N","exp","null"
"","null","html-keyboard-response","450","544623","0.0-3.0-0.217","+","null","","","","","",""
"","736","html-keyboard-response","451","545360","0.0-3.0-1.217","chato","s","n","noncog","word","S","exp","5"
"","null","html-keyboard-response","452","545876","0.0-3.0-0.218","+","null","","","","","",""
"","1035","html-keyboard-response","453","546914","0.0-3.0-1.218","montanha","s","n","cog","word","S","exp","8"
"","null","html-keyboard-response","454","547426","0.0-3.0-0.219","+","null","","","","","",""
"","1272","html-keyboard-response","455","548700","0.0-3.0-1.219","sanque","n","null","noncog","pseudo","N","exp","null"
"","null","html-keyboard-response","456","549209","0.0-3.0-0.220","+","null","","","","","",""
"","1407","html-keyboard-response","457","550618","0.0-3.0-1.220","incomodar","s","v","noncog","word","S","exp","9"
"","null","html-keyboard-response","458","551118","0.0-3.0-0.221","+","null","","","","","",""
"","1515","html-keyboard-response","459","552633","0.0-3.0-1.221","deselegante","s","a","noncog","word","S","exp","11"
"","null","html-keyboard-response","460","553140","0.0-3.0-0.222","+","null","","","","","",""
"","2898","html-keyboard-response","461","556038","0.0-3.0-1.222","árovre","n","null","noncog","pseudo","N","exp","null"
"","null","html-keyboard-response","462","556541","0.0-3.0-0.223","+","null","","","","","",""
"","1033","html-keyboard-response","463","557576","0.0-3.0-1.223","sustentar","s","v","noncog","word","S","exp","9"
"","null","html-keyboard-response","464","558077","0.0-3.0-0.224","+","null","","","","","",""
"","598","html-keyboard-response","465","558677","0.0-3.0-1.224","multiplicar","s","v","cog","word","S","exp","11"
"","null","html-keyboard-response","466","559186","0.0-3.0-0.225","+","null","","","","","",""
"","992","html-keyboard-response","467","560179","0.0-3.0-1.225","bancada","s","n","noncog","word","S","exp","7"
"","null","html-keyboard-response","468","560694","0.0-3.0-0.226","+","null","","","","","",""
"","948","html-keyboard-response","469","561643","0.0-3.0-1.226","manais","n","null","noncog","pseudo","N","exp","null"
"","null","html-keyboard-response","470","562157","0.0-3.0-0.227","+","null","","","","","",""
"","641","html-keyboard-response","471","562800","0.0-3.0-1.227","fofo","s","a","noncog","word","S","exp","4"
"","null","html-keyboard-response","472","563304","0.0-3.0-0.228","+","null","","","","","",""
"","1195","html-keyboard-response","473","564498","0.0-3.0-1.228","trair","s","v","cog","word","S","exp","5"
"","null","html-keyboard-response","474","565005","0.0-3.0-0.229","+","null","","","","","",""
"","687","html-keyboard-response","475","565692","0.0-3.0-1.229","traduzir","s","v","cog","word","S","exp","8"
"","null","html-keyboard-response","476","566207","0.0-3.0-0.230","+","null","","","","","",""
"","809","html-keyboard-response","477","567017","0.0-3.0-1.230","convidado","s","n","noncog","word","S","exp","9"
"","null","html-keyboard-response","478","567519","0.0-3.0-0.231","+","null","","","","","",""
"","1440","html-keyboard-response","479","568960","0.0-3.0-1.231","propaganda","s","n","cog","word","S","exp","10"
"","null","html-keyboard-response","480","569475","0.0-3.0-0.232","+","null","","","","","",""
"","673","html-keyboard-response","481","570149","0.0-3.0-1.232","ótimo","s","a","noncog","word","S","exp","5"
"","null","html-keyboard-response","482","570666","0.0-3.0-0.233","+","null","","","","","",""
"","2497","html-keyboard-response","483","573164","0.0-3.0-1.233","ejerro","n","null","noncog","pseudo","N","exp","null"
"","null","html-keyboard-response","484","573676","0.0-3.0-0.234","+","null","","","","","",""
"","873","html-keyboard-response","485","574550","0.0-3.0-1.234","melão","s","n","cog","word","S","exp","5"
"","null","html-keyboard-response","486","575065","0.0-3.0-0.235","+","null","","","","","",""
"","775","html-keyboard-response","487","575841","0.0-3.0-1.235","francês","s","a","cog","word","S","exp","7"
"","null","html-keyboard-response","488","576353","0.0-3.0-0.236","+","null","","","","","",""
"","3733","html-keyboard-response","489","580086","0.0-3.0-1.236","delirar","n","v","noncog","word","S","exp","7"
"","null","html-keyboard-response","490","580604","0.0-3.0-0.237","+","null","","","","","",""
"","1017","html-keyboard-response","491","581620","0.0-3.0-1.237","bambu","s","n","cog","word","S","exp","5"
"","null","html-keyboard-response","492","582143","0.0-3.0-0.238","+","null","","","","","",""
"","1184","html-keyboard-response","493","583329","0.0-3.0-1.238","atrasar","s","v","noncog","word","S","exp","7"
"","null","html-keyboard-response","494","583845","0.0-3.0-0.239","+","null","","","","","",""
"","6042","html-keyboard-response","495","589889","0.0-3.0-1.239","quenzina","n","null","noncog","pseudo","N","exp","null"
