"view_history","rt","trial_type","trial_index","time_elapsed","internal_node_id","stimulus","response","trial_part","trial","word","question","answer","accuracy"
"[{""page_index"":0,""viewing_time"":55961},{""page_index"":1,""viewing_time"":11463}]","67424","instructions","0","67430","0.0-0.0","","","","","","","",""
"","null","html-keyboard-response","1","68556","0.0-1.0-0.0-0.0","<span style= ""font-size:30px; font-family: monospace"">+</span>","null","fixation","","","","",""
"","4716","html-keyboard-response","2","73529","0.0-1.0-1.0","<span style=""font-size:30px; font-family: monospace"">O</span>"," ","","prac-sent","O","","",""
"","9410","html-keyboard-response","3","83207","0.0-1.0-1.1","<span style=""font-size:30px; font-family: monospace"">dia</span>"," ","","prac-sent","dia","","",""
"","1573","html-keyboard-response","4","85034","0.0-1.0-1.2","<span style=""font-size:30px; font-family: monospace"">estará</span>"," ","","prac-sent","estará","","",""
"","1342","html-keyboard-response","5","86643","0.0-1.0-1.3","<span style=""font-size:30px; font-family: monospace"">cheio</span>"," ","","prac-sent","cheio","","",""
"","1186","html-keyboard-response","6","88088","0.0-1.0-1.4","<span style=""font-size:30px; font-family: monospace"">de</span>"," ","","prac-sent","de","","",""
"","2553","html-keyboard-response","7","90902","0.0-1.0-1.5","<span style=""font-size:30px; font-family: monospace"">nuvens</span>"," ","","prac-sent","nuvens","","",""
"","2331","html-keyboard-response","8","93496","0.0-1.0-1.6","<span style=""font-size:30px; font-family: monospace"">hoje.</span>"," ","","prac-sent","hoje.","","",""
"","null","html-keyboard-response","9","94763","0.0-1.0-0.7-0.7","<span style= ""font-size:30px; font-family: monospace"">+</span>","null","fixation","","","","",""
"","4424","html-keyboard-response","10","99439","0.0-1.0-1.7","<span style=""font-size:30px; font-family: monospace"">A</span>"," ","","prac-sent","A","","",""
"","2287","html-keyboard-response","11","101979","0.0-1.0-1.8","<span style=""font-size:30px; font-family: monospace"">caneca</span>"," ","","prac-sent","caneca","","",""
"","1588","html-keyboard-response","12","103835","0.0-1.0-1.9","<span style=""font-size:30px; font-family: monospace"">colorida</span>"," ","","prac-sent","colorida","","",""
"","1183","html-keyboard-response","13","105278","0.0-1.0-1.10","<span style=""font-size:30px; font-family: monospace"">caiu</span>"," ","","prac-sent","caiu","","",""
"","955","html-keyboard-response","14","106498","0.0-1.0-1.11","<span style=""font-size:30px; font-family: monospace"">da</span>"," ","","prac-sent","da","","",""
"","1628","html-keyboard-response","15","108390","0.0-1.0-1.12","<span style=""font-size:30px; font-family: monospace"">mesa</span>"," ","","prac-sent","mesa","","",""
"","975","html-keyboard-response","16","109618","0.0-1.0-1.13","<span style=""font-size:30px; font-family: monospace"">de</span>"," ","","prac-sent","de","","",""
"","2340","html-keyboard-response","17","112214","0.0-1.0-1.14","<span style=""font-size:30px; font-family: monospace"">jantar.</span>"," ","","prac-comp","jantar.","","",""
"","16302","html-keyboard-response","18","128779","0.0-1.0-2.14-0.14","<span style=""font-size:30px; font-family: monospace"">A caneca permaneceu na mesa?</span>","s","","prac-comp","","A caneca permaneceu na mesa?","não","false"
"[{""page_index"":0,""viewing_time"":30300}]","30301","instructions","19","159583","0.0-2.0","","","","","","","",""
"","null","html-keyboard-response","20","160690","0.0-3.0-0.0-0.0","<span style= ""font-size:30px; font-family: monospace"">+</span>","null","fixation","","","","",""
"","1573","html-keyboard-response","21","162524","0.0-3.0-1.0","<span style=""font-size:30px; font-family: monospace"">Eu</span>"," ","","exp-sent","Eu","","",""
"","921","html-keyboard-response","22","163710","0.0-3.0-1.1","<span style=""font-size:30px; font-family: monospace"">gosto</span>"," ","","exp-sent","gosto","","",""
"","501","html-keyboard-response","23","164482","0.0-3.0-1.2","<span style=""font-size:30px; font-family: monospace"">de</span>"," ","","exp-sent","de","","",""
"","688","html-keyboard-response","24","165425","0.0-3.0-1.3","<span style=""font-size:30px; font-family: monospace"">molho</span>"," ","","exp-sent","molho","","",""
"","1032","html-keyboard-response","25","166722","0.0-3.0-1.4","<span style=""font-size:30px; font-family: monospace"">picante</span>"," ","","exp-sent","picante","","",""
"","659","html-keyboard-response","26","167639","0.0-3.0-1.5","<span style=""font-size:30px; font-family: monospace"">nas</span>"," ","","exp-sent","nas","","",""
"","1037","html-keyboard-response","27","168935","0.0-3.0-1.6","<span style=""font-size:30px; font-family: monospace"">batatas.</span>"," ","","exp-sent","batatas.","","",""
"","null","html-keyboard-response","28","170202","0.0-3.0-0.7-0.7","<span style= ""font-size:30px; font-family: monospace"">+</span>","null","fixation","","","","",""
"","1500","html-keyboard-response","29","171954","0.0-3.0-1.7","<span style=""font-size:30px; font-family: monospace"">As</span>"," ","","exp-sent","As","","",""
"","910","html-keyboard-response","30","173118","0.0-3.0-1.8","<span style=""font-size:30px; font-family: monospace"">pessoas</span>"," ","","exp-sent","pessoas","","",""
"","954","html-keyboard-response","31","174333","0.0-3.0-1.9","<span style=""font-size:30px; font-family: monospace"">têm</span>"," ","","exp-sent","têm","","",""
"","660","html-keyboard-response","32","175251","0.0-3.0-1.10","<span style=""font-size:30px; font-family: monospace"">sua</span>"," ","","exp-sent","sua","","",""
"","1121","html-keyboard-response","33","176625","0.0-3.0-1.11","<span style=""font-size:30px; font-family: monospace"">liberdade</span>"," ","","exp-sent","liberdade","","",""
"","962","html-keyboard-response","34","177843","0.0-3.0-1.12","<span style=""font-size:30px; font-family: monospace"">até</span>"," ","","exp-sent","até","","",""
"","1163","html-keyboard-response","35","179258","0.0-3.0-1.13","<span style=""font-size:30px; font-family: monospace"">certo</span>"," ","","exp-sent","certo","","",""
"","1294","html-keyboard-response","36","180812","0.0-3.0-1.14","<span style=""font-size:30px; font-family: monospace"">ponto.</span>"," ","","exp-sent","ponto.","","",""
"","null","html-keyboard-response","37","182078","0.0-3.0-0.15-0.15","<span style= ""font-size:30px; font-family: monospace"">+</span>","null","fixation","","","","",""
"","921","html-keyboard-response","38","183254","0.0-3.0-1.15","<span style=""font-size:30px; font-family: monospace"">A</span>"," ","","exp-sent","A","","",""
"","2342","html-keyboard-response","39","185848","0.0-3.0-1.16","<span style=""font-size:30px; font-family: monospace"">empresa</span>"," ","","exp-sent","empresa","","",""
"","893","html-keyboard-response","40","187000","0.0-3.0-1.17","<span style=""font-size:30px; font-family: monospace"">enviou</span>"," ","","exp-sent","enviou","","",""
"","820","html-keyboard-response","41","188077","0.0-3.0-1.18","<span style=""font-size:30px; font-family: monospace"">o</span>"," ","","exp-sent","o","","",""
"","653","html-keyboard-response","42","188995","0.0-3.0-1.19","<span style=""font-size:30px; font-family: monospace"">aviso</span>"," ","","exp-sent","aviso","","",""
"","860","html-keyboard-response","43","190116","0.0-3.0-1.20","<span style=""font-size:30px; font-family: monospace"">hoje</span>"," ","","exp-sent","hoje","","",""
"","527","html-keyboard-response","44","190897","0.0-3.0-1.21","<span style=""font-size:30px; font-family: monospace"">de</span>"," ","","exp-sent","de","","",""
"","1386","html-keyboard-response","45","192548","0.0-3.0-1.22","<span style=""font-size:30px; font-family: monospace"">tarde.</span>"," ","","exp-sent","tarde.","","",""
"","null","html-keyboard-response","46","193817","0.0-3.0-0.23-0.23","<span style= ""font-size:30px; font-family: monospace"">+</span>","null","fixation","","","","",""
"","1339","html-keyboard-response","47","195418","0.0-3.0-1.23","<span style=""font-size:30px; font-family: monospace"">A</span>"," ","","exp-sent","A","","",""
"","1140","html-keyboard-response","48","196809","0.0-3.0-1.24","<span style=""font-size:30px; font-family: monospace"">loja</span>"," ","","exp-sent","loja","","",""
"","989","html-keyboard-response","49","198049","0.0-3.0-1.25","<span style=""font-size:30px; font-family: monospace"">vende</span>"," ","","exp-sent","vende","","",""
"","848","html-keyboard-response","50","199167","0.0-3.0-1.26","<span style=""font-size:30px; font-family: monospace"">tanto</span>"," ","","exp-sent","tanto","","",""
"","2162","html-keyboard-response","51","201595","0.0-3.0-1.27","<span style=""font-size:30px; font-family: monospace"">frituras</span>"," ","","exp-sent","frituras","","",""
"","863","html-keyboard-response","52","202728","0.0-3.0-1.28","<span style=""font-size:30px; font-family: monospace"">quanto</span>"," ","","exp-sent","quanto","","",""
"","909","html-keyboard-response","53","203891","0.0-3.0-1.29","<span style=""font-size:30px; font-family: monospace"">comidas</span>"," ","","exp-sent","comidas","","",""
"","1032","html-keyboard-response","54","205186","0.0-3.0-1.30","<span style=""font-size:30px; font-family: monospace"">leves.</span>"," ","","exp-sent","leves.","","",""
"","null","html-keyboard-response","55","206455","0.0-3.0-0.31-0.31","<span style= ""font-size:30px; font-family: monospace"">+</span>","null","fixation","","","","",""
"","1101","html-keyboard-response","56","207814","0.0-3.0-1.31","<span style=""font-size:30px; font-family: monospace"">As</span>"," ","","exp-sent","As","","",""
"","1028","html-keyboard-response","57","209100","0.0-3.0-1.32","<span style=""font-size:30px; font-family: monospace"">cadeiras</span>"," ","","exp-sent","cadeiras","","",""
"","1590","html-keyboard-response","58","210948","0.0-3.0-1.33","<span style=""font-size:30px; font-family: monospace"">azuis</span>"," ","","exp-sent","azuis","","",""
"","929","html-keyboard-response","59","212140","0.0-3.0-1.34","<span style=""font-size:30px; font-family: monospace"">da</span>"," ","","exp-sent","da","","",""
"","1034","html-keyboard-response","60","213428","0.0-3.0-1.35","<span style=""font-size:30px; font-family: monospace"">sala</span>"," ","","exp-sent","sala","","",""
"","897","html-keyboard-response","61","214596","0.0-3.0-1.36","<span style=""font-size:30px; font-family: monospace"">eram</span>"," ","","exp-sent","eram","","",""
"","1030","html-keyboard-response","62","215879","0.0-3.0-1.37","<span style=""font-size:30px; font-family: monospace"">da</span>"," ","","exp-sent","da","","",""
"","968","html-keyboard-response","63","217108","0.0-3.0-1.38","<span style=""font-size:30px; font-family: monospace"">minha</span>"," ","","exp-sent","minha","","",""
"","1991","html-keyboard-response","64","219364","0.0-3.0-1.39","<span style=""font-size:30px; font-family: monospace"">vó.</span>"," ","","comp","vó.","","",""
"","9096","html-keyboard-response","65","228720","0.0-3.0-2.39-0.39","<span style=""font-size:30px; font-family: monospace"">As cadeiras eram da avó?</span>","s","","comp","","As cadeiras eram da avó?","sim","false"
"","null","html-keyboard-response","66","230227","0.0-3.0-0.40-0.40","<span style= ""font-size:30px; font-family: monospace"">+</span>","null","fixation","","","","",""
"","2500","html-keyboard-response","67","232983","0.0-3.0-1.40","<span style=""font-size:30px; font-family: monospace"">As</span>"," ","","exp-sent","As","","",""
"","1143","html-keyboard-response","68","234379","0.0-3.0-1.41","<span style=""font-size:30px; font-family: monospace"">crianças</span>"," ","","exp-sent","crianças","","",""
"","1245","html-keyboard-response","69","235881","0.0-3.0-1.42","<span style=""font-size:30px; font-family: monospace"">viram</span>"," ","","exp-sent","viram","","",""
"","1003","html-keyboard-response","70","237137","0.0-3.0-1.43","<span style=""font-size:30px; font-family: monospace"">um</span>"," ","","exp-sent","um","","",""
"","2534","html-keyboard-response","71","239927","0.0-3.0-1.44","<span style=""font-size:30px; font-family: monospace"">vaga-lume</span>"," ","","exp-sent","vaga-lume","","",""
"","886","html-keyboard-response","72","241067","0.0-3.0-1.45","<span style=""font-size:30px; font-family: monospace"">nos</span>"," ","","exp-sent","nos","","",""
"","1804","html-keyboard-response","73","243125","0.0-3.0-1.46","<span style=""font-size:30px; font-family: monospace"">arbustos.</span>"," ","","exp-sent","arbustos.","","",""
"","null","html-keyboard-response","74","244393","0.0-3.0-0.47-0.47","<span style= ""font-size:30px; font-family: monospace"">+</span>","null","fixation","","","","",""
"","1275","html-keyboard-response","75","245921","0.0-3.0-1.47","<span style=""font-size:30px; font-family: monospace"">Ontem</span>"," ","","exp-sent","Ontem","","",""
"","811","html-keyboard-response","76","246989","0.0-3.0-1.48","<span style=""font-size:30px; font-family: monospace"">o</span>"," ","","exp-sent","o","","",""
"","1256","html-keyboard-response","77","248499","0.0-3.0-1.49","<span style=""font-size:30px; font-family: monospace"">funcionário</span>"," ","","exp-sent","funcionário","","",""
"","1388","html-keyboard-response","78","250151","0.0-3.0-1.50","<span style=""font-size:30px; font-family: monospace"">pediu</span>"," ","","exp-sent","pediu","","",""
"","1463","html-keyboard-response","79","251871","0.0-3.0-1.51","<span style=""font-size:30px; font-family: monospace"">autorização</span>"," ","","exp-sent","autorização","","",""
"","970","html-keyboard-response","80","253094","0.0-3.0-1.52","<span style=""font-size:30px; font-family: monospace"">para</span>"," ","","exp-sent","para","","",""
"","972","html-keyboard-response","81","254323","0.0-3.0-1.53","<span style=""font-size:30px; font-family: monospace"">a</span>"," ","","exp-sent","a","","",""
"","2053","html-keyboard-response","82","256637","0.0-3.0-1.54","<span style=""font-size:30px; font-family: monospace"">colega.</span>"," ","","exp-sent","colega.","","",""
"","null","html-keyboard-response","83","257904","0.0-3.0-0.55-0.55","<span style= ""font-size:30px; font-family: monospace"">+</span>","null","fixation","","","","",""
"","1705","html-keyboard-response","84","259862","0.0-3.0-1.55","<span style=""font-size:30px; font-family: monospace"">Eu</span>"," ","","exp-sent","Eu","","",""
"","1159","html-keyboard-response","85","261280","0.0-3.0-1.56","<span style=""font-size:30px; font-family: monospace"">sempre</span>"," ","","exp-sent","sempre","","",""
"","844","html-keyboard-response","86","262376","0.0-3.0-1.57","<span style=""font-size:30px; font-family: monospace"">fujo</span>"," ","","exp-sent","fujo","","",""
"","722","html-keyboard-response","87","263359","0.0-3.0-1.58","<span style=""font-size:30px; font-family: monospace"">de</span>"," ","","exp-sent","de","","",""
"","1189","html-keyboard-response","88","264814","0.0-3.0-1.59","<span style=""font-size:30px; font-family: monospace"">conflito</span>"," ","","exp-sent","conflito","","",""
"","897","html-keyboard-response","89","265962","0.0-3.0-1.60","<span style=""font-size:30px; font-family: monospace"">com</span>"," ","","exp-sent","com","","",""
"","779","html-keyboard-response","90","266999","0.0-3.0-1.61","<span style=""font-size:30px; font-family: monospace"">as</span>"," ","","exp-sent","as","","",""
"","2235","html-keyboard-response","91","269488","0.0-3.0-1.62","<span style=""font-size:30px; font-family: monospace"">pessoas.</span>"," ","","exp-sent","pessoas.","","",""
"","null","html-keyboard-response","92","270753","0.0-3.0-0.63-0.63","<span style= ""font-size:30px; font-family: monospace"">+</span>","null","fixation","","","","",""
"","978","html-keyboard-response","93","271994","0.0-3.0-1.63","<span style=""font-size:30px; font-family: monospace"">O</span>"," ","","exp-sent","O","","",""
"","977","html-keyboard-response","94","273225","0.0-3.0-1.64","<span style=""font-size:30px; font-family: monospace"">bolo</span>"," ","","exp-sent","bolo","","",""
"","825","html-keyboard-response","95","274301","0.0-3.0-1.65","<span style=""font-size:30px; font-family: monospace"">era</span>"," ","","exp-sent","era","","",""
"","1010","html-keyboard-response","96","275574","0.0-3.0-1.66","<span style=""font-size:30px; font-family: monospace"">de</span>"," ","","exp-sent","de","","",""
"","1594","html-keyboard-response","97","277423","0.0-3.0-1.67","<span style=""font-size:30px; font-family: monospace"">abacaxi</span>"," ","","exp-sent","abacaxi","","",""
"","836","html-keyboard-response","98","278515","0.0-3.0-1.68","<span style=""font-size:30px; font-family: monospace"">e</span>"," ","","exp-sent","e","","",""
"","1087","html-keyboard-response","99","279855","0.0-3.0-1.69","<span style=""font-size:30px; font-family: monospace"">creme</span>"," ","","exp-sent","creme","","",""
"","882","html-keyboard-response","100","280988","0.0-3.0-1.70","<span style=""font-size:30px; font-family: monospace"">de</span>"," ","","exp-sent","de","","",""
"","1595","html-keyboard-response","101","282839","0.0-3.0-1.71","<span style=""font-size:30px; font-family: monospace"">coco.</span>"," ","","exp-sent","coco.","","",""
"","null","html-keyboard-response","102","284105","0.0-3.0-0.72-0.72","<span style= ""font-size:30px; font-family: monospace"">+</span>","null","fixation","","","","",""
"","912","html-keyboard-response","103","285274","0.0-3.0-1.72","<span style=""font-size:30px; font-family: monospace"">As</span>"," ","","exp-sent","As","","",""
"","812","html-keyboard-response","104","286346","0.0-3.0-1.73","<span style=""font-size:30px; font-family: monospace"">crianças</span>"," ","","exp-sent","crianças","","",""
"","889","html-keyboard-response","105","287490","0.0-3.0-1.74","<span style=""font-size:30px; font-family: monospace"">brincaram</span>"," ","","exp-sent","brincaram","","",""
"","941","html-keyboard-response","106","288693","0.0-3.0-1.75","<span style=""font-size:30px; font-family: monospace"">com</span>"," ","","exp-sent","com","","",""
"","2163","html-keyboard-response","107","291115","0.0-3.0-1.76","<span style=""font-size:30px; font-family: monospace"">bolhas</span>"," ","","exp-sent","bolhas","","",""
"","1049","html-keyboard-response","108","292425","0.0-3.0-1.77","<span style=""font-size:30px; font-family: monospace"">no</span>"," ","","exp-sent","no","","",""
"","1998","html-keyboard-response","109","294677","0.0-3.0-1.78","<span style=""font-size:30px; font-family: monospace"">banho.</span>"," ","","comp","banho.","","",""
"","4562","html-keyboard-response","110","299490","0.0-3.0-2.78-0.78","<span style=""font-size:30px; font-family: monospace"">As crianças brincaram com bolhas?</span>","s","","comp","","As crianças brincaram com bolhas?","sim","false"
"","null","html-keyboard-response","111","301001","0.0-3.0-0.79-0.79","<span style= ""font-size:30px; font-family: monospace"">+</span>","null","fixation","","","","",""
"","2287","html-keyboard-response","112","303546","0.0-3.0-1.79","<span style=""font-size:30px; font-family: monospace"">A</span>"," ","","exp-sent","A","","",""
"","1340","html-keyboard-response","113","305141","0.0-3.0-1.80","<span style=""font-size:30px; font-family: monospace"">motorista</span>"," ","","exp-sent","motorista","","",""
"","1026","html-keyboard-response","114","306426","0.0-3.0-1.81","<span style=""font-size:30px; font-family: monospace"">fez</span>"," ","","exp-sent","fez","","",""
"","788","html-keyboard-response","115","307474","0.0-3.0-1.82","<span style=""font-size:30px; font-family: monospace"">o</span>"," ","","exp-sent","o","","",""
"","1219","html-keyboard-response","116","308947","0.0-3.0-1.83","<span style=""font-size:30px; font-family: monospace"">retorno</span>"," ","","exp-sent","retorno","","",""
"","719","html-keyboard-response","117","309921","0.0-3.0-1.84","<span style=""font-size:30px; font-family: monospace"">com</span>"," ","","exp-sent","com","","",""
"","887","html-keyboard-response","118","311061","0.0-3.0-1.85","<span style=""font-size:30px; font-family: monospace"">cuidado.</span>"," ","","exp-sent","cuidado.","","",""
"","null","html-keyboard-response","119","312329","0.0-3.0-0.86-0.86","<span style= ""font-size:30px; font-family: monospace"">+</span>","null","fixation","","","","",""
"","903","html-keyboard-response","120","313498","0.0-3.0-1.86","<span style=""font-size:30px; font-family: monospace"">Contos</span>"," ","","exp-sent","Contos","","",""
"","677","html-keyboard-response","121","314439","0.0-3.0-1.87","<span style=""font-size:30px; font-family: monospace"">de</span>"," ","","exp-sent","de","","",""
"","844","html-keyboard-response","122","315542","0.0-3.0-1.88","<span style=""font-size:30px; font-family: monospace"">ação</span>"," ","","exp-sent","ação","","",""
"","609","html-keyboard-response","123","316416","0.0-3.0-1.89","<span style=""font-size:30px; font-family: monospace"">têm</span>"," ","","exp-sent","têm","","",""
"","1727","html-keyboard-response","124","318394","0.0-3.0-1.90","<span style=""font-size:30px; font-family: monospace"">chantagem</span>"," ","","exp-sent","chantagem","","",""
"","633","html-keyboard-response","125","319290","0.0-3.0-1.91","<span style=""font-size:30px; font-family: monospace"">e</span>"," ","","exp-sent","e","","",""
"","782","html-keyboard-response","126","320331","0.0-3.0-1.92","<span style=""font-size:30px; font-family: monospace"">muita</span>"," ","","exp-sent","muita","","",""
"","932","html-keyboard-response","127","321517","0.0-3.0-1.93","<span style=""font-size:30px; font-family: monospace"">luta.</span>"," ","","exp-sent","luta.","","",""
"","null","html-keyboard-response","128","322797","0.0-3.0-0.94-0.94","<span style= ""font-size:30px; font-family: monospace"">+</span>","null","fixation","","","","",""
"","1285","html-keyboard-response","129","324337","0.0-3.0-1.94","<span style=""font-size:30px; font-family: monospace"">A</span>"," ","","exp-sent","A","","",""
"","1856","html-keyboard-response","130","326451","0.0-3.0-1.95","<span style=""font-size:30px; font-family: monospace"">bisavó</span>"," ","","exp-sent","bisavó","","",""
"","1398","html-keyboard-response","131","328102","0.0-3.0-1.96","<span style=""font-size:30px; font-family: monospace"">recebeu</span>"," ","","exp-sent","recebeu","","",""
"","979","html-keyboard-response","132","329332","0.0-3.0-1.97","<span style=""font-size:30px; font-family: monospace"">um</span>"," ","","exp-sent","um","","",""
"","1975","html-keyboard-response","133","331577","0.0-3.0-1.98","<span style=""font-size:30px; font-family: monospace"">benefício</span>"," ","","exp-sent","benefício","","",""
"","1296","html-keyboard-response","134","333127","0.0-3.0-1.99","<span style=""font-size:30px; font-family: monospace"">temporário</span>"," ","","exp-sent","temporário","","",""
"","648","html-keyboard-response","135","334039","0.0-3.0-1.100","<span style=""font-size:30px; font-family: monospace"">do</span>"," ","","exp-sent","do","","",""
"","2431","html-keyboard-response","136","336722","0.0-3.0-1.101","<span style=""font-size:30px; font-family: monospace"">governo.</span>"," ","","exp-sent","governo.","","",""
"","null","html-keyboard-response","137","338002","0.0-3.0-0.102-0.102","<span style= ""font-size:30px; font-family: monospace"">+</span>","null","fixation","","","","",""
"","706","html-keyboard-response","138","338961","0.0-3.0-1.102","<span style=""font-size:30px; font-family: monospace"">As</span>"," ","","exp-sent","As","","",""
"","825","html-keyboard-response","139","340051","0.0-3.0-1.103","<span style=""font-size:30px; font-family: monospace"">crianças</span>"," ","","exp-sent","crianças","","",""
"","957","html-keyboard-response","140","341275","0.0-3.0-1.104","<span style=""font-size:30px; font-family: monospace"">brincaram</span>"," ","","exp-sent","brincaram","","",""
"","798","html-keyboard-response","141","342339","0.0-3.0-1.105","<span style=""font-size:30px; font-family: monospace"">no</span>"," ","","exp-sent","no","","",""
"","1531","html-keyboard-response","142","344135","0.0-3.0-1.106","<span style=""font-size:30px; font-family: monospace"">balanço</span>"," ","","exp-sent","balanço","","",""
"","1030","html-keyboard-response","143","345422","0.0-3.0-1.107","<span style=""font-size:30px; font-family: monospace"">a</span>"," ","","exp-sent","a","","",""
"","1244","html-keyboard-response","144","346929","0.0-3.0-1.108","<span style=""font-size:30px; font-family: monospace"">tarde</span>"," ","","exp-sent","tarde","","",""
"","1094","html-keyboard-response","145","348289","0.0-3.0-1.109","<span style=""font-size:30px; font-family: monospace"">toda.</span>"," ","","exp-sent","toda.","","",""
"","null","html-keyboard-response","146","349546","0.0-3.0-0.110-0.110","<span style= ""font-size:30px; font-family: monospace"">+</span>","null","fixation","","","","",""
"","1425","html-keyboard-response","147","351225","0.0-3.0-1.110","<span style=""font-size:30px; font-family: monospace"">Ela</span>"," ","","exp-sent","Ela","","",""
"","1423","html-keyboard-response","148","352912","0.0-3.0-1.111","<span style=""font-size:30px; font-family: monospace"">gosta</span>"," ","","exp-sent","gosta","","",""
"","733","html-keyboard-response","149","353906","0.0-3.0-1.112","<span style=""font-size:30px; font-family: monospace"">de</span>"," ","","exp-sent","de","","",""
"","1011","html-keyboard-response","150","355176","0.0-3.0-1.113","<span style=""font-size:30px; font-family: monospace"">comida</span>"," ","","exp-sent","comida","","",""
"","1967","html-keyboard-response","151","357406","0.0-3.0-1.114","<span style=""font-size:30px; font-family: monospace"">natural</span>"," ","","exp-sent","natural","","",""
"","984","html-keyboard-response","152","358644","0.0-3.0-1.115","<span style=""font-size:30px; font-family: monospace"">no</span>"," ","","exp-sent","no","","",""
"","1421","html-keyboard-response","153","360318","0.0-3.0-1.116","<span style=""font-size:30px; font-family: monospace"">almoço.</span>"," ","","comp","almoço.","","",""
"","3627","html-keyboard-response","154","364208","0.0-3.0-2.116-0.116","<span style=""font-size:30px; font-family: monospace"">Ela gosta de comida natural no almoço?</span>","s","","comp","","Ela gosta de comida natural no almoço?","sim","false"
"","null","html-keyboard-response","155","365730","0.0-3.0-0.117-0.117","<span style= ""font-size:30px; font-family: monospace"">+</span>","null","fixation","","","","",""
"","2483","html-keyboard-response","156","368474","0.0-3.0-1.117","<span style=""font-size:30px; font-family: monospace"">Ursos</span>"," ","","exp-sent","Ursos","","",""
"","1192","html-keyboard-response","157","369931","0.0-3.0-1.118","<span style=""font-size:30px; font-family: monospace"">têm</span>"," ","","exp-sent","têm","","",""
"","901","html-keyboard-response","158","371087","0.0-3.0-1.119","<span style=""font-size:30px; font-family: monospace"">uma</span>"," ","","exp-sent","uma","","",""
"","1353","html-keyboard-response","159","372698","0.0-3.0-1.120","<span style=""font-size:30px; font-family: monospace"">patada</span>"," ","","exp-sent","patada","","",""
"","1019","html-keyboard-response","160","373974","0.0-3.0-1.121","<span style=""font-size:30px; font-family: monospace"">brutal</span>"," ","","exp-sent","brutal","","",""
"","695","html-keyboard-response","161","374934","0.0-3.0-1.122","<span style=""font-size:30px; font-family: monospace"">e</span>"," ","","exp-sent","e","","",""
"","1811","html-keyboard-response","162","377001","0.0-3.0-1.123","<span style=""font-size:30px; font-family: monospace"">poderosa.</span>"," ","","exp-sent","poderosa.","","",""
"","null","html-keyboard-response","163","378269","0.0-3.0-0.124-0.124","<span style= ""font-size:30px; font-family: monospace"">+</span>","null","fixation","","","","",""
"","830","html-keyboard-response","164","379364","0.0-3.0-1.124","<span style=""font-size:30px; font-family: monospace"">Eu</span>"," ","","exp-sent","Eu","","",""
"","1145","html-keyboard-response","165","380763","0.0-3.0-1.125","<span style=""font-size:30px; font-family: monospace"">fiz</span>"," ","","exp-sent","fiz","","",""
"","1084","html-keyboard-response","166","382109","0.0-3.0-1.126","<span style=""font-size:30px; font-family: monospace"">aulas</span>"," ","","exp-sent","aulas","","",""
"","905","html-keyboard-response","167","383272","0.0-3.0-1.127","<span style=""font-size:30px; font-family: monospace"">de</span>"," ","","exp-sent","de","","",""
"","1106","html-keyboard-response","168","384636","0.0-3.0-1.128","<span style=""font-size:30px; font-family: monospace"">espanhol</span>"," ","","exp-sent","espanhol","","",""
"","820","html-keyboard-response","169","385720","0.0-3.0-1.129","<span style=""font-size:30px; font-family: monospace"">nesta</span>"," ","","exp-sent","nesta","","",""
"","791","html-keyboard-response","170","386776","0.0-3.0-1.130","<span style=""font-size:30px; font-family: monospace"">cidade.</span>"," ","","exp-sent","cidade.","","",""
"","null","html-keyboard-response","171","388043","0.0-3.0-0.131-0.131","<span style= ""font-size:30px; font-family: monospace"">+</span>","null","fixation","","","","",""
"","1191","html-keyboard-response","172","389488","0.0-3.0-1.131","<span style=""font-size:30px; font-family: monospace"">Ele</span>"," ","","exp-sent","Ele","","",""
"","883","html-keyboard-response","173","390626","0.0-3.0-1.132","<span style=""font-size:30px; font-family: monospace"">comprou</span>"," ","","exp-sent","comprou","","",""
"","968","html-keyboard-response","174","391848","0.0-3.0-1.133","<span style=""font-size:30px; font-family: monospace"">mais</span>"," ","","exp-sent","mais","","",""
"","849","html-keyboard-response","175","392963","0.0-3.0-1.134","<span style=""font-size:30px; font-family: monospace"">uma</span>"," ","","exp-sent","uma","","",""
"","935","html-keyboard-response","176","394156","0.0-3.0-1.135","<span style=""font-size:30px; font-family: monospace"">esponja</span>"," ","","exp-sent","esponja","","",""
"","860","html-keyboard-response","177","395273","0.0-3.0-1.136","<span style=""font-size:30px; font-family: monospace"">para</span>"," ","","exp-sent","para","","",""
"","1211","html-keyboard-response","178","396741","0.0-3.0-1.137","<span style=""font-size:30px; font-family: monospace"">a</span>"," ","","exp-sent","a","","",""
"","2325","html-keyboard-response","179","399325","0.0-3.0-1.138","<span style=""font-size:30px; font-family: monospace"">cozinha.</span>"," ","","exp-sent","cozinha.","","",""
"","null","html-keyboard-response","180","400581","0.0-3.0-0.139-0.139","<span style= ""font-size:30px; font-family: monospace"">+</span>","null","fixation","","","","",""
"","764","html-keyboard-response","181","401607","0.0-3.0-1.139","<span style=""font-size:30px; font-family: monospace"">Ele</span>"," ","","exp-sent","Ele","","",""
"","715","html-keyboard-response","182","402575","0.0-3.0-1.140","<span style=""font-size:30px; font-family: monospace"">teve</span>"," ","","exp-sent","teve","","",""
"","595","html-keyboard-response","183","403436","0.0-3.0-1.141","<span style=""font-size:30px; font-family: monospace"">um</span>"," ","","exp-sent","um","","",""
"","623","html-keyboard-response","184","404330","0.0-3.0-1.142","<span style=""font-size:30px; font-family: monospace"">sono</span>"," ","","exp-sent","sono","","",""
"","1298","html-keyboard-response","185","405892","0.0-3.0-1.143","<span style=""font-size:30px; font-family: monospace"">bizarro</span>"," ","","exp-sent","bizarro","","",""
"","746","html-keyboard-response","186","406908","0.0-3.0-1.144","<span style=""font-size:30px; font-family: monospace"">sem</span>"," ","","exp-sent","sem","","",""
"","823","html-keyboard-response","187","407985","0.0-3.0-1.145","<span style=""font-size:30px; font-family: monospace"">nenhum</span>"," ","","exp-sent","nenhum","","",""
"","1138","html-keyboard-response","188","409392","0.0-3.0-1.146","<span style=""font-size:30px; font-family: monospace"">motivo.</span>"," ","","exp-sent","motivo.","","",""
"","null","html-keyboard-response","189","410652","0.0-3.0-0.147-0.147","<span style= ""font-size:30px; font-family: monospace"">+</span>","null","fixation","","","","",""
"","1124","html-keyboard-response","190","412029","0.0-3.0-1.147","<span style=""font-size:30px; font-family: monospace"">A</span>"," ","","exp-sent","A","","",""
"","1095","html-keyboard-response","191","413383","0.0-3.0-1.148","<span style=""font-size:30px; font-family: monospace"">moça</span>"," ","","exp-sent","moça","","",""
"","977","html-keyboard-response","192","414615","0.0-3.0-1.149","<span style=""font-size:30px; font-family: monospace"">comprou</span>"," ","","exp-sent","comprou","","",""
"","844","html-keyboard-response","193","415713","0.0-3.0-1.150","<span style=""font-size:30px; font-family: monospace"">um</span>"," ","","exp-sent","um","","",""
"","1258","html-keyboard-response","194","417226","0.0-3.0-1.151","<span style=""font-size:30px; font-family: monospace"">diamante</span>"," ","","exp-sent","diamante","","",""
"","840","html-keyboard-response","195","418327","0.0-3.0-1.152","<span style=""font-size:30px; font-family: monospace"">para</span>"," ","","exp-sent","para","","",""
"","821","html-keyboard-response","196","419404","0.0-3.0-1.153","<span style=""font-size:30px; font-family: monospace"">sua</span>"," ","","exp-sent","sua","","",""
"","816","html-keyboard-response","197","420492","0.0-3.0-1.154","<span style=""font-size:30px; font-family: monospace"">prima.</span>"," ","","comp","prima.","","",""
"","3366","html-keyboard-response","198","424119","0.0-3.0-2.154-0.154","<span style=""font-size:30px; font-family: monospace"">A moça comprou um diamante?</span>","s","","comp","","A moça comprou um diamante?","sim","false"
"","null","html-keyboard-response","199","425642","0.0-3.0-0.155-0.155","<span style= ""font-size:30px; font-family: monospace"">+</span>","null","fixation","","","","",""
"","1871","html-keyboard-response","200","427770","0.0-3.0-1.155","<span style=""font-size:30px; font-family: monospace"">Minha</span>"," ","","exp-sent","Minha","","",""
"","1115","html-keyboard-response","201","429137","0.0-3.0-1.156","<span style=""font-size:30px; font-family: monospace"">prima</span>"," ","","exp-sent","prima","","",""
"","855","html-keyboard-response","202","430254","0.0-3.0-1.157","<span style=""font-size:30px; font-family: monospace"">trocou</span>"," ","","exp-sent","trocou","","",""
"","696","html-keyboard-response","203","431209","0.0-3.0-1.158","<span style=""font-size:30px; font-family: monospace"">a</span>"," ","","exp-sent","a","","",""
"","641","html-keyboard-response","204","432111","0.0-3.0-1.159","<span style=""font-size:30px; font-family: monospace"">tela</span>"," ","","exp-sent","tela","","",""
"","575","html-keyboard-response","205","432938","0.0-3.0-1.160","<span style=""font-size:30px; font-family: monospace"">do</span>"," ","","exp-sent","do","","",""
"","755","html-keyboard-response","206","433954","0.0-3.0-1.161","<span style=""font-size:30px; font-family: monospace"">celular</span>"," ","","exp-sent","celular","","",""
"","511","html-keyboard-response","207","434725","0.0-3.0-1.162","<span style=""font-size:30px; font-family: monospace"">duas</span>"," ","","exp-sent","duas","","",""
"","697","html-keyboard-response","208","435676","0.0-3.0-1.163","<span style=""font-size:30px; font-family: monospace"">vezes.</span>"," ","","exp-sent","vezes.","","",""
"","null","html-keyboard-response","209","436938","0.0-3.0-0.164-0.164","<span style= ""font-size:30px; font-family: monospace"">+</span>","null","fixation","","","","",""
"","685","html-keyboard-response","210","437877","0.0-3.0-1.164","<span style=""font-size:30px; font-family: monospace"">Agora</span>"," ","","exp-sent","Agora","","",""
"","807","html-keyboard-response","211","438951","0.0-3.0-1.165","<span style=""font-size:30px; font-family: monospace"">a</span>"," ","","exp-sent","a","","",""
"","575","html-keyboard-response","212","439790","0.0-3.0-1.166","<span style=""font-size:30px; font-family: monospace"">minha</span>"," ","","exp-sent","minha","","",""
"","600","html-keyboard-response","213","440654","0.0-3.0-1.167","<span style=""font-size:30px; font-family: monospace"">única</span>"," ","","exp-sent","única","","",""
"","854","html-keyboard-response","214","441764","0.0-3.0-1.168","<span style=""font-size:30px; font-family: monospace"">preocupação</span>"," ","","exp-sent","preocupação","","",""
"","594","html-keyboard-response","215","442619","0.0-3.0-1.169","<span style=""font-size:30px; font-family: monospace"">é</span>"," ","","exp-sent","é","","",""
"","616","html-keyboard-response","216","443485","0.0-3.0-1.170","<span style=""font-size:30px; font-family: monospace"">um</span>"," ","","exp-sent","um","","",""
"","1278","html-keyboard-response","217","445032","0.0-3.0-1.171","<span style=""font-size:30px; font-family: monospace"">descanso</span>"," ","","exp-sent","descanso","","",""
"","717","html-keyboard-response","218","446007","0.0-3.0-1.172","<span style=""font-size:30px; font-family: monospace"">tranquilo.</span>"," ","","exp-sent","tranquilo.","","",""
"","null","html-keyboard-response","219","447267","0.0-3.0-0.173-0.173","<span style= ""font-size:30px; font-family: monospace"">+</span>","null","fixation","","","","",""
"","820","html-keyboard-response","220","448344","0.0-3.0-1.173","<span style=""font-size:30px; font-family: monospace"">A</span>"," ","","exp-sent","A","","",""
"","841","html-keyboard-response","221","449445","0.0-3.0-1.174","<span style=""font-size:30px; font-family: monospace"">criança</span>"," ","","exp-sent","criança","","",""
"","678","html-keyboard-response","222","450381","0.0-3.0-1.175","<span style=""font-size:30px; font-family: monospace"">ganhou</span>"," ","","exp-sent","ganhou","","",""
"","444","html-keyboard-response","223","451082","0.0-3.0-1.176","<span style=""font-size:30px; font-family: monospace"">um</span>"," ","","exp-sent","um","","",""
"","764","html-keyboard-response","224","452107","0.0-3.0-1.177","<span style=""font-size:30px; font-family: monospace"">presente</span>"," ","","exp-sent","presente","","",""
"","1046","html-keyboard-response","225","453415","0.0-3.0-1.178","<span style=""font-size:30px; font-family: monospace"">maravilhoso.</span>"," ","","exp-sent","maravilhoso.","","",""
"","null","html-keyboard-response","226","454693","0.0-3.0-0.179-0.179","<span style= ""font-size:30px; font-family: monospace"">+</span>","null","fixation","","","","",""
"","973","html-keyboard-response","227","455925","0.0-3.0-1.179","<span style=""font-size:30px; font-family: monospace"">Os</span>"," ","","exp-sent","Os","","",""
"","1442","html-keyboard-response","228","457625","0.0-3.0-1.180","<span style=""font-size:30px; font-family: monospace"">bichos</span>"," ","","exp-sent","bichos","","",""
"","811","html-keyboard-response","229","458693","0.0-3.0-1.181","<span style=""font-size:30px; font-family: monospace"">têm</span>"," ","","exp-sent","têm","","",""
"","667","html-keyboard-response","230","459617","0.0-3.0-1.182","<span style=""font-size:30px; font-family: monospace"">um</span>"," ","","exp-sent","um","","",""
"","1636","html-keyboard-response","231","461518","0.0-3.0-1.183","<span style=""font-size:30px; font-family: monospace"">instinto</span>"," ","","exp-sent","instinto","","",""
"","672","html-keyboard-response","232","462454","0.0-3.0-1.184","<span style=""font-size:30px; font-family: monospace"">de</span>"," ","","exp-sent","de","","",""
"","2171","html-keyboard-response","233","464889","0.0-3.0-1.185","<span style=""font-size:30px; font-family: monospace"">sobrevivência</span>"," ","","exp-sent","sobrevivência","","",""
"","1090","html-keyboard-response","234","466237","0.0-3.0-1.186","<span style=""font-size:30px; font-family: monospace"">forte.</span>"," ","","exp-sent","forte.","","",""
"","null","html-keyboard-response","235","467489","0.0-3.0-0.187-0.187","<span style= ""font-size:30px; font-family: monospace"">+</span>","null","fixation","","","","",""
"","566","html-keyboard-response","236","468310","0.0-3.0-1.187","<span style=""font-size:30px; font-family: monospace"">Aquele</span>"," ","","exp-sent","Aquele","","",""
"","1117","html-keyboard-response","237","469698","0.0-3.0-1.188","<span style=""font-size:30px; font-family: monospace"">menino</span>"," ","","exp-sent","menino","","",""
"","880","html-keyboard-response","238","470835","0.0-3.0-1.189","<span style=""font-size:30px; font-family: monospace"">alto</span>"," ","","exp-sent","alto","","",""
"","775","html-keyboard-response","239","471868","0.0-3.0-1.190","<span style=""font-size:30px; font-family: monospace"">é</span>"," ","","exp-sent","é","","",""
"","1750","html-keyboard-response","240","473874","0.0-3.0-1.191","<span style=""font-size:30px; font-family: monospace"">exibido</span>"," ","","exp-sent","exibido","","",""
"","750","html-keyboard-response","241","474880","0.0-3.0-1.192","<span style=""font-size:30px; font-family: monospace"">e</span>"," ","","exp-sent","e","","",""
"","3935","html-keyboard-response","242","479080","0.0-3.0-1.193","<span style=""font-size:30px; font-family: monospace"">sovina.</span>"," ","","comp","sovina.","","",""
"","5149","html-keyboard-response","243","484489","0.0-3.0-2.193-0.193","<span style=""font-size:30px; font-family: monospace"">Aquele menino é humilde?</span>","n","","comp","","Aquele menino é humilde?","não","false"
"","null","html-keyboard-response","244","486007","0.0-3.0-0.194-0.194","<span style= ""font-size:30px; font-family: monospace"">+</span>","null","fixation","","","","",""
"","1691","html-keyboard-response","245","487963","0.0-3.0-1.194","<span style=""font-size:30px; font-family: monospace"">A</span>"," ","","exp-sent","A","","",""
"","1663","html-keyboard-response","246","489883","0.0-3.0-1.195","<span style=""font-size:30px; font-family: monospace"">senhora</span>"," ","","exp-sent","senhora","","",""
"","1747","html-keyboard-response","247","491884","0.0-3.0-1.196","<span style=""font-size:30px; font-family: monospace"">cumprimentou</span>"," ","","exp-sent","cumprimentou","","",""
"","968","html-keyboard-response","248","493125","0.0-3.0-1.197","<span style=""font-size:30px; font-family: monospace"">o</span>"," ","","exp-sent","o","","",""
"","841","html-keyboard-response","249","494227","0.0-3.0-1.198","<span style=""font-size:30px; font-family: monospace"">operador</span>"," ","","exp-sent","operador","","",""
"","568","html-keyboard-response","250","495061","0.0-3.0-1.199","<span style=""font-size:30px; font-family: monospace"">de</span>"," ","","exp-sent","de","","",""
"","661","html-keyboard-response","251","495980","0.0-3.0-1.200","<span style=""font-size:30px; font-family: monospace"">caixa.</span>"," ","","exp-sent","caixa.","","",""
"","null","html-keyboard-response","252","497245","0.0-3.0-0.201-0.201","<span style= ""font-size:30px; font-family: monospace"">+</span>","null","fixation","","","","",""
"","382","html-keyboard-response","253","497881","0.0-3.0-1.201","<span style=""font-size:30px; font-family: monospace"">A</span>"," ","","exp-sent","A","","",""
"","1145","html-keyboard-response","254","499278","0.0-3.0-1.202","<span style=""font-size:30px; font-family: monospace"">gente</span>"," ","","exp-sent","gente","","",""
"","1025","html-keyboard-response","255","500559","0.0-3.0-1.203","<span style=""font-size:30px; font-family: monospace"">viu</span>"," ","","exp-sent","viu","","",""
"","1462","html-keyboard-response","256","502278","0.0-3.0-1.204","<span style=""font-size:30px; font-family: monospace"">o</span>"," ","","exp-sent","o","","",""
"","1108","html-keyboard-response","257","503641","0.0-3.0-1.205","<span style=""font-size:30px; font-family: monospace"">eclipse</span>"," ","","exp-sent","eclipse","","",""
"","841","html-keyboard-response","258","504743","0.0-3.0-1.206","<span style=""font-size:30px; font-family: monospace"">lunar</span>"," ","","exp-sent","lunar","","",""
"","984","html-keyboard-response","259","505979","0.0-3.0-1.207","<span style=""font-size:30px; font-family: monospace"">durante</span>"," ","","exp-sent","durante","","",""
"","673","html-keyboard-response","260","506903","0.0-3.0-1.208","<span style=""font-size:30px; font-family: monospace"">o</span>"," ","","exp-sent","o","","",""
"","577","html-keyboard-response","261","507738","0.0-3.0-1.209","<span style=""font-size:30px; font-family: monospace"">dia.</span>"," ","","exp-sent","dia.","","",""
"","null","html-keyboard-response","262","509000","0.0-3.0-0.210-0.210","<span style= ""font-size:30px; font-family: monospace"">+</span>","null","fixation","","","","",""
"","845","html-keyboard-response","263","510112","0.0-3.0-1.210","<span style=""font-size:30px; font-family: monospace"">A</span>"," ","","exp-sent","A","","",""
"","1196","html-keyboard-response","264","511567","0.0-3.0-1.211","<span style=""font-size:30px; font-family: monospace"">mordida</span>"," ","","exp-sent","mordida","","",""
"","543","html-keyboard-response","265","512372","0.0-3.0-1.212","<span style=""font-size:30px; font-family: monospace"">do</span>"," ","","exp-sent","do","","",""
"","1000","html-keyboard-response","266","513626","0.0-3.0-1.213","<span style=""font-size:30px; font-family: monospace"">cachorro</span>"," ","","exp-sent","cachorro","","",""
"","1105","html-keyboard-response","267","514999","0.0-3.0-1.214","<span style=""font-size:30px; font-family: monospace"">voraz</span>"," ","","exp-sent","voraz","","",""
"","821","html-keyboard-response","268","516072","0.0-3.0-1.215","<span style=""font-size:30px; font-family: monospace"">causou</span>"," ","","exp-sent","causou","","",""
"","579","html-keyboard-response","269","516906","0.0-3.0-1.216","<span style=""font-size:30px; font-family: monospace"">uma</span>"," ","","exp-sent","uma","","",""
"","1036","html-keyboard-response","270","518194","0.0-3.0-1.217","<span style=""font-size:30px; font-family: monospace"">cicatriz.</span>"," ","","exp-sent","cicatriz.","","",""
"","null","html-keyboard-response","271","519459","0.0-3.0-0.218-0.218","<span style= ""font-size:30px; font-family: monospace"">+</span>","null","fixation","","","","",""
"","593","html-keyboard-response","272","520315","0.0-3.0-1.218","<span style=""font-size:30px; font-family: monospace"">Elas</span>"," ","","exp-sent","Elas","","",""
"","656","html-keyboard-response","273","521227","0.0-3.0-1.219","<span style=""font-size:30px; font-family: monospace"">não</span>"," ","","exp-sent","não","","",""
"","633","html-keyboard-response","274","522122","0.0-3.0-1.220","<span style=""font-size:30px; font-family: monospace"">viram</span>"," ","","exp-sent","viram","","",""
"","850","html-keyboard-response","275","523234","0.0-3.0-1.221","<span style=""font-size:30px; font-family: monospace"">nenhuma</span>"," ","","exp-sent","nenhuma","","",""
"","783","html-keyboard-response","276","524271","0.0-3.0-1.222","<span style=""font-size:30px; font-family: monospace"">diferença</span>"," ","","exp-sent","diferença","","",""
"","675","html-keyboard-response","277","525211","0.0-3.0-1.223","<span style=""font-size:30px; font-family: monospace"">entre</span>"," ","","exp-sent","entre","","",""
"","613","html-keyboard-response","278","526084","0.0-3.0-1.224","<span style=""font-size:30px; font-family: monospace"">os</span>"," ","","exp-sent","os","","",""
"","963","html-keyboard-response","279","527300","0.0-3.0-1.225","<span style=""font-size:30px; font-family: monospace"">textos.</span>"," ","","exp-sent","textos.","","",""
"","null","html-keyboard-response","280","528563","0.0-3.0-0.226-0.226","<span style= ""font-size:30px; font-family: monospace"">+</span>","null","fixation","","","","",""
"","893","html-keyboard-response","281","529711","0.0-3.0-1.226","<span style=""font-size:30px; font-family: monospace"">Amanhã</span>"," ","","exp-sent","Amanhã","","",""
"","846","html-keyboard-response","282","530820","0.0-3.0-1.227","<span style=""font-size:30px; font-family: monospace"">vai</span>"," ","","exp-sent","vai","","",""
"","867","html-keyboard-response","283","531954","0.0-3.0-1.228","<span style=""font-size:30px; font-family: monospace"">ter</span>"," ","","exp-sent","ter","","",""
"","649","html-keyboard-response","284","532865","0.0-3.0-1.229","<span style=""font-size:30px; font-family: monospace"">um</span>"," ","","exp-sent","um","","",""
"","759","html-keyboard-response","285","533879","0.0-3.0-1.230","<span style=""font-size:30px; font-family: monospace"">bazar</span>"," ","","exp-sent","bazar","","",""
"","450","html-keyboard-response","286","534584","0.0-3.0-1.231","<span style=""font-size:30px; font-family: monospace"">no</span>"," ","","exp-sent","no","","",""
"","770","html-keyboard-response","287","535608","0.0-3.0-1.232","<span style=""font-size:30px; font-family: monospace"">bairro.</span>"," ","","comp","bairro.","","",""
"","6345","html-keyboard-response","288","542204","0.0-3.0-2.232-0.232","<span style=""font-size:30px; font-family: monospace"">Amanhã vai acontecer um bazar no bairro?</span>","s","","comp","","Amanhã vai acontecer um bazar no bairro?","sim","false"
"","null","html-keyboard-response","289","543720","0.0-3.0-0.233-0.233","<span style= ""font-size:30px; font-family: monospace"">+</span>","null","fixation","","","","",""
"","1863","html-keyboard-response","290","545842","0.0-3.0-1.233","<span style=""font-size:30px; font-family: monospace"">Este</span>"," ","","exp-sent","Este","","",""
"","737","html-keyboard-response","291","546833","0.0-3.0-1.234","<span style=""font-size:30px; font-family: monospace"">conto</span>"," ","","exp-sent","conto","","",""
"","529","html-keyboard-response","292","547622","0.0-3.0-1.235","<span style=""font-size:30px; font-family: monospace"">tem</span>"," ","","exp-sent","tem","","",""
"","404","html-keyboard-response","293","548285","0.0-3.0-1.236","<span style=""font-size:30px; font-family: monospace"">um</span>"," ","","exp-sent","um","","",""
"","496","html-keyboard-response","294","549046","0.0-3.0-1.237","<span style=""font-size:30px; font-family: monospace"">final</span>"," ","","exp-sent","final","","",""
"","613","html-keyboard-response","295","549914","0.0-3.0-1.238","<span style=""font-size:30px; font-family: monospace"">perfeito.</span>"," ","","exp-sent","perfeito.","","",""
"","null","html-keyboard-response","296","551191","0.0-3.0-0.239-0.239","<span style= ""font-size:30px; font-family: monospace"">+</span>","null","fixation","","","","",""
"","595","html-keyboard-response","297","552038","0.0-3.0-1.239","<span style=""font-size:30px; font-family: monospace"">Ele</span>"," ","","exp-sent","Ele","","",""
"","681","html-keyboard-response","298","552970","0.0-3.0-1.240","<span style=""font-size:30px; font-family: monospace"">precisa</span>"," ","","exp-sent","precisa","","",""
"","633","html-keyboard-response","299","553859","0.0-3.0-1.241","<span style=""font-size:30px; font-family: monospace"">de</span>"," ","","exp-sent","de","","",""
"","717","html-keyboard-response","300","554841","0.0-3.0-1.242","<span style=""font-size:30px; font-family: monospace"">um</span>"," ","","exp-sent","um","","",""
"","1175","html-keyboard-response","301","556282","0.0-3.0-1.243","<span style=""font-size:30px; font-family: monospace"">protetor</span>"," ","","exp-sent","protetor","","",""
"","614","html-keyboard-response","302","557152","0.0-3.0-1.244","<span style=""font-size:30px; font-family: monospace"">de</span>"," ","","exp-sent","de","","",""
"","1122","html-keyboard-response","303","558527","0.0-3.0-1.245","<span style=""font-size:30px; font-family: monospace"">ouvido.</span>"," ","","exp-sent","ouvido.","","",""
"","null","html-keyboard-response","304","559792","0.0-3.0-0.246-0.246","<span style= ""font-size:30px; font-family: monospace"">+</span>","null","fixation","","","","",""
"","505","html-keyboard-response","305","560558","0.0-3.0-1.246","<span style=""font-size:30px; font-family: monospace"">Os</span>"," ","","exp-sent","Os","","",""
"","811","html-keyboard-response","306","561632","0.0-3.0-1.247","<span style=""font-size:30px; font-family: monospace"">hábitos</span>"," ","","exp-sent","hábitos","","",""
"","427","html-keyboard-response","307","562313","0.0-3.0-1.248","<span style=""font-size:30px; font-family: monospace"">de</span>"," ","","exp-sent","de","","",""
"","1041","html-keyboard-response","308","563611","0.0-3.0-1.249","<span style=""font-size:30px; font-family: monospace"">lugares</span>"," ","","exp-sent","lugares","","",""
"","1275","html-keyboard-response","309","565147","0.0-3.0-1.250","<span style=""font-size:30px; font-family: monospace"">diferentes</span>"," ","","exp-sent","diferentes","","",""
"","519","html-keyboard-response","310","565921","0.0-3.0-1.251","<span style=""font-size:30px; font-family: monospace"">são</span>"," ","","exp-sent","são","","",""
"","1414","html-keyboard-response","311","567598","0.0-3.0-1.252","<span style=""font-size:30px; font-family: monospace"">muito</span>"," ","","exp-sent","muito","","",""
"","655","html-keyboard-response","312","568506","0.0-3.0-1.253","<span style=""font-size:30px; font-family: monospace"">lindos.</span>"," ","","exp-sent","lindos.","","",""
"","null","html-keyboard-response","313","569777","0.0-3.0-0.254-0.254","<span style= ""font-size:30px; font-family: monospace"">+</span>","null","fixation","","","","",""
"","1276","html-keyboard-response","314","571315","0.0-3.0-1.254","<span style=""font-size:30px; font-family: monospace"">O</span>"," ","","exp-sent","O","","",""
"","1036","html-keyboard-response","315","572617","0.0-3.0-1.255","<span style=""font-size:30px; font-family: monospace"">médico</span>"," ","","exp-sent","médico","","",""
"","1512","html-keyboard-response","316","574394","0.0-3.0-1.256","<span style=""font-size:30px; font-family: monospace"">corrigiu</span>"," ","","exp-sent","corrigiu","","",""
"","901","html-keyboard-response","317","575552","0.0-3.0-1.257","<span style=""font-size:30px; font-family: monospace"">a</span>"," ","","exp-sent","a","","",""
"","1248","html-keyboard-response","318","577062","0.0-3.0-1.258","<span style=""font-size:30px; font-family: monospace"">postura</span>"," ","","exp-sent","postura","","",""
"","677","html-keyboard-response","319","577991","0.0-3.0-1.259","<span style=""font-size:30px; font-family: monospace"">das</span>"," ","","exp-sent","das","","",""
"","1061","html-keyboard-response","320","579317","0.0-3.0-1.260","<span style=""font-size:30px; font-family: monospace"">costas</span>"," ","","exp-sent","costas","","",""
"","715","html-keyboard-response","321","580286","0.0-3.0-1.261","<span style=""font-size:30px; font-family: monospace"">da</span>"," ","","exp-sent","da","","",""
"","1099","html-keyboard-response","322","581645","0.0-3.0-1.262","<span style=""font-size:30px; font-family: monospace"">pessoa.</span>"," ","","exp-sent","pessoa.","","",""
"","null","html-keyboard-response","323","582915","0.0-3.0-0.263-0.263","<span style= ""font-size:30px; font-family: monospace"">+</span>","null","fixation","","","","",""
"","782","html-keyboard-response","324","583959","0.0-3.0-1.263","<span style=""font-size:30px; font-family: monospace"">Aquele</span>"," ","","exp-sent","Aquele","","",""
"","671","html-keyboard-response","325","584887","0.0-3.0-1.264","<span style=""font-size:30px; font-family: monospace"">era</span>"," ","","exp-sent","era","","",""
"","609","html-keyboard-response","326","585751","0.0-3.0-1.265","<span style=""font-size:30px; font-family: monospace"">um</span>"," ","","exp-sent","um","","",""
"","627","html-keyboard-response","327","586642","0.0-3.0-1.266","<span style=""font-size:30px; font-family: monospace"">caso</span>"," ","","exp-sent","caso","","",""
"","900","html-keyboard-response","328","587808","0.0-3.0-1.267","<span style=""font-size:30px; font-family: monospace"">real</span>"," ","","exp-sent","real","","",""
"","616","html-keyboard-response","329","588676","0.0-3.0-1.268","<span style=""font-size:30px; font-family: monospace"">de</span>"," ","","exp-sent","de","","",""
"","2023","html-keyboard-response","330","590949","0.0-3.0-1.269","<span style=""font-size:30px; font-family: monospace"">sequestro</span>"," ","","exp-sent","sequestro","","",""
"","2072","html-keyboard-response","331","593284","0.0-3.0-1.270","<span style=""font-size:30px; font-family: monospace"">premeditado.</span>"," ","","comp","premeditado.","","",""
"","22084","html-keyboard-response","332","615622","0.0-3.0-2.270-0.270","<span style=""font-size:30px; font-family: monospace"">Aquele era um caso real de roubo?</span>","s","","comp","","Aquele era um caso real de roubo?","não","false"
"","null","html-keyboard-response","333","617133","0.0-3.0-0.271-0.271","<span style= ""font-size:30px; font-family: monospace"">+</span>","null","fixation","","","","",""
"","4712","html-keyboard-response","334","622107","0.0-3.0-1.271","<span style=""font-size:30px; font-family: monospace"">Ganhamos</span>"," ","","exp-sent","Ganhamos","","",""
"","11972","html-keyboard-response","335","634334","0.0-3.0-1.272","<span style=""font-size:30px; font-family: monospace"">passagem</span>"," ","","exp-sent","passagem","","",""
"","784","html-keyboard-response","336","635385","0.0-3.0-1.273","<span style=""font-size:30px; font-family: monospace"">para</span>"," ","","exp-sent","para","","",""
"","783","html-keyboard-response","337","636437","0.0-3.0-1.274","<span style=""font-size:30px; font-family: monospace"">uma</span>"," ","","exp-sent","uma","","",""
"","877","html-keyboard-response","338","637565","0.0-3.0-1.275","<span style=""font-size:30px; font-family: monospace"">viagem</span>"," ","","exp-sent","viagem","","",""
"","584","html-keyboard-response","339","638404","0.0-3.0-1.276","<span style=""font-size:30px; font-family: monospace"">de</span>"," ","","exp-sent","de","","",""
"","923","html-keyboard-response","340","639591","0.0-3.0-1.277","<span style=""font-size:30px; font-family: monospace"">férias.</span>"," ","","exp-sent","férias.","","",""
"","null","html-keyboard-response","341","640848","0.0-3.0-0.278-0.278","<span style= ""font-size:30px; font-family: monospace"">+</span>","null","fixation","","","","",""
"","665","html-keyboard-response","342","641765","0.0-3.0-1.278","<span style=""font-size:30px; font-family: monospace"">Caiu</span>"," ","","exp-sent","Caiu","","",""
"","1006","html-keyboard-response","343","643026","0.0-3.0-1.279","<span style=""font-size:30px; font-family: monospace"">algo</span>"," ","","exp-sent","algo","","",""
"","517","html-keyboard-response","344","643801","0.0-3.0-1.280","<span style=""font-size:30px; font-family: monospace"">no</span>"," ","","exp-sent","no","","",""
"","746","html-keyboard-response","345","644806","0.0-3.0-1.281","<span style=""font-size:30px; font-family: monospace"">meu</span>"," ","","exp-sent","meu","","",""
"","651","html-keyboard-response","346","645713","0.0-3.0-1.282","<span style=""font-size:30px; font-family: monospace"">olho</span>"," ","","exp-sent","olho","","",""
"","551","html-keyboard-response","347","646519","0.0-3.0-1.283","<span style=""font-size:30px; font-family: monospace"">ontem</span>"," ","","exp-sent","ontem","","",""
"","539","html-keyboard-response","348","647320","0.0-3.0-1.284","<span style=""font-size:30px; font-family: monospace"">de</span>"," ","","exp-sent","de","","",""
"","824","html-keyboard-response","349","648409","0.0-3.0-1.285","<span style=""font-size:30px; font-family: monospace"">tarde.</span>"," ","","exp-sent","tarde.","","",""
"","null","html-keyboard-response","350","649677","0.0-3.0-0.286-0.286","<span style= ""font-size:30px; font-family: monospace"">+</span>","null","fixation","","","","",""
"","974","html-keyboard-response","351","650905","0.0-3.0-1.286","<span style=""font-size:30px; font-family: monospace"">Não</span>"," ","","exp-sent","Não","","",""
"","789","html-keyboard-response","352","651955","0.0-3.0-1.287","<span style=""font-size:30px; font-family: monospace"">havia</span>"," ","","exp-sent","havia","","",""
"","764","html-keyboard-response","353","652977","0.0-3.0-1.288","<span style=""font-size:30px; font-family: monospace"">mais</span>"," ","","exp-sent","mais","","",""
"","952","html-keyboard-response","354","654182","0.0-3.0-1.289","<span style=""font-size:30px; font-family: monospace"">nenhum</span>"," ","","exp-sent","nenhum","","",""
"","983","html-keyboard-response","355","655429","0.0-3.0-1.290","<span style=""font-size:30px; font-family: monospace"">ingresso</span>"," ","","exp-sent","ingresso","","",""
"","553","html-keyboard-response","356","656246","0.0-3.0-1.291","<span style=""font-size:30px; font-family: monospace"">para</span>"," ","","exp-sent","para","","",""
"","594","html-keyboard-response","357","657106","0.0-3.0-1.292","<span style=""font-size:30px; font-family: monospace"">o</span>"," ","","exp-sent","o","","",""
"","902","html-keyboard-response","358","658263","0.0-3.0-1.293","<span style=""font-size:30px; font-family: monospace"">evento.</span>"," ","","exp-sent","evento.","","",""
"","null","html-keyboard-response","359","659538","0.0-3.0-0.294-0.294","<span style= ""font-size:30px; font-family: monospace"">+</span>","null","fixation","","","","",""
"","2195","html-keyboard-response","360","661989","0.0-3.0-1.294","<span style=""font-size:30px; font-family: monospace"">A</span>"," ","","exp-sent","A","","",""
"","926","html-keyboard-response","361","663175","0.0-3.0-1.295","<span style=""font-size:30px; font-family: monospace"">médica</span>"," ","","exp-sent","médica","","",""
"","1031","html-keyboard-response","362","664458","0.0-3.0-1.296","<span style=""font-size:30px; font-family: monospace"">descobriu</span>"," ","","exp-sent","descobriu","","",""
"","547","html-keyboard-response","363","665257","0.0-3.0-1.297","<span style=""font-size:30px; font-family: monospace"">uma</span>"," ","","exp-sent","uma","","",""
"","673","html-keyboard-response","364","666183","0.0-3.0-1.298","<span style=""font-size:30px; font-family: monospace"">cura</span>"," ","","exp-sent","cura","","",""
"","470","html-keyboard-response","365","666926","0.0-3.0-1.299","<span style=""font-size:30px; font-family: monospace"">para</span>"," ","","exp-sent","para","","",""
"","477","html-keyboard-response","366","667671","0.0-3.0-1.300","<span style=""font-size:30px; font-family: monospace"">a</span>"," ","","exp-sent","a","","",""
"","805","html-keyboard-response","367","668741","0.0-3.0-1.301","<span style=""font-size:30px; font-family: monospace"">doença.</span>"," ","","exp-sent","doença.","","",""
"","null","html-keyboard-response","368","670003","0.0-3.0-0.302-0.302","<span style= ""font-size:30px; font-family: monospace"">+</span>","null","fixation","","","","",""
"","1470","html-keyboard-response","369","671725","0.0-3.0-1.302","<span style=""font-size:30px; font-family: monospace"">O</span>"," ","","exp-sent","O","","",""
"","1016","html-keyboard-response","370","673004","0.0-3.0-1.303","<span style=""font-size:30px; font-family: monospace"">menino</span>"," ","","exp-sent","menino","","",""
"","2134","html-keyboard-response","371","675406","0.0-3.0-1.304","<span style=""font-size:30px; font-family: monospace"">riscou</span>"," ","","exp-sent","riscou","","",""
"","602","html-keyboard-response","372","676274","0.0-3.0-1.305","<span style=""font-size:30px; font-family: monospace"">o</span>"," ","","exp-sent","o","","",""
"","1006","html-keyboard-response","373","677533","0.0-3.0-1.306","<span style=""font-size:30px; font-family: monospace"">caderno</span>"," ","","exp-sent","caderno","","",""
"","558","html-keyboard-response","374","678350","0.0-3.0-1.307","<span style=""font-size:30px; font-family: monospace"">com</span>"," ","","exp-sent","com","","",""
"","546","html-keyboard-response","375","679158","0.0-3.0-1.308","<span style=""font-size:30px; font-family: monospace"">a</span>"," ","","exp-sent","a","","",""
"","938","html-keyboard-response","376","680351","0.0-3.0-1.309","<span style=""font-size:30px; font-family: monospace"">caneta.</span>"," ","","comp","caneta.","","",""
"","14047","html-keyboard-response","377","694657","0.0-3.0-2.309-0.309","<span style=""font-size:30px; font-family: monospace"">O menino riscou a parede com a caneta?</span>","n","","comp","","O menino riscou a parede com a caneta?","não","false"
"","null","html-keyboard-response","378","696185","0.0-3.0-0.310-0.310","<span style= ""font-size:30px; font-family: monospace"">+</span>","null","fixation","","","","",""
"","2094","html-keyboard-response","379","698539","0.0-3.0-1.310","<span style=""font-size:30px; font-family: monospace"">Barulho</span>"," ","","exp-sent","Barulho","","",""
"","790","html-keyboard-response","380","699582","0.0-3.0-1.311","<span style=""font-size:30px; font-family: monospace"">de</span>"," ","","exp-sent","de","","",""
"","819","html-keyboard-response","381","700663","0.0-3.0-1.312","<span style=""font-size:30px; font-family: monospace"">carros</span>"," ","","exp-sent","carros","","",""
"","617","html-keyboard-response","382","701540","0.0-3.0-1.313","<span style=""font-size:30px; font-family: monospace"">é</span>"," ","","exp-sent","é","","",""
"","1400","html-keyboard-response","383","703194","0.0-3.0-1.314","<span style=""font-size:30px; font-family: monospace"">irritante</span>"," ","","exp-sent","irritante","","",""
"","630","html-keyboard-response","384","704086","0.0-3.0-1.315","<span style=""font-size:30px; font-family: monospace"">para</span>"," ","","exp-sent","para","","",""
"","678","html-keyboard-response","385","705023","0.0-3.0-1.316","<span style=""font-size:30px; font-family: monospace"">a</span>"," ","","exp-sent","a","","",""
"","896","html-keyboard-response","386","706185","0.0-3.0-1.317","<span style=""font-size:30px; font-family: monospace"">moça.</span>"," ","","exp-sent","moça.","","",""
"","null","html-keyboard-response","387","707459","0.0-3.0-0.318-0.318","<span style= ""font-size:30px; font-family: monospace"">+</span>","null","fixation","","","","",""
"","1071","html-keyboard-response","388","708792","0.0-3.0-1.318","<span style=""font-size:30px; font-family: monospace"">A</span>"," ","","exp-sent","A","","",""
"","803","html-keyboard-response","389","709849","0.0-3.0-1.319","<span style=""font-size:30px; font-family: monospace"">loja</span>"," ","","exp-sent","loja","","",""
"","995","html-keyboard-response","390","711105","0.0-3.0-1.320","<span style=""font-size:30px; font-family: monospace"">também</span>"," ","","exp-sent","também","","",""
"","728","html-keyboard-response","391","712098","0.0-3.0-1.321","<span style=""font-size:30px; font-family: monospace"">vende</span>"," ","","exp-sent","vende","","",""
"","984","html-keyboard-response","392","713344","0.0-3.0-1.322","<span style=""font-size:30px; font-family: monospace"">taça</span>"," ","","exp-sent","taça","","",""
"","475","html-keyboard-response","393","714080","0.0-3.0-1.323","<span style=""font-size:30px; font-family: monospace"">de</span>"," ","","exp-sent","de","","",""
"","901","html-keyboard-response","394","715247","0.0-3.0-1.324","<span style=""font-size:30px; font-family: monospace"">vinho</span>"," ","","exp-sent","vinho","","",""
"","1077","html-keyboard-response","395","716577","0.0-3.0-1.325","<span style=""font-size:30px; font-family: monospace"">e</span>"," ","","exp-sent","e","","",""
"","1903","html-keyboard-response","396","718741","0.0-3.0-1.326","<span style=""font-size:30px; font-family: monospace"">espumante.</span>"," ","","exp-sent","espumante.","","",""
"","null","html-keyboard-response","397","719997","0.0-3.0-0.327-0.327","<span style= ""font-size:30px; font-family: monospace"">+</span>","null","fixation","","","","",""
"","1124","html-keyboard-response","398","721375","0.0-3.0-1.327","<span style=""font-size:30px; font-family: monospace"">A</span>"," ","","exp-sent","A","","",""
"","758","html-keyboard-response","399","722391","0.0-3.0-1.328","<span style=""font-size:30px; font-family: monospace"">bruxa</span>"," ","","exp-sent","bruxa","","",""
"","684","html-keyboard-response","400","723332","0.0-3.0-1.329","<span style=""font-size:30px; font-family: monospace"">tinha</span>"," ","","exp-sent","tinha","","",""
"","600","html-keyboard-response","401","724198","0.0-3.0-1.330","<span style=""font-size:30px; font-family: monospace"">uma</span>"," ","","exp-sent","uma","","",""
"","1127","html-keyboard-response","402","725575","0.0-3.0-1.331","<span style=""font-size:30px; font-family: monospace"">vassoura</span>"," ","","exp-sent","vassoura","","",""
"","508","html-keyboard-response","403","726341","0.0-3.0-1.332","<span style=""font-size:30px; font-family: monospace"">e</span>"," ","","exp-sent","e","","",""
"","509","html-keyboard-response","404","727105","0.0-3.0-1.333","<span style=""font-size:30px; font-family: monospace"">um</span>"," ","","exp-sent","um","","",""
"","670","html-keyboard-response","405","728032","0.0-3.0-1.334","<span style=""font-size:30px; font-family: monospace"">gato.</span>"," ","","exp-sent","gato.","","",""
"","null","html-keyboard-response","406","729310","0.0-3.0-0.335-0.335","<span style= ""font-size:30px; font-family: monospace"">+</span>","null","fixation","","","","",""
"","781","html-keyboard-response","407","730358","0.0-3.0-1.335","<span style=""font-size:30px; font-family: monospace"">Eu</span>"," ","","exp-sent","Eu","","",""
"","560","html-keyboard-response","408","731169","0.0-3.0-1.336","<span style=""font-size:30px; font-family: monospace"">me</span>"," ","","exp-sent","me","","",""
"","1606","html-keyboard-response","409","733035","0.0-3.0-1.337","<span style=""font-size:30px; font-family: monospace"">divirto</span>"," ","","exp-sent","divirto","","",""
"","759","html-keyboard-response","410","734046","0.0-3.0-1.338","<span style=""font-size:30px; font-family: monospace"">em</span>"," ","","exp-sent","em","","",""
"","734","html-keyboard-response","411","735042","0.0-3.0-1.339","<span style=""font-size:30px; font-family: monospace"">festas</span>"," ","","exp-sent","festas","","",""
"","608","html-keyboard-response","412","735906","0.0-3.0-1.340","<span style=""font-size:30px; font-family: monospace"">de</span>"," ","","exp-sent","de","","",""
"","1253","html-keyboard-response","413","737418","0.0-3.0-1.341","<span style=""font-size:30px; font-family: monospace"">criança.</span>"," ","","exp-sent","criança.","","",""
"","null","html-keyboard-response","414","738686","0.0-3.0-0.342-0.342","<span style= ""font-size:30px; font-family: monospace"">+</span>","null","fixation","","","","",""
"","715","html-keyboard-response","415","739657","0.0-3.0-1.342","<span style=""font-size:30px; font-family: monospace"">A</span>"," ","","exp-sent","A","","",""
"","1042","html-keyboard-response","416","740962","0.0-3.0-1.343","<span style=""font-size:30px; font-family: monospace"">janela</span>"," ","","exp-sent","janela","","",""
"","781","html-keyboard-response","417","742006","0.0-3.0-1.344","<span style=""font-size:30px; font-family: monospace"">alta</span>"," ","","exp-sent","alta","","",""
"","676","html-keyboard-response","418","742948","0.0-3.0-1.345","<span style=""font-size:30px; font-family: monospace"">estava</span>"," ","","exp-sent","estava","","",""
"","1208","html-keyboard-response","419","744413","0.0-3.0-1.346","<span style=""font-size:30px; font-family: monospace"">quebrada</span>"," ","","exp-sent","quebrada","","",""
"","821","html-keyboard-response","420","745496","0.0-3.0-1.347","<span style=""font-size:30px; font-family: monospace"">desde</span>"," ","","exp-sent","desde","","",""
"","865","html-keyboard-response","421","746618","0.0-3.0-1.348","<span style=""font-size:30px; font-family: monospace"">ontem.</span>"," ","","comp","ontem.","","",""
"","4100","html-keyboard-response","422","750969","0.0-3.0-2.348-0.348","<span style=""font-size:30px; font-family: monospace"">A janela alta estava quebrada?</span>","s","","comp","","A janela alta estava quebrada?","sim","false"
"","null","html-keyboard-response","423","752481","0.0-3.0-0.349-0.349","<span style= ""font-size:30px; font-family: monospace"">+</span>","null","fixation","","","","",""
"","1886","html-keyboard-response","424","754622","0.0-3.0-1.349","<span style=""font-size:30px; font-family: monospace"">No</span>"," ","","exp-sent","No","","",""
"","1027","html-keyboard-response","425","755907","0.0-3.0-1.350","<span style=""font-size:30px; font-family: monospace"">passado</span>"," ","","exp-sent","passado","","",""
"","740","html-keyboard-response","426","756908","0.0-3.0-1.351","<span style=""font-size:30px; font-family: monospace"">houve</span>"," ","","exp-sent","houve","","",""
"","450","html-keyboard-response","427","757615","0.0-3.0-1.352","<span style=""font-size:30px; font-family: monospace"">uma</span>"," ","","exp-sent","uma","","",""
"","750","html-keyboard-response","428","758631","0.0-3.0-1.353","<span style=""font-size:30px; font-family: monospace"">rebelião</span>"," ","","exp-sent","rebelião","","",""
"","554","html-keyboard-response","429","759454","0.0-3.0-1.354","<span style=""font-size:30px; font-family: monospace"">nesta</span>"," ","","exp-sent","nesta","","",""
"","448","html-keyboard-response","430","760163","0.0-3.0-1.355","<span style=""font-size:30px; font-family: monospace"">cidade.</span>"," ","","exp-sent","cidade.","","",""
"","null","html-keyboard-response","431","761426","0.0-3.0-0.356-0.356","<span style= ""font-size:30px; font-family: monospace"">+</span>","null","fixation","","","","",""
"","461","html-keyboard-response","432","762141","0.0-3.0-1.356","<span style=""font-size:30px; font-family: monospace"">Ele</span>"," ","","exp-sent","Ele","","",""
"","534","html-keyboard-response","433","762932","0.0-3.0-1.357","<span style=""font-size:30px; font-family: monospace"">fundou</span>"," ","","exp-sent","fundou","","",""
"","446","html-keyboard-response","434","763642","0.0-3.0-1.358","<span style=""font-size:30px; font-family: monospace"">uma</span>"," ","","exp-sent","uma","","",""
"","560","html-keyboard-response","435","764456","0.0-3.0-1.359","<span style=""font-size:30px; font-family: monospace"">empresa</span>"," ","","exp-sent","empresa","","",""
"","646","html-keyboard-response","436","765356","0.0-3.0-1.360","<span style=""font-size:30px; font-family: monospace"">privada</span>"," ","","exp-sent","privada","","",""
"","638","html-keyboard-response","437","766247","0.0-3.0-1.361","<span style=""font-size:30px; font-family: monospace"">sem</span>"," ","","exp-sent","sem","","",""
"","653","html-keyboard-response","438","767165","0.0-3.0-1.362","<span style=""font-size:30px; font-family: monospace"">ajuda.</span>"," ","","exp-sent","ajuda.","","",""
"","null","html-keyboard-response","439","768433","0.0-3.0-0.363-0.363","<span style= ""font-size:30px; font-family: monospace"">+</span>","null","fixation","","","","",""
"","660","html-keyboard-response","440","769354","0.0-3.0-1.363","<span style=""font-size:30px; font-family: monospace"">As</span>"," ","","exp-sent","As","","",""
"","669","html-keyboard-response","441","770278","0.0-3.0-1.364","<span style=""font-size:30px; font-family: monospace"">meninas</span>"," ","","exp-sent","meninas","","",""
"","1304","html-keyboard-response","442","771846","0.0-3.0-1.365","<span style=""font-size:30px; font-family: monospace"">encontraram</span>"," ","","exp-sent","encontraram","","",""
"","793","html-keyboard-response","443","772902","0.0-3.0-1.366","<span style=""font-size:30px; font-family: monospace"">um</span>"," ","","exp-sent","um","","",""
"","781","html-keyboard-response","444","773941","0.0-3.0-1.367","<span style=""font-size:30px; font-family: monospace"">rato</span>"," ","","exp-sent","rato","","",""
"","571","html-keyboard-response","445","774766","0.0-3.0-1.368","<span style=""font-size:30px; font-family: monospace"">dentro</span>"," ","","exp-sent","dentro","","",""
"","412","html-keyboard-response","446","775436","0.0-3.0-1.369","<span style=""font-size:30px; font-family: monospace"">de</span>"," ","","exp-sent","de","","",""
"","670","html-keyboard-response","447","776360","0.0-3.0-1.370","<span style=""font-size:30px; font-family: monospace"">casa.</span>"," ","","exp-sent","casa.","","",""
"","null","html-keyboard-response","448","777634","0.0-3.0-0.371-0.371","<span style= ""font-size:30px; font-family: monospace"">+</span>","null","fixation","","","","",""
"","891","html-keyboard-response","449","778788","0.0-3.0-1.371","<span style=""font-size:30px; font-family: monospace"">O</span>"," ","","exp-sent","O","","",""
"","948","html-keyboard-response","450","779988","0.0-3.0-1.372","<span style=""font-size:30px; font-family: monospace"">texto</span>"," ","","exp-sent","texto","","",""
"","646","html-keyboard-response","451","780887","0.0-3.0-1.373","<span style=""font-size:30px; font-family: monospace"">tinha</span>"," ","","exp-sent","tinha","","",""
"","732","html-keyboard-response","452","781871","0.0-3.0-1.374","<span style=""font-size:30px; font-family: monospace"">ideias</span>"," ","","exp-sent","ideias","","",""
"","618","html-keyboard-response","453","782755","0.0-3.0-1.375","<span style=""font-size:30px; font-family: monospace"">vagas</span>"," ","","exp-sent","vagas","","",""
"","545","html-keyboard-response","454","783566","0.0-3.0-1.376","<span style=""font-size:30px; font-family: monospace"">e</span>"," ","","exp-sent","e","","",""
"","1288","html-keyboard-response","455","785107","0.0-3.0-1.377","<span style=""font-size:30px; font-family: monospace"">confusas.</span>"," ","","exp-sent","confusas.","","",""
"","null","html-keyboard-response","456","786374","0.0-3.0-0.378-0.378","<span style= ""font-size:30px; font-family: monospace"">+</span>","null","fixation","","","","",""
"","532","html-keyboard-response","457","787168","0.0-3.0-1.378","<span style=""font-size:30px; font-family: monospace"">As</span>"," ","","exp-sent","As","","",""
"","526","html-keyboard-response","458","787960","0.0-3.0-1.379","<span style=""font-size:30px; font-family: monospace"">crianças</span>"," ","","exp-sent","crianças","","",""
"","708","html-keyboard-response","459","788926","0.0-3.0-1.380","<span style=""font-size:30px; font-family: monospace"">viram</span>"," ","","exp-sent","viram","","",""
"","805","html-keyboard-response","460","789987","0.0-3.0-1.381","<span style=""font-size:30px; font-family: monospace"">a</span>"," ","","exp-sent","a","","",""
"","2646","html-keyboard-response","461","792886","0.0-3.0-1.382","<span style=""font-size:30px; font-family: monospace"">acrobata</span>"," ","","exp-sent","acrobata","","",""
"","1655","html-keyboard-response","462","794806","0.0-3.0-1.383","<span style=""font-size:30px; font-family: monospace"">talentosa</span>"," ","","exp-sent","talentosa","","",""
"","549","html-keyboard-response","463","795612","0.0-3.0-1.384","<span style=""font-size:30px; font-family: monospace"">no</span>"," ","","exp-sent","no","","",""
"","1034","html-keyboard-response","464","796899","0.0-3.0-1.385","<span style=""font-size:30px; font-family: monospace"">circo.</span>"," ","","comp","circo.","","",""
"","8454","html-keyboard-response","465","805618","0.0-3.0-2.385-0.385","<span style=""font-size:30px; font-family: monospace"">As crianças viram o palhaço no circo?</span>","s","","comp","","As crianças viram o palhaço no circo?","não","false"
"","null","html-keyboard-response","466","807130","0.0-3.0-0.386-0.386","<span style= ""font-size:30px; font-family: monospace"">+</span>","null","fixation","","","","",""
"","1466","html-keyboard-response","467","808859","0.0-3.0-1.386","<span style=""font-size:30px; font-family: monospace"">O</span>"," ","","exp-sent","O","","",""
"","826","html-keyboard-response","468","809950","0.0-3.0-1.387","<span style=""font-size:30px; font-family: monospace"">moço</span>"," ","","exp-sent","moço","","",""
"","727","html-keyboard-response","469","810936","0.0-3.0-1.388","<span style=""font-size:30px; font-family: monospace"">usou</span>"," ","","exp-sent","usou","","",""
"","694","html-keyboard-response","470","811894","0.0-3.0-1.389","<span style=""font-size:30px; font-family: monospace"">várias</span>"," ","","exp-sent","várias","","",""
"","988","html-keyboard-response","471","813143","0.0-3.0-1.390","<span style=""font-size:30px; font-family: monospace"">velas</span>"," ","","exp-sent","velas","","",""
"","471","html-keyboard-response","472","813882","0.0-3.0-1.391","<span style=""font-size:30px; font-family: monospace"">no</span>"," ","","exp-sent","no","","",""
"","950","html-keyboard-response","473","815090","0.0-3.0-1.392","<span style=""font-size:30px; font-family: monospace"">enfeite</span>"," ","","exp-sent","enfeite","","",""
"","542","html-keyboard-response","474","815899","0.0-3.0-1.393","<span style=""font-size:30px; font-family: monospace"">de</span>"," ","","exp-sent","de","","",""
"","498","html-keyboard-response","475","816658","0.0-3.0-1.394","<span style=""font-size:30px; font-family: monospace"">mesa.</span>"," ","","exp-sent","mesa.","","",""
"","null","html-keyboard-response","476","817927","0.0-3.0-0.395-0.395","<span style= ""font-size:30px; font-family: monospace"">+</span>","null","fixation","","","","",""
"","845","html-keyboard-response","477","819026","0.0-3.0-1.395","<span style=""font-size:30px; font-family: monospace"">Gostamos</span>"," ","","exp-sent","Gostamos","","",""
"","656","html-keyboard-response","478","819950","0.0-3.0-1.396","<span style=""font-size:30px; font-family: monospace"">de</span>"," ","","exp-sent","de","","",""
"","595","html-keyboard-response","479","820800","0.0-3.0-1.397","<span style=""font-size:30px; font-family: monospace"">suco</span>"," ","","exp-sent","suco","","",""
"","484","html-keyboard-response","480","821537","0.0-3.0-1.398","<span style=""font-size:30px; font-family: monospace"">em</span>"," ","","exp-sent","em","","",""
"","915","html-keyboard-response","481","822717","0.0-3.0-1.399","<span style=""font-size:30px; font-family: monospace"">garrafa</span>"," ","","exp-sent","garrafa","","",""
"","539","html-keyboard-response","482","823512","0.0-3.0-1.400","<span style=""font-size:30px; font-family: monospace"">de</span>"," ","","exp-sent","de","","",""
"","795","html-keyboard-response","483","824564","0.0-3.0-1.401","<span style=""font-size:30px; font-family: monospace"">tamanho</span>"," ","","exp-sent","tamanho","","",""
"","570","html-keyboard-response","484","825396","0.0-3.0-1.402","<span style=""font-size:30px; font-family: monospace"">pequeno.</span>"," ","","exp-sent","pequeno.","","",""
"","null","html-keyboard-response","485","826656","0.0-3.0-0.403-0.403","<span style= ""font-size:30px; font-family: monospace"">+</span>","null","fixation","","","","",""
"","1232","html-keyboard-response","486","828139","0.0-3.0-1.403","<span style=""font-size:30px; font-family: monospace"">Sua</span>"," ","","exp-sent","Sua","","",""
"","1301","html-keyboard-response","487","829699","0.0-3.0-1.404","<span style=""font-size:30px; font-family: monospace"">filha</span>"," ","","exp-sent","filha","","",""
"","679","html-keyboard-response","488","830633","0.0-3.0-1.405","<span style=""font-size:30px; font-family: monospace"">é</span>"," ","","exp-sent","é","","",""
"","742","html-keyboard-response","489","831627","0.0-3.0-1.406","<span style=""font-size:30px; font-family: monospace"">muito</span>"," ","","exp-sent","muito","","",""
"","605","html-keyboard-response","490","832498","0.0-3.0-1.407","<span style=""font-size:30px; font-family: monospace"">capaz</span>"," ","","exp-sent","capaz","","",""
"","462","html-keyboard-response","491","833229","0.0-3.0-1.408","<span style=""font-size:30px; font-family: monospace"">e</span>"," ","","exp-sent","e","","",""
"","1597","html-keyboard-response","492","835078","0.0-3.0-1.409","<span style=""font-size:30px; font-family: monospace"">esforçada.</span>"," ","","exp-sent","esforçada.","","",""
"","null","html-keyboard-response","493","836336","0.0-3.0-0.410-0.410","<span style= ""font-size:30px; font-family: monospace"">+</span>","null","fixation","","","","",""
"","743","html-keyboard-response","494","837339","0.0-3.0-1.410","<span style=""font-size:30px; font-family: monospace"">A</span>"," ","","exp-sent","A","","",""
"","1029","html-keyboard-response","495","838627","0.0-3.0-1.411","<span style=""font-size:30px; font-family: monospace"">batida</span>"," ","","exp-sent","batida","","",""
"","589","html-keyboard-response","496","839467","0.0-3.0-1.412","<span style=""font-size:30px; font-family: monospace"">causou</span>"," ","","exp-sent","causou","","",""
"","513","html-keyboard-response","497","840240","0.0-3.0-1.413","<span style=""font-size:30px; font-family: monospace"">muita</span>"," ","","exp-sent","muita","","",""
"","703","html-keyboard-response","498","841208","0.0-3.0-1.414","<span style=""font-size:30px; font-family: monospace"">confusão</span>"," ","","exp-sent","confusão","","",""
"","506","html-keyboard-response","499","841981","0.0-3.0-1.415","<span style=""font-size:30px; font-family: monospace"">na</span>"," ","","exp-sent","na","","",""
"","784","html-keyboard-response","500","843028","0.0-3.0-1.416","<span style=""font-size:30px; font-family: monospace"">estrada.</span>"," ","","exp-sent","estrada.","","",""
"","null","html-keyboard-response","501","844285","0.0-3.0-0.417-0.417","<span style= ""font-size:30px; font-family: monospace"">+</span>","null","fixation","","","","",""
"","574","html-keyboard-response","502","845116","0.0-3.0-1.417","<span style=""font-size:30px; font-family: monospace"">Eu</span>"," ","","exp-sent","Eu","","",""
"","1114","html-keyboard-response","503","846491","0.0-3.0-1.418","<span style=""font-size:30px; font-family: monospace"">cozinhei</span>"," ","","exp-sent","cozinhei","","",""
"","515","html-keyboard-response","504","847258","0.0-3.0-1.419","<span style=""font-size:30px; font-family: monospace"">um</span>"," ","","exp-sent","um","","",""
"","612","html-keyboard-response","505","848122","0.0-3.0-1.420","<span style=""font-size:30px; font-family: monospace"">almoço</span>"," ","","exp-sent","almoço","","",""
"","1201","html-keyboard-response","506","849577","0.0-3.0-1.421","<span style=""font-size:30px; font-family: monospace"">nutritivo</span>"," ","","exp-sent","nutritivo","","",""
"","634","html-keyboard-response","507","850461","0.0-3.0-1.422","<span style=""font-size:30px; font-family: monospace"">para</span>"," ","","exp-sent","para","","",""
"","582","html-keyboard-response","508","851305","0.0-3.0-1.423","<span style=""font-size:30px; font-family: monospace"">hoje.</span>"," ","","comp","hoje.","","",""
"","2385","html-keyboard-response","509","853956","0.0-3.0-2.423-0.423","<span style=""font-size:30px; font-family: monospace"">O almoço era nutritivo?</span>","s","","comp","","O almoço era nutritivo?","sim","false"
"","null","html-keyboard-response","510","855466","0.0-3.0-0.424-0.424","<span style= ""font-size:30px; font-family: monospace"">+</span>","null","fixation","","","","",""
"","1572","html-keyboard-response","511","857293","0.0-3.0-1.424","<span style=""font-size:30px; font-family: monospace"">Ele</span>"," ","","exp-sent","Ele","","",""
"","587","html-keyboard-response","512","858139","0.0-3.0-1.425","<span style=""font-size:30px; font-family: monospace"">é</span>"," ","","exp-sent","é","","",""
"","540","html-keyboard-response","513","858941","0.0-3.0-1.426","<span style=""font-size:30px; font-family: monospace"">um</span>"," ","","exp-sent","um","","",""
"","533","html-keyboard-response","514","859737","0.0-3.0-1.427","<span style=""font-size:30px; font-family: monospace"">pai</span>"," ","","exp-sent","pai","","",""
"","1673","html-keyboard-response","515","861663","0.0-3.0-1.428","<span style=""font-size:30px; font-family: monospace"">ausente</span>"," ","","exp-sent","ausente","","",""
"","820","html-keyboard-response","516","862737","0.0-3.0-1.429","<span style=""font-size:30px; font-family: monospace"">e</span>"," ","","exp-sent","e","","",""
"","769","html-keyboard-response","517","863763","0.0-3.0-1.430","<span style=""font-size:30px; font-family: monospace"">muito</span>"," ","","exp-sent","muito","","",""
"","1932","html-keyboard-response","518","865949","0.0-3.0-1.431","<span style=""font-size:30px; font-family: monospace"">fofoqueiro.</span>"," ","","exp-sent","fofoqueiro.","","",""
"","null","html-keyboard-response","519","867210","0.0-3.0-0.432-0.432","<span style= ""font-size:30px; font-family: monospace"">+</span>","null","fixation","","","","",""
"","656","html-keyboard-response","520","868123","0.0-3.0-1.432","<span style=""font-size:30px; font-family: monospace"">O</span>"," ","","exp-sent","O","","",""
"","777","html-keyboard-response","521","869164","0.0-3.0-1.433","<span style=""font-size:30px; font-family: monospace"">filho</span>"," ","","exp-sent","filho","","",""
"","893","html-keyboard-response","522","870314","0.0-3.0-1.434","<span style=""font-size:30px; font-family: monospace"">lavou</span>"," ","","exp-sent","lavou","","",""
"","519","html-keyboard-response","523","871099","0.0-3.0-1.435","<span style=""font-size:30px; font-family: monospace"">a</span>"," ","","exp-sent","a","","",""
"","636","html-keyboard-response","524","871987","0.0-3.0-1.436","<span style=""font-size:30px; font-family: monospace"">roupa</span>"," ","","exp-sent","roupa","","",""
"","564","html-keyboard-response","525","872804","0.0-3.0-1.437","<span style=""font-size:30px; font-family: monospace"">sem</span>"," ","","exp-sent","sem","","",""
"","817","html-keyboard-response","526","873881","0.0-3.0-1.438","<span style=""font-size:30px; font-family: monospace"">nenhuma</span>"," ","","exp-sent","nenhuma","","",""
"","739","html-keyboard-response","527","874883","0.0-3.0-1.439","<span style=""font-size:30px; font-family: monospace"">ajuda.</span>"," ","","exp-sent","ajuda.","","",""
"","null","html-keyboard-response","528","876164","0.0-3.0-0.440-0.440","<span style= ""font-size:30px; font-family: monospace"">+</span>","null","fixation","","","","",""
"","545","html-keyboard-response","529","876974","0.0-3.0-1.440","<span style=""font-size:30px; font-family: monospace"">O</span>"," ","","exp-sent","O","","",""
"","897","html-keyboard-response","530","878131","0.0-3.0-1.441","<span style=""font-size:30px; font-family: monospace"">menino</span>"," ","","exp-sent","menino","","",""
"","691","html-keyboard-response","531","879089","0.0-3.0-1.442","<span style=""font-size:30px; font-family: monospace"">quebrou</span>"," ","","exp-sent","quebrou","","",""
"","523","html-keyboard-response","532","879866","0.0-3.0-1.443","<span style=""font-size:30px; font-family: monospace"">a</span>"," ","","exp-sent","a","","",""
"","592","html-keyboard-response","533","880720","0.0-3.0-1.444","<span style=""font-size:30px; font-family: monospace"">perna</span>"," ","","exp-sent","perna","","",""
"","522","html-keyboard-response","534","881499","0.0-3.0-1.445","<span style=""font-size:30px; font-family: monospace"">nos</span>"," ","","exp-sent","nos","","",""
"","1133","html-keyboard-response","535","882891","0.0-3.0-1.446","<span style=""font-size:30px; font-family: monospace"">esportes.</span>"," ","","exp-sent","esportes.","","",""
"","null","html-keyboard-response","536","884151","0.0-3.0-0.447-0.447","<span style= ""font-size:30px; font-family: monospace"">+</span>","null","fixation","","","","",""
"","496","html-keyboard-response","537","884903","0.0-3.0-1.447","<span style=""font-size:30px; font-family: monospace"">Ela</span>"," ","","exp-sent","Ela","","",""
"","670","html-keyboard-response","538","885828","0.0-3.0-1.448","<span style=""font-size:30px; font-family: monospace"">brincou</span>"," ","","exp-sent","brincou","","",""
"","520","html-keyboard-response","539","886613","0.0-3.0-1.449","<span style=""font-size:30px; font-family: monospace"">com</span>"," ","","exp-sent","com","","",""
"","463","html-keyboard-response","540","887338","0.0-3.0-1.450","<span style=""font-size:30px; font-family: monospace"">uma</span>"," ","","exp-sent","uma","","",""
"","536","html-keyboard-response","541","888127","0.0-3.0-1.451","<span style=""font-size:30px; font-family: monospace"">menina</span>"," ","","exp-sent","menina","","",""
"","535","html-keyboard-response","542","888926","0.0-3.0-1.452","<span style=""font-size:30px; font-family: monospace"">da</span>"," ","","exp-sent","da","","",""
"","1020","html-keyboard-response","543","890209","0.0-3.0-1.453","<span style=""font-size:30px; font-family: monospace"">turma.</span>"," ","","exp-sent","turma.","","",""
"","null","html-keyboard-response","544","891479","0.0-3.0-0.454-0.454","<span style= ""font-size:30px; font-family: monospace"">+</span>","null","fixation","","","","",""
"","509","html-keyboard-response","545","892247","0.0-3.0-1.454","<span style=""font-size:30px; font-family: monospace"">Ele</span>"," ","","exp-sent","Ele","","",""
"","757","html-keyboard-response","546","893265","0.0-3.0-1.455","<span style=""font-size:30px; font-family: monospace"">esteve</span>"," ","","exp-sent","esteve","","",""
"","844","html-keyboard-response","547","894365","0.0-3.0-1.456","<span style=""font-size:30px; font-family: monospace"">no</span>"," ","","exp-sent","no","","",""
"","1598","html-keyboard-response","548","896219","0.0-3.0-1.457","<span style=""font-size:30px; font-family: monospace"">escritório</span>"," ","","exp-sent","escritório","","",""
"","905","html-keyboard-response","549","897376","0.0-3.0-1.458","<span style=""font-size:30px; font-family: monospace"">o</span>"," ","","exp-sent","o","","",""
"","640","html-keyboard-response","550","898280","0.0-3.0-1.459","<span style=""font-size:30px; font-family: monospace"">dia</span>"," ","","exp-sent","dia","","",""
"","1571","html-keyboard-response","551","900106","0.0-3.0-1.460","<span style=""font-size:30px; font-family: monospace"">inteiro.</span>"," ","","comp","inteiro.","","",""
"","8348","html-keyboard-response","552","908717","0.0-3.0-2.460-0.460","<span style=""font-size:30px; font-family: monospace"">Ele esteve no parque o dia inteiro?</span>","n","","comp","","Ele esteve no parque o dia inteiro?","não","false"
"","null","html-keyboard-response","553","910234","0.0-3.0-0.461-0.461","<span style= ""font-size:30px; font-family: monospace"">+</span>","null","fixation","","","","",""
"","2960","html-keyboard-response","554","913457","0.0-3.0-1.461","<span style=""font-size:30px; font-family: monospace"">O</span>"," ","","exp-sent","O","","",""
"","718","html-keyboard-response","555","914436","0.0-3.0-1.462","<span style=""font-size:30px; font-family: monospace"">travesseiro</span>"," ","","exp-sent","travesseiro","","",""
"","477","html-keyboard-response","556","915177","0.0-3.0-1.463","<span style=""font-size:30px; font-family: monospace"">era</span>"," ","","exp-sent","era","","",""
"","426","html-keyboard-response","557","915862","0.0-3.0-1.464","<span style=""font-size:30px; font-family: monospace"">muito</span>"," ","","exp-sent","muito","","",""
"","482","html-keyboard-response","558","916609","0.0-3.0-1.465","<span style=""font-size:30px; font-family: monospace"">macio</span>"," ","","exp-sent","macio","","",""
"","557","html-keyboard-response","559","917432","0.0-3.0-1.466","<span style=""font-size:30px; font-family: monospace"">e</span>"," ","","exp-sent","e","","",""
"","993","html-keyboard-response","560","918686","0.0-3.0-1.467","<span style=""font-size:30px; font-family: monospace"">confortável.</span>"," ","","exp-sent","confortável.","","",""
"","null","html-keyboard-response","561","919949","0.0-3.0-0.468-0.468","<span style= ""font-size:30px; font-family: monospace"">+</span>","null","fixation","","","","",""
"","477","html-keyboard-response","562","920686","0.0-3.0-1.468","<span style=""font-size:30px; font-family: monospace"">Hoje</span>"," ","","exp-sent","Hoje","","",""
"","437","html-keyboard-response","563","921384","0.0-3.0-1.469","<span style=""font-size:30px; font-family: monospace"">a</span>"," ","","exp-sent","a","","",""
"","3766","html-keyboard-response","564","925407","0.0-3.0-1.470","<span style=""font-size:30px; font-family: monospace"">atendente</span>"," ","","exp-sent","atendente","","",""
"","1455","html-keyboard-response","565","927118","0.0-3.0-1.471","<span style=""font-size:30px; font-family: monospace"">estava</span>"," ","","exp-sent","estava","","",""
"","782","html-keyboard-response","566","928155","0.0-3.0-1.472","<span style=""font-size:30px; font-family: monospace"">furiosa</span>"," ","","exp-sent","furiosa","","",""
"","446","html-keyboard-response","567","928866","0.0-3.0-1.473","<span style=""font-size:30px; font-family: monospace"">com</span>"," ","","exp-sent","com","","",""
"","431","html-keyboard-response","568","929555","0.0-3.0-1.474","<span style=""font-size:30px; font-family: monospace"">o</span>"," ","","exp-sent","o","","",""
"","644","html-keyboard-response","569","930462","0.0-3.0-1.475","<span style=""font-size:30px; font-family: monospace"">cliente.</span>"," ","","exp-sent","cliente.","","",""
"","null","html-keyboard-response","570","931725","0.0-3.0-0.476-0.476","<span style= ""font-size:30px; font-family: monospace"">+</span>","null","fixation","","","","",""
"","594","html-keyboard-response","571","932580","0.0-3.0-1.476","<span style=""font-size:30px; font-family: monospace"">O</span>"," ","","exp-sent","O","","",""
"","767","html-keyboard-response","572","933602","0.0-3.0-1.477","<span style=""font-size:30px; font-family: monospace"">vizinho</span>"," ","","exp-sent","vizinho","","",""
"","446","html-keyboard-response","573","934315","0.0-3.0-1.478","<span style=""font-size:30px; font-family: monospace"">é</span>"," ","","exp-sent","é","","",""
"","495","html-keyboard-response","574","935066","0.0-3.0-1.479","<span style=""font-size:30px; font-family: monospace"">um</span>"," ","","exp-sent","um","","",""
"","3481","html-keyboard-response","575","938803","0.0-3.0-1.480","<span style=""font-size:30px; font-family: monospace"">arquiteto</span>"," ","","exp-sent","arquiteto","","",""
"","544","html-keyboard-response","576","939610","0.0-3.0-1.481","<span style=""font-size:30px; font-family: monospace"">muito</span>"," ","","exp-sent","muito","","",""
"","2057","html-keyboard-response","577","941922","0.0-3.0-1.482","<span style=""font-size:30px; font-family: monospace"">excêntrico.</span>"," ","","exp-sent","excêntrico.","","",""
"","null","html-keyboard-response","578","943182","0.0-3.0-0.483-0.483","<span style= ""font-size:30px; font-family: monospace"">+</span>","null","fixation","","","","",""
"","397","html-keyboard-response","579","943845","0.0-3.0-1.483","<span style=""font-size:30px; font-family: monospace"">A</span>"," ","","exp-sent","A","","",""
"","830","html-keyboard-response","580","944930","0.0-3.0-1.484","<span style=""font-size:30px; font-family: monospace"">nossa</span>"," ","","exp-sent","nossa","","",""
"","413","html-keyboard-response","581","945595","0.0-3.0-1.485","<span style=""font-size:30px; font-family: monospace"">colega</span>"," ","","exp-sent","colega","","",""
"","397","html-keyboard-response","582","946245","0.0-3.0-1.486","<span style=""font-size:30px; font-family: monospace"">foi</span>"," ","","exp-sent","foi","","",""
"","460","html-keyboard-response","583","946957","0.0-3.0-1.487","<span style=""font-size:30px; font-family: monospace"">má</span>"," ","","exp-sent","má","","",""
