"view_history","rt","trial_type","trial_index","time_elapsed","internal_node_id","stimulus","response","trial_part","word","question","answer","trial","accuracy"
"[{""page_index"":0,""viewing_time"":70473},{""page_index"":1,""viewing_time"":9497}]","79970","instructions","0","79974","0.0-0.0","","","","","","","",""
"","null","html-keyboard-response","1","81098","0.0-1.0-0.0-0.0","<span style= ""font-size:30px; font-family: monospace"">+</span>","null","fixation","","","","",""
"","6541","audio-keyboard-response","2","89108","0.0-1.0-1.0","../audio/prac-question-1-1.mp3"," ","","O","","","",""
"","1909","audio-keyboard-response","3","91386","0.0-1.0-1.1","../audio/prac-question-1-2.mp3"," ","","dia","","","",""
"","1931","audio-keyboard-response","4","93692","0.0-1.0-1.2","../audio/prac-question-1-3.mp3"," ","","estará","","","",""
"","1149","audio-keyboard-response","5","95205","0.0-1.0-1.3","../audio/prac-question-1-4.mp3"," ","","cheio","","","",""
"","1112","audio-keyboard-response","6","96654","0.0-1.0-1.4","../audio/prac-question-1-5.mp3"," ","","de","","","",""
"","1979","audio-keyboard-response","7","98979","0.0-1.0-1.5","../audio/prac-question-1-6.mp3"," ","","nuvens","","","",""
"","1440","audio-keyboard-response","8","100784","0.0-1.0-1.6","../audio/prac-question-1-7.mp3"," ","","hoje.","","","",""
"","null","html-keyboard-response","9","102063","0.0-1.0-0.7-0.7","<span style= ""font-size:30px; font-family: monospace"">+</span>","null","fixation","","","","",""
"","1432","audio-keyboard-response","10","103856","0.0-1.0-1.7","../audio/prac-question-2-1.mp3"," ","","A","","","",""
"","1469","audio-keyboard-response","11","105668","0.0-1.0-1.8","../audio/prac-question-2-2.mp3"," ","","caneca","","","",""
"","1429","audio-keyboard-response","12","107427","0.0-1.0-1.9","../audio/prac-question-2-3.mp3"," ","","colorida","","","",""
"","1408","audio-keyboard-response","13","109177","0.0-1.0-1.10","../audio/prac-question-2-4.mp3"," ","","caiu","","","",""
"","1301","audio-keyboard-response","14","110815","0.0-1.0-1.11","../audio/prac-question-2-5.mp3"," ","","da","","","",""
"","1299","audio-keyboard-response","15","112462","0.0-1.0-1.12","../audio/prac-question-2-6.mp3"," ","","mesa","","","",""
"","952","audio-keyboard-response","16","113736","0.0-1.0-1.13","../audio/prac-question-2-7.mp3"," ","","de","","","",""
"","2040","audio-keyboard-response","17","116107","0.0-1.0-1.14","../audio/prac-question-2-8.mp3"," ","","jantar.","","","",""
"","5132","html-keyboard-response","18","121498","0.0-1.0-2.14-0.14","<span style=""font-size:25px; font-family: monospace"">A caneca era colorida?</span>","s","","","A caneca era colorida?","null","prac-sent","false"
"[{""page_index"":0,""viewing_time"":7777}]","7777","instructions","19","129781","0.0-2.0","","","","","","","",""
"","null","html-keyboard-response","20","130908","0.0-3.0-0.0-0.0","<span style= ""font-size:30px; font-family: monospace"">+</span>","null","fixation","","","","",""
"","1672","audio-keyboard-response","21","132927","0.0-3.0-1.0","../audio/37-1-masc.mp3"," ","","Eu","","","",""
"","1181","audio-keyboard-response","22","134441","0.0-3.0-1.1","../audio/37-2-masc.mp3"," ","","adoro","","","",""
"","1080","audio-keyboard-response","23","135852","0.0-3.0-1.2","../audio/37-3-masc.mp3"," ","","suco","","","",""
"","941","audio-keyboard-response","24","137116","0.0-3.0-1.3","../audio/37-4-masc.mp3"," ","","de","","","",""
"","1219","audio-keyboard-response","25","138666","0.0-3.0-1.4","../audio/37-5-masc.mp3"," ","","manga","","","",""
"","1011","audio-keyboard-response","26","140007","0.0-3.0-1.5","../audio/37-6-masc.mp3"," ","","com","","","",""
"","2421","audio-keyboard-response","27","142757","0.0-3.0-1.6","../audio/37-7-masc.mp3"," ","","hortelã.","","","",""
"","null","html-keyboard-response","28","144022","0.0-3.0-0.7-0.7","<span style= ""font-size:30px; font-family: monospace"">+</span>","null","fixation","","","","",""
"","1528","audio-keyboard-response","29","145903","0.0-3.0-1.7","../audio/36-1-masc.mp3"," ","","Meu","","","",""
"","1061","audio-keyboard-response","30","147287","0.0-3.0-1.8","../audio/36-2-masc.mp3"," ","","tio","","","",""
"","1021","audio-keyboard-response","31","148640","0.0-3.0-1.9","../audio/36-3-masc.mp3"," ","","comprou","","","",""
"","872","audio-keyboard-response","32","149850","0.0-3.0-1.10","../audio/36-4-masc.mp3"," ","","um","","","",""
"","1171","audio-keyboard-response","33","151357","0.0-3.0-1.11","../audio/36-5-masc.mp3"," ","","filtro","","","",""
"","979","audio-keyboard-response","34","152667","0.0-3.0-1.12","../audio/36-6-masc.mp3"," ","","de","","","",""
"","1109","audio-keyboard-response","35","154106","0.0-3.0-1.13","../audio/36-7-masc.mp3"," ","","água","","","",""
"","971","audio-keyboard-response","36","155403","0.0-3.0-1.14","../audio/36-8-masc.mp3"," ","","hoje","","","",""
"","3200","audio-keyboard-response","37","158940","0.0-3.0-1.15","../audio/36-9-masc.mp3"," ","","cedo.","","","",""
"","null","html-keyboard-response","38","160213","0.0-3.0-0.16-0.16","<span style= ""font-size:30px; font-family: monospace"">+</span>","null","fixation","","","","",""
"","1392","audio-keyboard-response","39","161969","0.0-3.0-1.16","../audio/38-1-fem.mp3"," ","","A","","","",""
"","1531","audio-keyboard-response","40","163844","0.0-3.0-1.17","../audio/38-2-fem.mp3"," ","","empresa","","","",""
"","1269","audio-keyboard-response","41","165457","0.0-3.0-1.18","../audio/38-3-fem.mp3"," ","","criou","","","",""
"","931","audio-keyboard-response","42","166726","0.0-3.0-1.19","../audio/38-4-fem.mp3"," ","","a","","","",""
"","1400","audio-keyboard-response","43","168476","0.0-3.0-1.20","../audio/38-5-fem.mp3"," ","","patente","","","",""
"","1029","audio-keyboard-response","44","169835","0.0-3.0-1.21","../audio/38-6-fem.mp3"," ","","da","","","",""
"","2720","audio-keyboard-response","45","172929","0.0-3.0-1.22","../audio/38-7-fem.mp3"," ","","frigideira.","","","",""
"","null","html-keyboard-response","46","174208","0.0-3.0-0.23-0.23","<span style= ""font-size:30px; font-family: monospace"">+</span>","null","fixation","","","","",""
"","1360","audio-keyboard-response","47","175941","0.0-3.0-1.23","../audio/39-1-masc.mp3"," ","","O","","","",""
"","1509","audio-keyboard-response","48","177804","0.0-3.0-1.24","../audio/39-2-masc.mp3"," ","","conselho","","","",""
"","1352","audio-keyboard-response","49","179491","0.0-3.0-1.25","../audio/39-3-masc.mp3"," ","","foi","","","",""
"","1509","audio-keyboard-response","50","181341","0.0-3.0-1.26","../audio/39-4-masc.mp3"," ","","muito","","","",""
"","1109","audio-keyboard-response","51","182790","0.0-3.0-1.27","../audio/39-5-masc.mp3"," ","","útil","","","",""
"","981","audio-keyboard-response","52","184121","0.0-3.0-1.28","../audio/39-6-masc.mp3"," ","","para","","","",""
"","1269","audio-keyboard-response","53","185742","0.0-3.0-1.29","../audio/39-7-masc.mp3"," ","","minha","","","",""
"","3461","audio-keyboard-response","54","189535","0.0-3.0-1.30","../audio/39-8-masc.mp3"," ","","tia.","","","",""
"","null","html-keyboard-response","55","190802","0.0-3.0-0.31-0.31","<span style= ""font-size:30px; font-family: monospace"">+</span>","null","fixation","","","","",""
"","1080","audio-keyboard-response","56","192247","0.0-3.0-1.31","../audio/40-1-masc.mp3"," ","","O","","","",""
"","1021","audio-keyboard-response","57","193599","0.0-3.0-1.32","../audio/40-2-masc.mp3"," ","","jogo","","","",""
"","949","audio-keyboard-response","58","194880","0.0-3.0-1.33","../audio/40-3-masc.mp3"," ","","falava","","","",""
"","880","audio-keyboard-response","59","196096","0.0-3.0-1.34","../audio/40-4-masc.mp3"," ","","de","","","",""
"","1411","audio-keyboard-response","60","197837","0.0-3.0-1.35","../audio/40-5-masc.mp3"," ","","fantasia","","","",""
"","909","audio-keyboard-response","61","199077","0.0-3.0-1.36","../audio/40-6-masc.mp3"," ","","e","","","",""
"","979","audio-keyboard-response","62","200387","0.0-3.0-1.37","../audio/40-7-masc.mp3"," ","","de","","","",""
"","1640","audio-keyboard-response","63","202370","0.0-3.0-1.38","../audio/40-8-masc.mp3"," ","","aventura.","","","",""
"","3223","html-keyboard-response","64","205858","0.0-3.0-2.38-0.38","<span style=""font-size:25px; font-family: monospace"">O jogo tinha fantasia e aventura?</span>","s","","","O jogo tinha fantasia e aventura?","null","exp-sent","false"
"","null","html-keyboard-response","65","207365","0.0-3.0-0.39-0.39","<span style= ""font-size:30px; font-family: monospace"">+</span>","null","fixation","","","","",""
"","1019","audio-keyboard-response","66","208747","0.0-3.0-1.39","../audio/57-1-masc.mp3"," ","","O","","","",""
"","1171","audio-keyboard-response","67","210248","0.0-3.0-1.40","../audio/57-2-masc.mp3"," ","","capitão","","","",""
"","968","audio-keyboard-response","68","211544","0.0-3.0-1.41","../audio/57-3-masc.mp3"," ","","deu","","","",""
"","1011","audio-keyboard-response","69","212887","0.0-3.0-1.42","../audio/57-4-masc.mp3"," ","","uma","","","",""
"","1240","audio-keyboard-response","70","214481","0.0-3.0-1.43","../audio/57-5-masc.mp3"," ","","instrução","","","",""
"","960","audio-keyboard-response","71","215758","0.0-3.0-1.44","../audio/57-6-masc.mp3"," ","","para","","","",""
"","960","audio-keyboard-response","72","217037","0.0-3.0-1.45","../audio/57-7-masc.mp3"," ","","as","","","",""
"","2600","audio-keyboard-response","73","219984","0.0-3.0-1.46","../audio/57-8-masc.mp3"," ","","pessoas.","","","",""
"","null","html-keyboard-response","74","221237","0.0-3.0-0.47-0.47","<span style= ""font-size:30px; font-family: monospace"">+</span>","null","fixation","","","","",""
"","1451","audio-keyboard-response","75","223090","0.0-3.0-1.47","../audio/58-1-fem.mp3"," ","","Havia","","","",""
"","1229","audio-keyboard-response","76","224669","0.0-3.0-1.48","../audio/58-2-fem.mp3"," ","","apenas","","","",""
"","869","audio-keyboard-response","77","225867","0.0-3.0-1.49","../audio/58-3-fem.mp3"," ","","um","","","",""
"","1291","audio-keyboard-response","78","227492","0.0-3.0-1.50","../audio/58-4-fem.mp3"," ","","último","","","",""
"","1341","audio-keyboard-response","79","229160","0.0-3.0-1.51","../audio/58-5-fem.mp3"," ","","herdeiro","","","",""
"","979","audio-keyboard-response","80","230462","0.0-3.0-1.52","../audio/58-6-fem.mp3"," ","","do","","","",""
"","2248","audio-keyboard-response","81","233062","0.0-3.0-1.53","../audio/58-7-fem.mp3"," ","","dinheiro.","","","",""
"","null","html-keyboard-response","82","234333","0.0-3.0-0.54-0.54","<span style= ""font-size:30px; font-family: monospace"">+</span>","null","fixation","","","","",""
"","272","audio-keyboard-response","83","234975","0.0-3.0-1.54","../audio/59-1-masc.mp3"," ","","O","","","",""
"","1331","audio-keyboard-response","84","236646","0.0-3.0-1.55","../audio/59-2-masc.mp3"," ","","carteiro","","","",""
"","1051","audio-keyboard-response","85","238027","0.0-3.0-1.56","../audio/59-3-masc.mp3"," ","","fez","","","",""
"","1069","audio-keyboard-response","86","239436","0.0-3.0-1.57","../audio/59-4-masc.mp3"," ","","uma","","","",""
"","1392","audio-keyboard-response","87","241169","0.0-3.0-1.58","../audio/59-5-masc.mp3"," ","","tentativa","","","",""
"","848","audio-keyboard-response","88","242345","0.0-3.0-1.59","../audio/59-6-masc.mp3"," ","","de","","","",""
"","2960","audio-keyboard-response","89","245651","0.0-3.0-1.60","../audio/59-7-masc.mp3"," ","","entrega.","","","",""
"","null","html-keyboard-response","90","246910","0.0-3.0-0.61-0.61","<span style= ""font-size:30px; font-family: monospace"">+</span>","null","fixation","","","","",""
"","1040","audio-keyboard-response","91","248316","0.0-3.0-1.61","../audio/56-1-fem.mp3"," ","","A","","","",""
"","1088","audio-keyboard-response","92","249737","0.0-3.0-1.62","../audio/56-2-fem.mp3"," ","","moça","","","",""
"","941","audio-keyboard-response","93","251015","0.0-3.0-1.63","../audio/56-3-fem.mp3"," ","","foi","","","",""
"","1080","audio-keyboard-response","94","252420","0.0-3.0-1.64","../audio/56-4-fem.mp3"," ","","à","","","",""
"","1400","audio-keyboard-response","95","254157","0.0-3.0-1.65","../audio/56-5-fem.mp3"," ","","agência","","","",""
"","1560","audio-keyboard-response","96","256076","0.0-3.0-1.66","../audio/56-6-fem.mp3"," ","","bancária","","","",""
"","1080","audio-keyboard-response","97","257491","0.0-3.0-1.67","../audio/56-7-fem.mp3"," ","","ontem","","","",""
"","960","audio-keyboard-response","98","258782","0.0-3.0-1.68","../audio/56-8-fem.mp3"," ","","de","","","",""
"","2981","audio-keyboard-response","99","262090","0.0-3.0-1.69","../audio/56-9-fem.mp3"," ","","tarde.","","","",""
"","null","html-keyboard-response","100","263366","0.0-3.0-0.70-0.70","<span style= ""font-size:30px; font-family: monospace"">+</span>","null","fixation","","","","",""
"","1221","audio-keyboard-response","101","264974","0.0-3.0-1.70","../audio/60-1-fem.mp3"," ","","Ondas","","","",""
"","981","audio-keyboard-response","102","266279","0.0-3.0-1.71","../audio/60-2-fem.mp3"," ","","têm","","","",""
"","981","audio-keyboard-response","103","267602","0.0-3.0-1.72","../audio/60-3-fem.mp3"," ","","um","","","",""
"","1368","audio-keyboard-response","104","269297","0.0-3.0-1.73","../audio/60-4-fem.mp3"," ","","impacto","","","",""
"","19","audio-keyboard-response","105","269656","0.0-3.0-1.74","../audio/60-5-fem.mp3"," ","","destrutivo","","","",""
"","1000","audio-keyboard-response","106","270977","0.0-3.0-1.75","../audio/60-6-fem.mp3"," ","","no","","","",""
"","1659","audio-keyboard-response","107","272980","0.0-3.0-1.76","../audio/60-7-fem.mp3"," ","","litoral.","","","",""
"","7179","html-keyboard-response","108","280424","0.0-3.0-2.76-0.76","<span style=""font-size:25px; font-family: monospace"">Ondas têm um impacto destrutivo?</span>","s","","","Ondas têm um impacto destrutivo?","null","exp-sent","false"
"","null","html-keyboard-response","109","281943","0.0-3.0-0.77-0.77","<span style= ""font-size:30px; font-family: monospace"">+</span>","null","fixation","","","","",""
"","1251","audio-keyboard-response","110","283560","0.0-3.0-1.77","../audio/31-1-masc.mp3"," ","","O","","","",""
"","1320","audio-keyboard-response","111","285232","0.0-3.0-1.78","../audio/31-2-masc.mp3"," ","","padeiro","","","",""
"","1171","audio-keyboard-response","112","286733","0.0-3.0-1.79","../audio/31-3-masc.mp3"," ","","usou","","","",""
"","981","audio-keyboard-response","113","288052","0.0-3.0-1.80","../audio/31-4-masc.mp3"," ","","a","","","",""
"","1280","audio-keyboard-response","114","289678","0.0-3.0-1.81","../audio/31-5-masc.mp3"," ","","balança","","","",""
"","1088","audio-keyboard-response","115","291100","0.0-3.0-1.82","../audio/31-6-masc.mp3"," ","","o","","","",""
"","1171","audio-keyboard-response","116","292608","0.0-3.0-1.83","../audio/31-7-masc.mp3"," ","","dia","","","",""
"","3320","audio-keyboard-response","117","296274","0.0-3.0-1.84","../audio/31-8-masc.mp3"," ","","inteiro.","","","",""
"","null","html-keyboard-response","118","297553","0.0-3.0-0.85-0.85","<span style= ""font-size:30px; font-family: monospace"">+</span>","null","fixation","","","","",""
"","381","audio-keyboard-response","119","298316","0.0-3.0-1.85","../audio/34-1-masc.mp3"," ","","Cobrança","","","",""
"","1280","audio-keyboard-response","120","299946","0.0-3.0-1.86","../audio/34-2-masc.mp3"," ","","excessiva","","","",""
"","851","audio-keyboard-response","121","301116","0.0-3.0-1.87","../audio/34-3-masc.mp3"," ","","é","","","",""
"","1019","audio-keyboard-response","122","302457","0.0-3.0-1.88","../audio/34-4-masc.mp3"," ","","um","","","",""
"","3261","audio-keyboard-response","123","306049","0.0-3.0-1.89","../audio/34-5-masc.mp3"," ","","fardo","","","",""
"","1248","audio-keyboard-response","124","307658","0.0-3.0-1.90","../audio/34-6-masc.mp3"," ","","para","","","",""
"","920","audio-keyboard-response","125","308897","0.0-3.0-1.91","../audio/34-7-masc.mp3"," ","","a","","","",""
"","3531","audio-keyboard-response","126","312763","0.0-3.0-1.92","../audio/34-8-masc.mp3"," ","","cabeça.","","","",""
"","null","html-keyboard-response","127","314029","0.0-3.0-0.93-0.93","<span style= ""font-size:30px; font-family: monospace"">+</span>","null","fixation","","","","",""
"","1011","audio-keyboard-response","128","315445","0.0-3.0-1.93","../audio/32-1-masc.mp3"," ","","A","","","",""
"","1051","audio-keyboard-response","129","316843","0.0-3.0-1.94","../audio/32-2-masc.mp3"," ","","tia","","","",""
"","1301","audio-keyboard-response","130","318491","0.0-3.0-1.95","../audio/32-3-masc.mp3"," ","","comprou","","","",""
"","960","audio-keyboard-response","131","319784","0.0-3.0-1.96","../audio/32-4-masc.mp3"," ","","um","","","",""
"","1109","audio-keyboard-response","132","321243","0.0-3.0-1.97","../audio/32-5-masc.mp3"," ","","pilão","","","",""
"","1011","audio-keyboard-response","133","322588","0.0-3.0-1.98","../audio/32-6-masc.mp3"," ","","para","","","",""
"","989","audio-keyboard-response","134","323915","0.0-3.0-1.99","../audio/32-7-masc.mp3"," ","","a","","","",""
"","2221","audio-keyboard-response","135","326478","0.0-3.0-1.100","../audio/32-8-masc.mp3"," ","","cozinha.","","","",""
"","null","html-keyboard-response","136","327740","0.0-3.0-0.101-0.101","<span style= ""font-size:30px; font-family: monospace"">+</span>","null","fixation","","","","",""
"","1040","audio-keyboard-response","137","329155","0.0-3.0-1.101","../audio/33-1-masc.mp3"," ","","Eles","","","",""
"","1171","audio-keyboard-response","138","330675","0.0-3.0-1.102","../audio/33-2-masc.mp3"," ","","sabem","","","",""
"","1008","audio-keyboard-response","139","332016","0.0-3.0-1.103","../audio/33-3-masc.mp3"," ","","do","","","",""
"","1131","audio-keyboard-response","140","333493","0.0-3.0-1.104","../audio/33-4-masc.mp3"," ","","seu","","","",""
"","1491","audio-keyboard-response","141","335334","0.0-3.0-1.105","../audio/33-5-masc.mp3"," ","","privilégio","","","",""
"","1149","audio-keyboard-response","142","336834","0.0-3.0-1.106","../audio/33-6-masc.mp3"," ","","nessa","","","",""
"","3101","audio-keyboard-response","143","340277","0.0-3.0-1.107","../audio/33-7-masc.mp3"," ","","confusão.","","","",""
"","null","html-keyboard-response","144","341547","0.0-3.0-0.108-0.108","<span style= ""font-size:30px; font-family: monospace"">+</span>","null","fixation","","","","",""
"","851","audio-keyboard-response","145","342746","0.0-3.0-1.108","../audio/35-1-masc.mp3"," ","","A","","","",""
"","1240","audio-keyboard-response","146","344309","0.0-3.0-1.109","../audio/35-2-masc.mp3"," ","","receita","","","",""
"","1139","audio-keyboard-response","147","345785","0.0-3.0-1.110","../audio/35-3-masc.mp3"," ","","para","","","",""
"","989","audio-keyboard-response","148","347119","0.0-3.0-1.111","../audio/35-4-masc.mp3"," ","","a","","","",""
"","1320","audio-keyboard-response","149","348775","0.0-3.0-1.112","../audio/35-5-masc.mp3"," ","","preparação","","","",""
"","880","audio-keyboard-response","150","349982","0.0-3.0-1.113","../audio/35-6-masc.mp3"," ","","do","","","",""
"","1139","audio-keyboard-response","151","351460","0.0-3.0-1.114","../audio/35-7-masc.mp3"," ","","bolo","","","",""
"","1011","audio-keyboard-response","152","352790","0.0-3.0-1.115","../audio/35-8-masc.mp3"," ","","é","","","",""
"","3440","audio-keyboard-response","153","356563","0.0-3.0-1.116","../audio/35-9-masc.mp3"," ","","leve.","","","",""
"","3133","html-keyboard-response","154","359958","0.0-3.0-2.116-0.116","<span style=""font-size:25px; font-family: monospace"">A receita do bolo é pesada?</span>","n","","","A receita do bolo é pesada?","null","exp-sent","false"
"","null","html-keyboard-response","155","361473","0.0-3.0-0.117-0.117","<span style= ""font-size:30px; font-family: monospace"">+</span>","null","fixation","","","","",""
"","1928","audio-keyboard-response","156","363780","0.0-3.0-1.117","../audio/53-1-fem.mp3"," ","","O","","","",""
"","1579","audio-keyboard-response","157","365748","0.0-3.0-1.118","../audio/53-2-fem.mp3"," ","","médico","","","",""
"","1200","audio-keyboard-response","158","367283","0.0-3.0-1.119","../audio/53-3-fem.mp3"," ","","foi","","","",""
"","1309","audio-keyboard-response","159","368962","0.0-3.0-1.120","../audio/53-4-fem.mp3"," ","","bastante","","","",""
"","1579","audio-keyboard-response","160","370869","0.0-3.0-1.121","../audio/53-5-fem.mp3"," ","","preciso","","","",""
"","1200","audio-keyboard-response","161","372410","0.0-3.0-1.122","../audio/53-6-fem.mp3"," ","","durante","","","",""
"","960","audio-keyboard-response","162","373701","0.0-3.0-1.123","../audio/53-7-fem.mp3"," ","","a","","","",""
"","2171","audio-keyboard-response","163","376200","0.0-3.0-1.124","../audio/53-8-fem.mp3"," ","","cirurgia.","","","",""
"","null","html-keyboard-response","164","377466","0.0-3.0-0.125-0.125","<span style= ""font-size:30px; font-family: monospace"">+</span>","null","fixation","","","","",""
"","1189","audio-keyboard-response","165","379019","0.0-3.0-1.125","../audio/51-1-masc.mp3"," ","","Suco","","","",""
"","891","audio-keyboard-response","166","380253","0.0-3.0-1.126","../audio/51-2-masc.mp3"," ","","de","","","",""
"","1411","audio-keyboard-response","167","382004","0.0-3.0-1.127","../audio/51-3-masc.mp3"," ","","acerola","","","",""
"","909","audio-keyboard-response","168","383240","0.0-3.0-1.128","../audio/51-4-masc.mp3"," ","","é","","","",""
"","1371","audio-keyboard-response","169","384946","0.0-3.0-1.129","../audio/51-5-masc.mp3"," ","","azedo","","","",""
"","949","audio-keyboard-response","170","386239","0.0-3.0-1.130","../audio/51-6-masc.mp3"," ","","e","","","",""
"","1309","audio-keyboard-response","171","387876","0.0-3.0-1.131","../audio/51-7-masc.mp3"," ","","até","","","",""
"","4240","audio-keyboard-response","172","392442","0.0-3.0-1.132","../audio/51-8-masc.mp3"," ","","barato.","","","",""
"","null","html-keyboard-response","173","393709","0.0-3.0-0.133-0.133","<span style= ""font-size:30px; font-family: monospace"">+</span>","null","fixation","","","","",""
"","1520","audio-keyboard-response","174","395615","0.0-3.0-1.133","../audio/54-1-fem.mp3"," ","","Estou","","","",""
"","1320","audio-keyboard-response","175","397274","0.0-3.0-1.134","../audio/54-2-fem.mp3"," ","","com","","","",""
"","1931","audio-keyboard-response","176","399550","0.0-3.0-1.135","../audio/54-3-fem.mp3"," ","","medo","","","",""
"","931","audio-keyboard-response","177","400833","0.0-3.0-1.136","../audio/54-4-fem.mp3"," ","","da","","","",""
"","1408","audio-keyboard-response","178","402576","0.0-3.0-1.137","../audio/54-5-fem.mp3"," ","","atual","","","",""
"","1709","audio-keyboard-response","179","404631","0.0-3.0-1.138","../audio/54-6-fem.mp3"," ","","organização","","","",""
"","1011","audio-keyboard-response","180","406008","0.0-3.0-1.139","../audio/54-7-fem.mp3"," ","","do","","","",""
"","2680","audio-keyboard-response","181","409029","0.0-3.0-1.140","../audio/54-8-fem.mp3"," ","","país.","","","",""
"","null","html-keyboard-response","182","410284","0.0-3.0-0.141-0.141","<span style= ""font-size:30px; font-family: monospace"">+</span>","null","fixation","","","","",""
"","1200","audio-keyboard-response","183","411852","0.0-3.0-1.141","../audio/52-1-masc.mp3"," ","","Às","","","",""
"","960","audio-keyboard-response","184","413154","0.0-3.0-1.142","../audio/52-2-masc.mp3"," ","","vezes","","","",""
"","880","audio-keyboard-response","185","414358","0.0-3.0-1.143","../audio/52-3-masc.mp3"," ","","eu","","","",""
"","979","audio-keyboard-response","186","415666","0.0-3.0-1.144","../audio/52-4-masc.mp3"," ","","tenho","","","",""
"","1219","audio-keyboard-response","187","417221","0.0-3.0-1.145","../audio/52-5-masc.mp3"," ","","azia","","","",""
"","1059","audio-keyboard-response","188","418621","0.0-3.0-1.146","../audio/52-6-masc.mp3"," ","","depois","","","",""
"","1021","audio-keyboard-response","189","419975","0.0-3.0-1.147","../audio/52-7-masc.mp3"," ","","da","","","",""
"","3008","audio-keyboard-response","190","423337","0.0-3.0-1.148","../audio/52-8-masc.mp3"," ","","janta.","","","",""
"","null","html-keyboard-response","191","424613","0.0-3.0-0.149-0.149","<span style= ""font-size:30px; font-family: monospace"">+</span>","null","fixation","","","","",""
"","1069","audio-keyboard-response","192","426045","0.0-3.0-1.149","../audio/55-1-fem.mp3"," ","","O","","","",""
"","1651","audio-keyboard-response","193","428053","0.0-3.0-1.150","../audio/55-2-fem.mp3"," ","","insulto","","","",""
"","1811","audio-keyboard-response","194","430212","0.0-3.0-1.151","../audio/55-3-fem.mp3"," ","","recente","","","",""
"","1360","audio-keyboard-response","195","431925","0.0-3.0-1.152","../audio/55-4-fem.mp3"," ","","causou","","","",""
"","1869","audio-keyboard-response","196","434156","0.0-3.0-1.153","../audio/55-5-fem.mp3"," ","","indignação","","","",""
"","1200","audio-keyboard-response","197","435699","0.0-3.0-1.154","../audio/55-6-fem.mp3"," ","","em","","","",""
"","3309","audio-keyboard-response","198","439339","0.0-3.0-1.155","../audio/55-7-fem.mp3"," ","","todos.","","","",""
"","5416","html-keyboard-response","199","445021","0.0-3.0-2.155-0.155","<span style=""font-size:25px; font-family: monospace"">O insulto causou calmaria?</span>","s","","","O insulto causou calmaria?","null","exp-sent","false"
"","null","html-keyboard-response","200","446534","0.0-3.0-0.156-0.156","<span style= ""font-size:30px; font-family: monospace"">+</span>","null","fixation","","","","",""
"","1240","audio-keyboard-response","201","448184","0.0-3.0-1.156","../audio/26-1-masc.mp3"," ","","Amanhã","","","",""
"","1021","audio-keyboard-response","202","449528","0.0-3.0-1.157","../audio/26-2-masc.mp3"," ","","temos","","","",""
"","1032","audio-keyboard-response","203","450896","0.0-3.0-1.158","../audio/26-3-masc.mp3"," ","","festa","","","",""
"","1171","audio-keyboard-response","204","452398","0.0-3.0-1.159","../audio/26-4-masc.mp3"," ","","na","","","",""
"","1309","audio-keyboard-response","205","454044","0.0-3.0-1.160","../audio/26-5-masc.mp3"," ","","piscina","","","",""
"","1040","audio-keyboard-response","206","455409","0.0-3.0-1.161","../audio/26-6-masc.mp3"," ","","o","","","",""
"","1139","audio-keyboard-response","207","456866","0.0-3.0-1.162","../audio/26-7-masc.mp3"," ","","dia","","","",""
"","2059","audio-keyboard-response","208","459265","0.0-3.0-1.163","../audio/26-8-masc.mp3"," ","","todo.","","","",""
"","null","html-keyboard-response","209","460528","0.0-3.0-0.164-0.164","<span style= ""font-size:30px; font-family: monospace"">+</span>","null","fixation","","","","",""
"","1080","audio-keyboard-response","210","461966","0.0-3.0-1.164","../audio/28-1-masc.mp3"," ","","O","","","",""
"","1080","audio-keyboard-response","211","463395","0.0-3.0-1.165","../audio/28-2-masc.mp3"," ","","time","","","",""
"","1301","audio-keyboard-response","212","465037","0.0-3.0-1.166","../audio/28-3-masc.mp3"," ","","quer","","","",""
"","1059","audio-keyboard-response","213","466417","0.0-3.0-1.167","../audio/28-4-masc.mp3"," ","","a","","","",""
"","1339","audio-keyboard-response","214","468096","0.0-3.0-1.168","../audio/28-5-masc.mp3"," ","","vitória","","","",""
"","1240","audio-keyboard-response","215","469673","0.0-3.0-1.169","../audio/28-6-masc.mp3"," ","","no","","","",""
"","1120","audio-keyboard-response","216","471136","0.0-3.0-1.170","../audio/28-7-masc.mp3"," ","","jogo","","","",""
"","920","audio-keyboard-response","217","472387","0.0-3.0-1.171","../audio/28-8-masc.mp3"," ","","de","","","",""
"","2451","audio-keyboard-response","218","475187","0.0-3.0-1.172","../audio/28-9-masc.mp3"," ","","vôlei.","","","",""
"","null","html-keyboard-response","219","476454","0.0-3.0-0.173-0.173","<span style= ""font-size:30px; font-family: monospace"">+</span>","null","fixation","","","","",""
"","1389","audio-keyboard-response","220","478235","0.0-3.0-1.173","../audio/29-1-fem.mp3"," ","","Hoje","","","",""
"","1139","audio-keyboard-response","221","479746","0.0-3.0-1.174","../audio/29-2-fem.mp3"," ","","vamos","","","",""
"","1240","audio-keyboard-response","222","481337","0.0-3.0-1.175","../audio/29-3-fem.mp3"," ","","fazer","","","",""
"","1099","audio-keyboard-response","223","482779","0.0-3.0-1.176","../audio/29-4-fem.mp3"," ","","uma","","","",""
"","1720","audio-keyboard-response","224","484864","0.0-3.0-1.177","../audio/29-5-fem.mp3"," ","","atividade","","","",""
"","1189","audio-keyboard-response","225","486436","0.0-3.0-1.178","../audio/29-6-fem.mp3"," ","","sobre","","","",""
"","1112","audio-keyboard-response","226","487887","0.0-3.0-1.179","../audio/29-7-fem.mp3"," ","","fauna","","","",""
"","3781","audio-keyboard-response","227","492012","0.0-3.0-1.180","../audio/29-8-fem.mp3"," ","","marinha.","","","",""
"","null","html-keyboard-response","228","493282","0.0-3.0-0.181-0.181","<span style= ""font-size:30px; font-family: monospace"">+</span>","null","fixation","","","","",""
"","979","audio-keyboard-response","229","494620","0.0-3.0-1.181","../audio/27-1-fem.mp3"," ","","O","","","",""
"","1181","audio-keyboard-response","230","496116","0.0-3.0-1.182","../audio/27-2-fem.mp3"," ","","dinheiro","","","",""
"","1189","audio-keyboard-response","231","497656","0.0-3.0-1.183","../audio/27-3-fem.mp3"," ","","chegou","","","",""
"","891","audio-keyboard-response","232","498871","0.0-3.0-1.184","../audio/27-4-fem.mp3"," ","","à","","","",""
"","1488","audio-keyboard-response","233","500699","0.0-3.0-1.185","../audio/27-5-fem.mp3"," ","","elite","","","",""
"","1211","audio-keyboard-response","234","502229","0.0-3.0-1.186","../audio/27-6-fem.mp3"," ","","deste","","","",""
"","3269","audio-keyboard-response","235","505842","0.0-3.0-1.187","../audio/27-7-fem.mp3"," ","","país.","","","",""
"","null","html-keyboard-response","236","507106","0.0-3.0-0.188-0.188","<span style= ""font-size:30px; font-family: monospace"">+</span>","null","fixation","","","","",""
"","819","audio-keyboard-response","237","508302","0.0-3.0-1.188","../audio/30-1-fem.mp3"," ","","O","","","",""
"","1531","audio-keyboard-response","238","510161","0.0-3.0-1.189","../audio/30-2-fem.mp3"," ","","funcionário","","","",""
"","1389","audio-keyboard-response","239","511900","0.0-3.0-1.190","../audio/30-3-fem.mp3"," ","","entregou","","","",""
"","1131","audio-keyboard-response","240","513345","0.0-3.0-1.191","../audio/30-4-fem.mp3"," ","","o","","","",""
"","1291","audio-keyboard-response","241","514960","0.0-3.0-1.192","../audio/30-5-fem.mp3"," ","","restante","","","",""
"","829","audio-keyboard-response","242","516123","0.0-3.0-1.193","../audio/30-6-fem.mp3"," ","","do","","","",""
"","3568","audio-keyboard-response","243","520016","0.0-3.0-1.194","../audio/30-7-fem.mp3"," ","","dinheiro.","","","",""
"","12673","html-keyboard-response","244","532943","0.0-3.0-2.194-0.194","<span style=""font-size:25px; font-family: monospace"">O funcionário entregou o contrato?</span>","n","","","O funcionário entregou o contrato?","null","exp-sent","false"
"","null","html-keyboard-response","245","534454","0.0-3.0-0.195-0.195","<span style= ""font-size:30px; font-family: monospace"">+</span>","null","fixation","","","","",""
"","1251","audio-keyboard-response","246","536073","0.0-3.0-1.195","../audio/11-1-fem.mp3"," ","","Elas","","","",""
"","1160","audio-keyboard-response","247","537566","0.0-3.0-1.196","../audio/11-2-fem.mp3"," ","","gostam","","","",""
"","1160","audio-keyboard-response","248","539062","0.0-3.0-1.197","../audio/11-3-fem.mp3"," ","","muito","","","",""
"","1080","audio-keyboard-response","249","540472","0.0-3.0-1.198","../audio/11-4-fem.mp3"," ","","de","","","",""
"","1960","audio-keyboard-response","250","542785","0.0-3.0-1.199","../audio/11-5-fem.mp3"," ","","aritmética","","","",""
"","1709","audio-keyboard-response","251","544838","0.0-3.0-1.200","../audio/11-6-fem.mp3"," ","","e","","","",""
"","1080","audio-keyboard-response","252","546282","0.0-3.0-1.201","../audio/11-7-fem.mp3"," ","","de","","","",""
"","3360","audio-keyboard-response","253","549989","0.0-3.0-1.202","../audio/11-8-fem.mp3"," ","","leitura.","","","",""
"","null","html-keyboard-response","254","551272","0.0-3.0-0.203-0.203","<span style= ""font-size:30px; font-family: monospace"">+</span>","null","fixation","","","","",""
"","960","audio-keyboard-response","255","552604","0.0-3.0-1.203","../audio/13-1-fem.mp3"," ","","Para","","","",""
"","1328","audio-keyboard-response","256","554260","0.0-3.0-1.204","../audio/13-2-fem.mp3"," ","","mim","","","",""
"","1629","audio-keyboard-response","257","556223","0.0-3.0-1.205","../audio/13-3-fem.mp3"," ","","é","","","",""
"","1309","audio-keyboard-response","258","557866","0.0-3.0-1.206","../audio/13-4-fem.mp3"," ","","muito","","","",""
"","1269","audio-keyboard-response","259","559484","0.0-3.0-1.207","../audio/13-5-fem.mp3"," ","","difícil","","","",""
"","1451","audio-keyboard-response","260","561266","0.0-3.0-1.208","../audio/13-6-fem.mp3"," ","","acordar","","","",""
"","2651","audio-keyboard-response","261","564250","0.0-3.0-1.209","../audio/13-7-fem.mp3"," ","","cedo.","","","",""
"","null","html-keyboard-response","262","565530","0.0-3.0-0.210-0.210","<span style= ""font-size:30px; font-family: monospace"">+</span>","null","fixation","","","","",""
"","811","audio-keyboard-response","263","566748","0.0-3.0-1.210","../audio/12-1-fem.mp3"," ","","O","","","",""
"","909","audio-keyboard-response","264","568001","0.0-3.0-1.211","../audio/12-2-fem.mp3"," ","","dia","","","",""
"","1139","audio-keyboard-response","265","569497","0.0-3.0-1.212","../audio/12-3-fem.mp3"," ","","estava","","","",""
"","1101","audio-keyboard-response","266","570975","0.0-3.0-1.213","../audio/12-4-fem.mp3"," ","","quente,","","","",""
"","1371","audio-keyboard-response","267","572692","0.0-3.0-1.214","../audio/12-5-fem.mp3"," ","","tranquilo","","","",""
"","909","audio-keyboard-response","268","573916","0.0-3.0-1.215","../audio/12-6-fem.mp3"," ","","e","","","",""
"","5392","audio-keyboard-response","269","579647","0.0-3.0-1.216","../audio/12-7-fem.mp3"," ","","ensolarado.","","","",""
"","null","html-keyboard-response","270","580909","0.0-3.0-0.217-0.217","<span style= ""font-size:30px; font-family: monospace"">+</span>","null","fixation","","","","",""
"","1141","audio-keyboard-response","271","582400","0.0-3.0-1.217","../audio/14-1-masc.mp3"," ","","O","","","",""
"","1349","audio-keyboard-response","272","584080","0.0-3.0-1.218","../audio/14-2-masc.mp3"," ","","cachorro","","","",""
"","920","audio-keyboard-response","273","585331","0.0-3.0-1.219","../audio/14-3-masc.mp3"," ","","é","","","",""
"","1000","audio-keyboard-response","274","586647","0.0-3.0-1.220","../audio/14-4-masc.mp3"," ","","muito","","","",""
"","1101","audio-keyboard-response","275","588087","0.0-3.0-1.221","../audio/14-5-masc.mp3"," ","","fiel","","","",""
"","909","audio-keyboard-response","276","589316","0.0-3.0-1.222","../audio/14-6-masc.mp3"," ","","a","","","",""
"","1008","audio-keyboard-response","277","590666","0.0-3.0-1.223","../audio/14-7-masc.mp3"," ","","seus","","","",""
"","2560","audio-keyboard-response","278","593554","0.0-3.0-1.224","../audio/14-8-masc.mp3"," ","","donos.","","","",""
"","null","html-keyboard-response","279","594818","0.0-3.0-0.225-0.225","<span style= ""font-size:30px; font-family: monospace"">+</span>","null","fixation","","","","",""
"","992","audio-keyboard-response","280","596169","0.0-3.0-1.225","../audio/15-1-masc.mp3"," ","","Meu","","","",""
"","1040","audio-keyboard-response","281","597552","0.0-3.0-1.226","../audio/15-2-masc.mp3"," ","","primo","","","",""
"","981","audio-keyboard-response","282","598846","0.0-3.0-1.227","../audio/15-3-masc.mp3"," ","","é","","","",""
"","949","audio-keyboard-response","283","600121","0.0-3.0-1.228","../audio/15-4-masc.mp3"," ","","um","","","",""
"","1240","audio-keyboard-response","284","601703","0.0-3.0-1.229","../audio/15-5-masc.mp3"," ","","grande","","","",""
"","1419","audio-keyboard-response","285","603460","0.0-3.0-1.230","../audio/15-6-masc.mp3"," ","","vendedor","","","",""
"","1061","audio-keyboard-response","286","604854","0.0-3.0-1.231","../audio/15-7-masc.mp3"," ","","de","","","",""
"","3531","audio-keyboard-response","287","608725","0.0-3.0-1.232","../audio/15-8-masc.mp3"," ","","carros.","","","",""
"","2614","html-keyboard-response","288","611594","0.0-3.0-2.232-0.232","<span style=""font-size:25px; font-family: monospace"">O primo é um vendedor de carros?</span>","s","","","O primo é um vendedor de carros?","null","exp-sent","false"
"","null","html-keyboard-response","289","613124","0.0-3.0-0.233-0.233","<span style= ""font-size:30px; font-family: monospace"">+</span>","null","fixation","","","","",""
"","971","audio-keyboard-response","290","614447","0.0-3.0-1.233","../audio/08-1-masc.mp3"," ","","A","","","",""
"","1181","audio-keyboard-response","291","615966","0.0-3.0-1.234","../audio/08-2-masc.mp3"," ","","receita","","","",""
"","891","audio-keyboard-response","292","617188","0.0-3.0-1.235","../audio/08-3-masc.mp3"," ","","pede","","","",""
"","840","audio-keyboard-response","293","618367","0.0-3.0-1.236","../audio/08-4-masc.mp3"," ","","um","","","",""
"","1072","audio-keyboard-response","294","619767","0.0-3.0-1.237","../audio/08-5-masc.mp3"," ","","litro","","","",""
"","851","audio-keyboard-response","295","620949","0.0-3.0-1.238","../audio/08-6-masc.mp3"," ","","de","","","",""
"","1000","audio-keyboard-response","296","622285","0.0-3.0-1.239","../audio/08-7-masc.mp3"," ","","leite","","","",""
"","1648","audio-keyboard-response","297","624263","0.0-3.0-1.240","../audio/08-8-masc.mp3"," ","","integral.","","","",""
"","null","html-keyboard-response","298","625533","0.0-3.0-0.241-0.241","<span style= ""font-size:30px; font-family: monospace"">+</span>","null","fixation","","","","",""
"","1571","audio-keyboard-response","299","627469","0.0-3.0-1.241","../audio/06-1-fem.mp3"," ","","Ouvimos","","","",""
"","941","audio-keyboard-response","300","628767","0.0-3.0-1.242","../audio/06-2-fem.mp3"," ","","a","","","",""
"","392","audio-keyboard-response","301","629490","0.0-3.0-1.243","../audio/06-3-fem.mp3"," ","","fala","","","",""
"","960","audio-keyboard-response","302","630773","0.0-3.0-1.244","../audio/06-4-fem.mp3"," ","","do","","","",""
"","1331","audio-keyboard-response","303","632447","0.0-3.0-1.245","../audio/06-5-fem.mp3"," ","","profeta","","","",""
"","1840","audio-keyboard-response","304","634608","0.0-3.0-1.246","../audio/06-6-fem.mp3"," ","","no","","","",""
"","1211","audio-keyboard-response","305","636176","0.0-3.0-1.247","../audio/06-7-fem.mp3"," ","","púlpito","","","",""
"","981","audio-keyboard-response","306","637494","0.0-3.0-1.248","../audio/06-8-fem.mp3"," ","","da","","","",""
"","2309","audio-keyboard-response","307","640147","0.0-3.0-1.249","../audio/06-9-fem.mp3"," ","","igreja.","","","",""
"","null","html-keyboard-response","308","641413","0.0-3.0-0.250-0.250","<span style= ""font-size:30px; font-family: monospace"">+</span>","null","fixation","","","","",""
"","1032","audio-keyboard-response","309","642807","0.0-3.0-1.250","../audio/07-1-masc.mp3"," ","","Meu","","","",""
"","1101","audio-keyboard-response","310","644245","0.0-3.0-1.251","../audio/07-2-masc.mp3"," ","","filho","","","",""
"","960","audio-keyboard-response","311","645549","0.0-3.0-1.252","../audio/07-3-masc.mp3"," ","","é","","","",""
"","1040","audio-keyboard-response","312","646919","0.0-3.0-1.253","../audio/07-4-masc.mp3"," ","","muito","","","",""
"","1560","audio-keyboard-response","313","648834","0.0-3.0-1.254","../audio/07-5-masc.mp3"," ","","responsável","","","",""
"","1171","audio-keyboard-response","314","650314","0.0-3.0-1.255","../audio/07-6-masc.mp3"," ","","nos","","","",""
"","3131","audio-keyboard-response","315","653792","0.0-3.0-1.256","../audio/07-7-masc.mp3"," ","","estudos.","","","",""
"","null","html-keyboard-response","316","655058","0.0-3.0-0.257-0.257","<span style= ""font-size:30px; font-family: monospace"">+</span>","null","fixation","","","","",""
"","931","audio-keyboard-response","317","656355","0.0-3.0-1.257","../audio/09-1-fem.mp3"," ","","O","","","",""
"","1112","audio-keyboard-response","318","657812","0.0-3.0-1.258","../audio/09-2-fem.mp3"," ","","rapaz","","","",""
"","1272","audio-keyboard-response","319","659414","0.0-3.0-1.259","../audio/09-3-fem.mp3"," ","","limpou","","","",""
"","1051","audio-keyboard-response","320","660803","0.0-3.0-1.260","../audio/09-4-fem.mp3"," ","","o","","","",""
"","1320","audio-keyboard-response","321","662465","0.0-3.0-1.261","../audio/09-5-fem.mp3"," ","","terreno","","","",""
"","1000","audio-keyboard-response","322","663794","0.0-3.0-1.262","../audio/09-6-fem.mp3"," ","","com","","","",""
"","960","audio-keyboard-response","323","665095","0.0-3.0-1.263","../audio/09-7-fem.mp3"," ","","uma","","","",""
"","920","audio-keyboard-response","324","666341","0.0-3.0-1.264","../audio/09-8-fem.mp3"," ","","pá.","","","",""
"","null","html-keyboard-response","325","667610","0.0-3.0-0.265-0.265","<span style= ""font-size:30px; font-family: monospace"">+</span>","null","fixation","","","","",""
"","829","audio-keyboard-response","326","668797","0.0-3.0-1.265","../audio/10-1-fem.mp3"," ","","O","","","",""
"","1309","audio-keyboard-response","327","670461","0.0-3.0-1.266","../audio/10-2-fem.mp3"," ","","pássaro","","","",""
"","1261","audio-keyboard-response","328","672052","0.0-3.0-1.267","../audio/10-3-fem.mp3"," ","","azul","","","",""
"","1339","audio-keyboard-response","329","673745","0.0-3.0-1.268","../audio/10-4-fem.mp3"," ","","estava","","","",""
"","1179","audio-keyboard-response","330","675274","0.0-3.0-1.269","../audio/10-5-fem.mp3"," ","","vivo","","","",""
"","949","audio-keyboard-response","331","676563","0.0-3.0-1.270","../audio/10-6-fem.mp3"," ","","e","","","",""
"","1029","audio-keyboard-response","332","677909","0.0-3.0-1.271","../audio/10-7-fem.mp3"," ","","em","","","",""
"","3629","audio-keyboard-response","333","681905","0.0-3.0-1.272","../audio/10-8-fem.mp3"," ","","segurança.","","","",""
"","5411","html-keyboard-response","334","687575","0.0-3.0-2.272-0.272","<span style=""font-size:25px; font-family: monospace"">O pássaro vermelho estava em segurança?</span>","s","","","O pássaro vermelho estava em segurança?","null","exp-sent","false"
"","null","html-keyboard-response","335","689103","0.0-3.0-0.273-0.273","<span style= ""font-size:30px; font-family: monospace"">+</span>","null","fixation","","","","",""
"","1269","audio-keyboard-response","336","690742","0.0-3.0-1.273","../audio/42-1-fem.mp3"," ","","Eu","","","",""
"","1061","audio-keyboard-response","337","692127","0.0-3.0-1.274","../audio/42-2-fem.mp3"," ","","fui","","","",""
"","1069","audio-keyboard-response","338","693522","0.0-3.0-1.275","../audio/42-3-fem.mp3"," ","","a","","","",""
"","1000","audio-keyboard-response","339","694854","0.0-3.0-1.276","../audio/42-4-fem.mp3"," ","","uma","","","",""
"","981","audio-keyboard-response","340","696169","0.0-3.0-1.277","../audio/42-5-fem.mp3"," ","","loja","","","",""
"","909","audio-keyboard-response","341","697403","0.0-3.0-1.278","../audio/42-6-fem.mp3"," ","","de","","","",""
"","1192","audio-keyboard-response","342","698933","0.0-3.0-1.279","../audio/42-7-fem.mp3"," ","","móveis","","","",""
"","1011","audio-keyboard-response","343","700271","0.0-3.0-1.280","../audio/42-8-fem.mp3"," ","","no","","","",""
"","2480","audio-keyboard-response","344","703079","0.0-3.0-1.281","../audio/42-9-fem.mp3"," ","","bairro.","","","",""
"","null","html-keyboard-response","345","704353","0.0-3.0-0.282-0.282","<span style= ""font-size:30px; font-family: monospace"">+</span>","null","fixation","","","","",""
"","971","audio-keyboard-response","346","705681","0.0-3.0-1.282","../audio/41-1-fem.mp3"," ","","A","","","",""
"","1400","audio-keyboard-response","347","707436","0.0-3.0-1.283","../audio/41-2-fem.mp3"," ","","novela","","","",""
"","1491","audio-keyboard-response","348","709283","0.0-3.0-1.284","../audio/41-3-fem.mp3"," ","","falava","","","",""
"","1091","audio-keyboard-response","349","710732","0.0-3.0-1.285","../audio/41-4-fem.mp3"," ","","de","","","",""
"","1771","audio-keyboard-response","350","712837","0.0-3.0-1.286","../audio/41-5-fem.mp3"," ","","paixão","","","",""
"","1189","audio-keyboard-response","351","714520","0.0-3.0-1.287","../audio/41-6-fem.mp3"," ","","e","","","",""
"","3952","audio-keyboard-response","352","718895","0.0-3.0-1.288","../audio/41-7-fem.mp3"," ","","comédia.","","","",""
"","null","html-keyboard-response","353","720163","0.0-3.0-0.289-0.289","<span style= ""font-size:30px; font-family: monospace"">+</span>","null","fixation","","","","",""
"","909","audio-keyboard-response","354","721445","0.0-3.0-1.289","../audio/43-1-fem.mp3"," ","","Eu","","","",""
"","1331","audio-keyboard-response","355","723123","0.0-3.0-1.290","../audio/43-2-fem.mp3"," ","","achei","","","",""
"","1019","audio-keyboard-response","356","724473","0.0-3.0-1.291","../audio/43-3-fem.mp3"," ","","um","","","",""
"","1251","audio-keyboard-response","357","726088","0.0-3.0-1.292","../audio/43-4-fem.mp3"," ","","colchão","","","",""
"","1040","audio-keyboard-response","358","727472","0.0-3.0-1.293","../audio/43-5-fem.mp3"," ","","velho","","","",""
"","1080","audio-keyboard-response","359","728871","0.0-3.0-1.294","../audio/43-6-fem.mp3"," ","","e","","","",""
"","1291","audio-keyboard-response","360","730486","0.0-3.0-1.295","../audio/43-7-fem.mp3"," ","","imundo","","","",""
"","1032","audio-keyboard-response","361","731855","0.0-3.0-1.296","../audio/43-8-fem.mp3"," ","","na","","","",""
"","2731","audio-keyboard-response","362","734936","0.0-3.0-1.297","../audio/43-9-fem.mp3"," ","","casa.","","","",""
"","null","html-keyboard-response","363","736201","0.0-3.0-0.298-0.298","<span style= ""font-size:30px; font-family: monospace"">+</span>","null","fixation","","","","",""
"","1141","audio-keyboard-response","364","737695","0.0-3.0-1.298","../audio/44-1-masc.mp3"," ","","Meus","","","",""
"","1080","audio-keyboard-response","365","739106","0.0-3.0-1.299","../audio/44-2-masc.mp3"," ","","irmãos","","","",""
"","1189","audio-keyboard-response","366","740620","0.0-3.0-1.300","../audio/44-3-masc.mp3"," ","","brigam","","","",""
"","931","audio-keyboard-response","367","741891","0.0-3.0-1.301","../audio/44-4-masc.mp3"," ","","por","","","",""
"","1221","audio-keyboard-response","368","743447","0.0-3.0-1.302","../audio/44-5-masc.mp3"," ","","bobagem","","","",""
"","931","audio-keyboard-response","369","744707","0.0-3.0-1.303","../audio/44-6-masc.mp3"," ","","todos","","","",""
"","1269","audio-keyboard-response","370","746295","0.0-3.0-1.304","../audio/44-7-masc.mp3"," ","","os","","","",""
"","2560","audio-keyboard-response","371","749186","0.0-3.0-1.305","../audio/44-8-masc.mp3"," ","","dias.","","","",""
"","null","html-keyboard-response","372","750448","0.0-3.0-0.306-0.306","<span style= ""font-size:30px; font-family: monospace"">+</span>","null","fixation","","","","",""
"","880","audio-keyboard-response","373","751688","0.0-3.0-1.306","../audio/45-1-fem.mp3"," ","","O","","","",""
"","971","audio-keyboard-response","374","752988","0.0-3.0-1.307","../audio/45-2-fem.mp3"," ","","homem","","","",""
"","1168","audio-keyboard-response","375","754498","0.0-3.0-1.308","../audio/45-3-fem.mp3"," ","","pagou","","","",""
"","821","audio-keyboard-response","376","755641","0.0-3.0-1.309","../audio/45-4-fem.mp3"," ","","o","","","",""
"","1411","audio-keyboard-response","377","757387","0.0-3.0-1.310","../audio/45-5-fem.mp3"," ","","aluguel","","","",""
"","891","audio-keyboard-response","378","758606","0.0-3.0-1.311","../audio/45-6-fem.mp3"," ","","com","","","",""
"","3288","audio-keyboard-response","379","762224","0.0-3.0-1.312","../audio/45-7-fem.mp3"," ","","atraso.","","","",""
"","3863","html-keyboard-response","380","766339","0.0-3.0-2.312-0.312","<span style=""font-size:25px; font-family: monospace"">O homem pagou o aluguel em dia?</span>","n","","","O homem pagou o aluguel em dia?","null","exp-sent","false"
"","null","html-keyboard-response","381","767864","0.0-3.0-0.313-0.313","<span style= ""font-size:30px; font-family: monospace"">+</span>","null","fixation","","","","",""
"","1072","audio-keyboard-response","382","769293","0.0-3.0-1.313","../audio/16-1-fem.mp3"," ","","Eu","","","",""
"","1400","audio-keyboard-response","383","771035","0.0-3.0-1.314","../audio/16-2-fem.mp3"," ","","nunca","","","",""
"","1608","audio-keyboard-response","384","772977","0.0-3.0-1.315","../audio/16-3-fem.mp3"," ","","conheci","","","",""
"","971","audio-keyboard-response","385","774268","0.0-3.0-1.316","../audio/16-4-fem.mp3"," ","","um","","","",""
"","1429","audio-keyboard-response","386","776040","0.0-3.0-1.317","../audio/16-5-fem.mp3"," ","","general","","","",""
"","869","audio-keyboard-response","387","777226","0.0-3.0-1.318","../audio/16-6-fem.mp3"," ","","do","","","",""
"","1309","audio-keyboard-response","388","778905","0.0-3.0-1.319","../audio/16-7-fem.mp3"," ","","exército.","","","",""
"","null","html-keyboard-response","389","780173","0.0-3.0-0.320-0.320","<span style= ""font-size:30px; font-family: monospace"">+</span>","null","fixation","","","","",""
"","1259","audio-keyboard-response","390","781827","0.0-3.0-1.320","../audio/17-1-fem.mp3"," ","","Falaram","","","",""
"","861","audio-keyboard-response","391","783007","0.0-3.0-1.321","../audio/17-2-fem.mp3"," ","","da","","","",""
"","960","audio-keyboard-response","392","784289","0.0-3.0-1.322","../audio/17-3-fem.mp3"," ","","lei","","","",""
"","981","audio-keyboard-response","393","785613","0.0-3.0-1.323","../audio/17-4-fem.mp3"," ","","no","","","",""
"","1608","audio-keyboard-response","394","787578","0.0-3.0-1.324","../audio/17-5-fem.mp3"," ","","ministério","","","",""
"","1240","audio-keyboard-response","395","789164","0.0-3.0-1.325","../audio/17-6-fem.mp3"," ","","diversas","","","",""
"","2701","audio-keyboard-response","396","792204","0.0-3.0-1.326","../audio/17-7-fem.mp3"," ","","vezes.","","","",""
"","null","html-keyboard-response","397","793463","0.0-3.0-0.327-0.327","<span style= ""font-size:30px; font-family: monospace"">+</span>","null","fixation","","","","",""
"","661","audio-keyboard-response","398","794493","0.0-3.0-1.327","../audio/19-1-fem.mp3"," ","","O","","","",""
"","1189","audio-keyboard-response","399","796037","0.0-3.0-1.328","../audio/19-2-fem.mp3"," ","","menino","","","",""
"","1189","audio-keyboard-response","400","797554","0.0-3.0-1.329","../audio/19-3-fem.mp3"," ","","ganhou","","","",""
"","1008","audio-keyboard-response","401","798903","0.0-3.0-1.330","../audio/19-4-fem.mp3"," ","","uma","","","",""
"","931","audio-keyboard-response","402","800157","0.0-3.0-1.331","../audio/19-5-fem.mp3"," ","","bala","","","",""
"","1229","audio-keyboard-response","403","801747","0.0-3.0-1.332","../audio/19-6-fem.mp3"," ","","depois","","","",""
"","949","audio-keyboard-response","404","803018","0.0-3.0-1.333","../audio/19-7-fem.mp3"," ","","do","","","",""
"","2469","audio-keyboard-response","405","805830","0.0-3.0-1.334","../audio/19-8-fem.mp3"," ","","almoço.","","","",""
"","null","html-keyboard-response","406","807105","0.0-3.0-0.335-0.335","<span style= ""font-size:30px; font-family: monospace"">+</span>","null","fixation","","","","",""
"","1080","audio-keyboard-response","407","808556","0.0-3.0-1.335","../audio/18-1-fem.mp3"," ","","O","","","",""
"","1219","audio-keyboard-response","408","810110","0.0-3.0-1.336","../audio/18-2-fem.mp3"," ","","enredo","","","",""
"","1008","audio-keyboard-response","409","811463","0.0-3.0-1.337","../audio/18-3-fem.mp3"," ","","traz","","","",""
"","920","audio-keyboard-response","410","812708","0.0-3.0-1.338","../audio/18-4-fem.mp3"," ","","um","","","",""
"","1539","audio-keyboard-response","411","814587","0.0-3.0-1.339","../audio/18-5-fem.mp3"," ","","dragão","","","",""
"","1019","audio-keyboard-response","412","815946","0.0-3.0-1.340","../audio/18-6-fem.mp3"," ","","forte","","","",""
"","840","audio-keyboard-response","413","817106","0.0-3.0-1.341","../audio/18-7-fem.mp3"," ","","e","","","",""
"","2419","audio-keyboard-response","414","819875","0.0-3.0-1.342","../audio/18-8-fem.mp3"," ","","solitário.","","","",""
"","null","html-keyboard-response","415","821132","0.0-3.0-0.343-0.343","<span style= ""font-size:30px; font-family: monospace"">+</span>","null","fixation","","","","",""
"","899","audio-keyboard-response","416","822388","0.0-3.0-1.343","../audio/20-1-fem.mp3"," ","","O","","","",""
"","1200","audio-keyboard-response","417","823921","0.0-3.0-1.344","../audio/20-2-fem.mp3"," ","","colega","","","",""
"","1381","audio-keyboard-response","418","825653","0.0-3.0-1.345","../audio/20-3-fem.mp3"," ","","parecia","","","",""
"","1091","audio-keyboard-response","419","827073","0.0-3.0-1.346","../audio/20-4-fem.mp3"," ","","muito","","","",""
"","1661","audio-keyboard-response","420","829092","0.0-3.0-1.347","../audio/20-5-fem.mp3"," ","","gripado","","","",""
"","1080","audio-keyboard-response","421","830492","0.0-3.0-1.348","../audio/20-6-fem.mp3"," ","","no","","","",""
"","992","audio-keyboard-response","422","831816","0.0-3.0-1.349","../audio/20-7-fem.mp3"," ","","dia","","","",""
"","2971","audio-keyboard-response","423","835135","0.0-3.0-1.350","../audio/20-8-fem.mp3"," ","","anterior.","","","",""
"","3172","html-keyboard-response","424","838569","0.0-3.0-2.350-0.350","<span style=""font-size:25px; font-family: monospace"">O colega parecia muito gripado?</span>","s","","","O colega parecia muito gripado?","null","exp-sent","false"
"","null","html-keyboard-response","425","840103","0.0-3.0-0.351-0.351","<span style= ""font-size:30px; font-family: monospace"">+</span>","null","fixation","","","","",""
"","992","audio-keyboard-response","426","841451","0.0-3.0-1.351","../audio/49-1-fem.mp3"," ","","Eu","","","",""
"","1251","audio-keyboard-response","427","843040","0.0-3.0-1.352","../audio/49-2-fem.mp3"," ","","quero","","","",""
"","968","audio-keyboard-response","428","844337","0.0-3.0-1.353","../audio/49-3-fem.mp3"," ","","um","","","",""
"","1251","audio-keyboard-response","429","845935","0.0-3.0-1.354","../audio/49-4-fem.mp3"," ","","lanche","","","",""
"","1571","audio-keyboard-response","430","847828","0.0-3.0-1.355","../audio/49-5-fem.mp3"," ","","duplo","","","",""
"","819","audio-keyboard-response","431","848983","0.0-3.0-1.356","../audio/49-6-fem.mp3"," ","","e","","","",""
"","829","audio-keyboard-response","432","850137","0.0-3.0-1.357","../audio/49-7-fem.mp3"," ","","um","","","",""
"","2669","audio-keyboard-response","433","853153","0.0-3.0-1.358","../audio/49-8-fem.mp3"," ","","suco.","","","",""
"","null","html-keyboard-response","434","854433","0.0-3.0-0.359-0.359","<span style= ""font-size:30px; font-family: monospace"">+</span>","null","fixation","","","","",""
"","800","audio-keyboard-response","435","855630","0.0-3.0-1.359","../audio/47-1-masc.mp3"," ","","O","","","",""
"","888","audio-keyboard-response","436","856866","0.0-3.0-1.360","../audio/47-2-masc.mp3"," ","","tio","","","",""
"","1229","audio-keyboard-response","437","858440","0.0-3.0-1.361","../audio/47-3-masc.mp3"," ","","recusou","","","",""
"","859","audio-keyboard-response","438","859636","0.0-3.0-1.362","../audio/47-4-masc.mp3"," ","","a","","","",""
"","1229","audio-keyboard-response","439","861203","0.0-3.0-1.363","../audio/47-5-masc.mp3"," ","","sobremesa","","","",""
"","861","audio-keyboard-response","440","862403","0.0-3.0-1.364","../audio/47-6-masc.mp3"," ","","no","","","",""
"","4520","audio-keyboard-response","441","867267","0.0-3.0-1.365","../audio/47-7-masc.mp3"," ","","almoço.","","","",""
"","null","html-keyboard-response","442","868540","0.0-3.0-0.366-0.366","<span style= ""font-size:30px; font-family: monospace"">+</span>","null","fixation","","","","",""
"","909","audio-keyboard-response","443","869827","0.0-3.0-1.366","../audio/46-1-masc.mp3"," ","","Meu","","","",""
"","891","audio-keyboard-response","444","871044","0.0-3.0-1.367","../audio/46-2-masc.mp3"," ","","primo","","","",""
"","1019","audio-keyboard-response","445","872431","0.0-3.0-1.368","../audio/46-3-masc.mp3"," ","","estava","","","",""
"","920","audio-keyboard-response","446","873696","0.0-3.0-1.369","../audio/46-4-masc.mp3"," ","","muito","","","",""
"","1251","audio-keyboard-response","447","875287","0.0-3.0-1.370","../audio/46-5-masc.mp3"," ","","deprimido","","","",""
"","901","audio-keyboard-response","448","876517","0.0-3.0-1.371","../audio/46-6-masc.mp3"," ","","no","","","",""
"","3472","audio-keyboard-response","449","880327","0.0-3.0-1.372","../audio/46-7-masc.mp3"," ","","inverno.","","","",""
"","null","html-keyboard-response","450","881605","0.0-3.0-0.373-0.373","<span style= ""font-size:30px; font-family: monospace"">+</span>","null","fixation","","","","",""
"","880","audio-keyboard-response","451","882856","0.0-3.0-1.373","../audio/48-1-masc.mp3"," ","","Ela","","","",""
"","979","audio-keyboard-response","452","884189","0.0-3.0-1.374","../audio/48-2-masc.mp3"," ","","come","","","",""
"","941","audio-keyboard-response","453","885486","0.0-3.0-1.375","../audio/48-3-masc.mp3"," ","","feijão","","","",""
"","901","audio-keyboard-response","454","886721","0.0-3.0-1.376","../audio/48-4-masc.mp3"," ","","com","","","",""
"","1048","audio-keyboard-response","455","888097","0.0-3.0-1.377","../audio/48-5-masc.mp3"," ","","arroz","","","",""
"","880","audio-keyboard-response","456","889310","0.0-3.0-1.378","../audio/48-6-masc.mp3"," ","","todos","","","",""
"","811","audio-keyboard-response","457","890448","0.0-3.0-1.379","../audio/48-7-masc.mp3"," ","","os","","","",""
"","1741","audio-keyboard-response","458","892526","0.0-3.0-1.380","../audio/48-8-masc.mp3"," ","","dias.","","","",""
"","null","html-keyboard-response","459","893801","0.0-3.0-0.381-0.381","<span style= ""font-size:30px; font-family: monospace"">+</span>","null","fixation","","","","",""
"","979","audio-keyboard-response","460","895137","0.0-3.0-1.381","../audio/50-1-fem.mp3"," ","","O","","","",""
"","1211","audio-keyboard-response","461","896691","0.0-3.0-1.382","../audio/50-2-fem.mp3"," ","","pássaro","","","",""
"","1131","audio-keyboard-response","462","898150","0.0-3.0-1.383","../audio/50-3-fem.mp3"," ","","fugiu","","","",""
"","781","audio-keyboard-response","463","899286","0.0-3.0-1.384","../audio/50-4-fem.mp3"," ","","da","","","",""
"","1200","audio-keyboard-response","464","900817","0.0-3.0-1.385","../audio/50-5-fem.mp3"," ","","gaiola","","","",""
"","920","audio-keyboard-response","465","902076","0.0-3.0-1.386","../audio/50-6-fem.mp3"," ","","pela","","","",""
"","1440","audio-keyboard-response","466","903868","0.0-3.0-1.387","../audio/50-7-fem.mp3"," ","","portinhola.","","","",""
"","2534","html-keyboard-response","467","906661","0.0-3.0-2.387-0.387","<span style=""font-size:25px; font-family: monospace"">O pássaro fugiu da gaiola?</span>","s","","","O pássaro fugiu da gaiola?","null","exp-sent","false"
"","null","html-keyboard-response","468","908193","0.0-3.0-0.388-0.388","<span style= ""font-size:30px; font-family: monospace"">+</span>","null","fixation","","","","",""
"","1109","audio-keyboard-response","469","909671","0.0-3.0-1.388","../audio/24-1-masc.mp3"," ","","As","","","",""
"","1109","audio-keyboard-response","470","911117","0.0-3.0-1.389","../audio/24-2-masc.mp3"," ","","crianças","","","",""
"","1088","audio-keyboard-response","471","912536","0.0-3.0-1.390","../audio/24-3-masc.mp3"," ","","vão","","","",""
"","960","audio-keyboard-response","472","913837","0.0-3.0-1.391","../audio/24-4-masc.mp3"," ","","ao","","","",""
"","1080","audio-keyboard-response","473","915251","0.0-3.0-1.392","../audio/24-5-masc.mp3"," ","","cinema","","","",""
"","1011","audio-keyboard-response","474","916588","0.0-3.0-1.393","../audio/24-6-masc.mp3"," ","","mais","","","",""
"","1189","audio-keyboard-response","475","918121","0.0-3.0-1.394","../audio/24-7-masc.mp3"," ","","tarde.","","","",""
"","null","html-keyboard-response","476","919394","0.0-3.0-0.395-0.395","<span style= ""font-size:30px; font-family: monospace"">+</span>","null","fixation","","","","",""
"","1360","audio-keyboard-response","477","921110","0.0-3.0-1.395","../audio/22-1-masc.mp3"," ","","Eu","","","",""
"","1520","audio-keyboard-response","478","922971","0.0-3.0-1.396","../audio/22-2-masc.mp3"," ","","detesto","","","",""
"","1211","audio-keyboard-response","479","924523","0.0-3.0-1.397","../audio/22-3-masc.mp3"," ","","fumaça","","","",""
"","832","audio-keyboard-response","480","925692","0.0-3.0-1.398","../audio/22-4-masc.mp3"," ","","de","","","",""
"","1272","audio-keyboard-response","481","927288","0.0-3.0-1.399","../audio/22-5-masc.mp3"," ","","cachimbo","","","",""
"","949","audio-keyboard-response","482","928585","0.0-3.0-1.400","../audio/22-6-masc.mp3"," ","","e","","","",""
"","979","audio-keyboard-response","483","929915","0.0-3.0-1.401","../audio/22-7-masc.mp3"," ","","de","","","",""
"","2120","audio-keyboard-response","484","932374","0.0-3.0-1.402","../audio/22-8-masc.mp3"," ","","cigarro.","","","",""
"","null","html-keyboard-response","485","933646","0.0-3.0-0.403-0.403","<span style= ""font-size:30px; font-family: monospace"">+</span>","null","fixation","","","","",""
"","1221","audio-keyboard-response","486","935247","0.0-3.0-1.403","../audio/21-1-masc.mp3"," ","","Precisamos","","","",""
"","920","audio-keyboard-response","487","936516","0.0-3.0-1.404","../audio/21-2-masc.mp3"," ","","de","","","",""
"","1592","audio-keyboard-response","488","938449","0.0-3.0-1.405","../audio/21-3-masc.mp3"," ","","paciência","","","",""
"","1021","audio-keyboard-response","489","939805","0.0-3.0-1.406","../audio/21-4-masc.mp3"," ","","e","","","",""
"","1480","audio-keyboard-response","490","941620","0.0-3.0-1.407","../audio/21-5-masc.mp3"," ","","bondade","","","",""
"","1149","audio-keyboard-response","491","943112","0.0-3.0-1.408","../audio/21-6-masc.mp3"," ","","para","","","",""
"","971","audio-keyboard-response","492","944398","0.0-3.0-1.409","../audio/21-7-masc.mp3"," ","","um","","","",""
"","1131","audio-keyboard-response","493","945871","0.0-3.0-1.410","../audio/21-8-masc.mp3"," ","","mundo","","","",""
"","3589","audio-keyboard-response","494","949786","0.0-3.0-1.411","../audio/21-9-masc.mp3"," ","","melhor.","","","",""
"","null","html-keyboard-response","495","951057","0.0-3.0-0.412-0.412","<span style= ""font-size:30px; font-family: monospace"">+</span>","null","fixation","","","","",""
"","1949","audio-keyboard-response","496","953392","0.0-3.0-1.412","../audio/23-1-fem.mp3"," ","","Português","","","",""
"","869","audio-keyboard-response","497","954628","0.0-3.0-1.413","../audio/23-2-fem.mp3"," ","","é","","","",""
"","1040","audio-keyboard-response","498","955990","0.0-3.0-1.414","../audio/23-3-fem.mp3"," ","","um","","","",""
"","1269","audio-keyboard-response","499","957603","0.0-3.0-1.415","../audio/23-4-fem.mp3"," ","","assunto","","","",""
"","1741","audio-keyboard-response","500","959693","0.0-3.0-1.416","../audio/23-5-fem.mp3"," ","","elementar","","","",""
"","960","audio-keyboard-response","501","961024","0.0-3.0-1.417","../audio/23-6-fem.mp3"," ","","para","","","",""
"","931","audio-keyboard-response","502","962296","0.0-3.0-1.418","../audio/23-7-fem.mp3"," ","","os","","","",""
"","3051","audio-keyboard-response","503","965696","0.0-3.0-1.419","../audio/23-8-fem.mp3"," ","","alunos.","","","",""
"","null","html-keyboard-response","504","966966","0.0-3.0-0.420-0.420","<span style= ""font-size:30px; font-family: monospace"">+</span>","null","fixation","","","","",""
"","941","audio-keyboard-response","505","968292","0.0-3.0-1.420","../audio/25-1-fem.mp3"," ","","Ela","","","",""
"","1069","audio-keyboard-response","506","969704","0.0-3.0-1.421","../audio/25-2-fem.mp3"," ","","faz","","","",""
"","1099","audio-keyboard-response","507","971138","0.0-3.0-1.422","../audio/25-3-fem.mp3"," ","","tanto","","","",""
"","1101","audio-keyboard-response","508","972574","0.0-3.0-1.423","../audio/25-4-fem.mp3"," ","","cabelo","","","",""
"","1021","audio-keyboard-response","509","973932","0.0-3.0-1.424","../audio/25-5-fem.mp3"," ","","liso","","","",""
"","1032","audio-keyboard-response","510","975292","0.0-3.0-1.425","../audio/25-6-fem.mp3"," ","","quanto","","","",""
"","2781","audio-keyboard-response","511","978406","0.0-3.0-1.426","../audio/25-7-fem.mp3"," ","","cacheado.","","","",""
"","4491","html-keyboard-response","512","983166","0.0-3.0-2.426-0.426","<span style=""font-size:25px; font-family: monospace"">Ela só faz cabelo cacheado?</span>","n","","","Ela só faz cabelo cacheado?","null","exp-sent","false"
"","null","html-keyboard-response","513","984694","0.0-3.0-0.427-0.427","<span style= ""font-size:30px; font-family: monospace"">+</span>","null","fixation","","","","",""
"","1088","audio-keyboard-response","514","986137","0.0-3.0-1.427","../audio/62-1-masc.mp3"," ","","As","","","",""
"","1640","audio-keyboard-response","515","988126","0.0-3.0-1.428","../audio/62-2-masc.mp3"," ","","artesãs","","","",""
"","1211","audio-keyboard-response","516","989674","0.0-3.0-1.429","../audio/62-3-masc.mp3"," ","","gostam","","","",""
"","939","audio-keyboard-response","517","990995","0.0-3.0-1.430","../audio/62-4-masc.mp3"," ","","de","","","",""
"","1771","audio-keyboard-response","518","993112","0.0-3.0-1.431","../audio/62-5-masc.mp3"," ","","maquiagem","","","",""
"","891","audio-keyboard-response","519","994361","0.0-3.0-1.432","../audio/62-6-masc.mp3"," ","","e","","","",""
"","1008","audio-keyboard-response","520","995702","0.0-3.0-1.433","../audio/62-7-masc.mp3"," ","","de","","","",""
"","1851","audio-keyboard-response","521","997891","0.0-3.0-1.434","../audio/62-8-masc.mp3"," ","","crochê.","","","",""
"","null","html-keyboard-response","522","999170","0.0-3.0-0.435-0.435","<span style= ""font-size:30px; font-family: monospace"">+</span>","null","fixation","","","","",""
"","829","audio-keyboard-response","523","1000403","0.0-3.0-1.435","../audio/63-1-fem.mp3"," ","","A","","","",""
"","1059","audio-keyboard-response","524","1001787","0.0-3.0-1.436","../audio/63-2-fem.mp3"," ","","chuva","","","",""
"","1208","audio-keyboard-response","525","1003339","0.0-3.0-1.437","../audio/63-3-fem.mp3"," ","","entrou","","","",""
"","920","audio-keyboard-response","526","1004592","0.0-3.0-1.438","../audio/63-4-fem.mp3"," ","","pela","","","",""
"","1579","audio-keyboard-response","527","1006507","0.0-3.0-1.439","../audio/63-5-fem.mp3"," ","","abertura","","","",""
"","971","audio-keyboard-response","528","1007814","0.0-3.0-1.440","../audio/63-6-fem.mp3"," ","","na","","","",""
"","2000","audio-keyboard-response","529","1010168","0.0-3.0-1.441","../audio/63-7-fem.mp3"," ","","janela.","","","",""
"","null","html-keyboard-response","530","1011444","0.0-3.0-0.442-0.442","<span style= ""font-size:30px; font-family: monospace"">+</span>","null","fixation","","","","",""
"","1219","audio-keyboard-response","531","1013016","0.0-3.0-1.442","../audio/61-1-fem.mp3"," ","","Aquele","","","",""
"","1299","audio-keyboard-response","532","1014657","0.0-3.0-1.443","../audio/61-2-fem.mp3"," ","","senhor","","","",""
"","891","audio-keyboard-response","533","1015872","0.0-3.0-1.444","../audio/61-3-fem.mp3"," ","","é","","","",""
"","1200","audio-keyboard-response","534","1017416","0.0-3.0-1.445","../audio/61-4-fem.mp3"," ","","muito","","","",""
"","1480","audio-keyboard-response","535","1019251","0.0-3.0-1.446","../audio/61-5-fem.mp3"," ","","sovina","","","",""
"","872","audio-keyboard-response","536","1020450","0.0-3.0-1.447","../audio/61-6-fem.mp3"," ","","e","","","",""
"","1971","audio-keyboard-response","537","1022765","0.0-3.0-1.448","../audio/61-7-fem.mp3"," ","","inflexível.","","","",""
"","null","html-keyboard-response","538","1024043","0.0-3.0-0.449-0.449","<span style= ""font-size:30px; font-family: monospace"">+</span>","null","fixation","","","","",""
"","1379","audio-keyboard-response","539","1025792","0.0-3.0-1.449","../audio/64-1-masc.mp3"," ","","O","","","",""
"","1099","audio-keyboard-response","540","1027217","0.0-3.0-1.450","../audio/64-2-masc.mp3"," ","","dia","","","",""
"","1371","audio-keyboard-response","541","1028911","0.0-3.0-1.451","../audio/64-3-masc.mp3"," ","","começou","","","",""
"","931","audio-keyboard-response","542","1030165","0.0-3.0-1.452","../audio/64-4-masc.mp3"," ","","com","","","",""
"","1240","audio-keyboard-response","543","1031732","0.0-3.0-1.453","../audio/64-5-masc.mp3"," ","","garoa","","","",""
"","1200","audio-keyboard-response","544","1033268","0.0-3.0-1.454","../audio/64-6-masc.mp3"," ","","gelada","","","",""
"","869","audio-keyboard-response","545","1034462","0.0-3.0-1.455","../audio/64-7-masc.mp3"," ","","e","","","",""
"","2960","audio-keyboard-response","546","1037772","0.0-3.0-1.456","../audio/64-8-masc.mp3"," ","","leve.","","","",""
"","null","html-keyboard-response","547","1039052","0.0-3.0-0.457-0.457","<span style= ""font-size:30px; font-family: monospace"">+</span>","null","fixation","","","","",""
"","931","audio-keyboard-response","548","1040353","0.0-3.0-1.457","../audio/65-1-masc.mp3"," ","","O","","","",""
"","1181","audio-keyboard-response","549","1041886","0.0-3.0-1.458","../audio/65-2-masc.mp3"," ","","fantasma","","","",""
"","1029","audio-keyboard-response","550","1043245","0.0-3.0-1.459","../audio/65-3-masc.mp3"," ","","veio","","","",""
"","891","audio-keyboard-response","551","1044468","0.0-3.0-1.460","../audio/65-4-masc.mp3"," ","","da","","","",""
"","1360","audio-keyboard-response","552","1046187","0.0-3.0-1.461","../audio/65-5-masc.mp3"," ","","escuridão","","","",""
"","891","audio-keyboard-response","553","1047415","0.0-3.0-1.462","../audio/65-6-masc.mp3"," ","","do","","","",""
"","2099","audio-keyboard-response","554","1049862","0.0-3.0-1.463","../audio/65-7-masc.mp3"," ","","armário.","","","",""
"","3300","html-keyboard-response","555","1053422","0.0-3.0-2.463-0.463","<span style=""font-size:25px; font-family: monospace"">O fantasma veio da escuridão do armário?</span>","s","","","O fantasma veio da escuridão do armário?","null","exp-sent","false"
"","null","html-keyboard-response","556","1054944","0.0-3.0-0.464-0.464","<span style= ""font-size:30px; font-family: monospace"">+</span>","null","fixation","","","","",""
"","981","audio-keyboard-response","557","1056286","0.0-3.0-1.464","../audio/72-1-fem.mp3"," ","","A","","","",""
"","1669","audio-keyboard-response","558","1058318","0.0-3.0-1.465","../audio/72-2-fem.mp3"," ","","vencedora","","","",""
"","1120","audio-keyboard-response","559","1059826","0.0-3.0-1.466","../audio/72-3-fem.mp3"," ","","recebeu","","","",""
"","952","audio-keyboard-response","560","1061088","0.0-3.0-1.467","../audio/72-4-fem.mp3"," ","","um","","","",""
"","600","audio-keyboard-response","561","1062026","0.0-3.0-1.468","../audio/72-5-fem.mp3"," ","","prêmio","","","",""
"","1019","audio-keyboard-response","562","1063383","0.0-3.0-1.469","../audio/72-6-fem.mp3"," ","","em","","","",""
"","1051","audio-keyboard-response","563","1064772","0.0-3.0-1.470","../audio/72-7-fem.mp3"," ","","dinheiro.","","","",""
"","null","html-keyboard-response","564","1066039","0.0-3.0-0.471-0.471","<span style= ""font-size:30px; font-family: monospace"">+</span>","null","fixation","","","","",""
"","709","audio-keyboard-response","565","1067116","0.0-3.0-1.471","../audio/74-1-masc.mp3"," ","","Este","","","",""
"","792","audio-keyboard-response","566","1068252","0.0-3.0-1.472","../audio/74-2-masc.mp3"," ","","emprego","","","",""
"","648","audio-keyboard-response","567","1069225","0.0-3.0-1.473","../audio/74-3-masc.mp3"," ","","é","","","",""
"","589","audio-keyboard-response","568","1070148","0.0-3.0-1.474","../audio/74-4-masc.mp3"," ","","muito","","","",""
"","1560","audio-keyboard-response","569","1072056","0.0-3.0-1.475","../audio/74-5-masc.mp3"," ","","cansativo","","","",""
"","749","audio-keyboard-response","570","1073139","0.0-3.0-1.476","../audio/74-6-masc.mp3"," ","","a","","","",""
"","811","audio-keyboard-response","571","1074294","0.0-3.0-1.477","../audio/74-7-masc.mp3"," ","","longo","","","",""
"","651","audio-keyboard-response","572","1075285","0.0-3.0-1.478","../audio/74-8-masc.mp3"," ","","prazo.","","","",""
"","null","html-keyboard-response","573","1076564","0.0-3.0-0.479-0.479","<span style= ""font-size:30px; font-family: monospace"">+</span>","null","fixation","","","","",""
"","891","audio-keyboard-response","574","1077805","0.0-3.0-1.479","../audio/71-1-fem.mp3"," ","","Minhas","","","",""
"","1019","audio-keyboard-response","575","1079139","0.0-3.0-1.480","../audio/71-2-fem.mp3"," ","","comidas","","","",""
"","851","audio-keyboard-response","576","1080353","0.0-3.0-1.481","../audio/71-3-fem.mp3"," ","","favoritas","","","",""
"","1101","audio-keyboard-response","577","1081805","0.0-3.0-1.482","../audio/71-4-fem.mp3"," ","","são","","","",""
"","1069","audio-keyboard-response","578","1083217","0.0-3.0-1.483","../audio/71-5-fem.mp3"," ","","morango","","","",""
"","1291","audio-keyboard-response","579","1084836","0.0-3.0-1.484","../audio/71-6-fem.mp3"," ","","e","","","",""
"","2160","audio-keyboard-response","580","1087338","0.0-3.0-1.485","../audio/71-7-fem.mp3"," ","","uva.","","","",""
"","null","html-keyboard-response","581","1088595","0.0-3.0-0.486-0.486","<span style= ""font-size:30px; font-family: monospace"">+</span>","null","fixation","","","","",""
"","891","audio-keyboard-response","582","1089851","0.0-3.0-1.486","../audio/73-1-masc.mp3"," ","","O","","","",""
"","1120","audio-keyboard-response","583","1091307","0.0-3.0-1.487","../audio/73-2-masc.mp3"," ","","cliente","","","",""
"","1019","audio-keyboard-response","584","1092663","0.0-3.0-1.488","../audio/73-3-masc.mp3"," ","","era","","","",""
"","819","audio-keyboard-response","585","1093786","0.0-3.0-1.489","../audio/73-4-masc.mp3"," ","","um","","","",""
"","920","audio-keyboard-response","586","1095028","0.0-3.0-1.490","../audio/73-5-masc.mp3"," ","","homem","","","",""
"","949","audio-keyboard-response","587","1096311","0.0-3.0-1.491","../audio/73-6-masc.mp3"," ","","muito","","","",""
"","3389","audio-keyboard-response","588","1100039","0.0-3.0-1.492","../audio/73-7-masc.mp3"," ","","educado.","","","",""
"","null","html-keyboard-response","589","1101305","0.0-3.0-0.493-0.493","<span style= ""font-size:30px; font-family: monospace"">+</span>","null","fixation","","","","",""
"","259","audio-keyboard-response","590","1101942","0.0-3.0-1.493","../audio/75-1-fem.mp3"," ","","Só","","","",""
"","1299","audio-keyboard-response","591","1103594","0.0-3.0-1.494","../audio/75-2-fem.mp3"," ","","existe","","","",""
"","1040","audio-keyboard-response","592","1104966","0.0-3.0-1.495","../audio/75-3-fem.mp3"," ","","uma","","","",""
"","1211","audio-keyboard-response","593","1106514","0.0-3.0-1.496","../audio/75-4-fem.mp3"," ","","pessoa","","","",""
"","1139","audio-keyboard-response","594","1107994","0.0-3.0-1.497","../audio/75-5-fem.mp3"," ","","canhota","","","",""
"","909","audio-keyboard-response","595","1109225","0.0-3.0-1.498","../audio/75-6-fem.mp3"," ","","nesta","","","",""
"","3309","audio-keyboard-response","596","1112871","0.0-3.0-1.499","../audio/75-7-fem.mp3"," ","","cidade.","","","",""
"","9688","html-keyboard-response","597","1122823","0.0-3.0-2.499-0.499","<span style=""font-size:25px; font-family: monospace"">Só existe uma pessoa canhota na cidade?</span>","n","","","Só existe uma pessoa canhota na cidade?","null","exp-sent","false"
"","null","html-keyboard-response","598","1124354","0.0-3.0-0.500-0.500","<span style= ""font-size:30px; font-family: monospace"">+</span>","null","fixation","","","","",""
"","1779","audio-keyboard-response","599","1126504","0.0-3.0-1.500","../audio/67-1-fem.mp3"," ","","Minha","","","",""
"","1080","audio-keyboard-response","600","1127976","0.0-3.0-1.501","../audio/67-2-fem.mp3"," ","","tia","","","",""
"","1251","audio-keyboard-response","601","1129567","0.0-3.0-1.502","../audio/67-3-fem.mp3"," ","","comprou","","","",""
"","1320","audio-keyboard-response","602","1131212","0.0-3.0-1.503","../audio/67-4-fem.mp3"," ","","um","","","",""
"","1221","audio-keyboard-response","603","1132772","0.0-3.0-1.504","../audio/67-5-fem.mp3"," ","","cordão","","","",""
"","899","audio-keyboard-response","604","1134021","0.0-3.0-1.505","../audio/67-6-fem.mp3"," ","","para","","","",""
"","920","audio-keyboard-response","605","1135268","0.0-3.0-1.506","../audio/67-7-fem.mp3"," ","","o","","","",""
"","1171","audio-keyboard-response","606","1136767","0.0-3.0-1.507","../audio/67-8-fem.mp3"," ","","varal.","","","",""
"","null","html-keyboard-response","607","1138028","0.0-3.0-0.508-0.508","<span style= ""font-size:30px; font-family: monospace"">+</span>","null","fixation","","","","",""
"","901","audio-keyboard-response","608","1139280","0.0-3.0-1.508","../audio/69-1-fem.mp3"," ","","A","","","",""
"","1061","audio-keyboard-response","609","1140676","0.0-3.0-1.509","../audio/69-2-fem.mp3"," ","","loja","","","",""
"","1171","audio-keyboard-response","610","1142199","0.0-3.0-1.510","../audio/69-3-fem.mp3"," ","","recebeu","","","",""
"","840","audio-keyboard-response","611","1143360","0.0-3.0-1.511","../audio/69-4-fem.mp3"," ","","uma","","","",""
"","1091","audio-keyboard-response","612","1144797","0.0-3.0-1.512","../audio/69-5-fem.mp3"," ","","poltrona","","","",""
"","939","audio-keyboard-response","613","1146057","0.0-3.0-1.513","../audio/69-6-fem.mp3"," ","","de","","","",""
"","1000","audio-keyboard-response","614","1147393","0.0-3.0-1.514","../audio/69-7-fem.mp3"," ","","couro","","","",""
"","1011","audio-keyboard-response","615","1148729","0.0-3.0-1.515","../audio/69-8-fem.mp3"," ","","preto.","","","",""
"","null","html-keyboard-response","616","1150006","0.0-3.0-0.516-0.516","<span style= ""font-size:30px; font-family: monospace"">+</span>","null","fixation","","","","",""
"","912","audio-keyboard-response","617","1151292","0.0-3.0-1.516","../audio/68-1-fem.mp3"," ","","Meu","","","",""
"","1051","audio-keyboard-response","618","1152677","0.0-3.0-1.517","../audio/68-2-fem.mp3"," ","","irmão","","","",""
"","901","audio-keyboard-response","619","1153917","0.0-3.0-1.518","../audio/68-3-fem.mp3"," ","","teve","","","",""
"","979","audio-keyboard-response","620","1155228","0.0-3.0-1.519","../audio/68-4-fem.mp3"," ","","um","","","",""
"","1059","audio-keyboard-response","621","1156627","0.0-3.0-1.520","../audio/68-5-fem.mp3"," ","","noivado","","","",""
"","1019","audio-keyboard-response","622","1157991","0.0-3.0-1.521","../audio/68-6-fem.mp3"," ","","longo","","","",""
"","1099","audio-keyboard-response","623","1159419","0.0-3.0-1.522","../audio/68-7-fem.mp3"," ","","e","","","",""
"","2120","audio-keyboard-response","624","1161892","0.0-3.0-1.523","../audio/68-8-fem.mp3"," ","","maravilhoso.","","","",""
"","null","html-keyboard-response","625","1163163","0.0-3.0-0.524-0.524","<span style= ""font-size:30px; font-family: monospace"">+</span>","null","fixation","","","","",""
"","1280","audio-keyboard-response","626","1164842","0.0-3.0-1.524","../audio/66-1-fem.mp3"," ","","Não","","","",""
"","1059","audio-keyboard-response","627","1166230","0.0-3.0-1.525","../audio/66-2-fem.mp3"," ","","gosto","","","",""
"","800","audio-keyboard-response","628","1167360","0.0-3.0-1.526","../audio/66-3-fem.mp3"," ","","de","","","",""
"","1272","audio-keyboard-response","629","1168969","0.0-3.0-1.527","../audio/66-4-fem.mp3"," ","","gente","","","",""
"","1549","audio-keyboard-response","630","1170862","0.0-3.0-1.528","../audio/66-5-fem.mp3"," ","","egoísta","","","",""
"","1080","audio-keyboard-response","631","1172277","0.0-3.0-1.529","../audio/66-6-fem.mp3"," ","","nem","","","",""
"","3520","audio-keyboard-response","632","1176134","0.0-3.0-1.530","../audio/66-7-fem.mp3"," ","","chata.","","","",""
"","null","html-keyboard-response","633","1177423","0.0-3.0-0.531-0.531","<span style= ""font-size:30px; font-family: monospace"">+</span>","null","fixation","","","","",""
"","1091","audio-keyboard-response","634","1178917","0.0-3.0-1.531","../audio/70-1-masc.mp3"," ","","O","","","",""
"","1179","audio-keyboard-response","635","1180417","0.0-3.0-1.532","../audio/70-2-masc.mp3"," ","","meu","","","",""
"","899","audio-keyboard-response","636","1181657","0.0-3.0-1.533","../audio/70-3-masc.mp3"," ","","filho","","","",""
"","920","audio-keyboard-response","637","1182915","0.0-3.0-1.534","../audio/70-4-masc.mp3"," ","","tem","","","",""
"","1029","audio-keyboard-response","638","1184271","0.0-3.0-1.535","../audio/70-5-masc.mp3"," ","","medo","","","",""
"","829","audio-keyboard-response","639","1185430","0.0-3.0-1.536","../audio/70-6-masc.mp3"," ","","de","","","",""
"","1520","audio-keyboard-response","640","1187285","0.0-3.0-1.537","../audio/70-7-masc.mp3"," ","","enguia","","","",""
"","989","audio-keyboard-response","641","1188597","0.0-3.0-1.538","../audio/70-8-masc.mp3"," ","","e","","","",""
"","4021","audio-keyboard-response","642","1192972","0.0-3.0-1.539","../audio/70-9-masc.mp3"," ","","beija-flor.","","","",""
"","7938","html-keyboard-response","643","1201172","0.0-3.0-2.539-0.539","<span style=""font-size:25px; font-family: monospace"">O filho tem medo de tigre?</span>","n","","","O filho tem medo de tigre?","null","exp-sent","false"
"","null","html-keyboard-response","644","1202684","0.0-3.0-0.540-0.540","<span style= ""font-size:30px; font-family: monospace"">+</span>","null","fixation","","","","",""
"","768","audio-keyboard-response","645","1203825","0.0-3.0-1.540","../audio/77-1-masc.mp3"," ","","A","","","",""
"","1048","audio-keyboard-response","646","1205218","0.0-3.0-1.541","../audio/77-2-masc.mp3"," ","","criança","","","",""
"","1091","audio-keyboard-response","647","1206642","0.0-3.0-1.542","../audio/77-3-masc.mp3"," ","","ficou","","","",""
"","1019","audio-keyboard-response","648","1208025","0.0-3.0-1.543","../audio/77-4-masc.mp3"," ","","muito","","","",""
"","949","audio-keyboard-response","649","1209309","0.0-3.0-1.544","../audio/77-5-masc.mp3"," ","","feliz","","","",""
"","909","audio-keyboard-response","650","1210537","0.0-3.0-1.545","../audio/77-6-masc.mp3"," ","","com","","","",""
"","901","audio-keyboard-response","651","1211756","0.0-3.0-1.546","../audio/77-7-masc.mp3"," ","","o","","","",""
"","2851","audio-keyboard-response","652","1214954","0.0-3.0-1.547","../audio/77-8-masc.mp3"," ","","brinquedo.","","","",""
"","null","html-keyboard-response","653","1216238","0.0-3.0-0.548-0.548","<span style= ""font-size:30px; font-family: monospace"">+</span>","null","fixation","","","","",""
"","1288","audio-keyboard-response","654","1217899","0.0-3.0-1.548","../audio/78-1-masc.mp3"," ","","Eles","","","",""
"","1032","audio-keyboard-response","655","1219252","0.0-3.0-1.549","../audio/78-2-masc.mp3"," ","","trazem","","","",""
"","960","audio-keyboard-response","656","1220547","0.0-3.0-1.550","../audio/78-3-masc.mp3"," ","","um","","","",""
"","960","audio-keyboard-response","657","1221838","0.0-3.0-1.551","../audio/78-4-masc.mp3"," ","","fato","","","",""
"","1059","audio-keyboard-response","658","1223226","0.0-3.0-1.552","../audio/78-5-masc.mp3"," ","","urgente","","","",""
"","1008","audio-keyboard-response","659","1224578","0.0-3.0-1.553","../audio/78-6-masc.mp3"," ","","todos","","","",""
"","891","audio-keyboard-response","660","1225800","0.0-3.0-1.554","../audio/78-7-masc.mp3"," ","","os","","","",""
"","1960","audio-keyboard-response","661","1228095","0.0-3.0-1.555","../audio/78-8-masc.mp3"," ","","dias.","","","",""
"","null","html-keyboard-response","662","1229364","0.0-3.0-0.556-0.556","<span style= ""font-size:30px; font-family: monospace"">+</span>","null","fixation","","","","",""
"","1200","audio-keyboard-response","663","1230943","0.0-3.0-1.556","../audio/79-1-fem.mp3"," ","","A","","","",""
"","1069","audio-keyboard-response","664","1232343","0.0-3.0-1.557","../audio/79-2-fem.mp3"," ","","médica","","","",""
"","1451","audio-keyboard-response","665","1234132","0.0-3.0-1.558","../audio/79-3-fem.mp3"," ","","verificou","","","",""
"","952","audio-keyboard-response","666","1235408","0.0-3.0-1.559","../audio/79-4-fem.mp3"," ","","a","","","",""
"","1549","audio-keyboard-response","667","1237311","0.0-3.0-1.560","../audio/79-5-fem.mp3"," ","","gengiva","","","",""
"","1051","audio-keyboard-response","668","1238683","0.0-3.0-1.561","../audio/79-6-fem.mp3"," ","","por","","","",""
"","2181","audio-keyboard-response","669","1241196","0.0-3.0-1.562","../audio/79-7-fem.mp3"," ","","último.","","","",""
"","null","html-keyboard-response","670","1242475","0.0-3.0-0.563-0.563","<span style= ""font-size:30px; font-family: monospace"">+</span>","null","fixation","","","","",""
"","1131","audio-keyboard-response","671","1243988","0.0-3.0-1.563","../audio/76-1-fem.mp3"," ","","O","","","",""
"","1539","audio-keyboard-response","672","1245867","0.0-3.0-1.564","../audio/76-2-fem.mp3"," ","","bisavô","","","",""
"","1251","audio-keyboard-response","673","1247452","0.0-3.0-1.565","../audio/76-3-fem.mp3"," ","","comprou","","","",""
"","952","audio-keyboard-response","674","1248736","0.0-3.0-1.566","../audio/76-4-fem.mp3"," ","","um","","","",""
"","1448","audio-keyboard-response","675","1250546","0.0-3.0-1.567","../audio/76-5-fem.mp3"," ","","ralador","","","",""
"","960","audio-keyboard-response","676","1251833","0.0-3.0-1.568","../audio/76-6-fem.mp3"," ","","de","","","",""
"","1819","audio-keyboard-response","677","1253982","0.0-3.0-1.569","../audio/76-7-fem.mp3"," ","","queijo.","","","",""
"","null","html-keyboard-response","678","1255254","0.0-3.0-0.570-0.570","<span style= ""font-size:30px; font-family: monospace"">+</span>","null","fixation","","","","",""
"","1072","audio-keyboard-response","679","1256691","0.0-3.0-1.570","../audio/80-1-fem.mp3"," ","","Meu","","","",""
"","1061","audio-keyboard-response","680","1258079","0.0-3.0-1.571","../audio/80-2-fem.mp3"," ","","primo","","","",""
"","1309","audio-keyboard-response","681","1259735","0.0-3.0-1.572","../audio/80-3-fem.mp3"," ","","conheceu","","","",""
"","1032","audio-keyboard-response","682","1261094","0.0-3.0-1.573","../audio/80-4-fem.mp3"," ","","um","","","",""
"","1400","audio-keyboard-response","683","1262855","0.0-3.0-1.574","../audio/80-5-fem.mp3"," ","","jovem","","","",""
"","1440","audio-keyboard-response","684","1264640","0.0-3.0-1.575","../audio/80-6-fem.mp3"," ","","amável","","","",""
"","1099","audio-keyboard-response","685","1266076","0.0-3.0-1.576","../audio/80-7-fem.mp3"," ","","e","","","",""
"","4549","audio-keyboard-response","686","1270977","0.0-3.0-1.577","../audio/80-8-fem.mp3"," ","","confiante.","","","",""
"","4095","html-keyboard-response","687","1275326","0.0-3.0-2.577-0.577","<span style=""font-size:25px; font-family: monospace"">O primo conheceu um jovem irritante?</span>","n","","","O primo conheceu um jovem irritante?","null","exp-sent","false"
"","null","html-keyboard-response","688","1276843","0.0-3.0-0.578-0.578","<span style= ""font-size:30px; font-family: monospace"">+</span>","null","fixation","","","","",""
"","1701","audio-keyboard-response","689","1278917","0.0-3.0-1.578","../audio/04-1-fem.mp3"," ","","Duzentos","","","",""
"","1029","audio-keyboard-response","690","1280321","0.0-3.0-1.579","../audio/04-2-fem.mp3"," ","","carros","","","",""
"","1320","audio-keyboard-response","691","1281983","0.0-3.0-1.580","../audio/04-3-fem.mp3"," ","","passaram","","","",""
"","1021","audio-keyboard-response","692","1283329","0.0-3.0-1.581","../audio/04-4-fem.mp3"," ","","pela","","","",""
"","1021","audio-keyboard-response","693","1284682","0.0-3.0-1.582","../audio/04-5-fem.mp3"," ","","ponte","","","",""
"","1021","audio-keyboard-response","694","1286040","0.0-3.0-1.583","../audio/04-6-fem.mp3"," ","","hoje","","","",""
"","869","audio-keyboard-response","695","1287243","0.0-3.0-1.584","../audio/04-7-fem.mp3"," ","","de","","","",""
"","2539","audio-keyboard-response","696","1290111","0.0-3.0-1.585","../audio/04-8-fem.mp3"," ","","tarde.","","","",""
"","null","html-keyboard-response","697","1291371","0.0-3.0-0.586-0.586","<span style= ""font-size:30px; font-family: monospace"">+</span>","null","fixation","","","","",""
"","789","audio-keyboard-response","698","1292522","0.0-3.0-1.586","../audio/03-1-masc.mp3"," ","","O","","","",""
"","1189","audio-keyboard-response","699","1294037","0.0-3.0-1.587","../audio/03-2-masc.mp3"," ","","coelho","","","",""
"","971","audio-keyboard-response","700","1295362","0.0-3.0-1.588","../audio/03-3-masc.mp3"," ","","foi","","","",""
"","1312","audio-keyboard-response","701","1297012","0.0-3.0-1.589","../audio/03-4-masc.mp3"," ","","bastante","","","",""
"","1821","audio-keyboard-response","702","1299168","0.0-3.0-1.590","../audio/03-5-masc.mp3"," ","","dócil","","","",""
"","960","audio-keyboard-response","703","1300476","0.0-3.0-1.591","../audio/03-6-masc.mp3"," ","","com","","","",""
"","971","audio-keyboard-response","704","1301776","0.0-3.0-1.592","../audio/03-7-masc.mp3"," ","","as","","","",""
"","1851","audio-keyboard-response","705","1303967","0.0-3.0-1.593","../audio/03-8-masc.mp3"," ","","crianças.","","","",""
"","null","html-keyboard-response","706","1305232","0.0-3.0-0.594-0.594","<span style= ""font-size:30px; font-family: monospace"">+</span>","null","fixation","","","","",""
"","1120","audio-keyboard-response","707","1306717","0.0-3.0-1.594","../audio/01-1-fem.mp3"," ","","O","","","",""
"","1392","audio-keyboard-response","708","1308454","0.0-3.0-1.595","../audio/01-2-fem.mp3"," ","","menino","","","",""
"","1352","audio-keyboard-response","709","1310133","0.0-3.0-1.596","../audio/01-3-fem.mp3"," ","","derrubou","","","",""
"","920","audio-keyboard-response","710","1311380","0.0-3.0-1.597","../audio/01-4-fem.mp3"," ","","a","","","",""
"","1280","audio-keyboard-response","711","1313010","0.0-3.0-1.598","../audio/01-5-fem.mp3"," ","","guitarra","","","",""
"","1101","audio-keyboard-response","712","1314438","0.0-3.0-1.599","../audio/01-6-fem.mp3"," ","","no","","","",""
"","1960","audio-keyboard-response","713","1316736","0.0-3.0-1.600","../audio/01-7-fem.mp3"," ","","chão.","","","",""
"","null","html-keyboard-response","714","1318009","0.0-3.0-0.601-0.601","<span style= ""font-size:30px; font-family: monospace"">+</span>","null","fixation","","","","",""
"","1000","audio-keyboard-response","715","1319378","0.0-3.0-1.601","../audio/02-2-masc.mp3"," ","","Havia","","","",""
"","1141","audio-keyboard-response","716","1320769","0.0-3.0-1.602","../audio/02-2-masc.mp3"," ","","um","","","",""
"","1312","audio-keyboard-response","717","1322447","0.0-3.0-1.603","../audio/02-3-masc.mp3"," ","","cheiro","","","",""
"","931","audio-keyboard-response","718","1323716","0.0-3.0-1.604","../audio/02-4-masc.mp3"," ","","de","","","",""
"","1181","audio-keyboard-response","719","1325245","0.0-3.0-1.605","../audio/02-5-masc.mp3"," ","","gasolina","","","",""
"","971","audio-keyboard-response","720","1326561","0.0-3.0-1.606","../audio/02-6-masc.mp3"," ","","na","","","",""
"","2981","audio-keyboard-response","721","1329881","0.0-3.0-1.607","../audio/02-7-masc.mp3"," ","","garagem.","","","",""
"","null","html-keyboard-response","722","1331136","0.0-3.0-0.608-0.608","<span style= ""font-size:30px; font-family: monospace"">+</span>","null","fixation","","","","",""
"","949","audio-keyboard-response","723","1332460","0.0-3.0-1.608","../audio/05-1-fem.mp3"," ","","A","","","",""
"","1448","audio-keyboard-response","724","1334266","0.0-3.0-1.609","../audio/05-2-fem.mp3"," ","","vendedora","","","",""
"","1400","audio-keyboard-response","725","1336006","0.0-3.0-1.610","../audio/05-3-fem.mp3"," ","","ajudou","","","",""
"","1179","audio-keyboard-response","726","1337514","0.0-3.0-1.611","../audio/05-4-fem.mp3"," ","","um","","","",""
"","1491","audio-keyboard-response","727","1339363","0.0-3.0-1.612","../audio/05-5-fem.mp3"," ","","turista","","","",""
"","1200","audio-keyboard-response","728","1340906","0.0-3.0-1.613","../audio/05-6-fem.mp3"," ","","na","","","",""
"","2709","audio-keyboard-response","729","1343946","0.0-3.0-1.614","../audio/05-7-fem.mp3"," ","","loja.","","","",""
"","2968","html-keyboard-response","730","1347181","0.0-3.0-2.614-0.614","<span style=""font-size:25px; font-family: monospace"">A vendedora ajudou um turista?</span>","s","","","A vendedora ajudou um turista?","null","exp-sent","false"
"[{""page_index"":0,""viewing_time"":9707}]","9707","instructions","731","1357392","0.0-4.0","","","","","","","",""
