[
	{
		"view_history": [
			{
				"page_index": 0,
				"viewing_time": 55961
			},
			{
				"page_index": 1,
				"viewing_time": 11463
			}
		],
		"rt": 67424,
		"trial_type": "instructions",
		"trial_index": 0,
		"time_elapsed": 67430,
		"internal_node_id": "0.0-0.0"
	},
	{
		"rt": null,
		"stimulus": "<span style= \"font-size:30px; font-family: monospace\">+</span>",
		"response": null,
		"trial_part": "fixation",
		"trial_type": "html-keyboard-response",
		"trial_index": 1,
		"time_elapsed": 68556,
		"internal_node_id": "0.0-1.0-0.0-0.0"
	},
	{
		"rt": 4716,
		"stimulus": "<span style=\"font-size:30px; font-family: monospace\">O</span>",
		"response": " ",
		"trial": "prac-sent",
		"word": "O",
		"trial_type": "html-keyboard-response",
		"trial_index": 2,
		"time_elapsed": 73529,
		"internal_node_id": "0.0-1.0-1.0"
	},
	{
		"rt": 9410,
		"stimulus": "<span style=\"font-size:30px; font-family: monospace\">dia</span>",
		"response": " ",
		"trial": "prac-sent",
		"word": "dia",
		"trial_type": "html-keyboard-response",
		"trial_index": 3,
		"time_elapsed": 83207,
		"internal_node_id": "0.0-1.0-1.1"
	},
	{
		"rt": 1573,
		"stimulus": "<span style=\"font-size:30px; font-family: monospace\">estará</span>",
		"response": " ",
		"trial": "prac-sent",
		"word": "estará",
		"trial_type": "html-keyboard-response",
		"trial_index": 4,
		"time_elapsed": 85034,
		"internal_node_id": "0.0-1.0-1.2"
	},
	{
		"rt": 1342,
		"stimulus": "<span style=\"font-size:30px; font-family: monospace\">cheio</span>",
		"response": " ",
		"trial": "prac-sent",
		"word": "cheio",
		"trial_type": "html-keyboard-response",
		"trial_index": 5,
		"time_elapsed": 86643,
		"internal_node_id": "0.0-1.0-1.3"
	},
	{
		"rt": 1186,
		"stimulus": "<span style=\"font-size:30px; font-family: monospace\">de</span>",
		"response": " ",
		"trial": "prac-sent",
		"word": "de",
		"trial_type": "html-keyboard-response",
		"trial_index": 6,
		"time_elapsed": 88088,
		"internal_node_id": "0.0-1.0-1.4"
	},
	{
		"rt": 2553,
		"stimulus": "<span style=\"font-size:30px; font-family: monospace\">nuvens</span>",
		"response": " ",
		"trial": "prac-sent",
		"word": "nuvens",
		"trial_type": "html-keyboard-response",
		"trial_index": 7,
		"time_elapsed": 90902,
		"internal_node_id": "0.0-1.0-1.5"
	},
	{
		"rt": 2331,
		"stimulus": "<span style=\"font-size:30px; font-family: monospace\">hoje.</span>",
		"response": " ",
		"trial": "prac-sent",
		"word": "hoje.",
		"trial_type": "html-keyboard-response",
		"trial_index": 8,
		"time_elapsed": 93496,
		"internal_node_id": "0.0-1.0-1.6"
	},
	{
		"rt": null,
		"stimulus": "<span style= \"font-size:30px; font-family: monospace\">+</span>",
		"response": null,
		"trial_part": "fixation",
		"trial_type": "html-keyboard-response",
		"trial_index": 9,
		"time_elapsed": 94763,
		"internal_node_id": "0.0-1.0-0.7-0.7"
	},
	{
		"rt": 4424,
		"stimulus": "<span style=\"font-size:30px; font-family: monospace\">A</span>",
		"response": " ",
		"trial": "prac-sent",
		"word": "A",
		"trial_type": "html-keyboard-response",
		"trial_index": 10,
		"time_elapsed": 99439,
		"internal_node_id": "0.0-1.0-1.7"
	},
	{
		"rt": 2287,
		"stimulus": "<span style=\"font-size:30px; font-family: monospace\">caneca</span>",
		"response": " ",
		"trial": "prac-sent",
		"word": "caneca",
		"trial_type": "html-keyboard-response",
		"trial_index": 11,
		"time_elapsed": 101979,
		"internal_node_id": "0.0-1.0-1.8"
	},
	{
		"rt": 1588,
		"stimulus": "<span style=\"font-size:30px; font-family: monospace\">colorida</span>",
		"response": " ",
		"trial": "prac-sent",
		"word": "colorida",
		"trial_type": "html-keyboard-response",
		"trial_index": 12,
		"time_elapsed": 103835,
		"internal_node_id": "0.0-1.0-1.9"
	},
	{
		"rt": 1183,
		"stimulus": "<span style=\"font-size:30px; font-family: monospace\">caiu</span>",
		"response": " ",
		"trial": "prac-sent",
		"word": "caiu",
		"trial_type": "html-keyboard-response",
		"trial_index": 13,
		"time_elapsed": 105278,
		"internal_node_id": "0.0-1.0-1.10"
	},
	{
		"rt": 955,
		"stimulus": "<span style=\"font-size:30px; font-family: monospace\">da</span>",
		"response": " ",
		"trial": "prac-sent",
		"word": "da",
		"trial_type": "html-keyboard-response",
		"trial_index": 14,
		"time_elapsed": 106498,
		"internal_node_id": "0.0-1.0-1.11"
	},
	{
		"rt": 1628,
		"stimulus": "<span style=\"font-size:30px; font-family: monospace\">mesa</span>",
		"response": " ",
		"trial": "prac-sent",
		"word": "mesa",
		"trial_type": "html-keyboard-response",
		"trial_index": 15,
		"time_elapsed": 108390,
		"internal_node_id": "0.0-1.0-1.12"
	},
	{
		"rt": 975,
		"stimulus": "<span style=\"font-size:30px; font-family: monospace\">de</span>",
		"response": " ",
		"trial": "prac-sent",
		"word": "de",
		"trial_type": "html-keyboard-response",
		"trial_index": 16,
		"time_elapsed": 109618,
		"internal_node_id": "0.0-1.0-1.13"
	},
	{
		"rt": 2340,
		"stimulus": "<span style=\"font-size:30px; font-family: monospace\">jantar.</span>",
		"response": " ",
		"trial": "prac-comp",
		"word": "jantar.",
		"trial_type": "html-keyboard-response",
		"trial_index": 17,
		"time_elapsed": 112214,
		"internal_node_id": "0.0-1.0-1.14"
	},
	{
		"rt": 16302,
		"stimulus": "<span style=\"font-size:30px; font-family: monospace\">A caneca permaneceu na mesa?</span>",
		"response": "s",
		"question": "A caneca permaneceu na mesa?",
		"answer": "não",
		"trial": "prac-comp",
		"trial_type": "html-keyboard-response",
		"trial_index": 18,
		"time_elapsed": 128779,
		"internal_node_id": "0.0-1.0-2.14-0.14",
		"accuracy": false
	},
	{
		"view_history": [
			{
				"page_index": 0,
				"viewing_time": 30300
			}
		],
		"rt": 30301,
		"trial_type": "instructions",
		"trial_index": 19,
		"time_elapsed": 159583,
		"internal_node_id": "0.0-2.0"
	},
	{
		"rt": null,
		"stimulus": "<span style= \"font-size:30px; font-family: monospace\">+</span>",
		"response": null,
		"trial_part": "fixation",
		"trial_type": "html-keyboard-response",
		"trial_index": 20,
		"time_elapsed": 160690,
		"internal_node_id": "0.0-3.0-0.0-0.0"
	},
	{
		"rt": 1573,
		"stimulus": "<span style=\"font-size:30px; font-family: monospace\">Eu</span>",
		"response": " ",
		"trial": "exp-sent",
		"word": "Eu",
		"trial_type": "html-keyboard-response",
		"trial_index": 21,
		"time_elapsed": 162524,
		"internal_node_id": "0.0-3.0-1.0"
	},
	{
		"rt": 921,
		"stimulus": "<span style=\"font-size:30px; font-family: monospace\">gosto</span>",
		"response": " ",
		"trial": "exp-sent",
		"word": "gosto",
		"trial_type": "html-keyboard-response",
		"trial_index": 22,
		"time_elapsed": 163710,
		"internal_node_id": "0.0-3.0-1.1"
	},
	{
		"rt": 501,
		"stimulus": "<span style=\"font-size:30px; font-family: monospace\">de</span>",
		"response": " ",
		"trial": "exp-sent",
		"word": "de",
		"trial_type": "html-keyboard-response",
		"trial_index": 23,
		"time_elapsed": 164482,
		"internal_node_id": "0.0-3.0-1.2"
	},
	{
		"rt": 688,
		"stimulus": "<span style=\"font-size:30px; font-family: monospace\">molho</span>",
		"response": " ",
		"trial": "exp-sent",
		"word": "molho",
		"trial_type": "html-keyboard-response",
		"trial_index": 24,
		"time_elapsed": 165425,
		"internal_node_id": "0.0-3.0-1.3"
	},
	{
		"rt": 1032,
		"stimulus": "<span style=\"font-size:30px; font-family: monospace\">picante</span>",
		"response": " ",
		"trial": "exp-sent",
		"word": "picante",
		"trial_type": "html-keyboard-response",
		"trial_index": 25,
		"time_elapsed": 166722,
		"internal_node_id": "0.0-3.0-1.4"
	},
	{
		"rt": 659,
		"stimulus": "<span style=\"font-size:30px; font-family: monospace\">nas</span>",
		"response": " ",
		"trial": "exp-sent",
		"word": "nas",
		"trial_type": "html-keyboard-response",
		"trial_index": 26,
		"time_elapsed": 167639,
		"internal_node_id": "0.0-3.0-1.5"
	},
	{
		"rt": 1037,
		"stimulus": "<span style=\"font-size:30px; font-family: monospace\">batatas.</span>",
		"response": " ",
		"trial": "exp-sent",
		"word": "batatas.",
		"trial_type": "html-keyboard-response",
		"trial_index": 27,
		"time_elapsed": 168935,
		"internal_node_id": "0.0-3.0-1.6"
	},
	{
		"rt": null,
		"stimulus": "<span style= \"font-size:30px; font-family: monospace\">+</span>",
		"response": null,
		"trial_part": "fixation",
		"trial_type": "html-keyboard-response",
		"trial_index": 28,
		"time_elapsed": 170202,
		"internal_node_id": "0.0-3.0-0.7-0.7"
	},
	{
		"rt": 1500,
		"stimulus": "<span style=\"font-size:30px; font-family: monospace\">As</span>",
		"response": " ",
		"trial": "exp-sent",
		"word": "As",
		"trial_type": "html-keyboard-response",
		"trial_index": 29,
		"time_elapsed": 171954,
		"internal_node_id": "0.0-3.0-1.7"
	},
	{
		"rt": 910,
		"stimulus": "<span style=\"font-size:30px; font-family: monospace\">pessoas</span>",
		"response": " ",
		"trial": "exp-sent",
		"word": "pessoas",
		"trial_type": "html-keyboard-response",
		"trial_index": 30,
		"time_elapsed": 173118,
		"internal_node_id": "0.0-3.0-1.8"
	},
	{
		"rt": 954,
		"stimulus": "<span style=\"font-size:30px; font-family: monospace\">têm</span>",
		"response": " ",
		"trial": "exp-sent",
		"word": "têm",
		"trial_type": "html-keyboard-response",
		"trial_index": 31,
		"time_elapsed": 174333,
		"internal_node_id": "0.0-3.0-1.9"
	},
	{
		"rt": 660,
		"stimulus": "<span style=\"font-size:30px; font-family: monospace\">sua</span>",
		"response": " ",
		"trial": "exp-sent",
		"word": "sua",
		"trial_type": "html-keyboard-response",
		"trial_index": 32,
		"time_elapsed": 175251,
		"internal_node_id": "0.0-3.0-1.10"
	},
	{
		"rt": 1121,
		"stimulus": "<span style=\"font-size:30px; font-family: monospace\">liberdade</span>",
		"response": " ",
		"trial": "exp-sent",
		"word": "liberdade",
		"trial_type": "html-keyboard-response",
		"trial_index": 33,
		"time_elapsed": 176625,
		"internal_node_id": "0.0-3.0-1.11"
	},
	{
		"rt": 962,
		"stimulus": "<span style=\"font-size:30px; font-family: monospace\">até</span>",
		"response": " ",
		"trial": "exp-sent",
		"word": "até",
		"trial_type": "html-keyboard-response",
		"trial_index": 34,
		"time_elapsed": 177843,
		"internal_node_id": "0.0-3.0-1.12"
	},
	{
		"rt": 1163,
		"stimulus": "<span style=\"font-size:30px; font-family: monospace\">certo</span>",
		"response": " ",
		"trial": "exp-sent",
		"word": "certo",
		"trial_type": "html-keyboard-response",
		"trial_index": 35,
		"time_elapsed": 179258,
		"internal_node_id": "0.0-3.0-1.13"
	},
	{
		"rt": 1294,
		"stimulus": "<span style=\"font-size:30px; font-family: monospace\">ponto.</span>",
		"response": " ",
		"trial": "exp-sent",
		"word": "ponto.",
		"trial_type": "html-keyboard-response",
		"trial_index": 36,
		"time_elapsed": 180812,
		"internal_node_id": "0.0-3.0-1.14"
	},
	{
		"rt": null,
		"stimulus": "<span style= \"font-size:30px; font-family: monospace\">+</span>",
		"response": null,
		"trial_part": "fixation",
		"trial_type": "html-keyboard-response",
		"trial_index": 37,
		"time_elapsed": 182078,
		"internal_node_id": "0.0-3.0-0.15-0.15"
	},
	{
		"rt": 921,
		"stimulus": "<span style=\"font-size:30px; font-family: monospace\">A</span>",
		"response": " ",
		"trial": "exp-sent",
		"word": "A",
		"trial_type": "html-keyboard-response",
		"trial_index": 38,
		"time_elapsed": 183254,
		"internal_node_id": "0.0-3.0-1.15"
	},
	{
		"rt": 2342,
		"stimulus": "<span style=\"font-size:30px; font-family: monospace\">empresa</span>",
		"response": " ",
		"trial": "exp-sent",
		"word": "empresa",
		"trial_type": "html-keyboard-response",
		"trial_index": 39,
		"time_elapsed": 185848,
		"internal_node_id": "0.0-3.0-1.16"
	},
	{
		"rt": 893,
		"stimulus": "<span style=\"font-size:30px; font-family: monospace\">enviou</span>",
		"response": " ",
		"trial": "exp-sent",
		"word": "enviou",
		"trial_type": "html-keyboard-response",
		"trial_index": 40,
		"time_elapsed": 187000,
		"internal_node_id": "0.0-3.0-1.17"
	},
	{
		"rt": 820,
		"stimulus": "<span style=\"font-size:30px; font-family: monospace\">o</span>",
		"response": " ",
		"trial": "exp-sent",
		"word": "o",
		"trial_type": "html-keyboard-response",
		"trial_index": 41,
		"time_elapsed": 188077,
		"internal_node_id": "0.0-3.0-1.18"
	},
	{
		"rt": 653,
		"stimulus": "<span style=\"font-size:30px; font-family: monospace\">aviso</span>",
		"response": " ",
		"trial": "exp-sent",
		"word": "aviso",
		"trial_type": "html-keyboard-response",
		"trial_index": 42,
		"time_elapsed": 188995,
		"internal_node_id": "0.0-3.0-1.19"
	},
	{
		"rt": 860,
		"stimulus": "<span style=\"font-size:30px; font-family: monospace\">hoje</span>",
		"response": " ",
		"trial": "exp-sent",
		"word": "hoje",
		"trial_type": "html-keyboard-response",
		"trial_index": 43,
		"time_elapsed": 190116,
		"internal_node_id": "0.0-3.0-1.20"
	},
	{
		"rt": 527,
		"stimulus": "<span style=\"font-size:30px; font-family: monospace\">de</span>",
		"response": " ",
		"trial": "exp-sent",
		"word": "de",
		"trial_type": "html-keyboard-response",
		"trial_index": 44,
		"time_elapsed": 190897,
		"internal_node_id": "0.0-3.0-1.21"
	},
	{
		"rt": 1386,
		"stimulus": "<span style=\"font-size:30px; font-family: monospace\">tarde.</span>",
		"response": " ",
		"trial": "exp-sent",
		"word": "tarde.",
		"trial_type": "html-keyboard-response",
		"trial_index": 45,
		"time_elapsed": 192548,
		"internal_node_id": "0.0-3.0-1.22"
	},
	{
		"rt": null,
		"stimulus": "<span style= \"font-size:30px; font-family: monospace\">+</span>",
		"response": null,
		"trial_part": "fixation",
		"trial_type": "html-keyboard-response",
		"trial_index": 46,
		"time_elapsed": 193817,
		"internal_node_id": "0.0-3.0-0.23-0.23"
	},
	{
		"rt": 1339,
		"stimulus": "<span style=\"font-size:30px; font-family: monospace\">A</span>",
		"response": " ",
		"trial": "exp-sent",
		"word": "A",
		"trial_type": "html-keyboard-response",
		"trial_index": 47,
		"time_elapsed": 195418,
		"internal_node_id": "0.0-3.0-1.23"
	},
	{
		"rt": 1140,
		"stimulus": "<span style=\"font-size:30px; font-family: monospace\">loja</span>",
		"response": " ",
		"trial": "exp-sent",
		"word": "loja",
		"trial_type": "html-keyboard-response",
		"trial_index": 48,
		"time_elapsed": 196809,
		"internal_node_id": "0.0-3.0-1.24"
	},
	{
		"rt": 989,
		"stimulus": "<span style=\"font-size:30px; font-family: monospace\">vende</span>",
		"response": " ",
		"trial": "exp-sent",
		"word": "vende",
		"trial_type": "html-keyboard-response",
		"trial_index": 49,
		"time_elapsed": 198049,
		"internal_node_id": "0.0-3.0-1.25"
	},
	{
		"rt": 848,
		"stimulus": "<span style=\"font-size:30px; font-family: monospace\">tanto</span>",
		"response": " ",
		"trial": "exp-sent",
		"word": "tanto",
		"trial_type": "html-keyboard-response",
		"trial_index": 50,
		"time_elapsed": 199167,
		"internal_node_id": "0.0-3.0-1.26"
	},
	{
		"rt": 2162,
		"stimulus": "<span style=\"font-size:30px; font-family: monospace\">frituras</span>",
		"response": " ",
		"trial": "exp-sent",
		"word": "frituras",
		"trial_type": "html-keyboard-response",
		"trial_index": 51,
		"time_elapsed": 201595,
		"internal_node_id": "0.0-3.0-1.27"
	},
	{
		"rt": 863,
		"stimulus": "<span style=\"font-size:30px; font-family: monospace\">quanto</span>",
		"response": " ",
		"trial": "exp-sent",
		"word": "quanto",
		"trial_type": "html-keyboard-response",
		"trial_index": 52,
		"time_elapsed": 202728,
		"internal_node_id": "0.0-3.0-1.28"
	},
	{
		"rt": 909,
		"stimulus": "<span style=\"font-size:30px; font-family: monospace\">comidas</span>",
		"response": " ",
		"trial": "exp-sent",
		"word": "comidas",
		"trial_type": "html-keyboard-response",
		"trial_index": 53,
		"time_elapsed": 203891,
		"internal_node_id": "0.0-3.0-1.29"
	},
	{
		"rt": 1032,
		"stimulus": "<span style=\"font-size:30px; font-family: monospace\">leves.</span>",
		"response": " ",
		"trial": "exp-sent",
		"word": "leves.",
		"trial_type": "html-keyboard-response",
		"trial_index": 54,
		"time_elapsed": 205186,
		"internal_node_id": "0.0-3.0-1.30"
	},
	{
		"rt": null,
		"stimulus": "<span style= \"font-size:30px; font-family: monospace\">+</span>",
		"response": null,
		"trial_part": "fixation",
		"trial_type": "html-keyboard-response",
		"trial_index": 55,
		"time_elapsed": 206455,
		"internal_node_id": "0.0-3.0-0.31-0.31"
	},
	{
		"rt": 1101,
		"stimulus": "<span style=\"font-size:30px; font-family: monospace\">As</span>",
		"response": " ",
		"trial": "exp-sent",
		"word": "As",
		"trial_type": "html-keyboard-response",
		"trial_index": 56,
		"time_elapsed": 207814,
		"internal_node_id": "0.0-3.0-1.31"
	},
	{
		"rt": 1028,
		"stimulus": "<span style=\"font-size:30px; font-family: monospace\">cadeiras</span>",
		"response": " ",
		"trial": "exp-sent",
		"word": "cadeiras",
		"trial_type": "html-keyboard-response",
		"trial_index": 57,
		"time_elapsed": 209100,
		"internal_node_id": "0.0-3.0-1.32"
	},
	{
		"rt": 1590,
		"stimulus": "<span style=\"font-size:30px; font-family: monospace\">azuis</span>",
		"response": " ",
		"trial": "exp-sent",
		"word": "azuis",
		"trial_type": "html-keyboard-response",
		"trial_index": 58,
		"time_elapsed": 210948,
		"internal_node_id": "0.0-3.0-1.33"
	},
	{
		"rt": 929,
		"stimulus": "<span style=\"font-size:30px; font-family: monospace\">da</span>",
		"response": " ",
		"trial": "exp-sent",
		"word": "da",
		"trial_type": "html-keyboard-response",
		"trial_index": 59,
		"time_elapsed": 212140,
		"internal_node_id": "0.0-3.0-1.34"
	},
	{
		"rt": 1034,
		"stimulus": "<span style=\"font-size:30px; font-family: monospace\">sala</span>",
		"response": " ",
		"trial": "exp-sent",
		"word": "sala",
		"trial_type": "html-keyboard-response",
		"trial_index": 60,
		"time_elapsed": 213428,
		"internal_node_id": "0.0-3.0-1.35"
	},
	{
		"rt": 897,
		"stimulus": "<span style=\"font-size:30px; font-family: monospace\">eram</span>",
		"response": " ",
		"trial": "exp-sent",
		"word": "eram",
		"trial_type": "html-keyboard-response",
		"trial_index": 61,
		"time_elapsed": 214596,
		"internal_node_id": "0.0-3.0-1.36"
	},
	{
		"rt": 1030,
		"stimulus": "<span style=\"font-size:30px; font-family: monospace\">da</span>",
		"response": " ",
		"trial": "exp-sent",
		"word": "da",
		"trial_type": "html-keyboard-response",
		"trial_index": 62,
		"time_elapsed": 215879,
		"internal_node_id": "0.0-3.0-1.37"
	},
	{
		"rt": 968,
		"stimulus": "<span style=\"font-size:30px; font-family: monospace\">minha</span>",
		"response": " ",
		"trial": "exp-sent",
		"word": "minha",
		"trial_type": "html-keyboard-response",
		"trial_index": 63,
		"time_elapsed": 217108,
		"internal_node_id": "0.0-3.0-1.38"
	},
	{
		"rt": 1991,
		"stimulus": "<span style=\"font-size:30px; font-family: monospace\">vó.</span>",
		"response": " ",
		"trial": "comp",
		"word": "vó.",
		"trial_type": "html-keyboard-response",
		"trial_index": 64,
		"time_elapsed": 219364,
		"internal_node_id": "0.0-3.0-1.39"
	},
	{
		"rt": 9096,
		"stimulus": "<span style=\"font-size:30px; font-family: monospace\">As cadeiras eram da avó?</span>",
		"response": "s",
		"question": "As cadeiras eram da avó?",
		"answer": "sim",
		"trial": "comp",
		"trial_type": "html-keyboard-response",
		"trial_index": 65,
		"time_elapsed": 228720,
		"internal_node_id": "0.0-3.0-2.39-0.39",
		"accuracy": false
	},
	{
		"rt": null,
		"stimulus": "<span style= \"font-size:30px; font-family: monospace\">+</span>",
		"response": null,
		"trial_part": "fixation",
		"trial_type": "html-keyboard-response",
		"trial_index": 66,
		"time_elapsed": 230227,
		"internal_node_id": "0.0-3.0-0.40-0.40"
	},
	{
		"rt": 2500,
		"stimulus": "<span style=\"font-size:30px; font-family: monospace\">As</span>",
		"response": " ",
		"trial": "exp-sent",
		"word": "As",
		"trial_type": "html-keyboard-response",
		"trial_index": 67,
		"time_elapsed": 232983,
		"internal_node_id": "0.0-3.0-1.40"
	},
	{
		"rt": 1143,
		"stimulus": "<span style=\"font-size:30px; font-family: monospace\">crianças</span>",
		"response": " ",
		"trial": "exp-sent",
		"word": "crianças",
		"trial_type": "html-keyboard-response",
		"trial_index": 68,
		"time_elapsed": 234379,
		"internal_node_id": "0.0-3.0-1.41"
	},
	{
		"rt": 1245,
		"stimulus": "<span style=\"font-size:30px; font-family: monospace\">viram</span>",
		"response": " ",
		"trial": "exp-sent",
		"word": "viram",
		"trial_type": "html-keyboard-response",
		"trial_index": 69,
		"time_elapsed": 235881,
		"internal_node_id": "0.0-3.0-1.42"
	},
	{
		"rt": 1003,
		"stimulus": "<span style=\"font-size:30px; font-family: monospace\">um</span>",
		"response": " ",
		"trial": "exp-sent",
		"word": "um",
		"trial_type": "html-keyboard-response",
		"trial_index": 70,
		"time_elapsed": 237137,
		"internal_node_id": "0.0-3.0-1.43"
	},
	{
		"rt": 2534,
		"stimulus": "<span style=\"font-size:30px; font-family: monospace\">vaga-lume</span>",
		"response": " ",
		"trial": "exp-sent",
		"word": "vaga-lume",
		"trial_type": "html-keyboard-response",
		"trial_index": 71,
		"time_elapsed": 239927,
		"internal_node_id": "0.0-3.0-1.44"
	},
	{
		"rt": 886,
		"stimulus": "<span style=\"font-size:30px; font-family: monospace\">nos</span>",
		"response": " ",
		"trial": "exp-sent",
		"word": "nos",
		"trial_type": "html-keyboard-response",
		"trial_index": 72,
		"time_elapsed": 241067,
		"internal_node_id": "0.0-3.0-1.45"
	},
	{
		"rt": 1804,
		"stimulus": "<span style=\"font-size:30px; font-family: monospace\">arbustos.</span>",
		"response": " ",
		"trial": "exp-sent",
		"word": "arbustos.",
		"trial_type": "html-keyboard-response",
		"trial_index": 73,
		"time_elapsed": 243125,
		"internal_node_id": "0.0-3.0-1.46"
	},
	{
		"rt": null,
		"stimulus": "<span style= \"font-size:30px; font-family: monospace\">+</span>",
		"response": null,
		"trial_part": "fixation",
		"trial_type": "html-keyboard-response",
		"trial_index": 74,
		"time_elapsed": 244393,
		"internal_node_id": "0.0-3.0-0.47-0.47"
	},
	{
		"rt": 1275,
		"stimulus": "<span style=\"font-size:30px; font-family: monospace\">Ontem</span>",
		"response": " ",
		"trial": "exp-sent",
		"word": "Ontem",
		"trial_type": "html-keyboard-response",
		"trial_index": 75,
		"time_elapsed": 245921,
		"internal_node_id": "0.0-3.0-1.47"
	},
	{
		"rt": 811,
		"stimulus": "<span style=\"font-size:30px; font-family: monospace\">o</span>",
		"response": " ",
		"trial": "exp-sent",
		"word": "o",
		"trial_type": "html-keyboard-response",
		"trial_index": 76,
		"time_elapsed": 246989,
		"internal_node_id": "0.0-3.0-1.48"
	},
	{
		"rt": 1256,
		"stimulus": "<span style=\"font-size:30px; font-family: monospace\">funcionário</span>",
		"response": " ",
		"trial": "exp-sent",
		"word": "funcionário",
		"trial_type": "html-keyboard-response",
		"trial_index": 77,
		"time_elapsed": 248499,
		"internal_node_id": "0.0-3.0-1.49"
	},
	{
		"rt": 1388,
		"stimulus": "<span style=\"font-size:30px; font-family: monospace\">pediu</span>",
		"response": " ",
		"trial": "exp-sent",
		"word": "pediu",
		"trial_type": "html-keyboard-response",
		"trial_index": 78,
		"time_elapsed": 250151,
		"internal_node_id": "0.0-3.0-1.50"
	},
	{
		"rt": 1463,
		"stimulus": "<span style=\"font-size:30px; font-family: monospace\">autorização</span>",
		"response": " ",
		"trial": "exp-sent",
		"word": "autorização",
		"trial_type": "html-keyboard-response",
		"trial_index": 79,
		"time_elapsed": 251871,
		"internal_node_id": "0.0-3.0-1.51"
	},
	{
		"rt": 970,
		"stimulus": "<span style=\"font-size:30px; font-family: monospace\">para</span>",
		"response": " ",
		"trial": "exp-sent",
		"word": "para",
		"trial_type": "html-keyboard-response",
		"trial_index": 80,
		"time_elapsed": 253094,
		"internal_node_id": "0.0-3.0-1.52"
	},
	{
		"rt": 972,
		"stimulus": "<span style=\"font-size:30px; font-family: monospace\">a</span>",
		"response": " ",
		"trial": "exp-sent",
		"word": "a",
		"trial_type": "html-keyboard-response",
		"trial_index": 81,
		"time_elapsed": 254323,
		"internal_node_id": "0.0-3.0-1.53"
	},
	{
		"rt": 2053,
		"stimulus": "<span style=\"font-size:30px; font-family: monospace\">colega.</span>",
		"response": " ",
		"trial": "exp-sent",
		"word": "colega.",
		"trial_type": "html-keyboard-response",
		"trial_index": 82,
		"time_elapsed": 256637,
		"internal_node_id": "0.0-3.0-1.54"
	},
	{
		"rt": null,
		"stimulus": "<span style= \"font-size:30px; font-family: monospace\">+</span>",
		"response": null,
		"trial_part": "fixation",
		"trial_type": "html-keyboard-response",
		"trial_index": 83,
		"time_elapsed": 257904,
		"internal_node_id": "0.0-3.0-0.55-0.55"
	},
	{
		"rt": 1705,
		"stimulus": "<span style=\"font-size:30px; font-family: monospace\">Eu</span>",
		"response": " ",
		"trial": "exp-sent",
		"word": "Eu",
		"trial_type": "html-keyboard-response",
		"trial_index": 84,
		"time_elapsed": 259862,
		"internal_node_id": "0.0-3.0-1.55"
	},
	{
		"rt": 1159,
		"stimulus": "<span style=\"font-size:30px; font-family: monospace\">sempre</span>",
		"response": " ",
		"trial": "exp-sent",
		"word": "sempre",
		"trial_type": "html-keyboard-response",
		"trial_index": 85,
		"time_elapsed": 261280,
		"internal_node_id": "0.0-3.0-1.56"
	},
	{
		"rt": 844,
		"stimulus": "<span style=\"font-size:30px; font-family: monospace\">fujo</span>",
		"response": " ",
		"trial": "exp-sent",
		"word": "fujo",
		"trial_type": "html-keyboard-response",
		"trial_index": 86,
		"time_elapsed": 262376,
		"internal_node_id": "0.0-3.0-1.57"
	},
	{
		"rt": 722,
		"stimulus": "<span style=\"font-size:30px; font-family: monospace\">de</span>",
		"response": " ",
		"trial": "exp-sent",
		"word": "de",
		"trial_type": "html-keyboard-response",
		"trial_index": 87,
		"time_elapsed": 263359,
		"internal_node_id": "0.0-3.0-1.58"
	},
	{
		"rt": 1189,
		"stimulus": "<span style=\"font-size:30px; font-family: monospace\">conflito</span>",
		"response": " ",
		"trial": "exp-sent",
		"word": "conflito",
		"trial_type": "html-keyboard-response",
		"trial_index": 88,
		"time_elapsed": 264814,
		"internal_node_id": "0.0-3.0-1.59"
	},
	{
		"rt": 897,
		"stimulus": "<span style=\"font-size:30px; font-family: monospace\">com</span>",
		"response": " ",
		"trial": "exp-sent",
		"word": "com",
		"trial_type": "html-keyboard-response",
		"trial_index": 89,
		"time_elapsed": 265962,
		"internal_node_id": "0.0-3.0-1.60"
	},
	{
		"rt": 779,
		"stimulus": "<span style=\"font-size:30px; font-family: monospace\">as</span>",
		"response": " ",
		"trial": "exp-sent",
		"word": "as",
		"trial_type": "html-keyboard-response",
		"trial_index": 90,
		"time_elapsed": 266999,
		"internal_node_id": "0.0-3.0-1.61"
	},
	{
		"rt": 2235,
		"stimulus": "<span style=\"font-size:30px; font-family: monospace\">pessoas.</span>",
		"response": " ",
		"trial": "exp-sent",
		"word": "pessoas.",
		"trial_type": "html-keyboard-response",
		"trial_index": 91,
		"time_elapsed": 269488,
		"internal_node_id": "0.0-3.0-1.62"
	},
	{
		"rt": null,
		"stimulus": "<span style= \"font-size:30px; font-family: monospace\">+</span>",
		"response": null,
		"trial_part": "fixation",
		"trial_type": "html-keyboard-response",
		"trial_index": 92,
		"time_elapsed": 270753,
		"internal_node_id": "0.0-3.0-0.63-0.63"
	},
	{
		"rt": 978,
		"stimulus": "<span style=\"font-size:30px; font-family: monospace\">O</span>",
		"response": " ",
		"trial": "exp-sent",
		"word": "O",
		"trial_type": "html-keyboard-response",
		"trial_index": 93,
		"time_elapsed": 271994,
		"internal_node_id": "0.0-3.0-1.63"
	},
	{
		"rt": 977,
		"stimulus": "<span style=\"font-size:30px; font-family: monospace\">bolo</span>",
		"response": " ",
		"trial": "exp-sent",
		"word": "bolo",
		"trial_type": "html-keyboard-response",
		"trial_index": 94,
		"time_elapsed": 273225,
		"internal_node_id": "0.0-3.0-1.64"
	},
	{
		"rt": 825,
		"stimulus": "<span style=\"font-size:30px; font-family: monospace\">era</span>",
		"response": " ",
		"trial": "exp-sent",
		"word": "era",
		"trial_type": "html-keyboard-response",
		"trial_index": 95,
		"time_elapsed": 274301,
		"internal_node_id": "0.0-3.0-1.65"
	},
	{
		"rt": 1010,
		"stimulus": "<span style=\"font-size:30px; font-family: monospace\">de</span>",
		"response": " ",
		"trial": "exp-sent",
		"word": "de",
		"trial_type": "html-keyboard-response",
		"trial_index": 96,
		"time_elapsed": 275574,
		"internal_node_id": "0.0-3.0-1.66"
	},
	{
		"rt": 1594,
		"stimulus": "<span style=\"font-size:30px; font-family: monospace\">abacaxi</span>",
		"response": " ",
		"trial": "exp-sent",
		"word": "abacaxi",
		"trial_type": "html-keyboard-response",
		"trial_index": 97,
		"time_elapsed": 277423,
		"internal_node_id": "0.0-3.0-1.67"
	},
	{
		"rt": 836,
		"stimulus": "<span style=\"font-size:30px; font-family: monospace\">e</span>",
		"response": " ",
		"trial": "exp-sent",
		"word": "e",
		"trial_type": "html-keyboard-response",
		"trial_index": 98,
		"time_elapsed": 278515,
		"internal_node_id": "0.0-3.0-1.68"
	},
	{
		"rt": 1087,
		"stimulus": "<span style=\"font-size:30px; font-family: monospace\">creme</span>",
		"response": " ",
		"trial": "exp-sent",
		"word": "creme",
		"trial_type": "html-keyboard-response",
		"trial_index": 99,
		"time_elapsed": 279855,
		"internal_node_id": "0.0-3.0-1.69"
	},
	{
		"rt": 882,
		"stimulus": "<span style=\"font-size:30px; font-family: monospace\">de</span>",
		"response": " ",
		"trial": "exp-sent",
		"word": "de",
		"trial_type": "html-keyboard-response",
		"trial_index": 100,
		"time_elapsed": 280988,
		"internal_node_id": "0.0-3.0-1.70"
	},
	{
		"rt": 1595,
		"stimulus": "<span style=\"font-size:30px; font-family: monospace\">coco.</span>",
		"response": " ",
		"trial": "exp-sent",
		"word": "coco.",
		"trial_type": "html-keyboard-response",
		"trial_index": 101,
		"time_elapsed": 282839,
		"internal_node_id": "0.0-3.0-1.71"
	},
	{
		"rt": null,
		"stimulus": "<span style= \"font-size:30px; font-family: monospace\">+</span>",
		"response": null,
		"trial_part": "fixation",
		"trial_type": "html-keyboard-response",
		"trial_index": 102,
		"time_elapsed": 284105,
		"internal_node_id": "0.0-3.0-0.72-0.72"
	},
	{
		"rt": 912,
		"stimulus": "<span style=\"font-size:30px; font-family: monospace\">As</span>",
		"response": " ",
		"trial": "exp-sent",
		"word": "As",
		"trial_type": "html-keyboard-response",
		"trial_index": 103,
		"time_elapsed": 285274,
		"internal_node_id": "0.0-3.0-1.72"
	},
	{
		"rt": 812,
		"stimulus": "<span style=\"font-size:30px; font-family: monospace\">crianças</span>",
		"response": " ",
		"trial": "exp-sent",
		"word": "crianças",
		"trial_type": "html-keyboard-response",
		"trial_index": 104,
		"time_elapsed": 286346,
		"internal_node_id": "0.0-3.0-1.73"
	},
	{
		"rt": 889,
		"stimulus": "<span style=\"font-size:30px; font-family: monospace\">brincaram</span>",
		"response": " ",
		"trial": "exp-sent",
		"word": "brincaram",
		"trial_type": "html-keyboard-response",
		"trial_index": 105,
		"time_elapsed": 287490,
		"internal_node_id": "0.0-3.0-1.74"
	},
	{
		"rt": 941,
		"stimulus": "<span style=\"font-size:30px; font-family: monospace\">com</span>",
		"response": " ",
		"trial": "exp-sent",
		"word": "com",
		"trial_type": "html-keyboard-response",
		"trial_index": 106,
		"time_elapsed": 288693,
		"internal_node_id": "0.0-3.0-1.75"
	},
	{
		"rt": 2163,
		"stimulus": "<span style=\"font-size:30px; font-family: monospace\">bolhas</span>",
		"response": " ",
		"trial": "exp-sent",
		"word": "bolhas",
		"trial_type": "html-keyboard-response",
		"trial_index": 107,
		"time_elapsed": 291115,
		"internal_node_id": "0.0-3.0-1.76"
	},
	{
		"rt": 1049,
		"stimulus": "<span style=\"font-size:30px; font-family: monospace\">no</span>",
		"response": " ",
		"trial": "exp-sent",
		"word": "no",
		"trial_type": "html-keyboard-response",
		"trial_index": 108,
		"time_elapsed": 292425,
		"internal_node_id": "0.0-3.0-1.77"
	},
	{
		"rt": 1998,
		"stimulus": "<span style=\"font-size:30px; font-family: monospace\">banho.</span>",
		"response": " ",
		"trial": "comp",
		"word": "banho.",
		"trial_type": "html-keyboard-response",
		"trial_index": 109,
		"time_elapsed": 294677,
		"internal_node_id": "0.0-3.0-1.78"
	},
	{
		"rt": 4562,
		"stimulus": "<span style=\"font-size:30px; font-family: monospace\">As crianças brincaram com bolhas?</span>",
		"response": "s",
		"question": "As crianças brincaram com bolhas?",
		"answer": "sim",
		"trial": "comp",
		"trial_type": "html-keyboard-response",
		"trial_index": 110,
		"time_elapsed": 299490,
		"internal_node_id": "0.0-3.0-2.78-0.78",
		"accuracy": false
	},
	{
		"rt": null,
		"stimulus": "<span style= \"font-size:30px; font-family: monospace\">+</span>",
		"response": null,
		"trial_part": "fixation",
		"trial_type": "html-keyboard-response",
		"trial_index": 111,
		"time_elapsed": 301001,
		"internal_node_id": "0.0-3.0-0.79-0.79"
	},
	{
		"rt": 2287,
		"stimulus": "<span style=\"font-size:30px; font-family: monospace\">A</span>",
		"response": " ",
		"trial": "exp-sent",
		"word": "A",
		"trial_type": "html-keyboard-response",
		"trial_index": 112,
		"time_elapsed": 303546,
		"internal_node_id": "0.0-3.0-1.79"
	},
	{
		"rt": 1340,
		"stimulus": "<span style=\"font-size:30px; font-family: monospace\">motorista</span>",
		"response": " ",
		"trial": "exp-sent",
		"word": "motorista",
		"trial_type": "html-keyboard-response",
		"trial_index": 113,
		"time_elapsed": 305141,
		"internal_node_id": "0.0-3.0-1.80"
	},
	{
		"rt": 1026,
		"stimulus": "<span style=\"font-size:30px; font-family: monospace\">fez</span>",
		"response": " ",
		"trial": "exp-sent",
		"word": "fez",
		"trial_type": "html-keyboard-response",
		"trial_index": 114,
		"time_elapsed": 306426,
		"internal_node_id": "0.0-3.0-1.81"
	},
	{
		"rt": 788,
		"stimulus": "<span style=\"font-size:30px; font-family: monospace\">o</span>",
		"response": " ",
		"trial": "exp-sent",
		"word": "o",
		"trial_type": "html-keyboard-response",
		"trial_index": 115,
		"time_elapsed": 307474,
		"internal_node_id": "0.0-3.0-1.82"
	},
	{
		"rt": 1219,
		"stimulus": "<span style=\"font-size:30px; font-family: monospace\">retorno</span>",
		"response": " ",
		"trial": "exp-sent",
		"word": "retorno",
		"trial_type": "html-keyboard-response",
		"trial_index": 116,
		"time_elapsed": 308947,
		"internal_node_id": "0.0-3.0-1.83"
	},
	{
		"rt": 719,
		"stimulus": "<span style=\"font-size:30px; font-family: monospace\">com</span>",
		"response": " ",
		"trial": "exp-sent",
		"word": "com",
		"trial_type": "html-keyboard-response",
		"trial_index": 117,
		"time_elapsed": 309921,
		"internal_node_id": "0.0-3.0-1.84"
	},
	{
		"rt": 887,
		"stimulus": "<span style=\"font-size:30px; font-family: monospace\">cuidado.</span>",
		"response": " ",
		"trial": "exp-sent",
		"word": "cuidado.",
		"trial_type": "html-keyboard-response",
		"trial_index": 118,
		"time_elapsed": 311061,
		"internal_node_id": "0.0-3.0-1.85"
	},
	{
		"rt": null,
		"stimulus": "<span style= \"font-size:30px; font-family: monospace\">+</span>",
		"response": null,
		"trial_part": "fixation",
		"trial_type": "html-keyboard-response",
		"trial_index": 119,
		"time_elapsed": 312329,
		"internal_node_id": "0.0-3.0-0.86-0.86"
	},
	{
		"rt": 903,
		"stimulus": "<span style=\"font-size:30px; font-family: monospace\">Contos</span>",
		"response": " ",
		"trial": "exp-sent",
		"word": "Contos",
		"trial_type": "html-keyboard-response",
		"trial_index": 120,
		"time_elapsed": 313498,
		"internal_node_id": "0.0-3.0-1.86"
	},
	{
		"rt": 677,
		"stimulus": "<span style=\"font-size:30px; font-family: monospace\">de</span>",
		"response": " ",
		"trial": "exp-sent",
		"word": "de",
		"trial_type": "html-keyboard-response",
		"trial_index": 121,
		"time_elapsed": 314439,
		"internal_node_id": "0.0-3.0-1.87"
	},
	{
		"rt": 844,
		"stimulus": "<span style=\"font-size:30px; font-family: monospace\">ação</span>",
		"response": " ",
		"trial": "exp-sent",
		"word": "ação",
		"trial_type": "html-keyboard-response",
		"trial_index": 122,
		"time_elapsed": 315542,
		"internal_node_id": "0.0-3.0-1.88"
	},
	{
		"rt": 609,
		"stimulus": "<span style=\"font-size:30px; font-family: monospace\">têm</span>",
		"response": " ",
		"trial": "exp-sent",
		"word": "têm",
		"trial_type": "html-keyboard-response",
		"trial_index": 123,
		"time_elapsed": 316416,
		"internal_node_id": "0.0-3.0-1.89"
	},
	{
		"rt": 1727,
		"stimulus": "<span style=\"font-size:30px; font-family: monospace\">chantagem</span>",
		"response": " ",
		"trial": "exp-sent",
		"word": "chantagem",
		"trial_type": "html-keyboard-response",
		"trial_index": 124,
		"time_elapsed": 318394,
		"internal_node_id": "0.0-3.0-1.90"
	},
	{
		"rt": 633,
		"stimulus": "<span style=\"font-size:30px; font-family: monospace\">e</span>",
		"response": " ",
		"trial": "exp-sent",
		"word": "e",
		"trial_type": "html-keyboard-response",
		"trial_index": 125,
		"time_elapsed": 319290,
		"internal_node_id": "0.0-3.0-1.91"
	},
	{
		"rt": 782,
		"stimulus": "<span style=\"font-size:30px; font-family: monospace\">muita</span>",
		"response": " ",
		"trial": "exp-sent",
		"word": "muita",
		"trial_type": "html-keyboard-response",
		"trial_index": 126,
		"time_elapsed": 320331,
		"internal_node_id": "0.0-3.0-1.92"
	},
	{
		"rt": 932,
		"stimulus": "<span style=\"font-size:30px; font-family: monospace\">luta.</span>",
		"response": " ",
		"trial": "exp-sent",
		"word": "luta.",
		"trial_type": "html-keyboard-response",
		"trial_index": 127,
		"time_elapsed": 321517,
		"internal_node_id": "0.0-3.0-1.93"
	},
	{
		"rt": null,
		"stimulus": "<span style= \"font-size:30px; font-family: monospace\">+</span>",
		"response": null,
		"trial_part": "fixation",
		"trial_type": "html-keyboard-response",
		"trial_index": 128,
		"time_elapsed": 322797,
		"internal_node_id": "0.0-3.0-0.94-0.94"
	},
	{
		"rt": 1285,
		"stimulus": "<span style=\"font-size:30px; font-family: monospace\">A</span>",
		"response": " ",
		"trial": "exp-sent",
		"word": "A",
		"trial_type": "html-keyboard-response",
		"trial_index": 129,
		"time_elapsed": 324337,
		"internal_node_id": "0.0-3.0-1.94"
	},
	{
		"rt": 1856,
		"stimulus": "<span style=\"font-size:30px; font-family: monospace\">bisavó</span>",
		"response": " ",
		"trial": "exp-sent",
		"word": "bisavó",
		"trial_type": "html-keyboard-response",
		"trial_index": 130,
		"time_elapsed": 326451,
		"internal_node_id": "0.0-3.0-1.95"
	},
	{
		"rt": 1398,
		"stimulus": "<span style=\"font-size:30px; font-family: monospace\">recebeu</span>",
		"response": " ",
		"trial": "exp-sent",
		"word": "recebeu",
		"trial_type": "html-keyboard-response",
		"trial_index": 131,
		"time_elapsed": 328102,
		"internal_node_id": "0.0-3.0-1.96"
	},
	{
		"rt": 979,
		"stimulus": "<span style=\"font-size:30px; font-family: monospace\">um</span>",
		"response": " ",
		"trial": "exp-sent",
		"word": "um",
		"trial_type": "html-keyboard-response",
		"trial_index": 132,
		"time_elapsed": 329332,
		"internal_node_id": "0.0-3.0-1.97"
	},
	{
		"rt": 1975,
		"stimulus": "<span style=\"font-size:30px; font-family: monospace\">benefício</span>",
		"response": " ",
		"trial": "exp-sent",
		"word": "benefício",
		"trial_type": "html-keyboard-response",
		"trial_index": 133,
		"time_elapsed": 331577,
		"internal_node_id": "0.0-3.0-1.98"
	},
	{
		"rt": 1296,
		"stimulus": "<span style=\"font-size:30px; font-family: monospace\">temporário</span>",
		"response": " ",
		"trial": "exp-sent",
		"word": "temporário",
		"trial_type": "html-keyboard-response",
		"trial_index": 134,
		"time_elapsed": 333127,
		"internal_node_id": "0.0-3.0-1.99"
	},
	{
		"rt": 648,
		"stimulus": "<span style=\"font-size:30px; font-family: monospace\">do</span>",
		"response": " ",
		"trial": "exp-sent",
		"word": "do",
		"trial_type": "html-keyboard-response",
		"trial_index": 135,
		"time_elapsed": 334039,
		"internal_node_id": "0.0-3.0-1.100"
	},
	{
		"rt": 2431,
		"stimulus": "<span style=\"font-size:30px; font-family: monospace\">governo.</span>",
		"response": " ",
		"trial": "exp-sent",
		"word": "governo.",
		"trial_type": "html-keyboard-response",
		"trial_index": 136,
		"time_elapsed": 336722,
		"internal_node_id": "0.0-3.0-1.101"
	},
	{
		"rt": null,
		"stimulus": "<span style= \"font-size:30px; font-family: monospace\">+</span>",
		"response": null,
		"trial_part": "fixation",
		"trial_type": "html-keyboard-response",
		"trial_index": 137,
		"time_elapsed": 338002,
		"internal_node_id": "0.0-3.0-0.102-0.102"
	},
	{
		"rt": 706,
		"stimulus": "<span style=\"font-size:30px; font-family: monospace\">As</span>",
		"response": " ",
		"trial": "exp-sent",
		"word": "As",
		"trial_type": "html-keyboard-response",
		"trial_index": 138,
		"time_elapsed": 338961,
		"internal_node_id": "0.0-3.0-1.102"
	},
	{
		"rt": 825,
		"stimulus": "<span style=\"font-size:30px; font-family: monospace\">crianças</span>",
		"response": " ",
		"trial": "exp-sent",
		"word": "crianças",
		"trial_type": "html-keyboard-response",
		"trial_index": 139,
		"time_elapsed": 340051,
		"internal_node_id": "0.0-3.0-1.103"
	},
	{
		"rt": 957,
		"stimulus": "<span style=\"font-size:30px; font-family: monospace\">brincaram</span>",
		"response": " ",
		"trial": "exp-sent",
		"word": "brincaram",
		"trial_type": "html-keyboard-response",
		"trial_index": 140,
		"time_elapsed": 341275,
		"internal_node_id": "0.0-3.0-1.104"
	},
	{
		"rt": 798,
		"stimulus": "<span style=\"font-size:30px; font-family: monospace\">no</span>",
		"response": " ",
		"trial": "exp-sent",
		"word": "no",
		"trial_type": "html-keyboard-response",
		"trial_index": 141,
		"time_elapsed": 342339,
		"internal_node_id": "0.0-3.0-1.105"
	},
	{
		"rt": 1531,
		"stimulus": "<span style=\"font-size:30px; font-family: monospace\">balanço</span>",
		"response": " ",
		"trial": "exp-sent",
		"word": "balanço",
		"trial_type": "html-keyboard-response",
		"trial_index": 142,
		"time_elapsed": 344135,
		"internal_node_id": "0.0-3.0-1.106"
	},
	{
		"rt": 1030,
		"stimulus": "<span style=\"font-size:30px; font-family: monospace\">a</span>",
		"response": " ",
		"trial": "exp-sent",
		"word": "a",
		"trial_type": "html-keyboard-response",
		"trial_index": 143,
		"time_elapsed": 345422,
		"internal_node_id": "0.0-3.0-1.107"
	},
	{
		"rt": 1244,
		"stimulus": "<span style=\"font-size:30px; font-family: monospace\">tarde</span>",
		"response": " ",
		"trial": "exp-sent",
		"word": "tarde",
		"trial_type": "html-keyboard-response",
		"trial_index": 144,
		"time_elapsed": 346929,
		"internal_node_id": "0.0-3.0-1.108"
	},
	{
		"rt": 1094,
		"stimulus": "<span style=\"font-size:30px; font-family: monospace\">toda.</span>",
		"response": " ",
		"trial": "exp-sent",
		"word": "toda.",
		"trial_type": "html-keyboard-response",
		"trial_index": 145,
		"time_elapsed": 348289,
		"internal_node_id": "0.0-3.0-1.109"
	},
	{
		"rt": null,
		"stimulus": "<span style= \"font-size:30px; font-family: monospace\">+</span>",
		"response": null,
		"trial_part": "fixation",
		"trial_type": "html-keyboard-response",
		"trial_index": 146,
		"time_elapsed": 349546,
		"internal_node_id": "0.0-3.0-0.110-0.110"
	},
	{
		"rt": 1425,
		"stimulus": "<span style=\"font-size:30px; font-family: monospace\">Ela</span>",
		"response": " ",
		"trial": "exp-sent",
		"word": "Ela",
		"trial_type": "html-keyboard-response",
		"trial_index": 147,
		"time_elapsed": 351225,
		"internal_node_id": "0.0-3.0-1.110"
	},
	{
		"rt": 1423,
		"stimulus": "<span style=\"font-size:30px; font-family: monospace\">gosta</span>",
		"response": " ",
		"trial": "exp-sent",
		"word": "gosta",
		"trial_type": "html-keyboard-response",
		"trial_index": 148,
		"time_elapsed": 352912,
		"internal_node_id": "0.0-3.0-1.111"
	},
	{
		"rt": 733,
		"stimulus": "<span style=\"font-size:30px; font-family: monospace\">de</span>",
		"response": " ",
		"trial": "exp-sent",
		"word": "de",
		"trial_type": "html-keyboard-response",
		"trial_index": 149,
		"time_elapsed": 353906,
		"internal_node_id": "0.0-3.0-1.112"
	},
	{
		"rt": 1011,
		"stimulus": "<span style=\"font-size:30px; font-family: monospace\">comida</span>",
		"response": " ",
		"trial": "exp-sent",
		"word": "comida",
		"trial_type": "html-keyboard-response",
		"trial_index": 150,
		"time_elapsed": 355176,
		"internal_node_id": "0.0-3.0-1.113"
	},
	{
		"rt": 1967,
		"stimulus": "<span style=\"font-size:30px; font-family: monospace\">natural</span>",
		"response": " ",
		"trial": "exp-sent",
		"word": "natural",
		"trial_type": "html-keyboard-response",
		"trial_index": 151,
		"time_elapsed": 357406,
		"internal_node_id": "0.0-3.0-1.114"
	},
	{
		"rt": 984,
		"stimulus": "<span style=\"font-size:30px; font-family: monospace\">no</span>",
		"response": " ",
		"trial": "exp-sent",
		"word": "no",
		"trial_type": "html-keyboard-response",
		"trial_index": 152,
		"time_elapsed": 358644,
		"internal_node_id": "0.0-3.0-1.115"
	},
	{
		"rt": 1421,
		"stimulus": "<span style=\"font-size:30px; font-family: monospace\">almoço.</span>",
		"response": " ",
		"trial": "comp",
		"word": "almoço.",
		"trial_type": "html-keyboard-response",
		"trial_index": 153,
		"time_elapsed": 360318,
		"internal_node_id": "0.0-3.0-1.116"
	},
	{
		"rt": 3627,
		"stimulus": "<span style=\"font-size:30px; font-family: monospace\">Ela gosta de comida natural no almoço?</span>",
		"response": "s",
		"question": "Ela gosta de comida natural no almoço?",
		"answer": "sim",
		"trial": "comp",
		"trial_type": "html-keyboard-response",
		"trial_index": 154,
		"time_elapsed": 364208,
		"internal_node_id": "0.0-3.0-2.116-0.116",
		"accuracy": false
	},
	{
		"rt": null,
		"stimulus": "<span style= \"font-size:30px; font-family: monospace\">+</span>",
		"response": null,
		"trial_part": "fixation",
		"trial_type": "html-keyboard-response",
		"trial_index": 155,
		"time_elapsed": 365730,
		"internal_node_id": "0.0-3.0-0.117-0.117"
	},
	{
		"rt": 2483,
		"stimulus": "<span style=\"font-size:30px; font-family: monospace\">Ursos</span>",
		"response": " ",
		"trial": "exp-sent",
		"word": "Ursos",
		"trial_type": "html-keyboard-response",
		"trial_index": 156,
		"time_elapsed": 368474,
		"internal_node_id": "0.0-3.0-1.117"
	},
	{
		"rt": 1192,
		"stimulus": "<span style=\"font-size:30px; font-family: monospace\">têm</span>",
		"response": " ",
		"trial": "exp-sent",
		"word": "têm",
		"trial_type": "html-keyboard-response",
		"trial_index": 157,
		"time_elapsed": 369931,
		"internal_node_id": "0.0-3.0-1.118"
	},
	{
		"rt": 901,
		"stimulus": "<span style=\"font-size:30px; font-family: monospace\">uma</span>",
		"response": " ",
		"trial": "exp-sent",
		"word": "uma",
		"trial_type": "html-keyboard-response",
		"trial_index": 158,
		"time_elapsed": 371087,
		"internal_node_id": "0.0-3.0-1.119"
	},
	{
		"rt": 1353,
		"stimulus": "<span style=\"font-size:30px; font-family: monospace\">patada</span>",
		"response": " ",
		"trial": "exp-sent",
		"word": "patada",
		"trial_type": "html-keyboard-response",
		"trial_index": 159,
		"time_elapsed": 372698,
		"internal_node_id": "0.0-3.0-1.120"
	},
	{
		"rt": 1019,
		"stimulus": "<span style=\"font-size:30px; font-family: monospace\">brutal</span>",
		"response": " ",
		"trial": "exp-sent",
		"word": "brutal",
		"trial_type": "html-keyboard-response",
		"trial_index": 160,
		"time_elapsed": 373974,
		"internal_node_id": "0.0-3.0-1.121"
	},
	{
		"rt": 695,
		"stimulus": "<span style=\"font-size:30px; font-family: monospace\">e</span>",
		"response": " ",
		"trial": "exp-sent",
		"word": "e",
		"trial_type": "html-keyboard-response",
		"trial_index": 161,
		"time_elapsed": 374934,
		"internal_node_id": "0.0-3.0-1.122"
	},
	{
		"rt": 1811,
		"stimulus": "<span style=\"font-size:30px; font-family: monospace\">poderosa.</span>",
		"response": " ",
		"trial": "exp-sent",
		"word": "poderosa.",
		"trial_type": "html-keyboard-response",
		"trial_index": 162,
		"time_elapsed": 377001,
		"internal_node_id": "0.0-3.0-1.123"
	},
	{
		"rt": null,
		"stimulus": "<span style= \"font-size:30px; font-family: monospace\">+</span>",
		"response": null,
		"trial_part": "fixation",
		"trial_type": "html-keyboard-response",
		"trial_index": 163,
		"time_elapsed": 378269,
		"internal_node_id": "0.0-3.0-0.124-0.124"
	},
	{
		"rt": 830,
		"stimulus": "<span style=\"font-size:30px; font-family: monospace\">Eu</span>",
		"response": " ",
		"trial": "exp-sent",
		"word": "Eu",
		"trial_type": "html-keyboard-response",
		"trial_index": 164,
		"time_elapsed": 379364,
		"internal_node_id": "0.0-3.0-1.124"
	},
	{
		"rt": 1145,
		"stimulus": "<span style=\"font-size:30px; font-family: monospace\">fiz</span>",
		"response": " ",
		"trial": "exp-sent",
		"word": "fiz",
		"trial_type": "html-keyboard-response",
		"trial_index": 165,
		"time_elapsed": 380763,
		"internal_node_id": "0.0-3.0-1.125"
	},
	{
		"rt": 1084,
		"stimulus": "<span style=\"font-size:30px; font-family: monospace\">aulas</span>",
		"response": " ",
		"trial": "exp-sent",
		"word": "aulas",
		"trial_type": "html-keyboard-response",
		"trial_index": 166,
		"time_elapsed": 382109,
		"internal_node_id": "0.0-3.0-1.126"
	},
	{
		"rt": 905,
		"stimulus": "<span style=\"font-size:30px; font-family: monospace\">de</span>",
		"response": " ",
		"trial": "exp-sent",
		"word": "de",
		"trial_type": "html-keyboard-response",
		"trial_index": 167,
		"time_elapsed": 383272,
		"internal_node_id": "0.0-3.0-1.127"
	},
	{
		"rt": 1106,
		"stimulus": "<span style=\"font-size:30px; font-family: monospace\">espanhol</span>",
		"response": " ",
		"trial": "exp-sent",
		"word": "espanhol",
		"trial_type": "html-keyboard-response",
		"trial_index": 168,
		"time_elapsed": 384636,
		"internal_node_id": "0.0-3.0-1.128"
	},
	{
		"rt": 820,
		"stimulus": "<span style=\"font-size:30px; font-family: monospace\">nesta</span>",
		"response": " ",
		"trial": "exp-sent",
		"word": "nesta",
		"trial_type": "html-keyboard-response",
		"trial_index": 169,
		"time_elapsed": 385720,
		"internal_node_id": "0.0-3.0-1.129"
	},
	{
		"rt": 791,
		"stimulus": "<span style=\"font-size:30px; font-family: monospace\">cidade.</span>",
		"response": " ",
		"trial": "exp-sent",
		"word": "cidade.",
		"trial_type": "html-keyboard-response",
		"trial_index": 170,
		"time_elapsed": 386776,
		"internal_node_id": "0.0-3.0-1.130"
	},
	{
		"rt": null,
		"stimulus": "<span style= \"font-size:30px; font-family: monospace\">+</span>",
		"response": null,
		"trial_part": "fixation",
		"trial_type": "html-keyboard-response",
		"trial_index": 171,
		"time_elapsed": 388043,
		"internal_node_id": "0.0-3.0-0.131-0.131"
	},
	{
		"rt": 1191,
		"stimulus": "<span style=\"font-size:30px; font-family: monospace\">Ele</span>",
		"response": " ",
		"trial": "exp-sent",
		"word": "Ele",
		"trial_type": "html-keyboard-response",
		"trial_index": 172,
		"time_elapsed": 389488,
		"internal_node_id": "0.0-3.0-1.131"
	},
	{
		"rt": 883,
		"stimulus": "<span style=\"font-size:30px; font-family: monospace\">comprou</span>",
		"response": " ",
		"trial": "exp-sent",
		"word": "comprou",
		"trial_type": "html-keyboard-response",
		"trial_index": 173,
		"time_elapsed": 390626,
		"internal_node_id": "0.0-3.0-1.132"
	},
	{
		"rt": 968,
		"stimulus": "<span style=\"font-size:30px; font-family: monospace\">mais</span>",
		"response": " ",
		"trial": "exp-sent",
		"word": "mais",
		"trial_type": "html-keyboard-response",
		"trial_index": 174,
		"time_elapsed": 391848,
		"internal_node_id": "0.0-3.0-1.133"
	},
	{
		"rt": 849,
		"stimulus": "<span style=\"font-size:30px; font-family: monospace\">uma</span>",
		"response": " ",
		"trial": "exp-sent",
		"word": "uma",
		"trial_type": "html-keyboard-response",
		"trial_index": 175,
		"time_elapsed": 392963,
		"internal_node_id": "0.0-3.0-1.134"
	},
	{
		"rt": 935,
		"stimulus": "<span style=\"font-size:30px; font-family: monospace\">esponja</span>",
		"response": " ",
		"trial": "exp-sent",
		"word": "esponja",
		"trial_type": "html-keyboard-response",
		"trial_index": 176,
		"time_elapsed": 394156,
		"internal_node_id": "0.0-3.0-1.135"
	},
	{
		"rt": 860,
		"stimulus": "<span style=\"font-size:30px; font-family: monospace\">para</span>",
		"response": " ",
		"trial": "exp-sent",
		"word": "para",
		"trial_type": "html-keyboard-response",
		"trial_index": 177,
		"time_elapsed": 395273,
		"internal_node_id": "0.0-3.0-1.136"
	},
	{
		"rt": 1211,
		"stimulus": "<span style=\"font-size:30px; font-family: monospace\">a</span>",
		"response": " ",
		"trial": "exp-sent",
		"word": "a",
		"trial_type": "html-keyboard-response",
		"trial_index": 178,
		"time_elapsed": 396741,
		"internal_node_id": "0.0-3.0-1.137"
	},
	{
		"rt": 2325,
		"stimulus": "<span style=\"font-size:30px; font-family: monospace\">cozinha.</span>",
		"response": " ",
		"trial": "exp-sent",
		"word": "cozinha.",
		"trial_type": "html-keyboard-response",
		"trial_index": 179,
		"time_elapsed": 399325,
		"internal_node_id": "0.0-3.0-1.138"
	},
	{
		"rt": null,
		"stimulus": "<span style= \"font-size:30px; font-family: monospace\">+</span>",
		"response": null,
		"trial_part": "fixation",
		"trial_type": "html-keyboard-response",
		"trial_index": 180,
		"time_elapsed": 400581,
		"internal_node_id": "0.0-3.0-0.139-0.139"
	},
	{
		"rt": 764,
		"stimulus": "<span style=\"font-size:30px; font-family: monospace\">Ele</span>",
		"response": " ",
		"trial": "exp-sent",
		"word": "Ele",
		"trial_type": "html-keyboard-response",
		"trial_index": 181,
		"time_elapsed": 401607,
		"internal_node_id": "0.0-3.0-1.139"
	},
	{
		"rt": 715,
		"stimulus": "<span style=\"font-size:30px; font-family: monospace\">teve</span>",
		"response": " ",
		"trial": "exp-sent",
		"word": "teve",
		"trial_type": "html-keyboard-response",
		"trial_index": 182,
		"time_elapsed": 402575,
		"internal_node_id": "0.0-3.0-1.140"
	},
	{
		"rt": 595,
		"stimulus": "<span style=\"font-size:30px; font-family: monospace\">um</span>",
		"response": " ",
		"trial": "exp-sent",
		"word": "um",
		"trial_type": "html-keyboard-response",
		"trial_index": 183,
		"time_elapsed": 403436,
		"internal_node_id": "0.0-3.0-1.141"
	},
	{
		"rt": 623,
		"stimulus": "<span style=\"font-size:30px; font-family: monospace\">sono</span>",
		"response": " ",
		"trial": "exp-sent",
		"word": "sono",
		"trial_type": "html-keyboard-response",
		"trial_index": 184,
		"time_elapsed": 404330,
		"internal_node_id": "0.0-3.0-1.142"
	},
	{
		"rt": 1298,
		"stimulus": "<span style=\"font-size:30px; font-family: monospace\">bizarro</span>",
		"response": " ",
		"trial": "exp-sent",
		"word": "bizarro",
		"trial_type": "html-keyboard-response",
		"trial_index": 185,
		"time_elapsed": 405892,
		"internal_node_id": "0.0-3.0-1.143"
	},
	{
		"rt": 746,
		"stimulus": "<span style=\"font-size:30px; font-family: monospace\">sem</span>",
		"response": " ",
		"trial": "exp-sent",
		"word": "sem",
		"trial_type": "html-keyboard-response",
		"trial_index": 186,
		"time_elapsed": 406908,
		"internal_node_id": "0.0-3.0-1.144"
	},
	{
		"rt": 823,
		"stimulus": "<span style=\"font-size:30px; font-family: monospace\">nenhum</span>",
		"response": " ",
		"trial": "exp-sent",
		"word": "nenhum",
		"trial_type": "html-keyboard-response",
		"trial_index": 187,
		"time_elapsed": 407985,
		"internal_node_id": "0.0-3.0-1.145"
	},
	{
		"rt": 1138,
		"stimulus": "<span style=\"font-size:30px; font-family: monospace\">motivo.</span>",
		"response": " ",
		"trial": "exp-sent",
		"word": "motivo.",
		"trial_type": "html-keyboard-response",
		"trial_index": 188,
		"time_elapsed": 409392,
		"internal_node_id": "0.0-3.0-1.146"
	},
	{
		"rt": null,
		"stimulus": "<span style= \"font-size:30px; font-family: monospace\">+</span>",
		"response": null,
		"trial_part": "fixation",
		"trial_type": "html-keyboard-response",
		"trial_index": 189,
		"time_elapsed": 410652,
		"internal_node_id": "0.0-3.0-0.147-0.147"
	},
	{
		"rt": 1124,
		"stimulus": "<span style=\"font-size:30px; font-family: monospace\">A</span>",
		"response": " ",
		"trial": "exp-sent",
		"word": "A",
		"trial_type": "html-keyboard-response",
		"trial_index": 190,
		"time_elapsed": 412029,
		"internal_node_id": "0.0-3.0-1.147"
	},
	{
		"rt": 1095,
		"stimulus": "<span style=\"font-size:30px; font-family: monospace\">moça</span>",
		"response": " ",
		"trial": "exp-sent",
		"word": "moça",
		"trial_type": "html-keyboard-response",
		"trial_index": 191,
		"time_elapsed": 413383,
		"internal_node_id": "0.0-3.0-1.148"
	},
	{
		"rt": 977,
		"stimulus": "<span style=\"font-size:30px; font-family: monospace\">comprou</span>",
		"response": " ",
		"trial": "exp-sent",
		"word": "comprou",
		"trial_type": "html-keyboard-response",
		"trial_index": 192,
		"time_elapsed": 414615,
		"internal_node_id": "0.0-3.0-1.149"
	},
	{
		"rt": 844,
		"stimulus": "<span style=\"font-size:30px; font-family: monospace\">um</span>",
		"response": " ",
		"trial": "exp-sent",
		"word": "um",
		"trial_type": "html-keyboard-response",
		"trial_index": 193,
		"time_elapsed": 415713,
		"internal_node_id": "0.0-3.0-1.150"
	},
	{
		"rt": 1258,
		"stimulus": "<span style=\"font-size:30px; font-family: monospace\">diamante</span>",
		"response": " ",
		"trial": "exp-sent",
		"word": "diamante",
		"trial_type": "html-keyboard-response",
		"trial_index": 194,
		"time_elapsed": 417226,
		"internal_node_id": "0.0-3.0-1.151"
	},
	{
		"rt": 840,
		"stimulus": "<span style=\"font-size:30px; font-family: monospace\">para</span>",
		"response": " ",
		"trial": "exp-sent",
		"word": "para",
		"trial_type": "html-keyboard-response",
		"trial_index": 195,
		"time_elapsed": 418327,
		"internal_node_id": "0.0-3.0-1.152"
	},
	{
		"rt": 821,
		"stimulus": "<span style=\"font-size:30px; font-family: monospace\">sua</span>",
		"response": " ",
		"trial": "exp-sent",
		"word": "sua",
		"trial_type": "html-keyboard-response",
		"trial_index": 196,
		"time_elapsed": 419404,
		"internal_node_id": "0.0-3.0-1.153"
	},
	{
		"rt": 816,
		"stimulus": "<span style=\"font-size:30px; font-family: monospace\">prima.</span>",
		"response": " ",
		"trial": "comp",
		"word": "prima.",
		"trial_type": "html-keyboard-response",
		"trial_index": 197,
		"time_elapsed": 420492,
		"internal_node_id": "0.0-3.0-1.154"
	},
	{
		"rt": 3366,
		"stimulus": "<span style=\"font-size:30px; font-family: monospace\">A moça comprou um diamante?</span>",
		"response": "s",
		"question": "A moça comprou um diamante?",
		"answer": "sim",
		"trial": "comp",
		"trial_type": "html-keyboard-response",
		"trial_index": 198,
		"time_elapsed": 424119,
		"internal_node_id": "0.0-3.0-2.154-0.154",
		"accuracy": false
	},
	{
		"rt": null,
		"stimulus": "<span style= \"font-size:30px; font-family: monospace\">+</span>",
		"response": null,
		"trial_part": "fixation",
		"trial_type": "html-keyboard-response",
		"trial_index": 199,
		"time_elapsed": 425642,
		"internal_node_id": "0.0-3.0-0.155-0.155"
	},
	{
		"rt": 1871,
		"stimulus": "<span style=\"font-size:30px; font-family: monospace\">Minha</span>",
		"response": " ",
		"trial": "exp-sent",
		"word": "Minha",
		"trial_type": "html-keyboard-response",
		"trial_index": 200,
		"time_elapsed": 427770,
		"internal_node_id": "0.0-3.0-1.155"
	},
	{
		"rt": 1115,
		"stimulus": "<span style=\"font-size:30px; font-family: monospace\">prima</span>",
		"response": " ",
		"trial": "exp-sent",
		"word": "prima",
		"trial_type": "html-keyboard-response",
		"trial_index": 201,
		"time_elapsed": 429137,
		"internal_node_id": "0.0-3.0-1.156"
	},
	{
		"rt": 855,
		"stimulus": "<span style=\"font-size:30px; font-family: monospace\">trocou</span>",
		"response": " ",
		"trial": "exp-sent",
		"word": "trocou",
		"trial_type": "html-keyboard-response",
		"trial_index": 202,
		"time_elapsed": 430254,
		"internal_node_id": "0.0-3.0-1.157"
	},
	{
		"rt": 696,
		"stimulus": "<span style=\"font-size:30px; font-family: monospace\">a</span>",
		"response": " ",
		"trial": "exp-sent",
		"word": "a",
		"trial_type": "html-keyboard-response",
		"trial_index": 203,
		"time_elapsed": 431209,
		"internal_node_id": "0.0-3.0-1.158"
	},
	{
		"rt": 641,
		"stimulus": "<span style=\"font-size:30px; font-family: monospace\">tela</span>",
		"response": " ",
		"trial": "exp-sent",
		"word": "tela",
		"trial_type": "html-keyboard-response",
		"trial_index": 204,
		"time_elapsed": 432111,
		"internal_node_id": "0.0-3.0-1.159"
	},
	{
		"rt": 575,
		"stimulus": "<span style=\"font-size:30px; font-family: monospace\">do</span>",
		"response": " ",
		"trial": "exp-sent",
		"word": "do",
		"trial_type": "html-keyboard-response",
		"trial_index": 205,
		"time_elapsed": 432938,
		"internal_node_id": "0.0-3.0-1.160"
	},
	{
		"rt": 755,
		"stimulus": "<span style=\"font-size:30px; font-family: monospace\">celular</span>",
		"response": " ",
		"trial": "exp-sent",
		"word": "celular",
		"trial_type": "html-keyboard-response",
		"trial_index": 206,
		"time_elapsed": 433954,
		"internal_node_id": "0.0-3.0-1.161"
	},
	{
		"rt": 511,
		"stimulus": "<span style=\"font-size:30px; font-family: monospace\">duas</span>",
		"response": " ",
		"trial": "exp-sent",
		"word": "duas",
		"trial_type": "html-keyboard-response",
		"trial_index": 207,
		"time_elapsed": 434725,
		"internal_node_id": "0.0-3.0-1.162"
	},
	{
		"rt": 697,
		"stimulus": "<span style=\"font-size:30px; font-family: monospace\">vezes.</span>",
		"response": " ",
		"trial": "exp-sent",
		"word": "vezes.",
		"trial_type": "html-keyboard-response",
		"trial_index": 208,
		"time_elapsed": 435676,
		"internal_node_id": "0.0-3.0-1.163"
	},
	{
		"rt": null,
		"stimulus": "<span style= \"font-size:30px; font-family: monospace\">+</span>",
		"response": null,
		"trial_part": "fixation",
		"trial_type": "html-keyboard-response",
		"trial_index": 209,
		"time_elapsed": 436938,
		"internal_node_id": "0.0-3.0-0.164-0.164"
	},
	{
		"rt": 685,
		"stimulus": "<span style=\"font-size:30px; font-family: monospace\">Agora</span>",
		"response": " ",
		"trial": "exp-sent",
		"word": "Agora",
		"trial_type": "html-keyboard-response",
		"trial_index": 210,
		"time_elapsed": 437877,
		"internal_node_id": "0.0-3.0-1.164"
	},
	{
		"rt": 807,
		"stimulus": "<span style=\"font-size:30px; font-family: monospace\">a</span>",
		"response": " ",
		"trial": "exp-sent",
		"word": "a",
		"trial_type": "html-keyboard-response",
		"trial_index": 211,
		"time_elapsed": 438951,
		"internal_node_id": "0.0-3.0-1.165"
	},
	{
		"rt": 575,
		"stimulus": "<span style=\"font-size:30px; font-family: monospace\">minha</span>",
		"response": " ",
		"trial": "exp-sent",
		"word": "minha",
		"trial_type": "html-keyboard-response",
		"trial_index": 212,
		"time_elapsed": 439790,
		"internal_node_id": "0.0-3.0-1.166"
	},
	{
		"rt": 600,
		"stimulus": "<span style=\"font-size:30px; font-family: monospace\">única</span>",
		"response": " ",
		"trial": "exp-sent",
		"word": "única",
		"trial_type": "html-keyboard-response",
		"trial_index": 213,
		"time_elapsed": 440654,
		"internal_node_id": "0.0-3.0-1.167"
	},
	{
		"rt": 854,
		"stimulus": "<span style=\"font-size:30px; font-family: monospace\">preocupação</span>",
		"response": " ",
		"trial": "exp-sent",
		"word": "preocupação",
		"trial_type": "html-keyboard-response",
		"trial_index": 214,
		"time_elapsed": 441764,
		"internal_node_id": "0.0-3.0-1.168"
	},
	{
		"rt": 594,
		"stimulus": "<span style=\"font-size:30px; font-family: monospace\">é</span>",
		"response": " ",
		"trial": "exp-sent",
		"word": "é",
		"trial_type": "html-keyboard-response",
		"trial_index": 215,
		"time_elapsed": 442619,
		"internal_node_id": "0.0-3.0-1.169"
	},
	{
		"rt": 616,
		"stimulus": "<span style=\"font-size:30px; font-family: monospace\">um</span>",
		"response": " ",
		"trial": "exp-sent",
		"word": "um",
		"trial_type": "html-keyboard-response",
		"trial_index": 216,
		"time_elapsed": 443485,
		"internal_node_id": "0.0-3.0-1.170"
	},
	{
		"rt": 1278,
		"stimulus": "<span style=\"font-size:30px; font-family: monospace\">descanso</span>",
		"response": " ",
		"trial": "exp-sent",
		"word": "descanso",
		"trial_type": "html-keyboard-response",
		"trial_index": 217,
		"time_elapsed": 445032,
		"internal_node_id": "0.0-3.0-1.171"
	},
	{
		"rt": 717,
		"stimulus": "<span style=\"font-size:30px; font-family: monospace\">tranquilo.</span>",
		"response": " ",
		"trial": "exp-sent",
		"word": "tranquilo.",
		"trial_type": "html-keyboard-response",
		"trial_index": 218,
		"time_elapsed": 446007,
		"internal_node_id": "0.0-3.0-1.172"
	},
	{
		"rt": null,
		"stimulus": "<span style= \"font-size:30px; font-family: monospace\">+</span>",
		"response": null,
		"trial_part": "fixation",
		"trial_type": "html-keyboard-response",
		"trial_index": 219,
		"time_elapsed": 447267,
		"internal_node_id": "0.0-3.0-0.173-0.173"
	},
	{
		"rt": 820,
		"stimulus": "<span style=\"font-size:30px; font-family: monospace\">A</span>",
		"response": " ",
		"trial": "exp-sent",
		"word": "A",
		"trial_type": "html-keyboard-response",
		"trial_index": 220,
		"time_elapsed": 448344,
		"internal_node_id": "0.0-3.0-1.173"
	},
	{
		"rt": 841,
		"stimulus": "<span style=\"font-size:30px; font-family: monospace\">criança</span>",
		"response": " ",
		"trial": "exp-sent",
		"word": "criança",
		"trial_type": "html-keyboard-response",
		"trial_index": 221,
		"time_elapsed": 449445,
		"internal_node_id": "0.0-3.0-1.174"
	},
	{
		"rt": 678,
		"stimulus": "<span style=\"font-size:30px; font-family: monospace\">ganhou</span>",
		"response": " ",
		"trial": "exp-sent",
		"word": "ganhou",
		"trial_type": "html-keyboard-response",
		"trial_index": 222,
		"time_elapsed": 450381,
		"internal_node_id": "0.0-3.0-1.175"
	},
	{
		"rt": 444,
		"stimulus": "<span style=\"font-size:30px; font-family: monospace\">um</span>",
		"response": " ",
		"trial": "exp-sent",
		"word": "um",
		"trial_type": "html-keyboard-response",
		"trial_index": 223,
		"time_elapsed": 451082,
		"internal_node_id": "0.0-3.0-1.176"
	},
	{
		"rt": 764,
		"stimulus": "<span style=\"font-size:30px; font-family: monospace\">presente</span>",
		"response": " ",
		"trial": "exp-sent",
		"word": "presente",
		"trial_type": "html-keyboard-response",
		"trial_index": 224,
		"time_elapsed": 452107,
		"internal_node_id": "0.0-3.0-1.177"
	},
	{
		"rt": 1046,
		"stimulus": "<span style=\"font-size:30px; font-family: monospace\">maravilhoso.</span>",
		"response": " ",
		"trial": "exp-sent",
		"word": "maravilhoso.",
		"trial_type": "html-keyboard-response",
		"trial_index": 225,
		"time_elapsed": 453415,
		"internal_node_id": "0.0-3.0-1.178"
	},
	{
		"rt": null,
		"stimulus": "<span style= \"font-size:30px; font-family: monospace\">+</span>",
		"response": null,
		"trial_part": "fixation",
		"trial_type": "html-keyboard-response",
		"trial_index": 226,
		"time_elapsed": 454693,
		"internal_node_id": "0.0-3.0-0.179-0.179"
	},
	{
		"rt": 973,
		"stimulus": "<span style=\"font-size:30px; font-family: monospace\">Os</span>",
		"response": " ",
		"trial": "exp-sent",
		"word": "Os",
		"trial_type": "html-keyboard-response",
		"trial_index": 227,
		"time_elapsed": 455925,
		"internal_node_id": "0.0-3.0-1.179"
	},
	{
		"rt": 1442,
		"stimulus": "<span style=\"font-size:30px; font-family: monospace\">bichos</span>",
		"response": " ",
		"trial": "exp-sent",
		"word": "bichos",
		"trial_type": "html-keyboard-response",
		"trial_index": 228,
		"time_elapsed": 457625,
		"internal_node_id": "0.0-3.0-1.180"
	},
	{
		"rt": 811,
		"stimulus": "<span style=\"font-size:30px; font-family: monospace\">têm</span>",
		"response": " ",
		"trial": "exp-sent",
		"word": "têm",
		"trial_type": "html-keyboard-response",
		"trial_index": 229,
		"time_elapsed": 458693,
		"internal_node_id": "0.0-3.0-1.181"
	},
	{
		"rt": 667,
		"stimulus": "<span style=\"font-size:30px; font-family: monospace\">um</span>",
		"response": " ",
		"trial": "exp-sent",
		"word": "um",
		"trial_type": "html-keyboard-response",
		"trial_index": 230,
		"time_elapsed": 459617,
		"internal_node_id": "0.0-3.0-1.182"
	},
	{
		"rt": 1636,
		"stimulus": "<span style=\"font-size:30px; font-family: monospace\">instinto</span>",
		"response": " ",
		"trial": "exp-sent",
		"word": "instinto",
		"trial_type": "html-keyboard-response",
		"trial_index": 231,
		"time_elapsed": 461518,
		"internal_node_id": "0.0-3.0-1.183"
	},
	{
		"rt": 672,
		"stimulus": "<span style=\"font-size:30px; font-family: monospace\">de</span>",
		"response": " ",
		"trial": "exp-sent",
		"word": "de",
		"trial_type": "html-keyboard-response",
		"trial_index": 232,
		"time_elapsed": 462454,
		"internal_node_id": "0.0-3.0-1.184"
	},
	{
		"rt": 2171,
		"stimulus": "<span style=\"font-size:30px; font-family: monospace\">sobrevivência</span>",
		"response": " ",
		"trial": "exp-sent",
		"word": "sobrevivência",
		"trial_type": "html-keyboard-response",
		"trial_index": 233,
		"time_elapsed": 464889,
		"internal_node_id": "0.0-3.0-1.185"
	},
	{
		"rt": 1090,
		"stimulus": "<span style=\"font-size:30px; font-family: monospace\">forte.</span>",
		"response": " ",
		"trial": "exp-sent",
		"word": "forte.",
		"trial_type": "html-keyboard-response",
		"trial_index": 234,
		"time_elapsed": 466237,
		"internal_node_id": "0.0-3.0-1.186"
	},
	{
		"rt": null,
		"stimulus": "<span style= \"font-size:30px; font-family: monospace\">+</span>",
		"response": null,
		"trial_part": "fixation",
		"trial_type": "html-keyboard-response",
		"trial_index": 235,
		"time_elapsed": 467489,
		"internal_node_id": "0.0-3.0-0.187-0.187"
	},
	{
		"rt": 566,
		"stimulus": "<span style=\"font-size:30px; font-family: monospace\">Aquele</span>",
		"response": " ",
		"trial": "exp-sent",
		"word": "Aquele",
		"trial_type": "html-keyboard-response",
		"trial_index": 236,
		"time_elapsed": 468310,
		"internal_node_id": "0.0-3.0-1.187"
	},
	{
		"rt": 1117,
		"stimulus": "<span style=\"font-size:30px; font-family: monospace\">menino</span>",
		"response": " ",
		"trial": "exp-sent",
		"word": "menino",
		"trial_type": "html-keyboard-response",
		"trial_index": 237,
		"time_elapsed": 469698,
		"internal_node_id": "0.0-3.0-1.188"
	},
	{
		"rt": 880,
		"stimulus": "<span style=\"font-size:30px; font-family: monospace\">alto</span>",
		"response": " ",
		"trial": "exp-sent",
		"word": "alto",
		"trial_type": "html-keyboard-response",
		"trial_index": 238,
		"time_elapsed": 470835,
		"internal_node_id": "0.0-3.0-1.189"
	},
	{
		"rt": 775,
		"stimulus": "<span style=\"font-size:30px; font-family: monospace\">é</span>",
		"response": " ",
		"trial": "exp-sent",
		"word": "é",
		"trial_type": "html-keyboard-response",
		"trial_index": 239,
		"time_elapsed": 471868,
		"internal_node_id": "0.0-3.0-1.190"
	},
	{
		"rt": 1750,
		"stimulus": "<span style=\"font-size:30px; font-family: monospace\">exibido</span>",
		"response": " ",
		"trial": "exp-sent",
		"word": "exibido",
		"trial_type": "html-keyboard-response",
		"trial_index": 240,
		"time_elapsed": 473874,
		"internal_node_id": "0.0-3.0-1.191"
	},
	{
		"rt": 750,
		"stimulus": "<span style=\"font-size:30px; font-family: monospace\">e</span>",
		"response": " ",
		"trial": "exp-sent",
		"word": "e",
		"trial_type": "html-keyboard-response",
		"trial_index": 241,
		"time_elapsed": 474880,
		"internal_node_id": "0.0-3.0-1.192"
	},
	{
		"rt": 3935,
		"stimulus": "<span style=\"font-size:30px; font-family: monospace\">sovina.</span>",
		"response": " ",
		"trial": "comp",
		"word": "sovina.",
		"trial_type": "html-keyboard-response",
		"trial_index": 242,
		"time_elapsed": 479080,
		"internal_node_id": "0.0-3.0-1.193"
	},
	{
		"rt": 5149,
		"stimulus": "<span style=\"font-size:30px; font-family: monospace\">Aquele menino é humilde?</span>",
		"response": "n",
		"question": "Aquele menino é humilde?",
		"answer": "não",
		"trial": "comp",
		"trial_type": "html-keyboard-response",
		"trial_index": 243,
		"time_elapsed": 484489,
		"internal_node_id": "0.0-3.0-2.193-0.193",
		"accuracy": false
	},
	{
		"rt": null,
		"stimulus": "<span style= \"font-size:30px; font-family: monospace\">+</span>",
		"response": null,
		"trial_part": "fixation",
		"trial_type": "html-keyboard-response",
		"trial_index": 244,
		"time_elapsed": 486007,
		"internal_node_id": "0.0-3.0-0.194-0.194"
	},
	{
		"rt": 1691,
		"stimulus": "<span style=\"font-size:30px; font-family: monospace\">A</span>",
		"response": " ",
		"trial": "exp-sent",
		"word": "A",
		"trial_type": "html-keyboard-response",
		"trial_index": 245,
		"time_elapsed": 487963,
		"internal_node_id": "0.0-3.0-1.194"
	},
	{
		"rt": 1663,
		"stimulus": "<span style=\"font-size:30px; font-family: monospace\">senhora</span>",
		"response": " ",
		"trial": "exp-sent",
		"word": "senhora",
		"trial_type": "html-keyboard-response",
		"trial_index": 246,
		"time_elapsed": 489883,
		"internal_node_id": "0.0-3.0-1.195"
	},
	{
		"rt": 1747,
		"stimulus": "<span style=\"font-size:30px; font-family: monospace\">cumprimentou</span>",
		"response": " ",
		"trial": "exp-sent",
		"word": "cumprimentou",
		"trial_type": "html-keyboard-response",
		"trial_index": 247,
		"time_elapsed": 491884,
		"internal_node_id": "0.0-3.0-1.196"
	},
	{
		"rt": 968,
		"stimulus": "<span style=\"font-size:30px; font-family: monospace\">o</span>",
		"response": " ",
		"trial": "exp-sent",
		"word": "o",
		"trial_type": "html-keyboard-response",
		"trial_index": 248,
		"time_elapsed": 493125,
		"internal_node_id": "0.0-3.0-1.197"
	},
	{
		"rt": 841,
		"stimulus": "<span style=\"font-size:30px; font-family: monospace\">operador</span>",
		"response": " ",
		"trial": "exp-sent",
		"word": "operador",
		"trial_type": "html-keyboard-response",
		"trial_index": 249,
		"time_elapsed": 494227,
		"internal_node_id": "0.0-3.0-1.198"
	},
	{
		"rt": 568,
		"stimulus": "<span style=\"font-size:30px; font-family: monospace\">de</span>",
		"response": " ",
		"trial": "exp-sent",
		"word": "de",
		"trial_type": "html-keyboard-response",
		"trial_index": 250,
		"time_elapsed": 495061,
		"internal_node_id": "0.0-3.0-1.199"
	},
	{
		"rt": 661,
		"stimulus": "<span style=\"font-size:30px; font-family: monospace\">caixa.</span>",
		"response": " ",
		"trial": "exp-sent",
		"word": "caixa.",
		"trial_type": "html-keyboard-response",
		"trial_index": 251,
		"time_elapsed": 495980,
		"internal_node_id": "0.0-3.0-1.200"
	},
	{
		"rt": null,
		"stimulus": "<span style= \"font-size:30px; font-family: monospace\">+</span>",
		"response": null,
		"trial_part": "fixation",
		"trial_type": "html-keyboard-response",
		"trial_index": 252,
		"time_elapsed": 497245,
		"internal_node_id": "0.0-3.0-0.201-0.201"
	},
	{
		"rt": 382,
		"stimulus": "<span style=\"font-size:30px; font-family: monospace\">A</span>",
		"response": " ",
		"trial": "exp-sent",
		"word": "A",
		"trial_type": "html-keyboard-response",
		"trial_index": 253,
		"time_elapsed": 497881,
		"internal_node_id": "0.0-3.0-1.201"
	},
	{
		"rt": 1145,
		"stimulus": "<span style=\"font-size:30px; font-family: monospace\">gente</span>",
		"response": " ",
		"trial": "exp-sent",
		"word": "gente",
		"trial_type": "html-keyboard-response",
		"trial_index": 254,
		"time_elapsed": 499278,
		"internal_node_id": "0.0-3.0-1.202"
	},
	{
		"rt": 1025,
		"stimulus": "<span style=\"font-size:30px; font-family: monospace\">viu</span>",
		"response": " ",
		"trial": "exp-sent",
		"word": "viu",
		"trial_type": "html-keyboard-response",
		"trial_index": 255,
		"time_elapsed": 500559,
		"internal_node_id": "0.0-3.0-1.203"
	},
	{
		"rt": 1462,
		"stimulus": "<span style=\"font-size:30px; font-family: monospace\">o</span>",
		"response": " ",
		"trial": "exp-sent",
		"word": "o",
		"trial_type": "html-keyboard-response",
		"trial_index": 256,
		"time_elapsed": 502278,
		"internal_node_id": "0.0-3.0-1.204"
	},
	{
		"rt": 1108,
		"stimulus": "<span style=\"font-size:30px; font-family: monospace\">eclipse</span>",
		"response": " ",
		"trial": "exp-sent",
		"word": "eclipse",
		"trial_type": "html-keyboard-response",
		"trial_index": 257,
		"time_elapsed": 503641,
		"internal_node_id": "0.0-3.0-1.205"
	},
	{
		"rt": 841,
		"stimulus": "<span style=\"font-size:30px; font-family: monospace\">lunar</span>",
		"response": " ",
		"trial": "exp-sent",
		"word": "lunar",
		"trial_type": "html-keyboard-response",
		"trial_index": 258,
		"time_elapsed": 504743,
		"internal_node_id": "0.0-3.0-1.206"
	},
	{
		"rt": 984,
		"stimulus": "<span style=\"font-size:30px; font-family: monospace\">durante</span>",
		"response": " ",
		"trial": "exp-sent",
		"word": "durante",
		"trial_type": "html-keyboard-response",
		"trial_index": 259,
		"time_elapsed": 505979,
		"internal_node_id": "0.0-3.0-1.207"
	},
	{
		"rt": 673,
		"stimulus": "<span style=\"font-size:30px; font-family: monospace\">o</span>",
		"response": " ",
		"trial": "exp-sent",
		"word": "o",
		"trial_type": "html-keyboard-response",
		"trial_index": 260,
		"time_elapsed": 506903,
		"internal_node_id": "0.0-3.0-1.208"
	},
	{
		"rt": 577,
		"stimulus": "<span style=\"font-size:30px; font-family: monospace\">dia.</span>",
		"response": " ",
		"trial": "exp-sent",
		"word": "dia.",
		"trial_type": "html-keyboard-response",
		"trial_index": 261,
		"time_elapsed": 507738,
		"internal_node_id": "0.0-3.0-1.209"
	},
	{
		"rt": null,
		"stimulus": "<span style= \"font-size:30px; font-family: monospace\">+</span>",
		"response": null,
		"trial_part": "fixation",
		"trial_type": "html-keyboard-response",
		"trial_index": 262,
		"time_elapsed": 509000,
		"internal_node_id": "0.0-3.0-0.210-0.210"
	},
	{
		"rt": 845,
		"stimulus": "<span style=\"font-size:30px; font-family: monospace\">A</span>",
		"response": " ",
		"trial": "exp-sent",
		"word": "A",
		"trial_type": "html-keyboard-response",
		"trial_index": 263,
		"time_elapsed": 510112,
		"internal_node_id": "0.0-3.0-1.210"
	},
	{
		"rt": 1196,
		"stimulus": "<span style=\"font-size:30px; font-family: monospace\">mordida</span>",
		"response": " ",
		"trial": "exp-sent",
		"word": "mordida",
		"trial_type": "html-keyboard-response",
		"trial_index": 264,
		"time_elapsed": 511567,
		"internal_node_id": "0.0-3.0-1.211"
	},
	{
		"rt": 543,
		"stimulus": "<span style=\"font-size:30px; font-family: monospace\">do</span>",
		"response": " ",
		"trial": "exp-sent",
		"word": "do",
		"trial_type": "html-keyboard-response",
		"trial_index": 265,
		"time_elapsed": 512372,
		"internal_node_id": "0.0-3.0-1.212"
	},
	{
		"rt": 1000,
		"stimulus": "<span style=\"font-size:30px; font-family: monospace\">cachorro</span>",
		"response": " ",
		"trial": "exp-sent",
		"word": "cachorro",
		"trial_type": "html-keyboard-response",
		"trial_index": 266,
		"time_elapsed": 513626,
		"internal_node_id": "0.0-3.0-1.213"
	},
	{
		"rt": 1105,
		"stimulus": "<span style=\"font-size:30px; font-family: monospace\">voraz</span>",
		"response": " ",
		"trial": "exp-sent",
		"word": "voraz",
		"trial_type": "html-keyboard-response",
		"trial_index": 267,
		"time_elapsed": 514999,
		"internal_node_id": "0.0-3.0-1.214"
	},
	{
		"rt": 821,
		"stimulus": "<span style=\"font-size:30px; font-family: monospace\">causou</span>",
		"response": " ",
		"trial": "exp-sent",
		"word": "causou",
		"trial_type": "html-keyboard-response",
		"trial_index": 268,
		"time_elapsed": 516072,
		"internal_node_id": "0.0-3.0-1.215"
	},
	{
		"rt": 579,
		"stimulus": "<span style=\"font-size:30px; font-family: monospace\">uma</span>",
		"response": " ",
		"trial": "exp-sent",
		"word": "uma",
		"trial_type": "html-keyboard-response",
		"trial_index": 269,
		"time_elapsed": 516906,
		"internal_node_id": "0.0-3.0-1.216"
	},
	{
		"rt": 1036,
		"stimulus": "<span style=\"font-size:30px; font-family: monospace\">cicatriz.</span>",
		"response": " ",
		"trial": "exp-sent",
		"word": "cicatriz.",
		"trial_type": "html-keyboard-response",
		"trial_index": 270,
		"time_elapsed": 518194,
		"internal_node_id": "0.0-3.0-1.217"
	},
	{
		"rt": null,
		"stimulus": "<span style= \"font-size:30px; font-family: monospace\">+</span>",
		"response": null,
		"trial_part": "fixation",
		"trial_type": "html-keyboard-response",
		"trial_index": 271,
		"time_elapsed": 519459,
		"internal_node_id": "0.0-3.0-0.218-0.218"
	},
	{
		"rt": 593,
		"stimulus": "<span style=\"font-size:30px; font-family: monospace\">Elas</span>",
		"response": " ",
		"trial": "exp-sent",
		"word": "Elas",
		"trial_type": "html-keyboard-response",
		"trial_index": 272,
		"time_elapsed": 520315,
		"internal_node_id": "0.0-3.0-1.218"
	},
	{
		"rt": 656,
		"stimulus": "<span style=\"font-size:30px; font-family: monospace\">não</span>",
		"response": " ",
		"trial": "exp-sent",
		"word": "não",
		"trial_type": "html-keyboard-response",
		"trial_index": 273,
		"time_elapsed": 521227,
		"internal_node_id": "0.0-3.0-1.219"
	},
	{
		"rt": 633,
		"stimulus": "<span style=\"font-size:30px; font-family: monospace\">viram</span>",
		"response": " ",
		"trial": "exp-sent",
		"word": "viram",
		"trial_type": "html-keyboard-response",
		"trial_index": 274,
		"time_elapsed": 522122,
		"internal_node_id": "0.0-3.0-1.220"
	},
	{
		"rt": 850,
		"stimulus": "<span style=\"font-size:30px; font-family: monospace\">nenhuma</span>",
		"response": " ",
		"trial": "exp-sent",
		"word": "nenhuma",
		"trial_type": "html-keyboard-response",
		"trial_index": 275,
		"time_elapsed": 523234,
		"internal_node_id": "0.0-3.0-1.221"
	},
	{
		"rt": 783,
		"stimulus": "<span style=\"font-size:30px; font-family: monospace\">diferença</span>",
		"response": " ",
		"trial": "exp-sent",
		"word": "diferença",
		"trial_type": "html-keyboard-response",
		"trial_index": 276,
		"time_elapsed": 524271,
		"internal_node_id": "0.0-3.0-1.222"
	},
	{
		"rt": 675,
		"stimulus": "<span style=\"font-size:30px; font-family: monospace\">entre</span>",
		"response": " ",
		"trial": "exp-sent",
		"word": "entre",
		"trial_type": "html-keyboard-response",
		"trial_index": 277,
		"time_elapsed": 525211,
		"internal_node_id": "0.0-3.0-1.223"
	},
	{
		"rt": 613,
		"stimulus": "<span style=\"font-size:30px; font-family: monospace\">os</span>",
		"response": " ",
		"trial": "exp-sent",
		"word": "os",
		"trial_type": "html-keyboard-response",
		"trial_index": 278,
		"time_elapsed": 526084,
		"internal_node_id": "0.0-3.0-1.224"
	},
	{
		"rt": 963,
		"stimulus": "<span style=\"font-size:30px; font-family: monospace\">textos.</span>",
		"response": " ",
		"trial": "exp-sent",
		"word": "textos.",
		"trial_type": "html-keyboard-response",
		"trial_index": 279,
		"time_elapsed": 527300,
		"internal_node_id": "0.0-3.0-1.225"
	},
	{
		"rt": null,
		"stimulus": "<span style= \"font-size:30px; font-family: monospace\">+</span>",
		"response": null,
		"trial_part": "fixation",
		"trial_type": "html-keyboard-response",
		"trial_index": 280,
		"time_elapsed": 528563,
		"internal_node_id": "0.0-3.0-0.226-0.226"
	},
	{
		"rt": 893,
		"stimulus": "<span style=\"font-size:30px; font-family: monospace\">Amanhã</span>",
		"response": " ",
		"trial": "exp-sent",
		"word": "Amanhã",
		"trial_type": "html-keyboard-response",
		"trial_index": 281,
		"time_elapsed": 529711,
		"internal_node_id": "0.0-3.0-1.226"
	},
	{
		"rt": 846,
		"stimulus": "<span style=\"font-size:30px; font-family: monospace\">vai</span>",
		"response": " ",
		"trial": "exp-sent",
		"word": "vai",
		"trial_type": "html-keyboard-response",
		"trial_index": 282,
		"time_elapsed": 530820,
		"internal_node_id": "0.0-3.0-1.227"
	},
	{
		"rt": 867,
		"stimulus": "<span style=\"font-size:30px; font-family: monospace\">ter</span>",
		"response": " ",
		"trial": "exp-sent",
		"word": "ter",
		"trial_type": "html-keyboard-response",
		"trial_index": 283,
		"time_elapsed": 531954,
		"internal_node_id": "0.0-3.0-1.228"
	},
	{
		"rt": 649,
		"stimulus": "<span style=\"font-size:30px; font-family: monospace\">um</span>",
		"response": " ",
		"trial": "exp-sent",
		"word": "um",
		"trial_type": "html-keyboard-response",
		"trial_index": 284,
		"time_elapsed": 532865,
		"internal_node_id": "0.0-3.0-1.229"
	},
	{
		"rt": 759,
		"stimulus": "<span style=\"font-size:30px; font-family: monospace\">bazar</span>",
		"response": " ",
		"trial": "exp-sent",
		"word": "bazar",
		"trial_type": "html-keyboard-response",
		"trial_index": 285,
		"time_elapsed": 533879,
		"internal_node_id": "0.0-3.0-1.230"
	},
	{
		"rt": 450,
		"stimulus": "<span style=\"font-size:30px; font-family: monospace\">no</span>",
		"response": " ",
		"trial": "exp-sent",
		"word": "no",
		"trial_type": "html-keyboard-response",
		"trial_index": 286,
		"time_elapsed": 534584,
		"internal_node_id": "0.0-3.0-1.231"
	},
	{
		"rt": 770,
		"stimulus": "<span style=\"font-size:30px; font-family: monospace\">bairro.</span>",
		"response": " ",
		"trial": "comp",
		"word": "bairro.",
		"trial_type": "html-keyboard-response",
		"trial_index": 287,
		"time_elapsed": 535608,
		"internal_node_id": "0.0-3.0-1.232"
	},
	{
		"rt": 6345,
		"stimulus": "<span style=\"font-size:30px; font-family: monospace\">Amanhã vai acontecer um bazar no bairro?</span>",
		"response": "s",
		"question": "Amanhã vai acontecer um bazar no bairro?",
		"answer": "sim",
		"trial": "comp",
		"trial_type": "html-keyboard-response",
		"trial_index": 288,
		"time_elapsed": 542204,
		"internal_node_id": "0.0-3.0-2.232-0.232",
		"accuracy": false
	},
	{
		"rt": null,
		"stimulus": "<span style= \"font-size:30px; font-family: monospace\">+</span>",
		"response": null,
		"trial_part": "fixation",
		"trial_type": "html-keyboard-response",
		"trial_index": 289,
		"time_elapsed": 543720,
		"internal_node_id": "0.0-3.0-0.233-0.233"
	},
	{
		"rt": 1863,
		"stimulus": "<span style=\"font-size:30px; font-family: monospace\">Este</span>",
		"response": " ",
		"trial": "exp-sent",
		"word": "Este",
		"trial_type": "html-keyboard-response",
		"trial_index": 290,
		"time_elapsed": 545842,
		"internal_node_id": "0.0-3.0-1.233"
	},
	{
		"rt": 737,
		"stimulus": "<span style=\"font-size:30px; font-family: monospace\">conto</span>",
		"response": " ",
		"trial": "exp-sent",
		"word": "conto",
		"trial_type": "html-keyboard-response",
		"trial_index": 291,
		"time_elapsed": 546833,
		"internal_node_id": "0.0-3.0-1.234"
	},
	{
		"rt": 529,
		"stimulus": "<span style=\"font-size:30px; font-family: monospace\">tem</span>",
		"response": " ",
		"trial": "exp-sent",
		"word": "tem",
		"trial_type": "html-keyboard-response",
		"trial_index": 292,
		"time_elapsed": 547622,
		"internal_node_id": "0.0-3.0-1.235"
	},
	{
		"rt": 404,
		"stimulus": "<span style=\"font-size:30px; font-family: monospace\">um</span>",
		"response": " ",
		"trial": "exp-sent",
		"word": "um",
		"trial_type": "html-keyboard-response",
		"trial_index": 293,
		"time_elapsed": 548285,
		"internal_node_id": "0.0-3.0-1.236"
	},
	{
		"rt": 496,
		"stimulus": "<span style=\"font-size:30px; font-family: monospace\">final</span>",
		"response": " ",
		"trial": "exp-sent",
		"word": "final",
		"trial_type": "html-keyboard-response",
		"trial_index": 294,
		"time_elapsed": 549046,
		"internal_node_id": "0.0-3.0-1.237"
	},
	{
		"rt": 613,
		"stimulus": "<span style=\"font-size:30px; font-family: monospace\">perfeito.</span>",
		"response": " ",
		"trial": "exp-sent",
		"word": "perfeito.",
		"trial_type": "html-keyboard-response",
		"trial_index": 295,
		"time_elapsed": 549914,
		"internal_node_id": "0.0-3.0-1.238"
	},
	{
		"rt": null,
		"stimulus": "<span style= \"font-size:30px; font-family: monospace\">+</span>",
		"response": null,
		"trial_part": "fixation",
		"trial_type": "html-keyboard-response",
		"trial_index": 296,
		"time_elapsed": 551191,
		"internal_node_id": "0.0-3.0-0.239-0.239"
	},
	{
		"rt": 595,
		"stimulus": "<span style=\"font-size:30px; font-family: monospace\">Ele</span>",
		"response": " ",
		"trial": "exp-sent",
		"word": "Ele",
		"trial_type": "html-keyboard-response",
		"trial_index": 297,
		"time_elapsed": 552038,
		"internal_node_id": "0.0-3.0-1.239"
	},
	{
		"rt": 681,
		"stimulus": "<span style=\"font-size:30px; font-family: monospace\">precisa</span>",
		"response": " ",
		"trial": "exp-sent",
		"word": "precisa",
		"trial_type": "html-keyboard-response",
		"trial_index": 298,
		"time_elapsed": 552970,
		"internal_node_id": "0.0-3.0-1.240"
	},
	{
		"rt": 633,
		"stimulus": "<span style=\"font-size:30px; font-family: monospace\">de</span>",
		"response": " ",
		"trial": "exp-sent",
		"word": "de",
		"trial_type": "html-keyboard-response",
		"trial_index": 299,
		"time_elapsed": 553859,
		"internal_node_id": "0.0-3.0-1.241"
	},
	{
		"rt": 717,
		"stimulus": "<span style=\"font-size:30px; font-family: monospace\">um</span>",
		"response": " ",
		"trial": "exp-sent",
		"word": "um",
		"trial_type": "html-keyboard-response",
		"trial_index": 300,
		"time_elapsed": 554841,
		"internal_node_id": "0.0-3.0-1.242"
	},
	{
		"rt": 1175,
		"stimulus": "<span style=\"font-size:30px; font-family: monospace\">protetor</span>",
		"response": " ",
		"trial": "exp-sent",
		"word": "protetor",
		"trial_type": "html-keyboard-response",
		"trial_index": 301,
		"time_elapsed": 556282,
		"internal_node_id": "0.0-3.0-1.243"
	},
	{
		"rt": 614,
		"stimulus": "<span style=\"font-size:30px; font-family: monospace\">de</span>",
		"response": " ",
		"trial": "exp-sent",
		"word": "de",
		"trial_type": "html-keyboard-response",
		"trial_index": 302,
		"time_elapsed": 557152,
		"internal_node_id": "0.0-3.0-1.244"
	},
	{
		"rt": 1122,
		"stimulus": "<span style=\"font-size:30px; font-family: monospace\">ouvido.</span>",
		"response": " ",
		"trial": "exp-sent",
		"word": "ouvido.",
		"trial_type": "html-keyboard-response",
		"trial_index": 303,
		"time_elapsed": 558527,
		"internal_node_id": "0.0-3.0-1.245"
	},
	{
		"rt": null,
		"stimulus": "<span style= \"font-size:30px; font-family: monospace\">+</span>",
		"response": null,
		"trial_part": "fixation",
		"trial_type": "html-keyboard-response",
		"trial_index": 304,
		"time_elapsed": 559792,
		"internal_node_id": "0.0-3.0-0.246-0.246"
	},
	{
		"rt": 505,
		"stimulus": "<span style=\"font-size:30px; font-family: monospace\">Os</span>",
		"response": " ",
		"trial": "exp-sent",
		"word": "Os",
		"trial_type": "html-keyboard-response",
		"trial_index": 305,
		"time_elapsed": 560558,
		"internal_node_id": "0.0-3.0-1.246"
	},
	{
		"rt": 811,
		"stimulus": "<span style=\"font-size:30px; font-family: monospace\">hábitos</span>",
		"response": " ",
		"trial": "exp-sent",
		"word": "hábitos",
		"trial_type": "html-keyboard-response",
		"trial_index": 306,
		"time_elapsed": 561632,
		"internal_node_id": "0.0-3.0-1.247"
	},
	{
		"rt": 427,
		"stimulus": "<span style=\"font-size:30px; font-family: monospace\">de</span>",
		"response": " ",
		"trial": "exp-sent",
		"word": "de",
		"trial_type": "html-keyboard-response",
		"trial_index": 307,
		"time_elapsed": 562313,
		"internal_node_id": "0.0-3.0-1.248"
	},
	{
		"rt": 1041,
		"stimulus": "<span style=\"font-size:30px; font-family: monospace\">lugares</span>",
		"response": " ",
		"trial": "exp-sent",
		"word": "lugares",
		"trial_type": "html-keyboard-response",
		"trial_index": 308,
		"time_elapsed": 563611,
		"internal_node_id": "0.0-3.0-1.249"
	},
	{
		"rt": 1275,
		"stimulus": "<span style=\"font-size:30px; font-family: monospace\">diferentes</span>",
		"response": " ",
		"trial": "exp-sent",
		"word": "diferentes",
		"trial_type": "html-keyboard-response",
		"trial_index": 309,
		"time_elapsed": 565147,
		"internal_node_id": "0.0-3.0-1.250"
	},
	{
		"rt": 519,
		"stimulus": "<span style=\"font-size:30px; font-family: monospace\">são</span>",
		"response": " ",
		"trial": "exp-sent",
		"word": "são",
		"trial_type": "html-keyboard-response",
		"trial_index": 310,
		"time_elapsed": 565921,
		"internal_node_id": "0.0-3.0-1.251"
	},
	{
		"rt": 1414,
		"stimulus": "<span style=\"font-size:30px; font-family: monospace\">muito</span>",
		"response": " ",
		"trial": "exp-sent",
		"word": "muito",
		"trial_type": "html-keyboard-response",
		"trial_index": 311,
		"time_elapsed": 567598,
		"internal_node_id": "0.0-3.0-1.252"
	},
	{
		"rt": 655,
		"stimulus": "<span style=\"font-size:30px; font-family: monospace\">lindos.</span>",
		"response": " ",
		"trial": "exp-sent",
		"word": "lindos.",
		"trial_type": "html-keyboard-response",
		"trial_index": 312,
		"time_elapsed": 568506,
		"internal_node_id": "0.0-3.0-1.253"
	},
	{
		"rt": null,
		"stimulus": "<span style= \"font-size:30px; font-family: monospace\">+</span>",
		"response": null,
		"trial_part": "fixation",
		"trial_type": "html-keyboard-response",
		"trial_index": 313,
		"time_elapsed": 569777,
		"internal_node_id": "0.0-3.0-0.254-0.254"
	},
	{
		"rt": 1276,
		"stimulus": "<span style=\"font-size:30px; font-family: monospace\">O</span>",
		"response": " ",
		"trial": "exp-sent",
		"word": "O",
		"trial_type": "html-keyboard-response",
		"trial_index": 314,
		"time_elapsed": 571315,
		"internal_node_id": "0.0-3.0-1.254"
	},
	{
		"rt": 1036,
		"stimulus": "<span style=\"font-size:30px; font-family: monospace\">médico</span>",
		"response": " ",
		"trial": "exp-sent",
		"word": "médico",
		"trial_type": "html-keyboard-response",
		"trial_index": 315,
		"time_elapsed": 572617,
		"internal_node_id": "0.0-3.0-1.255"
	},
	{
		"rt": 1512,
		"stimulus": "<span style=\"font-size:30px; font-family: monospace\">corrigiu</span>",
		"response": " ",
		"trial": "exp-sent",
		"word": "corrigiu",
		"trial_type": "html-keyboard-response",
		"trial_index": 316,
		"time_elapsed": 574394,
		"internal_node_id": "0.0-3.0-1.256"
	},
	{
		"rt": 901,
		"stimulus": "<span style=\"font-size:30px; font-family: monospace\">a</span>",
		"response": " ",
		"trial": "exp-sent",
		"word": "a",
		"trial_type": "html-keyboard-response",
		"trial_index": 317,
		"time_elapsed": 575552,
		"internal_node_id": "0.0-3.0-1.257"
	},
	{
		"rt": 1248,
		"stimulus": "<span style=\"font-size:30px; font-family: monospace\">postura</span>",
		"response": " ",
		"trial": "exp-sent",
		"word": "postura",
		"trial_type": "html-keyboard-response",
		"trial_index": 318,
		"time_elapsed": 577062,
		"internal_node_id": "0.0-3.0-1.258"
	},
	{
		"rt": 677,
		"stimulus": "<span style=\"font-size:30px; font-family: monospace\">das</span>",
		"response": " ",
		"trial": "exp-sent",
		"word": "das",
		"trial_type": "html-keyboard-response",
		"trial_index": 319,
		"time_elapsed": 577991,
		"internal_node_id": "0.0-3.0-1.259"
	},
	{
		"rt": 1061,
		"stimulus": "<span style=\"font-size:30px; font-family: monospace\">costas</span>",
		"response": " ",
		"trial": "exp-sent",
		"word": "costas",
		"trial_type": "html-keyboard-response",
		"trial_index": 320,
		"time_elapsed": 579317,
		"internal_node_id": "0.0-3.0-1.260"
	},
	{
		"rt": 715,
		"stimulus": "<span style=\"font-size:30px; font-family: monospace\">da</span>",
		"response": " ",
		"trial": "exp-sent",
		"word": "da",
		"trial_type": "html-keyboard-response",
		"trial_index": 321,
		"time_elapsed": 580286,
		"internal_node_id": "0.0-3.0-1.261"
	},
	{
		"rt": 1099,
		"stimulus": "<span style=\"font-size:30px; font-family: monospace\">pessoa.</span>",
		"response": " ",
		"trial": "exp-sent",
		"word": "pessoa.",
		"trial_type": "html-keyboard-response",
		"trial_index": 322,
		"time_elapsed": 581645,
		"internal_node_id": "0.0-3.0-1.262"
	},
	{
		"rt": null,
		"stimulus": "<span style= \"font-size:30px; font-family: monospace\">+</span>",
		"response": null,
		"trial_part": "fixation",
		"trial_type": "html-keyboard-response",
		"trial_index": 323,
		"time_elapsed": 582915,
		"internal_node_id": "0.0-3.0-0.263-0.263"
	},
	{
		"rt": 782,
		"stimulus": "<span style=\"font-size:30px; font-family: monospace\">Aquele</span>",
		"response": " ",
		"trial": "exp-sent",
		"word": "Aquele",
		"trial_type": "html-keyboard-response",
		"trial_index": 324,
		"time_elapsed": 583959,
		"internal_node_id": "0.0-3.0-1.263"
	},
	{
		"rt": 671,
		"stimulus": "<span style=\"font-size:30px; font-family: monospace\">era</span>",
		"response": " ",
		"trial": "exp-sent",
		"word": "era",
		"trial_type": "html-keyboard-response",
		"trial_index": 325,
		"time_elapsed": 584887,
		"internal_node_id": "0.0-3.0-1.264"
	},
	{
		"rt": 609,
		"stimulus": "<span style=\"font-size:30px; font-family: monospace\">um</span>",
		"response": " ",
		"trial": "exp-sent",
		"word": "um",
		"trial_type": "html-keyboard-response",
		"trial_index": 326,
		"time_elapsed": 585751,
		"internal_node_id": "0.0-3.0-1.265"
	},
	{
		"rt": 627,
		"stimulus": "<span style=\"font-size:30px; font-family: monospace\">caso</span>",
		"response": " ",
		"trial": "exp-sent",
		"word": "caso",
		"trial_type": "html-keyboard-response",
		"trial_index": 327,
		"time_elapsed": 586642,
		"internal_node_id": "0.0-3.0-1.266"
	},
	{
		"rt": 900,
		"stimulus": "<span style=\"font-size:30px; font-family: monospace\">real</span>",
		"response": " ",
		"trial": "exp-sent",
		"word": "real",
		"trial_type": "html-keyboard-response",
		"trial_index": 328,
		"time_elapsed": 587808,
		"internal_node_id": "0.0-3.0-1.267"
	},
	{
		"rt": 616,
		"stimulus": "<span style=\"font-size:30px; font-family: monospace\">de</span>",
		"response": " ",
		"trial": "exp-sent",
		"word": "de",
		"trial_type": "html-keyboard-response",
		"trial_index": 329,
		"time_elapsed": 588676,
		"internal_node_id": "0.0-3.0-1.268"
	},
	{
		"rt": 2023,
		"stimulus": "<span style=\"font-size:30px; font-family: monospace\">sequestro</span>",
		"response": " ",
		"trial": "exp-sent",
		"word": "sequestro",
		"trial_type": "html-keyboard-response",
		"trial_index": 330,
		"time_elapsed": 590949,
		"internal_node_id": "0.0-3.0-1.269"
	},
	{
		"rt": 2072,
		"stimulus": "<span style=\"font-size:30px; font-family: monospace\">premeditado.</span>",
		"response": " ",
		"trial": "comp",
		"word": "premeditado.",
		"trial_type": "html-keyboard-response",
		"trial_index": 331,
		"time_elapsed": 593284,
		"internal_node_id": "0.0-3.0-1.270"
	},
	{
		"rt": 22084,
		"stimulus": "<span style=\"font-size:30px; font-family: monospace\">Aquele era um caso real de roubo?</span>",
		"response": "s",
		"question": "Aquele era um caso real de roubo?",
		"answer": "não",
		"trial": "comp",
		"trial_type": "html-keyboard-response",
		"trial_index": 332,
		"time_elapsed": 615622,
		"internal_node_id": "0.0-3.0-2.270-0.270",
		"accuracy": false
	},
	{
		"rt": null,
		"stimulus": "<span style= \"font-size:30px; font-family: monospace\">+</span>",
		"response": null,
		"trial_part": "fixation",
		"trial_type": "html-keyboard-response",
		"trial_index": 333,
		"time_elapsed": 617133,
		"internal_node_id": "0.0-3.0-0.271-0.271"
	},
	{
		"rt": 4712,
		"stimulus": "<span style=\"font-size:30px; font-family: monospace\">Ganhamos</span>",
		"response": " ",
		"trial": "exp-sent",
		"word": "Ganhamos",
		"trial_type": "html-keyboard-response",
		"trial_index": 334,
		"time_elapsed": 622107,
		"internal_node_id": "0.0-3.0-1.271"
	},
	{
		"rt": 11972,
		"stimulus": "<span style=\"font-size:30px; font-family: monospace\">passagem</span>",
		"response": " ",
		"trial": "exp-sent",
		"word": "passagem",
		"trial_type": "html-keyboard-response",
		"trial_index": 335,
		"time_elapsed": 634334,
		"internal_node_id": "0.0-3.0-1.272"
	},
	{
		"rt": 784,
		"stimulus": "<span style=\"font-size:30px; font-family: monospace\">para</span>",
		"response": " ",
		"trial": "exp-sent",
		"word": "para",
		"trial_type": "html-keyboard-response",
		"trial_index": 336,
		"time_elapsed": 635385,
		"internal_node_id": "0.0-3.0-1.273"
	},
	{
		"rt": 783,
		"stimulus": "<span style=\"font-size:30px; font-family: monospace\">uma</span>",
		"response": " ",
		"trial": "exp-sent",
		"word": "uma",
		"trial_type": "html-keyboard-response",
		"trial_index": 337,
		"time_elapsed": 636437,
		"internal_node_id": "0.0-3.0-1.274"
	},
	{
		"rt": 877,
		"stimulus": "<span style=\"font-size:30px; font-family: monospace\">viagem</span>",
		"response": " ",
		"trial": "exp-sent",
		"word": "viagem",
		"trial_type": "html-keyboard-response",
		"trial_index": 338,
		"time_elapsed": 637565,
		"internal_node_id": "0.0-3.0-1.275"
	},
	{
		"rt": 584,
		"stimulus": "<span style=\"font-size:30px; font-family: monospace\">de</span>",
		"response": " ",
		"trial": "exp-sent",
		"word": "de",
		"trial_type": "html-keyboard-response",
		"trial_index": 339,
		"time_elapsed": 638404,
		"internal_node_id": "0.0-3.0-1.276"
	},
	{
		"rt": 923,
