[
	{
		"view_history": [
			{
				"page_index": 0,
				"viewing_time": 1994
			}
		],
		"rt": 1995,
		"trial_type": "instructions",
		"trial_index": 0,
		"time_elapsed": 1999,
		"internal_node_id": "0.0-0.0"
	},
	{
		"rt": 66272,
		"response": {
			"reading_habits_printed_magazines": "Raramente",
			"reading_habits_printed_newspapers": "Raramente",
			"reading_habits_books": "Todos os dias",
			"reading_habits_printed_socialmedias": "Todos os dias"
		},
		"question_order": [
			0,
			1,
			2,
			3
		],
		"trial_type": "survey-multi-choice",
		"trial_index": 1,
		"time_elapsed": 68391,
		"internal_node_id": "0.0-1.0"
	},
	{
		"rt": 55993,
		"response": {
			"reading_habits_virtual_magazines": "Alguns dias da semana",
			"reading_habits_virtual_newspapers": "Alguns dias da semana",
			"reading_habits_books": "Todos os dias",
			"reading_habits_virtual_socialmedias": "Todos os dias"
		},
		"question_order": [
			0,
			1,
			2,
			3
		],
		"trial_type": "survey-multi-choice",
		"trial_index": 2,
		"time_elapsed": 124499,
		"internal_node_id": "0.0-2.0"
	},
	{
		"rt": 40104,
		"response": {
			"reading_habits_other_which": "Bíblia",
			"reading_habits_other_frequency": "todos os dias"
		},
		"trial_type": "survey-text",
		"trial_index": 3,
		"time_elapsed": 164727,
		"internal_node_id": "0.0-3.0"
	}
]