"view_history","rt","trial_type","trial_index","time_elapsed","internal_node_id","response","question_order"
"[{""page_index"":0,""viewing_time"":4241}]","4242","instructions","0","4247","0.0-0.0","",""
"","14763","survey-text","1","19135","0.0-1.0","{""age"":""35""}",""
"","5348","survey-multi-choice","2","24605","0.0-2.0","{""sex"":""Feminino""}","[0]"
"","9982","survey-multi-choice","3","34702","0.0-3.0","{""own_schooling"":""Ensino Superior completo""}","[0]"
"","44950","survey-multi-choice","4","79766","0.0-4.0","{""mother_schooling"":""Educação infantil""}","[0]"
"","8698","survey-multi-choice","5","88579","0.0-5.0","{""father_schooling"":""Ensino Fundamental""}","[0]"
"","239247","survey-html-form","6","327941","0.0-6.0","{""language_0"":""crioulo h"",""listening_0"":""1"",""speaking_0"":""3"",""reading_0"":""6"",""writing_0"":""6"",""language_1"":""port"",""listening_1"":""29"",""speaking_1"":""30"",""reading_1"":""30"",""writing_1"":""30"",""language_2"":""fran"",""listening_2"":""9"",""speaking_2"":""9"",""reading_2"":""9"",""writing_2"":""9"",""language_3"":""ing"",""listening_3"":""13"",""speaking_3"":""13"",""reading_3"":""13"",""writing_3"":""13""}",""
"","303398","survey-html-form","7","631449","0.0-7.0","{""language_3"":""ing"",""listening_3"":""3"",""speaking_3"":""4"",""reading_3"":""2"",""writing_3"":""2"",""language_1"":""port"",""listening_1"":""5"",""speaking_1"":""4"",""reading_1"":""2"",""writing_1"":""3"",""language_2"":""fran"",""listening_2"":""2"",""speaking_2"":""1"",""reading_2"":""1,5"",""writing_2"":""2""}",""
"","5837","survey-text","8","637408","0.0-8.0","{""country_of_origin"":""Haiti""}",""
"","13223","survey-text","9","650756","0.0-9.0","{""country_of_residence"":""Brasil 2013""}",""
"","13429","survey-html-form","10","664302","0.0-10.0","{""country_0"":"""",""duration_0"":"""",""language_0"":"""",""frequency_0"":"""",""country_1"":"""",""duration_1"":"""",""language_1"":"""",""frequency_1"":"""",""country_2"":"""",""duration_2"":"""",""language_2"":"""",""frequency_2"":"""",""country_3"":"""",""duration_3"":"""",""language_3"":"""",""frequency_3"":""""}",""
"","116317","survey-html-form","11","780732","0.0-11.0","{""language_0"":""port"",""context_0"":""1, 2, 3"",""language_1"":""fran"",""context_1"":""2"",""language_2"":""ing"",""context_2"":""2"",""language_3"":""esp"",""context_3"":""2""}",""
"","316727","survey-html-form","12","1097574","0.0-12.0","{""language_0"":""cr"",""home_0"":""1"",""friends_0"":""6"",""school_0"":""6"",""work_0"":""23"",""computer_0"":""-"",""games_0"":""-"",""language_1"":""port"",""home_1"":""29"",""friends_1"":""29"",""school_1"":""31"",""work_1"":""30"",""computer_1"":""29"",""games_1"":""35"",""language_2"":""fran"",""home_2"":""6"",""friends_2"":""6"",""school_2"":""6"",""work_2"":""23"",""computer_2"":""-"",""games_2"":""-"",""language_3"":""ing"",""home_3"":""-"",""friends_3"":""13"",""school_3"":""13"",""work_3"":""-"",""computer_3"":""-"",""games_3"":""-""}",""
"","34053","survey-likert","13","1131741","0.0-13.0","{""new_languages"":4}","[0]"
"","100508","survey-html-form","14","1232361","0.0-14.0","{""language_0"":""cr"",""listen_0"":""7"",""talk_0"":""7"",""read_0"":""7"",""write_0"":""7"",""language_1"":""port"",""listen_1"":""5"",""talk_1"":""5"",""read_1"":""6"",""write_1"":""5"",""language_2"":""fran"",""listen_2"":""7"",""talk_2"":""6"",""read_2"":""7"",""write_2"":""7"",""language_3"":""ing"",""listen_3"":""5"",""talk_3"":""4"",""read_3"":""4"",""write_3"":""4""}",""
"","271463","survey-html-form","15","1503938","0.0-15.0","{""language_0"":""cr"",""tv_0"":""10"",""radio_0"":""-"",""read_fun_0"":""-"",""read_work_0"":""-"",""write_0"":""-"",""social_nets_0"":""-"",""language_1"":""port"",""tv_1"":""1"",""radio_1"":""9"",""read_fun_1"":""-"",""read_work_1"":""1"",""write_1"":""0,5"",""social_nets_1"":""8"",""language_2"":""fran"",""tv_2"":""2"",""radio_2"":""-"",""read_fun_2"":""-"",""read_work_2"":""-"",""write_2"":""-"",""social_nets_2"":""-"",""language_3"":""ing"",""tv_3"":""1"",""radio_3"":""-"",""read_fun_3"":""-"",""read_work_3"":""-"",""write_3"":""-"",""social_nets_3"":""-""}",""
"","210425","survey-html-form","16","1714477","0.0-16.0","{""language_0"":""cr"",""family_0"":""9"",""friends_0"":""2"",""work_0"":""-"",""school_0"":""5"",""language_1"":""port"",""family_1"":""10"",""friends_1"":""19"",""work_1"":""9"",""school_1"":""3"",""language_2"":""fran"",""family_2"":""2"",""friends_2"":""1"",""work_2"":""-"",""school_2"":""5"",""language_3"":""ing"",""family_3"":""0,5"",""friends_3"":""-"",""work_3"":""1"",""school_3"":""1""}",""
"","132862","survey-html-form","17","1847452","0.0-17.0","{""language_0_0"":""C, P "",""language_0_1"":""C"",""language_0_2"":""F, P"",""language_0_3"":""F, P, C"",""language_1_0"":""P"",""language_1_1"":""P"",""language_1_2"":""P"",""language_1_3"":""P, F, C"",""language_2_0"":""P"",""language_2_1"":""P"",""language_2_2"":""P"",""language_2_3"":""P"",""language_3_0"":""P"",""language_3_1"":""P"",""language_3_2"":""P"",""language_3_3"":""P""}",""
"","206684","survey-html-form","18","2054252","0.0-18.0","{""language_2"":""fran"",""think_2"":""7"",""selftalk_2"":""7"",""emotions_2"":""4"",""dream_2"":""6"",""math_2"":""6"",""remember_2"":""5"",""pray_2"":""7"",""language_1"":""port"",""think_1"":""5"",""selftalk_1"":""6"",""emotions_1"":""4"",""dream_1"":""6"",""math_1"":""7"",""remember_1"":""7"",""pray_1"":""7"",""language_3"":""ing"",""think_3"":""4"",""selftalk_3"":""3"",""emotions_3"":""4"",""dream_3"":""3"",""math_3"":""3"",""remember_3"":""4"",""pray_3"":""3""}",""
"","11811","survey-multi-choice","19","2066183","0.0-19.0","{""dificuldade_visao_ou_audicao"":""Não""}","[0]"
"","1963","survey-text","20","2068271","0.0-20.0","{""detalhes_dificuldades_audicao_ou_visao"":""""}",""
"","38068","survey-text","21","2106450","0.0-21.0","{""additional_info"":""vontade de aprender alemão""}",""
